time,linaccel_x,linaccel_y,linaccel_z,gravity_x,gravity_y,gravity_z,gyro_x,gyro_y,gyro_z,euler_x,euler_y,euler_z,quaternion_w,quaternion_y,quaternion_x,quaternion_z
0.0,-0.025454545454545462,-0.2807575757575757,0.009242424242424246,-0.02000000000000001,-9.76999999999999,-0.8125757575757575,-0.017045454545454544,0.17897727272727273,-0.030303030303030304,6.46969696969697,-0.125,94.71685606060606,0.6760364896969695,0.04382878878787872,-0.7345747543939399,-0.038367993030303006
1.0,-0.026638694638694647,-0.27994483294483286,0.012106449106449108,-0.02000000000000001,-9.769999999999989,-0.797525252525252,0.07572843822843822,-0.1281614219114219,-0.08125485625485625,6.43989898989899,-0.125,94.65561868686868,0.676548670822067,0.04359910395493391,-0.7341072994646471,-0.03819435542035739
2.0,-0.02337262737262738,-0.28182251082251064,0.017408258408258416,-0.02000000000000001,-9.76999999999999,-0.7932251082251076,0.031356143856143846,-0.03514610389610389,-0.04471361971361971,6.4028138528138525,-0.125,94.6381222943723,0.6767379332094576,0.04337841026640023,-0.7339463740562777,-0.03795908841092238
3.0,-0.022230303030303045,-0.2841325563325562,0.022975135975135987,-0.02000000000000001,-9.769999999999989,-0.7915050505050499,0.016684149184149184,-0.024093822843822846,-0.023943278943278943,6.387979797979797,-0.125,94.63112373737374,0.6768136381644139,0.04329013279098676,-0.7338820038929299,-0.0378639799250971
4.0,-0.02258786374915408,-0.2840641401609143,0.02636265884652983,-0.02000000000000001,-9.76999999999999,-0.788743138581848,0.07904071734716896,-0.003717854725919241,-0.036895631250469955,6.381280547409579,-0.125,94.61555615083839,0.676890476908339,0.04325705113211516,-0.7338228861318146,-0.037852046901721934
5.0,-0.021528535980148894,-0.2829069478908188,0.01900000000000001,-0.02000000000000001,-9.76999999999999,-0.7786848635235736,0.08919044665012407,-0.04859646401985111,-0.01745502481389578,6.376612903225806,-0.125,94.55428039702232,0.6772138008784114,0.04322503671464016,-0.7335286863821335,-0.03786993582133995
6.0,-0.022055267313331836,-0.28255573727347905,0.009281637717121592,-0.02000000000000001,-9.76999999999999,-0.7740198511166261,0.024541553876231297,-0.017310394578539737,0.03600470430107527,6.375,-0.125,94.52512406947889,0.6773630713846146,0.04321458639702229,-0.7333928959007439,-0.037883081191067
7.0,-0.019662869388675848,-0.2807493326565906,0.0010403225806451632,-0.02000000000000001,-9.76999999999999,-0.7716873449131523,0.06937375460560943,-0.0017693412098654026,0.025725677212572372,6.375,-0.125,94.5105459057072,0.6774364950471455,0.043213738198511126,-0.7333257731116618,-0.03789489417369728
8.0,-0.019811583577712615,-0.2795821030898967,0.0007643374319469665,-0.020924410207029377,-9.76999999999999,-0.7650516647531579,0.16654588252483354,0.24730173915766868,0.06784274675783614,6.441923447279731,-0.12692585459797784,94.47003583200622,0.6776664513656527,0.04364540900537014,-0.7330651144036886,-0.03831882067375282
9.0,-0.00830351779900408,-0.28080501399078367,0.0037574511129217438,-0.03078478574867599,-9.76999999999999,-0.7562493981704383,0.020872243140124994,-0.24058378839679617,0.010157670182740143,6.329501685122773,-0.18662734713529128,94.41502166586423,0.6780344659942218,0.04359443977371209,-0.7327612872845449,-0.037682551482908014
10.0,-0.004454333341189385,-0.28315394154874163,0.004630198881522907,-0.035714973519499295,-9.76999999999999,-0.7577251953631347,0.010381356526638182,-0.09658905029331125,-0.0043661963137167775,6.193938187474538,-0.2203298025999037,94.42426021258471,0.6781117798184507,0.0431322613732084,-0.7327639052080291,-0.036863625848153725
11.0,-0.010911556147410535,-0.2848340152726495,0.004633940020471598,-0.03331798231842193,-9.773066853669928,-0.7328948557460835,0.30168848416242233,-0.2989552788973463,-0.10450895135928943,6.175072179291266,-0.2030529330905082,94.2807369319118,0.6790428254982857,0.04266717398487441,-0.7319303492543183,-0.03677875592781693
12.0,0.013626462266599575,-0.28051484528254944,0.002418706982940514,-0.04708295429285152,-9.77300808121284,-0.7254197781034568,-0.19333557004214932,-0.5414153388460499,0.19589999082159598,5.628492310843789,-0.2801554988033186,94.23829473323701,0.6794469553251798,0.0401161014486584,-0.7318387596640258,-0.033567751857917674
13.0,0.024545537344180864,-0.2805872252411784,-0.005899457293315495,-0.06994975832119701,-9.771504040606414,-0.7367878861629464,-0.16723230115010693,-0.17012690389582225,0.12849284567560298,5.097391918541779,-0.40954693572809164,94.30133622073501,0.6791847510954259,0.038462706114314765,-0.7323102951329279,-0.030409204041621337
14.0,0.02594392899948572,-0.2819534585522213,-0.01016686875257975,-0.07642649206382435,-9.770752020303203,-0.7349478670102161,0.009494405515461699,-0.0026203248415076624,0.10785649746466716,5.045619105635838,-0.4589260918409356,94.3110707343444,0.6792139293921999,0.03878351828705627,-0.7322964307477344,-0.030158831249265144
15.0,0.024267249859544357,-0.280254644908865,-0.01653008450035936,-0.07885840732223477,-9.770376010151598,-0.7435905588152816,-0.06676334314797634,0.029753733360883876,0.018490903819182218,5.050244416341493,-0.4834953039849839,94.35496154583225,0.6789256466216581,0.03905840719067455,-0.7325447730835446,-0.030165730701555635
16.0,0.02617990823973011,-0.28057188023419366,-0.005209451277337652,-0.08022630511039278,-9.770092165898607,-0.7474404406979633,-0.019169157229987153,0.0505668662554345,-0.02425575936160614,5.070879571424603,-0.49684641309581123,94.40089124509939,0.6787046669012919,0.03919831723722601,-0.7327556158147974,-0.030178424294209312
17.0,0.029628496222923288,-0.28230088216429694,0.007326848163872723,-0.080442645642754,-9.76999999999999,-0.74921100375912,-0.006216072121487083,-0.030413222367325334,0.01139057095458305,5.061814855534951,-0.5008425613866153,94.41169841545572,0.6785960955727657,0.039221878036571386,-0.7328508750433438,-0.03015300709613413
18.0,0.030151087487781045,-0.28328473240469204,0.016669016467403572,-0.0800504032258065,-9.76999999999999,-0.7496295750620346,-0.057607406454432665,0.1987778245779758,0.017094168851981353,5.130225971525115,-0.5,94.41978734890782,0.6785343223582507,0.039601368784849905,-0.7328612337275899,-0.030572675493291332
19.0,0.029566471163245372,-0.2826378299120234,0.015733701782088882,-0.08000000000000004,-9.76999999999999,-0.7500794044665012,-0.020565926009474395,0.07599866531318146,0.01577679712760358,5.193625460560945,-0.5,94.43050229340551,0.6784884864714642,0.03995906594736448,-0.7328642060397019,-0.030960869820738424
20.0,0.024984561458442068,-0.28295648393493833,0.012920774819787824,-0.08115551275878673,-9.76999999999999,-0.75,0.07091032613270216,-0.3351646242338948,0.011893805770942265,5.146933559138663,-0.5,94.42497671242255,0.6784995777263807,0.03969702748703359,-0.7328787303634684,-0.030680206416424542
21.0,0.02898816940727291,-0.28237195135738336,0.013573261885197231,-0.08262709224277098,-9.76999999999999,-0.75,0.06460817324402919,0.2964427223836564,0.037452962054006576,5.119837747311267,-0.4852941176470588,94.41748124046174,0.678505830087099,0.039540169768184724,-0.7328865692045043,-0.030509134640849832
22.0,0.03198370798358232,-0.283665823787572,0.008143763057795246,-0.08131354612138553,-9.76999999999999,-0.75,0.08861259666036334,0.020815870177466195,0.009808517270329855,5.201961038480055,-0.48669172383593634,94.42784191544104,0.6784814532098028,0.03994032921697453,-0.7328644370588278,-0.030945415305611765
23.0,0.030363173572547433,-0.2782993760988153,0.004057548726408826,-0.08296779857826617,-9.76999999999999,-0.7543909484833902,-0.1099199340315827,-0.2505976758145667,0.02955265128728892,5.0826580497018625,-0.49334586191796814,94.44489365317625,0.6784004745497921,0.03930659756963685,-0.733005977874327,-0.030253483473923634
24.0,0.02988161004930102,-0.28046680188315454,0.006012916732931459,-0.08664518961171369,-9.76999999999999,-0.7761756231250696,-0.06672088125276406,-0.05615094321125359,0.016493670169078704,4.893376171252916,-0.49667293095898407,94.55831841467744,0.6776804940093871,0.0383186677178209,-0.7337877954880323,-0.029111197518599544
25.0,0.028665592995466414,-0.2821679589209113,0.017549438256099455,-0.08844777535472537,-9.76999999999999,-0.783732972852857,-0.06014555969604611,-0.007015834925503835,0.0379332355882244,4.816045933483945,-0.49833646547949206,94.59498431566804,0.6774428391159113,0.037834019564254695,-0.7340738429871557,-0.028556230966810613
26.0,0.0293683752453613,-0.2835555164623531,0.024678419317803055,-0.08932113625421273,-9.76999999999999,-0.7875116477167508,-0.022438173586163478,-0.0014028415614236456,-0.0031515036480130355,4.777478611903263,-0.4996277915632754,94.61344626124958,0.6773240373876518,0.03759250767349357,-0.7342167895533507,-0.028279689385207973
27.0,0.030240018888189342,-0.28344525202770254,0.0284856116440132,-0.08982185844968699,-9.76999999999999,-0.7894009851486976,-0.011979012351394392,0.005827735546831601,0.004131444205770157,4.755240546646421,-0.5,94.62224732417317,0.6772654959940737,0.037456911906225694,-0.7342890769478917,-0.02812523954372062
28.0,0.03110700992555833,-0.2840083746898262,0.02963399503722086,-0.08999999999999991,-9.76999999999999,-0.7902084367245651,0.009469990694789081,-0.007791175558312656,-0.0002287531017369721,4.749069478908188,-0.5,94.6262717121588,0.6772383962878407,0.037414822655086846,-0.7343204725062045,-0.028076079131513665
29.0,0.030482785359801506,-0.28470393920595527,0.02871774193548389,-0.08999999999999991,-9.76999999999999,-0.7899999999999994,0.012652178970223325,-0.02821320564516129,-0.00672883064516129,4.75,-0.5,94.625,0.6772460899999995,0.03741455,-0.7343139600000009,-0.028076170000000015
30.0,0.029318315756823837,-0.28535445099255574,0.028012717121588107,-0.08999999999999991,-9.76999999999999,-0.7899999999999994,0.010110208591811415,-0.003312558157568238,0.006289741004962779,4.75,-0.5,94.625,0.6772460899999995,0.03741455,-0.7343139600000009,-0.028076170000000015
31.0,0.02973604218362285,-0.2840283808933002,0.025571805210918133,-0.08999999999999991,-9.76999999999999,-0.7899999999999994,0.021660786290322583,-0.01557556606699752,0.013731971153846154,4.75,-0.5,94.625,0.6772460899999995,0.03741455,-0.7343139600000009,-0.028076170000000015
32.0,0.030086383374689846,-0.2847387562034739,0.027207738833746914,-0.08999999999999991,-9.76999999999999,-0.7899999999999994,0.02965793656947891,-0.01977599643300248,0.02505767292183623,4.75,-0.5,94.625,0.6772460899999995,0.03741455,-0.7343139600000009,-0.028076170000000015
33.0,0.03065811104218364,-0.28576907568238197,0.02683219602977669,-0.08999999999999991,-9.76999999999999,-0.7899999999999994,0.01802642292183623,-0.023418114143920594,0.022656734646401985,4.75,-0.5,94.625,0.6772460899999995,0.03741455,-0.7343139600000009,-0.028076170000000015
34.0,0.030966811414392073,-0.286133839950372,0.025920517990074457,-0.08999999999999991,-9.76999999999999,-0.7899999999999994,0.01076205800248139,-0.012008568548387097,0.011036852512406947,4.75,-0.5,94.625,0.6772460899999995,0.03741455,-0.7343139600000009,-0.028076170000000015
35.0,0.030755583126550884,-0.2857130893300247,0.026067617866004977,-0.08999999999999991,-9.76999999999999,-0.7899999999999994,0.019903458436724565,-0.002318548387096774,-0.0069091191066997515,4.75,-0.5,94.625,0.6772460899999995,0.03741455,-0.7343139600000009,-0.028076170000000015
36.0,0.03166563275434245,-0.2844247828784118,0.02604373449131515,-0.08999999999999991,-9.76999999999999,-0.7899999999999994,0.04269056296526054,0.006819944168734491,-0.015357475186104218,4.75,-0.5,94.625,0.6772460899999995,0.03741455,-0.7343139600000009,-0.028076170000000015
37.0,0.03146060794044667,-0.2852223169975185,0.028277450372208454,-0.08999999999999991,-9.76999999999999,-0.7899999999999994,0.02671128644540943,0.019166795905707197,-0.008748836848635234,4.75,-0.5,94.625,0.6772460899999995,0.03741455,-0.7343139600000009,-0.028076170000000015
38.0,0.03135530397022335,-0.28459956575682366,0.02524255583126552,-0.08999999999999991,-9.76999999999999,-0.7899999999999994,0.012741353908188586,0.01254458746898263,-0.012753954714640197,4.75,-0.5,94.625,0.6772460899999995,0.03741455,-0.7343139600000009,-0.028076170000000015
39.0,0.03176946339950373,-0.2864834057071958,0.026509615384615402,-0.08999999999999991,-9.76999999999999,-0.7899999999999994,0.014745366780397024,0.0221842044044665,-0.007850302419354839,4.75,-0.5,94.625,0.6772460899999995,0.03741455,-0.7343139600000009,-0.028076170000000015
40.0,0.032893300248138975,-0.2866237593052108,0.023799162531017385,-0.08999999999999991,-9.76999999999999,-0.7899999999999994,0.021028807382133995,0.015502384460297766,0.010565776209677418,4.75,-0.5,94.625,0.6772460899999995,0.03741455,-0.7343139600000009,-0.028076170000000015
41.0,0.03355024813895783,-0.2861994416873448,0.01592788461538462,-0.08999999999999991,-9.76999999999999,-0.7899999999999994,0.01493389423076923,0.009003760856079405,-0.008746898263027297,4.75,-0.5,94.625,0.6772460899999995,0.03741455,-0.7343139600000009,-0.028076170000000015
42.0,0.033852047146402,-0.28542230148883363,0.01352101426799008,-0.08999999999999991,-9.76999999999999,-0.7899999999999994,0.028450197735732007,-0.011099856544665013,-0.01544665012406948,4.75,-0.5,94.625,0.6772460899999995,0.03741455,-0.7343139600000009,-0.028076170000000015
43.0,0.03335747518610423,-0.28651659429280385,0.012448511166253106,-0.08999999999999991,-9.76999999999999,-0.7899999999999994,-0.00642447270471464,-0.0010923929900744428,-0.014527760545905707,4.75,-0.5,94.625,0.6772460899999995,0.03741455,-0.7343139600000009,-0.028076170000000015
44.0,0.03486980459057072,-0.28610817307692293,0.01593889578163772,-0.08999999999999991,-9.76999999999999,-0.7899999999999994,-0.029181529156327542,-0.021707796991315136,0.0079036135235732,4.75,-0.5,94.625,0.6772460899999995,0.03741455,-0.7343139600000009,-0.028076170000000015
45.0,0.03268951612903227,-0.285089640198511,0.023110576923076935,-0.08999999999999991,-9.76999999999999,-0.7899999999999994,-0.035379187344913146,-0.02340260545905707,0.03130234181141439,4.75,-0.5,94.625,0.6772456053945404,0.03741455,-0.7343139600000009,-0.028076170000000015
46.0,0.032151209677419364,-0.2849145471464018,0.019992013027295297,-0.08999999999999991,-9.76999999999999,-0.7950818858560786,-0.05210336538461539,0.03192462779156327,-0.011690640508684864,4.718238213399504,-0.5,94.65626550868487,0.6770616826153848,0.03741455,-0.7344666258858563,-0.028076170000000015
47.0,0.03207510880696366,-0.28369247262594016,0.023406584790657388,-0.08999999999999991,-9.76999999999999,-0.7977022332506196,-0.04156217536383867,-0.027599974090649494,-0.004474732536728504,4.701861042183623,-0.5,94.67289081885855,0.6769648746947894,0.03741455,-0.7345478052009924,-0.028076170000000015
48.0,0.03232161476516317,-0.2844623164693728,0.02144585410109605,-0.08999999999999991,-9.76999999999999,-0.7990124069478899,-0.01329267660542862,-0.03055953692924459,-0.017168367306976177,4.693672456575683,-0.5,94.6812034739454,0.6769164707344918,0.03741454999999999,-0.7345883948585605,-0.028076170000000015
49.0,0.033721291253549335,-0.284799202589525,0.019356999631193195,-0.08999999999999991,-9.76999999999999,-0.7996674937965251,0.01129405988276956,-0.01917026745655778,-0.002504294540584864,4.689578163771712,-0.5,94.68535980148883,0.676892268754343,0.03741455,-0.7346086896873445,-0.028076170000000015
50.0,0.03289910716523621,-0.28531647474389393,0.021533338525274025,-0.08999999999999991,-9.76999999999999,-0.7999950372208429,-0.017910662366307527,-0.0006288682195940264,0.013000334119285733,4.687531017369727,-0.5,94.68743796526053,0.6768801829081892,0.03741455,-0.7346188371017366,-0.028076170000000015
51.0,0.03372498782579429,-0.2854398750890685,0.022171135763877713,-0.08999999999999991,-9.76999999999999,-0.7999999999999992,-0.031706571877942846,-0.012597312521707683,0.01679793380902252,4.6875,-0.5,94.6875,0.6768798800000007,0.03741455,-0.7346191399999996,-0.028076170000000015
52.0,0.03341730111286564,-0.2871256250469959,0.023921126588465312,-0.08999999999999991,-9.76999999999999,-0.7999999999999992,0.0014841928904428918,-0.002937456528686367,0.026232969819159336,4.6875,-0.5,94.6875,0.6768798800000007,0.03741455,-0.7346191399999996,-0.028076170000000015
53.0,0.03384452543424318,-0.28654179590570705,0.028101814516129052,-0.08999999999999991,-9.76999999999999,-0.7999999999999992,-0.03172979993796526,-0.003469583591811414,0.00653351814516129,4.6875,-0.5,94.6875,0.6768798800000007,0.03741455,-0.7346191399999996,-0.028076170000000015
54.0,0.03498425868486353,-0.2856877326302728,0.02917439516129034,-0.08999999999999991,-9.76999999999999,-0.7999999999999992,0.010313275434243176,-0.002097064981389578,0.010118447580645161,4.6875,-0.5,94.6875,0.6768798800000007,0.03741455,-0.7346191399999996,-0.028076170000000015
55.0,0.03396805210918115,-0.28608560794044646,0.028970843672456593,-0.08999999999999991,-9.76999999999999,-0.7999999999999992,-0.004012872208436723,0.005631591191066997,-0.00533886476426799,4.6875,-0.5,94.6875,0.6768798800000007,0.03741455,-0.7346191399999996,-0.028076170000000015
56.0,0.033041098014888345,-0.28553411910669957,0.029443238213399524,-0.08999999999999991,-9.76999999999999,-0.7999999999999992,-0.018399116004962777,0.00013279311414392085,-0.0049802264267990075,4.6875,-0.5,94.6875,0.6768798800000007,0.03741455,-0.7346191399999996,-0.028076170000000015
57.0,0.03405156637717123,-0.2848861662531016,0.022129807692307706,-0.08999999999999991,-9.76999999999999,-0.7999999999999992,0.03513201767990075,-0.01108434785980149,-0.01111294199751861,4.6875,-0.5,94.6875,0.6768798800000007,0.03741455,-0.7346191399999996,-0.028076170000000015
58.0,0.033069401364764286,-0.28306195719602956,0.02182622518610423,-0.08999999999999991,-9.76999999999999,-0.7999999999999992,0.02899590958436725,0.003469583591811414,0.0040933235111662546,4.6875,-0.5,94.6875,0.6768798800000007,0.03741455,-0.7346191399999996,-0.028076170000000015
59.0,0.03304931761786602,-0.2839528535980148,0.01930272952853599,-0.08999999999999991,-9.76999999999999,-0.7999999999999992,0.017695409429280398,0.004270704094292804,0.0003140508684863529,4.6875,-0.5,94.6875,0.6768798800000007,0.03741455,-0.7346191399999996,-0.028076170000000015
60.0,0.03373557692307694,-0.2846947890818858,0.014834987593052117,-0.08999999999999991,-9.76999999999999,-0.7999999999999992,-0.003946960297766748,0.0019182304590570718,0.0034913926799007445,4.6875,-0.5,94.6875,0.6768798800000007,0.03741455,-0.7346191399999996,-0.028076170000000015
61.0,0.0335,-0.2843312655086847,0.01281459367245658,-0.08999999999999991,-9.76999999999999,-0.7999999999999992,0.020398282413151364,-0.014330994106699753,0.00677147952853598,4.6875,-0.5,94.6875,0.6768798800000007,0.03741455,-0.7346191399999996,-0.028076170000000015
62.0,0.03190756823821341,-0.28352434863523557,0.00854497518610422,-0.08999999999999991,-9.76999999999999,-0.7999999999999992,-0.018497983870967738,0.00459541718362283,0.00611914547146402,4.6875,-0.5,94.6875,0.6768798800000007,0.03741455,-0.7346191399999996,-0.028076170000000015
63.0,0.032854528535980164,-0.2832720998759303,-3.148263027295296e-05,-0.08999999999999991,-9.76999999999999,-0.7999999999999992,-0.017135158188585606,0.02923629419975186,-0.0032834793734491316,4.6875,-0.5,94.6875,0.6768798800000007,0.03741455,-0.7346191399999996,-0.028076170000000015
64.0,0.031699441687344926,-0.28171921526054566,-0.003034894540942929,-0.08999999999999991,-9.76999999999999,-0.7999999999999992,-0.04548794199751861,0.013027295285359801,0.024615190756823817,4.6875,-0.5,94.6875,0.6768798800000007,0.03741455,-0.7346191399999996,-0.028076170000000015
65.0,0.03171757274983082,-0.2818662211444468,-0.005603926986991504,-0.08999999999999991,-9.76999999999999,-0.799999999999999,-0.05263747509211219,0.026063989773667192,0.02443205316189187,4.6875,-0.5,94.6875,0.6768798800000007,0.03741454999999999,-0.7346191399999996,-0.028076170000000015
66.0,0.030242161064741722,-0.2823202073464169,-0.0009694572900218064,-0.08999999999999991,-9.76999999999999,-0.7999999999999992,-0.04716241000263177,0.01048857056921573,0.018109326829084893,4.6875,-0.5,94.6875,0.6768798800000007,0.03741455,-0.7346191399999996,-0.028076170000000015
67.0,0.028049120234604118,-0.2831005503233325,-0.002226664128881871,-0.08999999999999991,-9.76999999999999,-0.7999999999999992,-0.013298946936799758,-0.0035491390330100025,0.0015329512557335128,4.6875,-0.5,94.6875,0.6768798800000007,0.03741455,-0.7346191399999996,-0.028076170000000015
68.0,0.027693604782314477,-0.28269345909466864,-0.004007213888262275,-0.08999999999999991,-9.76999999999999,-0.7999999999999992,0.0313039132406572,-0.019002295167869762,-0.009466348503646893,4.6875,-0.5,94.6875,0.6768798800000007,0.03741455,-0.7346191399999996,-0.028076170000000015
69.0,0.026659302391157248,-0.28319652793443106,0.0005820785397398294,-0.08999999999999991,-9.76999999999999,-0.7999999999999992,0.009241296338070533,-0.02558292681780585,-0.008576420219565381,4.6875,-0.5,94.6875,0.6768798800000007,0.03741455,-0.7346191399999996,-0.028076170000000015
70.0,0.027413228908188605,-0.28341888957816375,0.0013003256823821338,-0.08999999999999991,-9.76999999999999,-0.7999999999999992,0.0191764888337469,-0.02096289547146402,-0.007190214019851116,4.6875,-0.5,94.6875,0.6768798800000007,0.03741455,-0.7346191399999996,-0.028076170000000015
71.0,0.028401674937965277,-0.28416408188585596,0.0034903846153846157,-0.08999999999999991,-9.76999999999999,-0.7999999999999992,0.02886747828784119,-0.009378877171215882,0.009824751861042183,4.6875,-0.5,94.6875,0.6768798800000007,0.03741455,-0.7346191399999996,-0.028076170000000015
72.0,0.028405138544251467,-0.2828802212572372,0.0042215439130761714,-0.08999999999999991,-9.76999999999999,-0.799999999999999,-0.005411267999473644,0.0019280702496428295,0.016386452928791637,4.6875,-0.5,94.6875,0.6768798800000007,0.03741454999999999,-0.7346191399999996,-0.028076170000000015
73.0,0.0289145705325141,-0.28328717037890405,0.0017954385444304802,-0.08999999999999991,-9.76999999999999,-0.7999999999999992,0.06524012991376901,0.015812739288041704,0.005446712225946096,4.6875,-0.5,94.6875,0.6768798800000007,0.03741455,-0.7346191399999996,-0.028076170000000015
74.0,0.029048902822088326,-0.2837295420753081,0.006536715860304572,-0.08999999999999991,-9.76999999999999,-0.7999999999999992,0.013997769283807582,0.01089179148024914,-0.01256675322325524,4.6875,-0.5,94.6875,0.6768798800000007,0.03741455,-0.7346191399999996,-0.028076170000000015
75.0,0.028996341919729034,-0.283633110057505,0.0037964674214674226,-0.08999999999999991,-9.76999999999999,-0.7999999999999992,-0.0395802387296843,0.00766727252362333,-0.02109295904028767,4.6875,-0.5,94.6875,0.6768798800000007,0.03741455,-0.7346191399999996,-0.028076170000000015
76.0,0.03168567095986452,-0.2829481074481073,0.004226862742991775,-0.08999999999999991,-9.76999999999999,-0.7999999999999992,0.020957738498061075,-0.0012381883349625285,0.00011695293953358464,4.6875,-0.5,94.6875,0.6768798800000007,0.03741455,-0.7346156947580642,-0.028076170000000015
77.0,0.03256326558745915,-0.2845116881326558,0.008005415731222185,-0.08999999999999991,-9.76999999999999,-0.7999999999999992,-0.010583569656150302,-0.013922491039426521,0.00928379416282642,4.6875,-0.5,94.6875,0.6768798800000007,0.03741455,-0.734585918024194,-0.028076170000000015
78.0,0.033356389578163795,-0.2825145781637716,0.012591191066997522,-0.08999999999999991,-9.76999999999999,-0.8003176178660042,0.015376861042183625,0.1067346464019851,-0.008165322580645161,4.702388337468983,-0.5,94.68898883374689,0.6768634021439212,0.037477554267990085,-0.7345845996423704,-0.028140143558312666
79.0,0.027939417437401325,-0.2855695682006165,0.02410325024437928,-0.08491691104594329,-9.76999999999999,-0.8086045567335883,0.015609138845025943,0.45895937899466127,0.025234862583652904,4.975980336867433,-0.4868035190615836,94.73418772088127,0.6764506614434167,0.038905168693134824,-0.7348462499580376,-0.029647937815324474
80.0,0.022760759961364813,-0.2861685723550642,0.030877061334722622,-0.07902015547176836,-9.76999999999999,-0.8146248590119556,-0.013282564769459927,0.2985420787210102,0.02946774048084532,5.336092446979544,-0.46114369501466274,94.77535998947289,0.676069231725293,0.040893034072629855,-0.7350147147639647,-0.03178324206946458
81.0,0.018133675576215907,-0.28487278648770575,0.037754985382001505,-0.07418749709072288,-9.76999999999999,-0.8176350101511392,-0.02331748043063567,0.1087337603592644,0.019846405134963604,5.527925255747837,-0.4483137829912023,94.79594612376872,0.6758760165078082,0.041957472036314905,-0.7351005550457925,-0.03292239764763551
82.0,0.01869381514542806,-0.2836905030453416,0.04052722904335808,-0.07177116790020013,-9.76999999999999,-0.8191400857207309,-0.009988891037278133,0.03591784559526495,0.013097878823685277,5.623841660131983,-0.44189882697947214,94.80623919091661,0.6757794088990658,0.04248969101815744,-0.7351443518777345,-0.03349197543672097
83.0,0.01895725063467,-0.2836376813151005,0.038428804170739655,-0.07056300330493877,-9.76999999999999,-0.8198826979472142,-0.01902069704489059,0.027704777301551495,0.0023438702874186744,5.671334601778151,-0.43869134897360706,94.81133919843597,0.675731620027697,0.04275383162570401,-0.7351658262316709,-0.03377476515756643
84.0,0.019672850447044005,-0.28509638032218665,0.03715357044389302,-0.07011776753712236,-9.76999999999999,-0.8200000000000002,-0.02810173697270471,0.010604494072236008,-0.0012180471857891214,5.686763952892985,-0.4375,94.8125,0.6757203662724023,0.04284227342037887,-0.7351683662365585,-0.03387004103430617
85.0,0.01867864035605972,-0.28601386427192865,0.03775965969514357,-0.06999999999999998,-9.76999999999999,-0.8200000000000002,0.00253406987277955,0.014060222931190674,0.003345444877702942,5.6875,-0.4375,94.8125,0.6757202100000008,0.04284667999999996,-0.7351684599999994,-0.03387450999999998
86.0,0.018560163850486443,-0.2856496120367087,0.03549025168380007,-0.06999999999999998,-9.76999999999999,-0.8200000000000002,-0.010659143723659854,0.005324156130607743,0.0015021269053527117,5.6875,-0.4375,94.8125,0.6757202100000008,0.04284667999999996,-0.7351684599999994,-0.03387450999999998
87.0,0.01879349324510616,-0.2857319311512858,0.03164543700027572,-0.06999999999999998,-9.76999999999999,-0.8200000000000002,0.005904131710583321,0.011955965181771631,-0.002941726732049312,5.6875,-0.4375,94.8125,0.6757202100000008,0.04284667999999996,-0.7351684599999994,-0.03387450999999998
88.0,0.020037102682263983,-0.28519177596596934,0.032874473197053854,-0.06999999999999998,-9.76999999999999,-0.8200000000000002,-0.020949525385009257,0.019954015518531647,-0.010756134546457128,5.6875,-0.4375,94.8125,0.6757202100000008,0.04284667999999996,-0.7351684599999994,-0.03387450999999998
89.0,0.01842301784237269,-0.28606238922367944,0.034360313521603854,-0.06999999999999998,-9.76999999999999,-0.8200000000000002,-0.0024567726180629414,0.0012456181811020522,0.0036014612627515846,5.6875,-0.4375,94.8125,0.6757202100000008,0.04284667999999996,-0.7351684599999994,-0.03387450999999998
90.0,0.017716471700342677,-0.28646791917759645,0.035513903659064955,-0.06999999999999998,-9.76999999999999,-0.8211290322580644,-0.031966599708535194,-0.0017345110087045573,-0.012955783016266886,5.6875,-0.4375,94.8125,0.6757133195161293,0.04284667999999996,-0.7351684599999994,-0.03387450999999998
91.0,0.01880488597424082,-0.28597217298830196,0.03592568632084762,-0.06999999999999998,-9.76999999999999,-0.8257258064516123,0.002549578557643071,-0.0012782356532356535,-0.010006117314585056,5.6875,-0.4375,94.8125,0.6756852654032255,0.04284667999999996,-0.7351684599999994,-0.03387450999999998
92.0,0.01910018610421837,-0.286387717121588,0.03815229528535981,-0.06999999999999998,-9.76999999999999,-0.8280241935483862,0.00886321339950372,-0.007362748138957816,0.005530784739454096,5.6875,-0.4375,94.8125,0.6756712383467738,0.04284667999999996,-0.7351684599999994,-0.03387450999999998
93.0,0.01857738833746899,-0.28478691066997514,0.03416795905707197,-0.06999999999999998,-9.76999999999999,-0.8291733870967731,0.0012213089330024808,-0.014056684243176179,0.016459561104218364,5.6875,-0.4375,94.8125,0.6756642248185478,0.04284667999999996,-0.7351684599999994,-0.03387450999999998
94.0,0.017617891852770892,-0.2839202976682814,0.03715097704714641,-0.06999999999999998,-9.76999999999999,-0.8297479838709666,-0.012934827828981053,-0.02007754650143763,0.02791990225835992,5.6875,-0.4375,94.8125,0.6756607180544347,0.04284667999999996,-0.7351684599999994,-0.03387450999999998
95.0,0.017427548593879245,-0.2845490135984087,0.035214019851116635,-0.06999999999999998,-9.76999999999999,-0.8299999999999988,-0.02189952464650045,-0.019405049615483082,0.009950229122356137,5.6875,-0.4375,94.8125,0.6756591799999994,0.04284667999999996,-0.7351684599999994,-0.03387450999999998
96.0,0.018239867659222506,-0.2851242664145889,0.030918114143920608,-0.06999999999999998,-9.76999999999999,-0.8299999999999988,0.008830595927370122,-0.012168163377840796,0.02543276615857261,5.6875,-0.4375,94.8125,0.6756591799999994,0.04284667999999996,-0.7351684599999994,-0.03387450999999998
97.0,0.01767824648469811,-0.28438843593682295,0.03360421836228289,-0.06999999999999998,-9.76999999999999,-0.8299999999999988,-0.03111509905864744,-0.013442952656662335,0.030535861987474888,5.6875,-0.4375,94.8125,0.6756591799999994,0.04284667999999996,-0.7351684599999994,-0.03387450999999998
98.0,0.018223738626964442,-0.2858517862066249,0.03026488833746899,-0.06999999999999998,-9.76999999999999,-0.8281451612903218,0.0667237780141006,-0.019012109082673596,0.01585726101855134,5.6875,-0.4375,94.8109879032258,0.6757034796774195,0.04284569548387093,-0.7351340040322583,-0.03387450999999998
99.0,0.019562655086848645,-0.28319230769230763,0.02806544665012408,-0.06999999999999998,-9.76999999999999,-0.8187499999999999,0.0635545905707196,-0.005616082506203474,0.011274813895781636,5.6875,-0.4375,94.77948588709677,0.6759963491935482,0.04281468322580642,-0.7348992165322581,-0.03387450999999998
100.0,0.019746588089330035,-0.28349689826302726,0.026834212158808945,-0.06999999999999998,-9.76999999999999,-0.8140524193548391,0.061569478908188584,0.008901015818858563,0.022154156327543424,5.6875,-0.4375,94.76373487903226,0.6761427839516125,0.042799177096774166,-0.734781822782258,-0.03387450999999998
101.0,0.013517214640198519,-0.28189857320099254,0.0279022177419355,-0.07040322580645159,-9.76999999999999,-0.8092036290322575,0.10676178660049628,-0.07510904544044665,0.007417028535980149,5.684475806451612,-0.4375,94.73922631048387,0.6762819587499994,0.04276484459677417,-0.7346448621169355,-0.033858267741935476
102.0,0.033098901098901116,-0.2816261299184686,0.0310597638248848,-0.07071774193548383,-9.770516129032249,-0.7956386808755758,0.2789074269984048,-0.6488389949264445,-0.28303363722970576,5.201195276497696,-0.42137096774193544,94.65927329349078,0.6769156299464283,0.03943864657488477,-0.7343432243764403,-0.030983055119815653
103.0,0.00630395719081678,-0.2825946707467106,0.017522736513960427,-0.03939112903225805,-9.772003795066404,-0.762554723502304,-0.10931863440165149,-0.4056196501553475,-0.10075135668411284,4.958104753998374,-0.23588709677419353,94.46411226789101,0.6782201524489015,0.03543295447102872,-0.7333926015937581,-0.029561637512469492
104.0,-0.011618492868611467,-0.2819325711053652,0.000917695800404527,-0.023727822580645156,-9.771001897533196,-0.7584547811059905,-0.1689970963571533,-0.25029741812978296,-0.047979586530642035,4.823810441515316,-0.14314516129032256,94.43366903717131,0.6784118943696118,0.03348028247744982,-0.733339407571072,-0.028811521256234766
105.0,-0.018406960548148887,-0.2821554727096116,-0.006996148716084678,-0.01589616935483871,-9.770500948766593,-0.758420938940092,-0.09861004152394096,-0.1426119581813664,-0.05382709306229823,4.739526188499593,-0.0967741935483871,94.430544196005,0.6784117831525476,0.032431098012918436,-0.7334112544306967,-0.028350324015214166
106.0,-0.02230839535227582,-0.28177398818765037,-0.005919338409850748,-0.011967741935483875,-9.770250474383293,-0.7584821428571427,-0.032637590410064324,-0.06050842441082004,-0.01851014507709242,4.69747856804012,-0.07358870967741934,94.429501558688,0.6784096663746606,0.03190733638801162,-0.7334496236039566,-0.02812023296526838
107.0,-0.028184506077414066,-0.2807051436861683,-0.007879910254198682,-0.010000000000000005,-9.770109108159383,-0.7588608870967739,-0.01241392990903783,-0.030002749957980034,0.01755390477446336,4.6915100213472485,-0.0625,94.43109582542695,0.6783909803670535,0.03174886281842974,-0.7334760943595813,-0.028094784049454476
108.0,-0.0291065940108279,-0.2809285096623805,-0.006556799383412288,-0.010000000000000005,-9.76999999999999,-0.7598739919354838,-0.01340139824892849,-0.016918065973005488,0.007502047263892022,4.688571068548388,-0.0625,94.4367439516129,0.678350728886088,0.03174283302923382,-0.7335143572580634,-0.02808155369455647
109.0,-0.02786562899466127,-0.2806786976464395,-0.003124746221520416,-0.010000000000000005,-9.76999999999999,-0.7599999999999998,0.0017308632227987066,0.010616869689450333,-0.012945522219715767,4.6875,-0.0625,94.4375,0.6783447299999994,0.03173827999999995,-0.7335205099999988,-0.028076170000000015
110.0,-0.027206707271223415,-0.28093548387096756,8.684863523573147e-05,-0.010000000000000005,-9.76999999999999,-0.7599999999999998,-0.015099349575156025,0.03016063237837431,-0.019452120460184977,4.6875,-0.0625,94.4375,0.6783447299999994,0.03173827999999995,-0.7335205099999988,-0.028076170000000015
111.0,-0.02701406120760961,-0.28354252199413477,0.001851417399804496,-0.010000000000000005,-9.76999999999999,-0.7599999999999998,-0.01360440634634183,0.0073764944732686655,-0.02537032859613505,4.6875,-0.0625,94.4375,0.6783447299999994,0.03173827999999995,-0.7335205099999988,-0.028076170000000015
112.0,-0.027293631100082726,-0.2820144371757274,0.004238363786750882,-0.010000000000000005,-9.76999999999999,-0.7599999999999998,-0.047838183322054285,-0.006144258966839613,-0.03656853898789382,4.6875,-0.0625,94.4375,0.6783447299999994,0.03173827999999995,-0.7335205099999988,-0.028076170000000015
113.0,-0.028095947063689015,-0.28106677193773955,0.0014045416948642747,-0.010000000000000005,-9.76999999999999,-0.7599999999999998,-0.017002218211895632,-0.0550417324610873,-0.03218005113166403,4.685514888337469,-0.0625,94.4375,0.6783486068436717,0.03171986372208433,-0.7335205099999988,-0.028054845771712168
114.0,-0.027037220843672473,-0.2820347394540942,0.002451612903225805,-0.010000000000000005,-9.76999999999999,-0.7599999999999998,-0.027016129032258064,-0.06380272952853598,-0.01705955334987593,4.654249379652606,-0.0625,94.4375,0.6783781677766743,0.03154006024813893,-0.7335205099999988,-0.02787649627295284
115.0,-0.027793668696894522,-0.2826397473494246,-0.0001482818257011818,-0.010000000000000005,-9.76999999999999,-0.7599999999999998,0.01779551094067223,-0.011155913978494626,-0.024713324310098504,4.638616625310174,-0.0625,94.4375,0.6783929482431754,0.03145015851116623,-0.7335205099999988,-0.02778732152357318
116.0,-0.027916685465072578,-0.2813819084141663,-0.002907887811113618,-0.010000000000000005,-9.76999999999999,-0.7599999999999998,0.008075795172569367,-0.030655500413564928,-0.014853560418076546,4.630800248138957,-0.0625,94.4375,0.6784003384764261,0.03140520764267988,-0.7335205099999988,-0.027742734148883348
117.0,-0.030403188209639838,-0.28076171140687256,-0.003742837807353937,-0.010000000000000005,-9.76999999999999,-0.7599999999999998,-6.673434092788894e-05,-0.025265997443416795,-0.0018102864877058422,4.6268920595533505,-0.0625,94.4375,0.6784040335930515,0.03138273220843671,-0.7335205099999988,-0.027720440461538435
118.0,-0.030933604030378245,-0.28141063237837416,-0.006134446198962328,-0.010000000000000005,-9.76999999999999,-0.7599999999999998,0.025075193623580717,0.009342807729904503,-0.008411346717798331,4.625,-0.0625,94.4375,0.6784057599999993,0.03137206999999998,-0.7335205099999988,-0.02770995999999997
119.0,-0.030293104744717667,-0.28280209038273535,-0.0025659824046920824,-0.010000000000000005,-9.76999999999999,-0.7599999999999998,0.018074197308068272,0.0033066395969621777,0.009736634333408527,4.625,-0.0625,94.4375,0.6784057599999993,0.03137206999999998,-0.7335205099999988,-0.02770995999999997
120.0,-0.0304092036995263,-0.2824613880742911,-0.0029883449883449887,-0.010000000000000005,-9.76999999999999,-0.7599999999999998,0.015519023986765922,0.0034626663658921726,0.014320625610948191,4.625,-0.0625,94.4375,0.6784057599999993,0.031372069999999974,-0.7335205099999988,-0.02770995999999997
121.0,-0.030872095646289212,-0.28106692232498665,-0.004345289119482667,-0.010000000000000005,-9.76999999999999,-0.7599999999999998,0.0018351943755169561,-0.0004553913828107374,0.0032831415895932022,4.625,-0.0625,94.4375,0.6784057599999993,0.031372069999999974,-0.7335205099999988,-0.02770995999999997
122.0,-0.031565080081209125,-0.2812348296864424,-0.005075870366192947,-0.010000000000000005,-9.76999999999999,-0.7599999999999998,0.003040642153545379,-0.0008844649973682233,-0.008286337318595384,4.625,-0.0625,94.4375,0.6784057599999993,0.03137206999999998,-0.7335205099999988,-0.02770995999999997
123.0,-0.030680803067899855,-0.28098217911121126,-0.007168208135950073,-0.010000000000000005,-9.76999999999999,-0.7599999999999998,0.01710654936461388,-0.00355947815625235,-0.0014136401233175427,4.625,-0.0625,94.4375,0.6784057599999993,0.03137206999999998,-0.7335205099999988,-0.02770995999999997
124.0,-0.029950823370178226,-0.28169456350101496,-0.00971561771561772,-0.010000000000000005,-9.76999999999999,-0.7599999999999998,0.015346078652530265,0.0007791939243552146,0.008784495074817655,4.625,-0.0625,94.4375,0.6784057599999993,0.031372069999999974,-0.7335205099999988,-0.02770995999999997
125.0,-0.030358974358974375,-0.2806561395593653,-0.011059327769005192,-0.010000000000000005,-9.76999999999999,-0.7599999999999998,-0.008199864651477554,0.015952327242649823,-0.012504699601473794,4.625,-0.0625,94.4375,0.6784057599999993,0.03137206999999998,-0.7335205099999988,-0.02770995999999997
126.0,-0.029762613730355686,-0.28065065042484383,-0.010678547259192425,-0.010000000000000005,-9.76999999999999,-0.7599999999999998,-0.012846830588766072,0.01005432739303707,-0.017046394465749303,4.625,-0.0625,94.4375,0.6784057599999993,0.03137206999999998,-0.7335205099999988,-0.02770995999999997
127.0,-0.029606436574178528,-0.2800651176780207,-0.010090081961049706,-0.010000000000000005,-9.76999999999999,-0.7599999999999998,0.011877772764869537,0.0005912098654034135,-0.009706556883976238,4.625,-0.0625,94.4375,0.6784057599999993,0.031372069999999974,-0.7335205099999988,-0.02770995999999997
128.0,-0.030665914730430874,-0.2809585683134069,-0.008571621926460637,-0.010000000000000005,-9.76999999999999,-0.7599999999999998,5.0755695916985914e-05,0.00574949244304083,-0.003953304759756373,4.625,-0.0625,94.4375,0.6784057599999993,0.03137206999999998,-0.7335205099999988,-0.02770995999999997
129.0,-0.03089277389277391,-0.28145619971426405,-0.008943228814196558,-0.010000000000000005,-9.76999999999999,-0.7599999999999998,0.005673358899165351,0.004752237010301526,-0.014017031355741033,4.625,-0.0625,94.4375,0.6784057599999993,0.03137206999999998,-0.7335205099999988,-0.02770995999999997
130.0,-0.031159974434168,-0.2812975035716969,-0.009276110985788408,-0.010000000000000005,-9.76999999999999,-0.7599999999999998,0.028023018648018646,0.002391392209940597,-0.03219485487630649,4.625,-0.0625,94.4375,0.6784057599999993,0.03137206999999998,-0.7335205099999988,-0.02770995999999997
131.0,-0.030905199639070624,-0.2811080344386794,-0.006194713888262276,-0.010000000000000005,-9.76999999999999,-0.7599999999999998,0.008914321565531243,0.00895379821791112,-0.02602016598992405,4.625,-0.0625,94.4375,0.6784057599999993,0.03137206999999998,-0.7335205099999988,-0.02770995999999997
132.0,-0.029521627565982422,-0.2811088709677417,-0.003962609970674488,-0.010000000000000005,-9.76999999999999,-0.7599999999999998,-0.005403073069403715,0.011947855571847507,-0.0310476234115347,4.625,-0.0625,94.4375,0.6784057599999993,0.03137206999999999,-0.7335205099999988,-0.02770995999999997
133.0,-0.02822524719903754,-0.2793340429731557,-0.008377612978419432,-0.010000000000000005,-9.76999999999999,-0.7599999999999998,0.020791536252725767,-0.006601030857583278,-0.02845758492179863,4.625,-0.0625,94.4375,0.6784057599999993,0.03137206999999998,-0.7335205099999988,-0.02770995999999997
134.0,-0.02965134831566285,-0.27804716285059017,-0.012057142454319877,-0.010000000000000005,-9.76999999999999,-0.7599999999999998,0.05388494024456726,0.0030900026552748323,-0.013365945630310551,4.625,-0.0625,94.4375,0.6784057599999993,0.03137206999999998,-0.7335205099999988,-0.02770995999999997
135.0,-0.03074140912850592,-0.2781457252424993,-0.016351304609369136,-0.010000000000000005,-9.76999999999999,-0.7599999999999998,0.041810944431912175,-0.006290886532822016,-0.023474979321753513,4.625,-0.0625,94.4375,0.6784057599999993,0.03137206999999998,-0.7335205099999988,-0.02770995999999997
136.0,-0.030204526656139576,-0.2788235957590795,-0.017975261297841952,-0.010000000000000005,-9.76999999999999,-0.7599999999999998,0.0010343822843822854,-0.023428923227310324,-0.019725637265959845,4.625,-0.0625,94.4375,0.6784057599999993,0.03137206999999998,-0.7335205099999988,-0.02770995999999997
137.0,-0.031243251372283645,-0.27915647793067133,-0.016658094593578473,-0.010000000000000005,-9.76999999999999,-0.7599999999999998,-0.003659109707496804,-0.019387735919993983,-0.03212647567486277,4.625,-0.0625,94.4375,0.6784057599999993,0.03137206999999998,-0.7335205099999988,-0.02770995999999997
138.0,-0.031528987141890376,-0.2786770433867207,-0.015476501992631033,-0.010000000000000005,-9.76999999999999,-0.7599999999999998,0.013081810662455824,-0.009794909391683584,-0.023968907436649374,4.625,-0.0625,94.4375,0.6784057599999993,0.03137206999999998,-0.7335205099999988,-0.02770995999999997
139.0,-0.031607338897661486,-0.27782412211444457,-0.01906143319046546,-0.010000000000000005,-9.76999999999999,-0.7599999999999998,-0.026593164899616512,0.00027727648695390593,-0.019331340702308443,4.625,-0.0625,94.4375,0.6784057599999993,0.03137206999999999,-0.7335205099999988,-0.02770995999999997
140.0,-0.0322036243326566,-0.2764774043161139,-0.019922851342206192,-0.010000000000000005,-9.76999999999999,-0.7599999999999998,-0.05150246259117227,0.001375573351379803,-0.008123261147454696,4.625,-0.0625,94.4375,0.6784057599999993,0.03137206999999998,-0.7335205099999988,-0.02770995999999997
141.0,-0.0311861042183623,-0.2784842469358597,-0.02219941348973608,-0.010000000000000005,-9.76999999999999,-0.7599999999999998,-0.0008073915331979868,-0.018537108053237085,-0.020179148808181065,4.625,-0.0625,94.4375,0.6784057599999993,0.03137206999999998,-0.7335205099999988,-0.02770995999999997
142.0,-0.030714715392134766,-0.2776073388976613,-0.028688923979246564,-0.010000000000000005,-9.76999999999999,-0.7599999999999998,-0.01883694262726521,-0.017833577712609967,-0.019151345965862092,4.625,-0.0625,94.4375,0.6784057599999993,0.03137206999999998,-0.7335205099999988,-0.02770995999999997
143.0,-0.030171667042634805,-0.2778801413640121,-0.02983682983682985,-0.010000000000000005,-9.76999999999999,-0.7599999999999998,-0.014373731107602077,3.14873298744283e-05,-0.003360685013910819,4.625,-0.0625,94.4375,0.6784057599999993,0.03137206999999998,-0.7335205099999988,-0.02770995999999997
144.0,-0.030138356267388543,-0.2780360929393186,-0.029325964358222437,-0.010000000000000005,-9.76999999999999,-0.7599999999999998,0.0002575381607639671,-0.006107602075344011,-0.018324686066621552,4.625,-0.0625,94.4375,0.6784057599999993,0.031372069999999974,-0.7335205099999988,-0.02770995999999997
145.0,-0.03025911722685918,-0.278000150387247,-0.03207970524099557,-0.010000000000000005,-9.76999999999999,-0.7599999999999998,-0.028506842619745842,-0.002107301300849688,-0.01945729002180615,4.625,-0.0625,94.4375,0.6784057599999993,0.03137206999999998,-0.7335205099999988,-0.02770995999999997
146.0,-0.030841717422362604,-0.27661049702985174,-0.03264034889841343,-0.010000000000000005,-9.76999999999999,-0.7599999999999998,0.07233156628317919,-0.006388638243476953,-0.028075419204451463,4.625,-0.0625,94.4375,0.6784057599999993,0.03137206999999998,-0.7335205099999988,-0.02770995999999997
147.0,-0.03205819986465149,-0.2779655613203999,-0.03218527708850291,-0.010000000000000005,-9.76999999999999,-0.7599999999999998,0.002044326641100838,-0.001941875328972103,0.009239416497481013,4.625,-0.0625,94.4375,0.6784057599999993,0.03137206999999998,-0.7335205099999988,-0.02770995999999997
148.0,-0.033813219039025504,-0.2776626814046167,-0.033784946236559144,-0.010000000000000005,-9.76999999999999,-0.7599999999999998,0.017538912700203024,-0.013657041882848334,-0.012439845101135426,4.625,-0.0625,94.4375,0.6784057599999993,0.03137206999999998,-0.7335205099999988,-0.02770995999999997
149.0,-0.033333408526956924,-0.2762407699827053,-0.03636145574855252,-0.010000000000000005,-9.76999999999999,-0.7599999999999998,-0.030638111888111882,0.013704977817881043,-0.0007298481088803682,4.625,-0.0625,94.4375,0.6784314474243176,0.03137206999999998,-0.7334948225756817,-0.02770995999999997
150.0,-0.032284983833370945,-0.2758085570343634,-0.037098127678772845,-0.010000000000000005,-9.76999999999999,-0.7599999999999998,0.0017416723061884389,0.0034006316264380775,0.01608485600421084,4.625,-0.0625,94.4375,0.6784501082282881,0.03137206999999998,-0.7334761617717116,-0.02770995999999997
151.0,-0.03334348447251674,-0.2763906308745018,-0.03929844349199188,-0.010000000000000005,-9.76999999999999,-0.7599999999999998,0.011044533423565683,0.034640762463343105,-0.026603973983006235,4.625,-0.0625,94.4375,0.6784594386302732,0.03137206999999998,-0.7334668313697268,-0.02770995999999997
152.0,-0.032668809684938724,-0.2761914053688246,-0.03816828332957366,-0.010000000000000005,-9.76999999999999,-0.7599999999999998,0.039368796526054586,-0.012448069403714564,-0.032165012406947885,4.625,-0.0625,94.4375,0.6784641038312659,0.031372069999999974,-0.7334621661687342,-0.02770995999999997
153.0,-0.031716764418377334,-0.2765738589367621,-0.03407797578765322,-0.010000000000000005,-9.76999999999999,-0.7599999999999998,0.019661370215805697,-0.029296728137453945,-0.017999003684487553,4.625,-0.0625,94.4375,0.6784664364317622,0.03137206999999998,-0.7334598335682381,-0.02770995999999997
154.0,-0.033550765095119936,-0.278916224904128,-0.027989961651251984,-0.010000000000000005,-9.76999999999999,-0.7599999999999998,0.009100836999022482,0.010619983175426721,-0.025283620948943528,4.625,-0.0625,94.4375,0.6784668000000005,0.03137206999999998,-0.7334594699999998,-0.02770995999999997
155.0,-0.03369131607639673,-0.28001529720279705,-0.02290260545905708,-0.010000000000000005,-9.76999999999999,-0.7599999999999998,-0.005530226661779081,0.0180177139728551,-0.01314584273253628,4.625,-0.0625,94.4375,0.6784668000000004,0.03137206999999998,-0.7334594699999998,-0.02770995999999997
156.0,-0.03455533545755321,-0.27942204066095183,-0.020632444168734502,-0.010000000000000005,-9.76999999999999,-0.7599999999999998,0.0003056062720881267,0.013940618773028046,-0.003982970994059703,4.625,-0.0625,94.4375,0.6784668000000004,0.03137206999999998,-0.7334594699999998,-0.02770995999999997
157.0,-0.03294871794871796,-0.2774279833070154,-0.020200447402060315,-0.010000000000000005,-9.76999999999999,-0.7599999999999998,-0.03557286967065192,0.005944584649221745,-0.006800793292728776,4.625,-0.0625,94.4375,0.6784668000000005,0.03137206999999998,-0.7334594699999998,-0.02770995999999997
158.0,-0.03202421234679301,-0.27876286750883505,-0.023726812166328305,-0.010000000000000005,-9.76999999999999,-0.7599999999999998,-0.011753321443341602,0.04251591402549064,0.010284842845326717,4.625,-0.0625,94.4375,0.6784668000000004,0.03137206999999998,-0.7334594699999998,-0.02770995999999997
159.0,-0.030926573426573446,-0.27787850120309787,-0.02409214508609671,-0.010000000000000005,-9.76999999999999,-0.7599999999999998,0.04941415061752764,-0.01327588951706895,-0.020257749642830288,4.625,-0.0625,94.4375,0.6784668000000005,0.03137206999999998,-0.7334594699999998,-0.02770995999999997
160.0,-0.03008518497631403,-0.278288893901797,-0.03207623693510791,-0.010000000000000005,-9.76999999999999,-0.7599999999999998,0.016073341980600044,0.001405004605609446,-0.010128874821415144,4.625,-0.0625,94.4375,0.6784668000000004,0.03137206999999998,-0.7334594699999998,-0.02770995999999997
161.0,-0.030033945221445243,-0.27705286111737715,-0.03598458060756447,-0.010000000000000005,-9.76999999999999,-0.7602346041055718,-0.05561050172945334,0.01908922310888037,0.0002653806207233633,4.625,-0.0625,94.4394550342131,0.6784543899120237,0.03137206999999998,-0.7334690160410555,-0.02770995999999997
162.0,-0.035464405534082366,-0.2784456759738415,-0.042315760927204724,-0.009691863264323548,-9.771232546942695,-0.7557263535693963,0.27708274500635777,0.26381851330667605,-0.07336323730960301,4.679405392392875,-0.06009268175252769,94.41344140733284,0.6786340891880775,0.031637721458834846,-0.7332620661115241,-0.028025450495907545
163.0,-0.02762807262445119,-0.2795220432230124,-0.03552751142433168,-0.010444342104345042,-9.771813094415709,-0.7465681791222394,-0.07062379667634425,0.02924715367005143,0.047044576778227945,4.922422425041692,-0.06363388178322972,94.3642271319039,0.6788371574131132,0.03302110158261985,-0.7329512430066738,-0.02941997954435396
164.0,-0.025955475518180934,-0.2790134090090548,-0.03944474676412463,-0.01538346137475317,-9.77090654720785,-0.7620185808762565,-0.03902293864195436,-0.04784611073546831,0.013909958514687322,4.910187639319854,-0.09532500540774388,94.45495785875592,0.6782952764534551,0.033265715558059315,-0.7334496182998625,-0.029290001633219147
165.0,-0.02407759489120567,-0.27749332003953,-0.03840287567546784,-0.017853021009957237,-9.77045327360392,-0.7713318710832899,-0.0568667215955843,-0.02125415169076596,0.04214559509312078,4.864368013208313,-0.11117056722000097,94.51074505841021,0.6780311731240887,0.03325154200679113,-0.73370942352432,-0.02905460681856461
166.0,-0.023542557126781875,-0.2801625183549782,-0.0357198602755112,-0.019087800827559266,-9.770226636801954,-0.7809836661980849,-0.03438822582523782,-0.024110702433848278,-0.017308612709849867,4.841458200152545,-0.11909334812612951,94.53857756341822,0.6776837883524798,0.03322536471307297,-0.7340242063342335,-0.02888631437702423
167.0,-0.02329390735491719,-0.27903768671720974,-0.03725087862114511,-0.019714820009350174,-9.770074801309013,-0.7857096954004384,0.0030499289747185944,-0.03713659820777633,0.02187349817083337,4.828303125112382,-0.1231299672744273,94.5533372891718,0.677508246997617,0.0332039744581253,-0.7341842612761686,-0.028794278110514996
168.0,-0.02500727498308145,-0.2787274795097374,-0.04084100308293856,-0.02000000000000001,-9.76999999999999,-0.7835303970223327,0.032982155613204,-0.0237069046544853,0.026391082036243324,4.814981389578163,-0.125,94.56184863523572,0.6775060321103092,0.03315419950582747,-0.7341811871668362,-0.02873914596736596
169.0,-0.02485591961801641,-0.27845013722836287,-0.04123605158282577,-0.02000000000000001,-9.76999999999999,-0.78181482630273,-0.007884815117678023,-0.003514479472140763,0.025740187232122715,4.8125,-0.125,94.5625,0.677525031387661,0.03314328315738023,-0.7341592192732447,-0.028737431221896384
170.0,-0.025130794608617207,-0.2784821556132038,-0.04203053801037672,-0.02000000000000001,-9.76999999999999,-0.7809074131513654,-0.04611310648357019,0.007223698680351905,-0.006878806677193776,4.8125,-0.125,94.5625,0.6775343173653847,0.03314208999999997,-0.7341479035271407,-0.028741899032258066
171.0,-0.025641342864125137,-0.2791988941837731,-0.04534732404692081,-0.02000000000000001,-9.76999999999999,-0.7802973790322587,-0.036982412328934504,-0.013091474217986314,-0.0125091642228739,4.8125,-0.125,94.5625,0.6775457016330647,0.03314208999999997,-0.7341364588256052,-0.02874571403225807
172.0,-0.024906628317918653,-0.27994982705466553,-0.049676376043311515,-0.02000000000000001,-9.76999999999999,-0.7800000000000007,0.0019194347319347292,-0.033801766110233854,-0.0294691447665238,4.8125,-0.125,94.5625,0.6775512700000001,0.03314208999999997,-0.7341308600000004,-0.028747560000000005
173.0,-0.024015724866531328,-0.2807933961200088,-0.04898308613429579,-0.02000000000000001,-9.76999999999999,-0.7800000000000007,-0.020166636119257085,-0.03649234669899992,-0.03415826025453042,4.8125,-0.125,94.5625,0.6775512700000001,0.033142089999999964,-0.7341308600000004,-0.028747560000000005
174.0,-0.024674040341379065,-0.2804260235732008,-0.04801304844349198,-0.02000000000000001,-9.76999999999999,-0.7800000000000007,-0.006799471529814272,-0.022981021834348445,-0.030061779198623958,4.8125,-0.125,94.5625,0.6775512700000001,0.033142089999999964,-0.7341308600000004,-0.028747560000000005
175.0,-0.02553579216482444,-0.28055101887359923,-0.04795195127453192,-0.02000000000000001,-9.76999999999999,-0.7800000000000007,0.004797470674486803,-0.0068864435295886905,-0.006139206895255283,4.8125,-0.125,94.5625,0.6775512700000001,0.03314208999999997,-0.7341308600000004,-0.028747560000000005
176.0,-0.02525078953304761,-0.28043191217384744,-0.047128468305887655,-0.02000000000000001,-9.76999999999999,-0.7800000000000007,-0.032837701612903225,-0.0009536078840514319,-0.007147682626513272,4.8125,-0.125,94.5625,0.6775512700000001,0.03314208999999997,-0.7341308600000004,-0.028747560000000005
177.0,-0.02675194563501017,-0.27931893375441746,-0.047136194450710565,-0.02000000000000001,-9.76999999999999,-0.7800000000000007,-0.03170265973945409,0.004927972732912248,-0.015980789204075495,4.8125,-0.125,94.5625,0.6775512700000001,0.03314208999999997,-0.7341308600000004,-0.028747560000000005
178.0,-0.02665885122941576,-0.28026988871343694,-0.04899489623279944,-0.02000000000000001,-9.76999999999999,-0.7800000000000007,-0.007771305055831263,0.00804711291732461,-0.007401064577223851,4.8125,-0.125,94.5625,0.6775512700000001,0.033142089999999964,-0.7341308600000004,-0.028747560000000005
179.0,-0.027213963455898958,-0.2804525622227233,-0.04692750394766523,-0.02000000000000001,-9.76999999999999,-0.7800000000000007,-0.026793191687344915,0.005157871362508459,0.013566692044514626,4.8125,-0.125,94.5625,0.6775512700000001,0.033142089999999964,-0.7341308600000004,-0.028747560000000005
180.0,-0.026601116625310187,-0.27886663000977496,-0.04802398206632076,-0.02000000000000001,-9.76999999999999,-0.7800000000000007,-0.043883380564328146,0.0009373648864576282,0.01793808510038349,4.8125,-0.125,94.5625,0.6775512700000001,0.033142089999999964,-0.7341308600000004,-0.028747560000000005
181.0,-0.026713709677419373,-0.27934902295285335,-0.052008607320099244,-0.02000000000000001,-9.76999999999999,-0.7800000000000007,-0.010901151519851115,0.02025870424937965,0.013573007133995039,4.8125,-0.125,94.5625,0.6775512700000001,0.033142089999999964,-0.7341308600000004,-0.028747560000000005
182.0,-0.026719602977667508,-0.28105210918114126,-0.04715632754342432,-0.02000000000000001,-9.76999999999999,-0.7800000000000007,0.010887096774193548,0.009491315136476428,-0.03250620347394541,4.8125,-0.125,94.5625,0.6775512700000001,0.033142089999999964,-0.7341308600000004,-0.028747560000000005
183.0,-0.0266182419730807,-0.279333182946086,-0.046297917136626815,-0.02000000000000001,-9.76999999999999,-0.7800000000000007,-0.01433942401684337,-0.019358598390856456,-0.008432964884577787,4.8125,-0.125,94.5625,0.6775512700000001,0.03314208999999997,-0.7341308600000004,-0.028747560000000005
184.0,-0.026043612301676834,-0.2816417775772613,-0.048866080156402744,-0.02000000000000001,-9.76999999999999,-0.7800000000000007,-0.008937702082863373,0.0036891871569290947,-0.0002772764869539068,4.8125,-0.125,94.5625,0.6775512700000001,0.033142089999999964,-0.7341308600000004,-0.028747560000000005
185.0,-0.02451312128731485,-0.2811806902774643,-0.04825686141815175,-0.02000000000000001,-9.76999999999999,-0.7800000000000007,-0.004515377096022257,0.029682682908489362,-0.017865065042484394,4.8125,-0.125,94.5625,0.6775512700000001,0.033142089999999964,-0.7341308600000004,-0.028747560000000005
186.0,-0.026038198360779023,-0.2799575907963003,-0.04895721482818256,-0.02000000000000001,-9.76999999999999,-0.7800000000000007,0.015298142717497555,0.007273103240845177,-0.018005113166403488,4.8125,-0.125,94.5625,0.6775512700000001,0.033142089999999964,-0.7341308600000004,-0.028747560000000005
187.0,-0.024339198435972643,-0.27922197157681006,-0.05079126250093992,-0.02000000000000001,-9.76999999999999,-0.7800000000000007,0.024026242574629673,-0.0027995525979396946,-0.0032953605534250694,4.8125,-0.125,94.5625,0.6775512700000001,0.033142089999999964,-0.7341308600000004,-0.028747560000000005
188.0,-0.02555831265508686,-0.27933002481389557,-0.0518957816377171,-0.02000000000000001,-9.76999999999999,-0.7800000000000007,0.04438585607940447,-0.0046215880893300245,-0.014795285359801489,4.8125,-0.125,94.5625,0.6775512700000001,0.033142089999999964,-0.7341308600000004,-0.028747560000000005
189.0,-0.023980148883374703,-0.27960297766749365,-0.05068610421836226,-0.02000000000000001,-9.76999999999999,-0.7800000000000007,0.0076535359801488834,0.00130272952853598,-0.003000930521091812,4.8125,-0.125,94.5625,0.6775512700000001,0.033142089999999964,-0.7341308600000004,-0.028747560000000005
190.0,-0.024833897285510203,-0.27885314685314666,-0.053508327693811544,-0.02000000000000001,-9.76999999999999,-0.7800000000000007,0.016076749191668547,-0.017812429505977893,-0.002423936950146628,4.8125,-0.125,94.5625,0.6775512700000001,0.03314208999999997,-0.7341308600000004,-0.028747560000000005
191.0,-0.025736220768478847,-0.27944642454319857,-0.051678443867959986,-0.02000000000000001,-9.76999999999999,-0.7800000000000007,-0.0062051775509436805,-0.004290266185427475,0.0005334635122941573,4.8125,-0.125,94.5625,0.6775512700000001,0.03314208999999997,-0.7341308600000004,-0.028747560000000005
192.0,-0.026533122791187323,-0.28014877058425425,-0.05112458173546883,-0.02000000000000001,-9.76999999999999,-0.7800000000000007,-0.0273194001898639,-0.003959649221745996,-0.004913168988269795,4.8125,-0.125,94.5625,0.6775512700000001,0.03314208999999997,-0.7341308600000004,-0.028747560000000005
193.0,-0.02863147605083091,-0.281100928641251,-0.05442769428152491,-0.02000000000000001,-9.76999999999999,-0.7800000000000007,-0.01709604869257087,-0.007720857771260997,-0.013294805413000977,4.8125,-0.125,94.5625,0.6775512700000001,0.03314208999999997,-0.7341308600000004,-0.028747560000000005
194.0,-0.029516110233852186,-0.28023284645462043,-0.055318181818181794,-0.02000000000000001,-9.76999999999999,-0.7800000000000007,0.027144486897511085,-0.006467826528310399,-0.008774273441612152,4.8125,-0.125,94.5625,0.6775512700000001,0.03314208999999997,-0.7341308600000004,-0.028747560000000005
195.0,-0.029193689375141003,-0.28054277107301284,-0.052799552597939683,-0.02000000000000001,-9.76999999999999,-0.7800000000000007,0.05487774574216106,0.0007898855177080983,-0.0127780401721934,4.8125,-0.125,94.5625,0.6775512700000001,0.033142089999999964,-0.7341308600000004,-0.028747560000000005
196.0,-0.029807010865478625,-0.2805841910106021,-0.05210603240845176,-0.02000000000000001,-9.76999999999999,-0.7800000000000007,0.05279322282220468,0.00954389192796451,-0.009367392520114294,4.8125,-0.125,94.5625,0.6775512700000001,0.03314208999999997,-0.7341308600000004,-0.028747560000000005
197.0,-0.028757801338446513,-0.278850214301827,-0.051281148958568314,-0.02000000000000001,-9.76999999999999,-0.7800000000000007,0.03408479960899316,-0.004594330400782014,-0.017429411985863598,4.8125,-0.125,94.5625,0.6775512700000001,0.033142089999999964,-0.7341308600000004,-0.028747560000000005
198.0,-0.02817805850063916,-0.27836107978043445,-0.04964493570945184,-0.02000000000000001,-9.76999999999999,-0.7800000000000007,-0.021094631175276338,-0.00310643657417851,-0.022259192420482743,4.8125,-0.125,94.5625,0.6775512700000001,0.033142089999999964,-0.7341308600000004,-0.028747560000000005
199.0,-0.028610121061733985,-0.27720535378599875,-0.0524254455222197,-0.02000000000000001,-9.76999999999999,-0.7800000000000007,-0.00023404015339499248,0.02234566508760057,-0.022481953530340628,4.8125,-0.125,94.5625,0.6775512700000001,0.033142089999999964,-0.7341308600000004,-0.028747560000000005
200.0,-0.02940431611399355,-0.27739920294758985,-0.05184051432438527,-0.02000000000000001,-9.76999999999999,-0.7800000000000007,0.013468587863749153,0.017019606737348675,-0.015443830363185203,4.8125,-0.125,94.5625,0.6775512700000001,0.033142089999999964,-0.7341308600000004,-0.028747560000000005
201.0,-0.031285359801488846,-0.2777369727047144,-0.051851116625310154,-0.02000000000000001,-9.76999999999999,-0.7800000000000007,0.011910669975186104,0.002264267990074441,-0.009119106699751862,4.8125,-0.125,94.5625,0.6775512700000001,0.033142089999999964,-0.7341308600000004,-0.028747560000000005
202.0,-0.031149108955560584,-0.27781833220542884,-0.04958869087901345,-0.02000000000000001,-9.76999999999999,-0.7800000000000007,-0.00941330175201143,0.00044928190089480423,0.00806263628844274,4.8125,-0.125,94.5625,0.6775512700000001,0.03314208999999997,-0.7341308600000004,-0.028747560000000005
203.0,-0.030691179787954,-0.27862380630122546,-0.04728069779682682,-0.02000000000000001,-9.76999999999999,-0.7800000000000007,-0.01145292879163847,-0.0012331754267238138,0.030272012933303255,4.8125,-0.125,94.5625,0.6775512700000001,0.033142089999999964,-0.7341308600000004,-0.028747560000000005
204.0,-0.031247575005639537,-0.2780029701481312,-0.04992694939469132,-0.02000000000000001,-9.76999999999999,-0.7800000000000007,-0.019188002857357694,-0.0023690691029400707,0.032629802992706215,4.8125,-0.125,94.5625,0.6775512700000001,0.033142089999999964,-0.7341308600000004,-0.028747560000000005
205.0,-0.03320195127453193,-0.27825669223249844,-0.04916160989548086,-0.02000000000000001,-9.76999999999999,-0.7800000000000007,0.019755009775171063,0.003516946762914505,0.007168067147905856,4.8125,-0.125,94.5625,0.6775512700000001,0.03314208999999997,-0.7341308600000004,-0.028747560000000005
206.0,-0.032411562899466145,-0.2786107132115194,-0.0497856323783743,-0.02000000000000001,-9.76999999999999,-0.7800000000000007,-0.010836458568313407,0.011719748665313182,0.0006980083088954057,4.8125,-0.125,94.5625,0.6775512700000001,0.03314208999999997,-0.7341308600000004,-0.028747560000000005
207.0,-0.031513699338296126,-0.27893634389803723,-0.05662790905331226,-0.02000000000000001,-9.76999999999999,-0.7800000000000007,0.03941009427400557,-0.0021740943867959994,-0.005073161045943304,4.8125,-0.125,94.5625,0.6775512700000001,0.03314208999999997,-0.7341308600000004,-0.028747560000000005
208.0,-0.029972354594330418,-0.27736666055718456,-0.05589580278592374,-0.02000000000000001,-9.76999999999999,-0.7800000000000007,0.013599324902248291,0.006290857160312805,-0.023870891373411533,4.8125,-0.125,94.5625,0.6775512700000001,0.03314208999999997,-0.7341308600000004,-0.028747560000000005
209.0,-0.03011726445597415,-0.2777733194225128,-0.0595750338371306,-0.02000000000000001,-9.76999999999999,-0.7800000000000007,0.022097526129784197,0.016576434318369804,-0.025870483682983683,4.8125,-0.125,94.5625,0.6775512700000001,0.03314208999999997,-0.7341308600000004,-0.028747560000000005
210.0,-0.029736051582825794,-0.2773788395744039,-0.058118406459132244,-0.02000000000000001,-9.76999999999999,-0.7800000000000007,0.01314126062109933,-0.010513713437100534,-0.013149073708549515,4.8125,-0.125,94.5625,0.6775512700000001,0.033142089999999964,-0.7341308600000004,-0.028747560000000005
211.0,-0.03124876870441388,-0.27823731812542274,-0.060307981333182915,-0.02000000000000001,-9.76999999999999,-0.7800000000000007,0.0028132989322505464,-0.009472399240544402,0.0008484836735844796,4.8125,-0.125,94.5625,0.6775512700000001,0.03314208999999997,-0.7341308600000004,-0.028747560000000005
212.0,-0.031090730506053103,-0.27833721520415045,-0.06050312993458151,-0.02000000000000001,-9.76999999999999,-0.7800000000000007,0.007961007406571923,-0.016394853466426048,-0.00636613890142116,4.8125,-0.125,94.5625,0.6775512700000001,0.033142089999999964,-0.7341308600000004,-0.028747560000000005
213.0,-0.03041099424768781,-0.27851994980825606,-0.058984777990826354,-0.02000000000000001,-9.76999999999999,-0.7800000000000007,-0.003265106868937514,-0.007930254389427776,-0.013459687993458154,4.8125,-0.125,94.5625,0.6775512700000001,0.033142089999999964,-0.7341308600000004,-0.028747560000000005
214.0,-0.03194743260771488,-0.27873392031355715,-0.05904822026092185,-0.02000000000000001,-9.76999999999999,-0.7800000000000007,-0.0035866477272727274,-0.020761032901909917,-0.027651059877622376,4.8125,-0.125,94.5625,0.6775512700000001,0.033142089999999964,-0.7341308600000004,-0.028747560000000005
215.0,-0.030663658921723454,-0.2791766298217909,-0.06085254530415819,-0.02000000000000001,-9.76999999999999,-0.7800000000000007,-0.002880385743288969,-0.006323783743138582,-0.006861888111888112,4.8125,-0.125,94.5625,0.6775512700000001,0.033142089999999964,-0.7341308600000004,-0.028747560000000005
216.0,-0.029427626137303577,-0.2786645612452062,-0.06258169787202043,-0.02000000000000001,-9.76999999999999,-0.7800000000000007,-0.005212797954733438,-0.00303970223325062,-0.025165425971877584,4.8125,-0.125,94.5625,0.6775512700000001,0.03314208999999997,-0.7341308600000004,-0.028747560000000005
217.0,-0.028984284532671645,-0.27768960072185855,-0.06421640724866531,-0.02000000000000001,-9.76999999999999,-0.7800000000000007,-0.03312749078878111,0.005303970223325062,-0.02030603804797353,4.8125,-0.125,94.5625,0.6775512700000001,0.033142089999999964,-0.7341308600000004,-0.028747560000000005
218.0,-0.028949695465824515,-0.2773031054966537,-0.06762448304383786,-0.02000000000000001,-9.76999999999999,-0.7800000000000007,0.02716839612000902,0.012900406045567336,-0.012744379276637342,4.8125,-0.125,94.5625,0.6775512700000001,0.03314208999999997,-0.7341308600000004,-0.028747560000000005
219.0,-0.02982348296864428,-0.27802376118505134,-0.06987303556658395,-0.02000000000000001,-9.76999999999999,-0.7800000000000007,0.06151378863072411,0.0074660218813444625,-0.013769832318219415,4.8125,-0.125,94.5625,0.6775512700000001,0.033142089999999964,-0.7341308600000004,-0.028747560000000005
220.0,-0.029608861568539008,-0.2786283179186403,-0.0688068839762388,-0.02000000000000001,-9.76999999999999,-0.7800000000000007,0.037141772877659976,0.010467069892473119,-0.029584931197834424,4.8125,-0.125,94.5625,0.6775512700000001,0.03314208999999997,-0.7341308600000004,-0.028747560000000005
221.0,-0.032689873298744274,-0.2777553951424917,-0.06981392397924654,-0.02000000000000001,-9.76999999999999,-0.7800000000000007,0.025144688980374464,0.023099539909015716,-0.0056836980224077,4.8125,-0.125,94.5625,0.6775512700000001,0.033142089999999964,-0.7341308600000004,-0.028747560000000005
222.0,-0.032496301413640134,-0.27788141965561297,-0.07005708605910216,-0.02000000000000001,-9.76999999999999,-0.7800000000000007,0.019062729105571847,0.008323963502894955,-0.004609839085645537,4.8125,-0.125,94.5625,0.6775512700000001,0.033142089999999964,-0.7341308600000004,-0.028747560000000005
223.0,-0.03298568736371157,-0.278833182946086,-0.06798553227686291,-0.02000000000000001,-9.76999999999999,-0.7800000000000007,-0.007957027431573803,-0.0020238686884352206,-0.008567138506654635,4.8125,-0.125,94.5625,0.6775512700000001,0.03314208999999997,-0.7341308600000004,-0.028747560000000005
224.0,-0.029018704413865715,-0.27896032596435805,-0.06697993270170687,-0.02000000000000001,-9.76999999999999,-0.7800000000000007,0.04613804374389052,0.01783087544176254,0.040137181367020075,4.812996277915633,-0.125,94.5625,0.6775517546054592,0.03314402858064512,-0.7341303753151369,-0.0287494985012407
225.0,-0.022780776123518066,-0.27626657549439804,-0.046163475637265944,-0.02028673835125449,-9.772939068100346,-0.747240143369176,0.25942960349462363,0.24705286033411034,-0.15082380097501064,4.750472153294734,-0.1232078853046595,94.36939964157705,0.678827781478357,0.0325082061003584,-0.7330070453278192,-0.028384068031982353
226.0,-0.039894879027404004,-0.27709250209032976,-0.04629534701724897,-0.008076127012973906,-9.767544045635814,-0.8030930385178454,-0.692385947911934,0.09979683173277704,-0.06022802427739103,5.238096708178489,-0.05095537381998081,94.69902569539099,0.6765895777882469,0.03459014854086527,-0.7348543235316973,-0.03113611188059817
227.0,-0.04491712003479381,-0.278896631007944,-0.029638949873388755,-0.0037154828613256623,-9.758449442172747,-0.8977896954375832,-0.49971611097519775,0.29316910057482526,-0.056353737634973436,5.580137063766664,-0.023461557877732343,95.24068840600813,0.6729674073184414,0.036561237960258924,-0.737996585810514,-0.032926771324914464
228.0,-0.0456941416400753,-0.2809390290914597,-0.019462681192803862,-0.0015351607855015406,-9.753902140441213,-0.9472819444929854,-0.2615729870614014,0.14188024921214382,-0.04312982580673403,5.809221757689784,-0.009714649906608107,95.51449742881053,0.6711010728527693,0.03784435559303267,-0.7395919500020314,-0.03411337211407013
229.0,-0.04582233211787959,-0.28165742341105804,-0.010932182764986037,-0.00044499974758947986,-9.751628489575445,-0.9720280690206865,-0.1416858092687261,0.07719341432710355,-0.025388978622594024,5.9237485959664795,-0.002841195921045989,95.65140194021171,0.6701678904760127,0.03848585382877438,-0.7403896472441922,-0.0347066119304842
230.0,-0.04439469238924031,-0.2830734387526753,-0.0044007481236013725,0.00010904134484325312,-9.750399818264427,-0.9854248768042503,-0.08022048941517364,0.026681729220348033,0.009045025094548038,5.9829736483416625,0.0005395274875056792,95.72588858211301,0.6696614310198165,0.03882650268947678,-0.7408235923541753,-0.03501468182993744
231.0,-0.04439536807278742,-0.2826030528611172,-0.0009629295435747056,0.0,-9.75,-0.9898660049627797,-0.022862621249718024,0.006620798556282428,-0.0014192796450860972,5.996370967741935,0.0,95.74981389578163,0.6694980830769233,0.03892183169230766,-0.7409652854342437,-0.035077005558312654
232.0,-0.04611279043537107,-0.2825428227686291,0.0075768854801112895,0.0,-9.75,-0.9900000000000004,0.00997866380930897,-0.017974095796676443,0.014286318520189488,6.0,0.0,95.75,0.6694946300000002,0.03894042999999997,-0.7409668000000006,-0.035095209999999995
233.0,-0.04573779983457402,-0.28575103391232415,0.018259643582224237,0.0,-9.75,-0.9900000000000004,-0.01845016542597188,-0.007841755019174374,0.009105477855477856,6.0,0.0,95.75,0.6694946300000002,0.03894042999999997,-0.7409668000000005,-0.035095209999999995
234.0,-0.0460389502970148,-0.2862532521242198,0.0262726520791037,0.0,-9.75,-0.9900000000000004,-0.052607338897661476,-0.0016533197984810889,-0.0018225054515377094,6.0,0.0,95.75,0.6694946300000002,0.03894042999999997,-0.7409668000000005,-0.03509520999999999
235.0,-0.04642559590946686,-0.28634408602150524,0.031024588314910905,0.0,-9.75,-0.9900000000000004,-0.03161797879539815,-0.011439769907511842,0.003953304759756372,6.0,0.0,95.75,0.6694946300000002,0.03894042999999997,-0.7409668000000005,-0.035095209999999995
236.0,-0.04782795698924731,-0.28650244379276624,0.03184149184149185,0.0,-9.75,-0.9900000000000004,-0.02971933979998496,0.01113053613053613,0.00312476501992631,6.0,0.0,95.75,0.6694946300000003,0.03894042999999997,-0.7409668000000006,-0.03509521
237.0,-0.048141739980449655,-0.2861959921798631,0.03116023761185053,0.0,-9.75,-0.9900000000000005,0.0017581209113467153,0.009521157605835025,-0.002912812993458155,6.0,0.0,95.75,0.6694946300000003,0.03894042999999997,-0.7409668000000006,-0.035095209999999995
238.0,-0.04719027746447102,-0.2870230280472216,0.03452740807579518,0.0,-9.75,-0.9900000000000005,-0.01694934769531544,0.021836110797804346,0.012671065493646138,6.0,0.0,95.75,0.6694946300000003,0.03894042999999997,-0.7409668000000006,-0.03509521
239.0,-0.04841647868260771,-0.28785146439581916,0.03404037897586286,0.0,-9.75,-0.9868238213399498,0.04847321697120084,0.0009149536619294674,-0.0033884126626062116,6.0,0.0,95.75,0.6695867111513647,0.03892104260545903,-0.7408921645657576,-0.035095209999999995
240.0,-0.048864980449657855,-0.2854905866982479,0.034326565907211073,0.0,-9.75,-0.9832506203473935,0.07701007829536055,-0.007643226229415746,-0.0157579987217084,6.0,0.0,95.75,0.6696981776724565,0.03889923178660047,-0.7408034745409435,-0.035095209999999995
241.0,-0.048970726182419724,-0.28557817552071574,0.03594781562523498,0.0,-9.75,-0.9814640198511153,0.033985197430257914,-0.002355807415031206,-0.006420713023535605,6.0,0.0,95.75,0.6697539109330024,0.038888326377171184,-0.7407591295285365,-0.03509520999999999
242.0,-0.04887532897210317,-0.2871424919166854,0.03424437927663735,0.0,-9.75,-0.9805707196029763,0.026382622753590497,-0.014687664486051584,-0.012513628844274007,6.0,0.0,95.75,0.6697817775632753,0.03888287367245655,-0.7407369570223331,-0.03509520999999999
243.0,-0.048942928039702224,-0.2841588089330024,0.0354937965260546,0.0,-9.75,-0.9801240694789067,0.02369727047146402,-0.011352357320099257,0.012655086848635233,6.0,0.0,95.75,0.6697957108784118,0.03888014732009923,-0.7407258707692315,-0.03509520999999999
244.0,-0.048367245657568225,-0.28503722084367233,0.033325062034739464,0.0,-9.75,-0.9799999999999986,0.009615384615384616,0.010514888337468983,0.016563275434243175,6.0,0.0,95.75,0.6697997999999998,0.03887938999999997,-0.7407226600000005,-0.03509520999999999
245.0,-0.049196029776674935,-0.28484863523573184,0.03039702233250622,0.0,-9.75,-0.9799999999999986,-0.004280397022332506,0.0030397022332506202,-0.005179900744416873,6.0,0.0,95.75,0.6697997999999998,0.03887938999999997,-0.7407226600000005,-0.03509520999999999
246.0,-0.04842183622828783,-0.2859851116625308,0.029761786600496293,0.0,-9.75,-0.9799999999999986,0.016377171215880892,-0.004497518610421836,0.013244416873449131,6.0,0.0,95.75,0.6697997999999998,0.03887938999999997,-0.7407226600000005,-0.03509520999999999
247.0,-0.047722084367245655,-0.2870620347394539,0.029682382133995055,0.0,-9.75,-0.9799999999999986,0.04112903225806451,0.013058312655086848,0.023790322580645163,6.0,0.0,95.75,0.6697997999999998,0.03887938999999997,-0.7407226600000005,-0.03509520999999999
248.0,-0.04967245657568237,-0.28747890818858535,0.030605459057071977,0.0,-9.75,-0.9799999999999986,0.03166873449131513,-0.007258064516129033,0.011290322580645162,6.0,0.0,95.75,0.6697997999999998,0.03887938999999997,-0.7407226600000005,-0.03509520999999999
249.0,-0.050029776674937965,-0.2863424317617864,0.02940942928039704,0.0,-9.75,-0.9799999999999986,0.004435483870967739,-0.005614143920595533,0.02220843672456576,6.0,0.0,95.75,0.6697997999999998,0.03887938999999997,-0.7407226600000005,-0.03509520999999999
250.0,-0.04969727047146401,-0.2882580645161289,0.028709677419354852,0.0,-9.75,-0.9799999999999986,0.03024193548387097,-0.0007444168734491315,-0.006327543424317617,6.0,0.0,95.75,0.6697997999999998,0.03887938999999997,-0.7407226600000005,-0.03509520999999999
251.0,-0.04933844649973683,-0.28659553349875916,0.03468245732761862,0.0,-9.75,-0.9749951124144662,-0.06365422212196406,0.010077825400406045,-0.002193773967967516,6.0,0.0,95.71774193548387,0.6699229489345063,0.03887938999999997,-0.7405995159921808,-0.035095209999999995
252.0,-0.05028088578088577,-0.2880049627791562,0.03323328821715919,0.0,-9.75,-0.9723362658846519,-0.018753289721031657,-0.012059412361831716,-0.002632246785472592,6.0,0.0,95.7016129032258,0.669987387370479,0.03887938999999997,-0.7405350802541555,-0.035095209999999995
253.0,-0.05027443792766373,-0.28856327543424304,0.03484493194977067,0.0,-9.75,-0.9710068426197449,0.0016810474471764814,0.014255653620572975,-0.016700738777351683,6.0,0.0,95.69354838709677,0.6700196065884654,0.03887938999999997,-0.7405028623851428,-0.03509520999999999
254.0,-0.049338211519663125,-0.2902320099255582,0.036419984585307166,0.0,-9.75,-0.9703421309872914,-0.02460922813745394,0.0175961890931649,0.0020404494698849536,6.0,0.0,95.68951612903226,0.6700357161974586,0.03887938999999997,-0.7404867534506365,-0.03509520999999999
255.0,-0.04991724471764794,-0.2874162531017369,0.03673604688322431,0.0,-9.75,-0.9700097751710646,-0.019624713324310098,0.024616953107376494,-0.009835854669524025,6.0,0.0,95.6875,0.6700437710019551,0.03887938999999997,-0.7404786989833834,-0.03509520999999999
256.0,-0.04924992245657568,-0.286853287841191,0.03521797456575683,0.0,-9.75,-0.9699999999999991,0.03194595223325062,-0.00010904544044664996,-0.010508103287841191,6.0,0.0,95.6875,0.6700439500000002,0.03887938999999997,-0.7404785200000011,-0.03509520999999999
257.0,-0.04874710504549213,-0.28655989172118196,0.03602212572373863,0.0,-9.75,-0.9699999999999992,0.009666845251522671,-0.0010010151139183397,-0.0022899983081434696,6.0,0.0,95.6875,0.6700439500000002,0.03887938999999997,-0.7404785200000013,-0.035095209999999995
258.0,-0.05024203887510338,-0.2885330475975637,0.03942049214226634,0.0,-9.75,-0.9699999999999991,0.012417169524024363,-0.01997941574554478,0.0112464400518836,6.0,0.0,95.6875,0.6700439500000002,0.03887938999999997,-0.7404785200000011,-0.035095209999999995
259.0,-0.05046841397849461,-0.28907793819084127,0.03765069272125725,0.0,-9.75,-0.9699999999999991,0.040785197665237985,-0.00981135799684187,0.0183868676686217,6.0,0.0,95.6875,0.6700439500000002,0.03887938999999997,-0.7404785200000011,-0.03509520999999999
260.0,-0.05022676282051282,-0.2889977253928865,0.03997227470110535,0.0,-9.75,-0.9699999999999992,0.032324417014437175,-0.011755818106624558,0.01346020201236935,6.0,0.0,95.6875,0.6700439500000002,0.03887938999999997,-0.7404785200000013,-0.035095209999999995
261.0,-0.0522799834574028,-0.2893211331679072,0.04365762463343108,0.0,-9.75,-0.9699999999999991,0.007489461143695014,-0.006988718606662155,0.008392195841792616,6.0,0.0,95.6875,0.6700439500000002,0.03887938999999997,-0.7404785200000011,-0.035095209999999995
262.0,-0.05277977667493795,-0.29012244341679805,0.04043096285434995,0.0,-9.75,-0.9699999999999991,0.028625595674486803,-0.002440473672832544,-0.003456028178810437,6.0,0.0,95.6875,0.6700439500000002,0.03887938999999997,-0.7404785200000011,-0.03509520999999999
263.0,-0.05159719715768102,-0.28825514606361363,0.04189372791187307,0.0,-9.75,-0.9699999999999992,0.005267004920482743,0.014520608339912776,-0.0011227054195804198,6.0,0.0,95.6875,0.6700439500000002,0.03887938999999997,-0.7404785200000013,-0.035095209999999995
264.0,-0.05062722761109857,-0.28760035528987127,0.04294787202045266,0.0,-9.75,-0.9699999999999991,-0.017575040886532823,0.0017001983231821945,-0.008027330532370855,6.0,0.0,95.6875,0.6700439500000002,0.03887938999999997,-0.7404785200000011,-0.035095209999999995
265.0,-0.05071683961200091,-0.2878519860515827,0.037568755169561624,0.0,-9.75,-0.9699999999999991,0.07149107193210015,0.0010486573238589368,-0.03286569361418151,6.0,0.0,95.6875,0.6700439500000002,0.03887938999999997,-0.7404785200000011,-0.03509520999999999
266.0,-0.05091703323558161,-0.28752581256109466,0.04101875610948192,0.0,-9.75,-0.9699999999999992,-0.003611276576246332,0.011812301441837732,-0.011103028775659825,6.0,0.0,95.6875,0.6700439500000002,0.03887938999999997,-0.7404785200000013,-0.035095209999999995
267.0,-0.05136096698999924,-0.2873210250770734,0.03817260696292955,0.0,-9.75,-0.9699999999999991,0.034643405989172114,-0.002562075860966991,-0.010774306338822467,6.0,0.0,95.6875,0.6700439500000002,0.03887938999999997,-0.7404785200000011,-0.035095209999999995
268.0,-0.051076377923152116,-0.28742639719151797,0.037822862621249724,0.0,-9.75,-0.9699999999999991,-0.0015565961256485475,-0.02292387761767802,-0.014994313482216708,6.0,0.0,95.6875,0.6700439500000002,0.03887938999999997,-0.7404785200000011,-0.03509520999999999
269.0,-0.05134968089705992,-0.2867449526280169,0.03933481840739905,0.0,-9.75,-0.9699999999999991,-0.009756372659598467,-0.01431287126851643,0.01137255092018197,6.0,0.0,95.6875,0.6700439500000002,0.03887938999999997,-0.7404785200000011,-0.03509520999999999
270.0,-0.05214806564403337,-0.2866040867734414,0.041508807053161886,0.0,-9.75,-0.9699999999999992,-0.005932071960297767,0.006040045304158208,-0.00465736380554929,6.0,0.0,95.6875,0.6700439500000002,0.03887938999999997,-0.7404785200000013,-0.035095209999999995
271.0,-0.05274803086698247,-0.28939441875328964,0.04382625103391232,0.0,-9.75,-0.9699999999999991,0.004823553462666365,-0.0008594983645386863,-0.0070329829780434614,6.0,0.0,95.6875,0.6700439500000002,0.03887938999999997,-0.7404785200000011,-0.035095209999999995
272.0,-0.05309113702158056,-0.28855080739153305,0.03976424214226634,0.0,-9.75,-0.9699999999999991,-0.010165766692984437,-0.021009773996165125,0.007572218188397624,6.0,0.0,95.6875,0.6700439500000002,0.03887938999999997,-0.7404785200000011,-0.03509520999999999
273.0,-0.05137656496729077,-0.2891593235393638,0.036322660538386356,0.0,-9.75,-0.9699999999999992,0.014577238537672005,-0.013753413085570345,0.02168068616531318,6.0,0.0,95.6875,0.6700439500000002,0.03887938999999997,-0.7404785200000013,-0.035095209999999995
274.0,-0.05082693135717328,-0.288495712396922,0.03339454519494844,0.0,-9.75,-0.9699999999999991,-0.009309192991148636,-0.00627016772430079,-0.00407936177845452,6.0,0.0,95.6875,0.6700439500000002,0.03887938999999997,-0.7404785200000011,-0.035095209999999995
275.0,-0.049414180018010644,-0.28731895176955646,0.02981472503750731,0.0,-9.75,-0.9699999999999991,0.025572535243654194,-0.011487920541599977,-0.030968782701393586,6.0,0.0,95.6875,0.6700439500000002,0.03887938999999997,-0.7404785200000011,-0.03509520999999999
276.0,-0.04997178448791351,-0.2870386244579791,0.03465026729542859,0.0,-9.75,-0.9699999999999991,0.0026559462043332996,-0.018040651105167234,-0.022786801012607463,6.0,0.0,95.6875,0.6700439500000002,0.03887938999999997,-0.7404785200000011,-0.03509520999999999
277.0,-0.050645941871748326,-0.2868890392761359,0.029057143573272614,0.0,-9.75,-0.9699999999999991,0.03295018153889122,-0.00985779453521389,-0.022652705717221847,6.0,0.0,95.6875,0.6700439500000002,0.03887938999999997,-0.7404785200000011,-0.03509520999999999
278.0,-0.05145689077947142,-0.28683650399779415,0.03157647012485723,0.0,-9.75,-0.9699999999999991,0.03352054531490015,-0.010855094726062468,-0.024477012682657843,6.0,0.0,95.6875,0.6700439500000002,0.03887938999999997,-0.7404785200000011,-0.03509520999999999
279.0,-0.05189634558989397,-0.28704646965937275,0.03742255056771186,0.0,-9.75,-0.9699999999999992,0.044658785434995116,-0.015707478005865104,-0.007880409241296338,6.0,0.0,95.6875,0.6700439500000002,0.03887938999999997,-0.7404785200000013,-0.035095209999999995
280.0,-0.05208961200090231,-0.2888234829686441,0.037336585457553195,0.0,-9.75,-0.9699999999999991,0.045204702891194826,-0.02547160500789533,-0.028335365910970748,6.0,0.0,95.6875,0.6700439500000002,0.03887938999999997,-0.7404785200000011,-0.035095209999999995
281.0,-0.05119873092856963,-0.28741323819549613,0.03605164772503483,0.0,-9.75,-0.9699999999999991,0.03571334439530004,-0.013884183692651434,-0.010350823291851517,6.0,0.0,95.6875,0.6700439500000002,0.03887938999999997,-0.7404785200000011,-0.03509520999999999
282.0,-0.05120264390627293,-0.28899333238446134,0.03257766986597633,0.0,-9.75,-0.9699999999999992,0.011503280965226532,-0.024002115156349025,-0.008744289005125697,6.0,0.0,95.6875,0.6700439500000002,0.03887938999999997,-0.7404785200000013,-0.035095209999999995
283.0,-0.0518365111590918,-0.28803838455451347,0.02757070528038271,0.0,-9.75,-0.9699999999999991,0.019096136838072323,-0.015782268806462354,-0.001993257638418929,6.0,0.0,95.6875,0.6700439500000002,0.03887938999999997,-0.7404785200000011,-0.035095209999999995
284.0,-0.05143742995355897,-0.2881103269490365,0.022542890800955326,0.0,-9.75,-0.9699999999999991,-0.008676986096340933,0.014762119600829278,-0.015510878010878013,6.0,0.0,95.6875,0.6700439500000002,0.03887938999999997,-0.7404785200000011,-0.03509520999999999
285.0,-0.0501281442571765,-0.28730082104275645,0.02258658187690447,0.0,-9.75,-0.9699999999999991,-0.023445192800031506,0.014887263274360048,-1.66052585407429e-05,6.0,0.0,95.6875,0.6700439500000002,0.03887938999999997,-0.7404785200000011,-0.03509520999999999
286.0,-0.05077359199939844,-0.28704692082111427,0.017876456876456885,0.0,-9.75,-0.9699999999999991,-0.0017007857733664176,-0.005907869012707723,-0.011534701857282503,6.0,0.0,95.6875,0.6700439500000002,0.03887938999999997,-0.7404785200000011,-0.03509520999999999
287.0,-0.05171712158808933,-0.2873250620347394,0.01514143920595534,0.0,-9.75,-0.9699999999999991,0.05341191066997519,-0.0009305210918114154,-0.012096774193548387,6.0,0.0,95.6875,0.6700439500000002,0.03887938999999997,-0.7404785200000011,-0.03509520999999999
288.0,-0.05331885856079404,-0.2870967741935483,0.017523573200992563,0.0,-9.75,-0.9699999999999991,0.03484026054590571,0.01024348635235732,0.000946029776674938,6.0,0.0,95.6875,0.6700439500000002,0.03887938999999997,-0.7404785200000011,-0.03509520999999999
289.0,-0.05226767050154146,-0.28763974734942466,0.02903346116249342,0.0,-9.75,-0.9786803519061578,-0.1614114548086322,-0.05031710560944432,0.0077653864952252055,5.9770283479960895,0.0,95.73637585532747,0.669740860967742,0.03879156728250242,-0.7407596505571854,-0.03498161281524926
290.0,-0.046139517273283054,-0.2932877414777834,0.04847832298603687,-0.0023188405797101457,-9.74768115942029,-1.010020400357006,0.27236926270608774,-0.7804013873427881,-0.013164722870631005,5.668738577925113,-0.013090229079008883,95.91436897020698,0.668667020163628,0.0371937235033363,-0.7418782507951893,-0.03318572989289812
291.0,-0.029527502031766333,-0.29298630250067825,0.08466099772130628,-0.010343481010917697,-9.752028435497621,-0.9632170312980479,-0.11034598461542788,0.03241917933984517,0.20345175767138424,5.259416727292727,-0.06109919423589912,95.63774662931601,0.6705516327098975,0.0352157386112507,-0.7403658161376327,-0.030924950477758353
292.0,-0.02292811529868751,-0.29384139761158506,0.07925253878510038,-0.021734090048068384,-9.751630491220162,-0.9630649431887444,-0.21959815248696657,0.2631539158059916,0.2131455947721389,5.153059350646846,-0.12732379066633664,95.63951305948227,0.6706142200501821,0.035552866414436154,-0.7403271903894719,-0.030314073459870992
293.0,-0.0181229053540584,-0.29205050649810027,0.07582974333795962,-0.028097814254803434,-9.750815245610081,-0.963753315266829,-0.17309413866593987,0.15010474752768563,0.13414384654860048,5.189432901129875,-0.16043608888155542,95.64216657936893,0.6705883680821632,0.036271070142701936,-0.7403112557108649,-0.030498047268397038
294.0,-0.013396741044575632,-0.29121098149929436,0.06519004273447346,-0.03469406841772431,-9.755099704916475,-0.9508869215630331,-0.07116644860960726,0.0630777892086131,0.06636933285396789,5.187320922705699,-0.1799247893088129,95.56457669144399,0.6710735612869271,0.03665105245893652,-0.7398491336105646,-0.030566402123934616
295.0,-0.00859066221948207,-0.2903905416522171,0.0545553110827545,-0.0379197317310688,-9.75778360654893,-0.9372196429841082,-0.02156277605516822,0.053689057185509925,0.039969640574479284,5.211742038041636,-0.18632751854407453,95.48249523553659,0.6715740788047257,0.036871468013011964,-0.739376890169841,-0.030680740876394472
296.0,-0.007243805784970929,-0.288725667848441,0.04110457861830034,-0.039318025258323785,-9.758953473103684,-0.9254644777466148,0.039592416891405816,0.020102355917233146,-0.0004633807053161885,5.210935060766548,-0.18823313782991202,95.4089557990557,0.6720360745309204,0.03699768005974638,-0.7389421233829796,-0.030783319776432533
297.0,-0.006913447650087036,-0.2873849071807665,0.03566987754662286,-0.03978660049627794,-9.75961876832844,-0.9168752335772066,0.022896556580957156,0.0023327138276584593,0.003736912662045065,5.201007973329832,-0.187866568914956,95.35540170790532,0.6723532051590563,0.037008681758327694,-0.7386422187762278,-0.030818374454898982
298.0,-0.006079552609162625,-0.2874195007367851,0.031145112470581906,-0.04000000000000002,-9.759970674486798,-0.9125567234883543,-0.0009741782852038042,-0.0014080847735156836,-0.003466531262029577,5.193245922148787,-0.187683284457478,95.32856934030502,0.6725135562743167,0.03699700636303482,-0.7384921609042434,-0.030820607659211276
299.0,-0.0061629434600065335,-0.28784464772909624,0.02822895897233886,-0.04000000000000002,-9.759999999999994,-0.9108018221547335,-0.0003038046851238968,-0.005163964185389318,0.0021920764999725038,5.1900216658642275,-0.1875,95.31757157142329,0.6725784615926809,0.03699060191563276,-0.7384310497629727,-0.03082257369764083
300.0,-0.007276223776223778,-0.2877956989247311,0.027265659072110697,-0.04000000000000002,-9.759999999999994,-0.9101240694789066,-0.008998796902022708,0.0014954131889615761,0.008460927513346869,5.187903225806451,-0.1875,95.31327543424317,0.6726037549032249,0.03698796644168735,-0.7384070760297776,-0.030822750000000003
301.0,-0.006235052742154332,-0.28794107008382397,0.0255440180105563,-0.04000000000000002,-9.759999999999994,-0.9099999999999984,0.004759054939603808,-0.006194397401667503,-0.0054460297065316325,5.1875,-0.1875,95.3125,0.6726074199999992,0.03698730000000001,-0.7384033200000011,-0.030822750000000003
302.0,-0.006290321318065662,-0.28707505417868906,0.026417771844589384,-0.04000000000000002,-9.759999999999994,-0.9099999999999984,-0.014176228602083198,-0.0016309230410097046,-0.020550953044107232,5.1875,-0.1875,95.3125,0.6726074199999992,0.03698730000000001,-0.7384033200000011,-0.030822750000000003
303.0,-0.0067655080535737756,-0.28736755190324026,0.024450821406165668,-0.04000000000000002,-9.759999999999994,-0.9099999999999984,-0.023271426956128445,-0.006297781619760435,-0.014672188680862548,5.1875,-0.1875,95.3125,0.6726074199999992,0.036987300000000015,-0.7384033200000011,-0.030822750000000003
304.0,-0.0067991763141769185,-0.2849569919829006,0.025253269940619497,-0.04000000000000002,-9.759999999999994,-0.9099999999999984,-0.01262850428940342,0.017042946922280096,-0.00648076687220058,5.1875,-0.1875,95.3125,0.6726074199999992,0.03698730000000001,-0.7384033200000011,-0.030822750000000003
305.0,-0.006394074349659331,-0.28594975087903574,0.022828553347631356,-0.04000000000000002,-9.759999999999994,-0.9099999999999984,-0.00557347746239477,-0.002357222775419091,-0.018628163708583185,5.1875,-0.1875,95.3125,0.6726074199999992,0.03698730000000001,-0.7384033200000011,-0.030822750000000003
306.0,-0.006765386495225207,-0.28506820531618904,0.02238153714565006,-0.04000000000000002,-9.759999999999994,-0.9099999999999984,0.0028375899973682233,-0.026278144738326188,-0.015449734237536657,5.1875,-0.1875,95.3125,0.6726074199999992,0.036987300000000015,-0.7384033200000011,-0.03082275
307.0,-0.007737531957290025,-0.2846235454733438,0.01911598851417401,-0.04000000000000002,-9.759999999999994,-0.9099999999999984,0.00584816938773592,0.004899172987630648,-0.007663772299608993,5.1875,-0.1875,95.3125,0.6726074199999992,0.03698730000000001,-0.7384033200000011,-0.03082275
308.0,-0.00788187081735469,-0.2845704188284832,0.02110324084517634,-0.04000000000000002,-9.759999999999994,-0.9099999999999984,0.010888036694488307,-0.003828765320700805,-0.003690127077223851,5.1875,-0.1875,95.3125,0.6726074199999992,0.036987300000000015,-0.7384033200000011,-0.03082275
309.0,-0.008198210391758783,-0.28486156853898775,0.020056846379427035,-0.04000000000000002,-9.759999999999994,-0.9099999999999984,0.028799627791563275,-0.03033216783216783,-0.02073417174223626,5.1875,-0.1875,95.3125,0.6726074199999992,0.036987300000000015,-0.7384033200000011,-0.03082275
310.0,-0.009162643807805102,-0.2859938341228663,0.021582675389127014,-0.04000000000000002,-9.759999999999994,-0.9099999999999984,0.024648469809760133,-0.025582750582750582,0.003302879915783142,5.1875,-0.1875,95.3125,0.6726074199999992,0.03698730000000001,-0.7384033200000011,-0.03082275
311.0,-0.00796097450936161,-0.2865006391458004,0.025046920821114385,-0.04000000000000002,-9.759999999999994,-0.9099999999999984,-0.007712985938792391,0.00388046093691255,0.0053269982705466574,5.1875,-0.1875,95.3125,0.6726074199999992,0.036987300000000015,-0.7384033200000011,-0.03082275
312.0,-0.007985863598766827,-0.28654455222197145,0.02719843597262954,-0.04000000000000002,-9.759999999999994,-0.9099999999999984,-0.027439093164899616,0.008217723137077977,-0.011006466651627942,5.1875,-0.1875,95.3125,0.6726074199999992,0.03698730000000001,-0.7384033200000011,-0.03082275
313.0,-0.007992931799383415,-0.2873268666817053,0.027916835852319744,-0.04000000000000002,-9.759999999999994,-0.9099999999999984,-0.007500563952176856,-0.018022031731709152,0.015340439130761713,5.1875,-0.1875,95.3125,0.6726074199999992,0.036987300000000015,-0.7384033200000011,-0.03082275
314.0,-0.007613655162042262,-0.2865531994886832,0.027880893300248157,-0.04000000000000002,-9.759999999999994,-0.9099999999999984,-0.001546638845025942,0.008475261297841943,0.010703342356568163,5.1875,-0.1875,95.3125,0.6726074199999992,0.03698730000000001,-0.7384033200000011,-0.03082275
315.0,-0.0090487630648921,-0.28832303180690266,0.026552861117377265,-0.04000000000000002,-9.759999999999994,-0.9099999999999984,-0.002102131739228514,0.012134136025265058,0.007963474697345665,5.1875,-0.1875,95.3125,0.6726074199999992,0.036987300000000015,-0.7384033200000011,-0.030822750000000003
316.0,-0.009029081133919847,-0.2872561094819158,0.024862865628994677,-0.04000000000000002,-9.759999999999994,-0.9099999999999984,-0.011672165200391008,-0.0012718296488457778,-0.00834578727723889,5.1875,-0.1875,95.3125,0.6726074199999992,0.03698730000000001,-0.7384033200000011,-0.030822750000000003
317.0,-0.00845149071358749,-0.28633822091886596,0.024007679148808195,-0.04000000000000002,-9.759999999999994,-0.9099999999999984,-0.010479288856304985,0.002082804628167531,0.002608631288066772,5.1875,-0.1875,95.3125,0.6726074199999992,0.03698730000000001,-0.7384033200000011,-0.030822750000000003
318.0,-0.009499938905180846,-0.2882013685239491,0.01710929863147606,-0.04000000000000002,-9.759999999999994,-0.9099999999999984,0.02177648460410557,0.02996509958455523,0.023334402492668622,5.1875,-0.1875,95.3125,0.6726074199999992,0.036987300000000015,-0.7384033200000011,-0.030822750000000003
319.0,-0.009637554985337249,-0.28651026392961865,0.01381857893450636,-0.04000000000000002,-9.759999999999994,-0.9099999999999984,-0.0038661565249266863,0.003710555657380255,0.0013269031036168139,5.1875,-0.1875,95.3125,0.6726074199999992,0.03698730000000001,-0.7384033200000011,-0.030822750000000003
320.0,-0.009889418377321608,-0.2862218963831866,0.012759652981427179,-0.04000000000000002,-9.759999999999994,-0.9099999999999984,0.011294904692082112,-0.010599951124144672,0.01523170210166178,5.1875,-0.1875,95.3125,0.6726074199999992,0.03698730000000001,-0.7384033200000011,-0.030822750000000003
321.0,-0.010597051470035347,-0.28658395368072775,0.012197030791788861,-0.04000000000000002,-9.759999999999994,-0.9099999999999984,0.036767978325438,-0.01600425783893526,0.013456750742537032,5.1875,-0.1875,95.3125,0.6726074199999992,0.036987300000000015,-0.7384033200000011,-0.03082275
322.0,-0.01025209367245658,-0.2856233551394841,0.011367332600195509,-0.04000000000000002,-9.759999999999994,-0.9099999999999984,-0.005137516213625085,-2.9255019174374494e-05,0.004513688176742612,5.1875,-0.1875,95.3125,0.6726074199999992,0.036987300000000015,-0.7384033200000011,-0.030822750000000003
323.0,-0.009805680878261527,-0.28702966388450246,0.00988905180840665,-0.04000000000000002,-9.759999999999994,-0.9099999999999984,0.00782213418302128,-0.00040792540792540825,-0.012625949319497707,5.1875,-0.1875,95.3125,0.6726074199999992,0.03698730000000001,-0.7384033200000011,-0.030822750000000003
324.0,-0.010220533498759309,-0.28617367847206543,0.010005620723362661,-0.04000000000000002,-9.759999999999994,-0.9099999999999984,0.019032034833446124,-0.0003566997518610422,-0.0182111906910294,5.1875,-0.1875,95.3125,0.6726074199999992,0.03698730000000001,-0.7384033200000011,-0.030822750000000003
325.0,-0.01074305868862321,-0.2854506259869162,0.01163609105947816,-0.04000000000000002,-9.759999999999994,-0.9099999999999984,0.0016594586529062325,-0.0062481201594104824,0.022197980111286562,5.1875,-0.1875,95.3125,0.6726074199999992,0.036987300000000015,-0.7384033200000011,-0.03082275
326.0,-0.00996067138506655,-0.2848032887811113,0.013288231257989327,-0.04000000000000002,-9.759999999999994,-0.9099999999999984,0.010620879036957666,-0.011091764418377321,0.011417153075419205,5.1875,-0.1875,95.3125,0.6726074199999992,0.03698730000000001,-0.7384033200000011,-0.03082275
327.0,-0.010379878186329804,-0.28415234228137437,0.01401112865628995,-0.04000000000000002,-9.759999999999994,-0.9099999999999984,-0.012807823896533576,-0.012249511241446725,0.017682250545153773,5.1875,-0.1875,95.3125,0.6726074199999992,0.036987300000000015,-0.7384033200000011,-0.03082275
328.0,-0.011708399127753972,-0.2834480036092938,0.002263252876156103,-0.04000000000000002,-9.759999999999994,-0.9083325062034726,0.0706641476802767,0.003289251071509137,0.0058101173020527865,5.1875,-0.1875,95.30257444168734,0.6726709085558309,0.036987300000000015,-0.7383509774491317,-0.03082275
329.0,-0.006897555322602764,-0.2865720553955847,-0.009202885665883781,-0.03688804554079697,-9.761138519924092,-0.8863958546197632,0.35982642436627255,0.4181684381399751,-0.06881936058881032,5.286646110056926,-0.1784867172675522,95.1751842796672,0.6734813804448982,0.03736393537001898,-0.737578479654357,-0.03139905292220113
330.0,-0.01683445649859312,-0.27767915070381854,-0.006363229433438168,-0.022075359175928438,-9.765656817565727,-0.835303918093292,0.0156297134238311,-0.09578329245074974,0.06367610488815423,5.794676741664407,-0.11110395771211709,94.88024766978752,0.6752405411994076,0.03940326280943346,-0.7357182542234917,-0.034419965276768764
331.0,-0.003688420407131153,-0.28349627409765843,-0.025156681146578774,-0.029583794990054153,-9.762828408782859,-0.8545510958026665,-0.10519722113148895,-0.21164834944567418,0.042726913223612585,5.140338711586407,-0.1656581805825465,94.98596947323996,0.6747292799363693,0.03585393001898297,-0.7365292461758075,-0.030502294957784653
332.0,-0.004132051394632574,-0.28288213208604995,-0.02940960608197426,-0.029630607172446442,-9.761414204391428,-0.8667916769335918,-0.09369662545408194,-0.13440668092631103,0.0463014218723522,5.099403226760945,-0.17657909029127325,95.05246054307159,0.6742983886778624,0.03560156468691082,-0.7369874516040331,-0.03015849151115039
333.0,-0.004196298650169885,-0.2827648873829752,-0.02859314050996977,-0.029654013263642587,-9.76070710219571,-0.8729640766801958,-0.054812022404460335,-0.056409295798143105,0.029811691085059475,5.078935484348214,-0.18203954514563664,95.08601625168467,0.6740809590312391,0.035475382020874746,-0.7372244898938283,-0.029986589787833258
334.0,-0.006348039852015318,-0.2826575495154549,-0.028271537413064006,-0.02976296488609076,-9.760317972350226,-0.8767097423249182,-0.02515383086359347,-0.030302425595758166,0.029069836200827794,5.0656032972025695,-0.1850514376582073,95.10661996170572,0.6739479089700791,0.03540052083254361,-0.7373663317424552,-0.029882629459855904
335.0,-0.007266185824625173,-0.28174352130150615,-0.028522865480725558,-0.030231712857791936,-9.759999999999994,-0.879836437982736,0.009701310374654878,-0.0232589316918883,0.009422590911473806,5.044610404361654,-0.1885222626079055,95.12414811449341,0.6738390737891873,0.035305246183552894,-0.7374833144334401,-0.029745250517946385
336.0,-0.007428815136476428,-0.28080350496277895,-0.028907258064516148,-0.030000000000000027,-9.759999999999994,-0.8800000000000009,0.03318567772952854,-0.019903458436724565,0.008837042493796526,5.0625,-0.1875,95.125,0.6738281200000005,0.03540038999999996,-0.7374873962580653,-0.029846189999999995
337.0,-0.008552999084249086,-0.28101993358344146,-0.02876348763243926,-0.030000000000000027,-9.759999999999994,-0.8800000000000009,0.019431666703592105,-0.008028159956083343,-0.0014927493821143014,5.0625,-0.1875,95.125,0.6738281200000005,0.03540038999999996,-0.7374877900000006,-0.029846189999999995
338.0,-0.00888827838827839,-0.2800701017172791,-0.028871275453936758,-0.030000000000000027,-9.759999999999994,-0.8800000000000009,-0.007976910522273426,-0.014286160468116114,-0.009387862361652686,5.0625,-0.1875,95.125,0.6738281200000005,0.03540038999999996,-0.7374877900000006,-0.029846189999999995
339.0,-0.00875679428098783,-0.28149907070975616,-0.027090724575603624,-0.030000000000000027,-9.759999999999994,-0.8800000000000009,-0.02919006816436252,-0.016913551698077907,-0.013502864183307733,5.0625,-0.1875,95.125,0.6738281200000005,0.03540038999999996,-0.7374877900000006,-0.029846189999999995
340.0,-0.008269526172751982,-0.2823548780968135,-0.03011038244909214,-0.030000000000000027,-9.759999999999994,-0.8800000000000009,0.0030145929339477698,-0.013449845405490568,0.00036802355350742336,5.0625,-0.1875,95.125,0.6738281200000005,0.03540038999999996,-0.7374877900000006,-0.029846189999999995
341.0,-0.008943696088857383,-0.28300126038835705,-0.029583727204694963,-0.030000000000000027,-9.759999999999994,-0.8800000000000009,-0.03450386978612785,-0.023179637342943794,0.028332274804048995,5.0625,-0.1875,95.125,0.6738281200000005,0.03540038999999996,-0.7374877900000006,-0.029846189999999995
342.0,-0.010527915632754348,-0.28204466501240677,-0.0291671836228288,-0.030000000000000027,-9.759999999999994,-0.8800000000000009,-0.020828163771712156,-0.03279117555831265,0.0007172766749379642,5.0625,-0.1875,95.125,0.6738281200000005,0.03540038999999996,-0.7374877900000006,-0.029846189999999995
343.0,-0.009418631100082717,-0.2829897736671929,-0.02944455880141366,-0.030000000000000027,-9.759999999999994,-0.8800000000000009,-0.005945700804571772,-0.02195051672118204,0.02115014521768554,5.0625,-0.1875,95.125,0.6738281200000006,0.03540038999999996,-0.7374877900000008,-0.029846189999999995
344.0,-0.009158171353735874,-0.28128388994518017,-0.030534048276991847,-0.030000000000000027,-9.759999999999994,-0.8800000000000009,0.016747796334489883,-0.008632462267794929,0.016471080722592818,5.0625,-0.1875,95.125,0.6738281200000006,0.03540038999999996,-0.7374877900000008,-0.029846189999999995
345.0,-0.008661514336917565,-0.2811473730122922,-0.03109259020549345,-0.030000000000000027,-9.759999999999994,-0.8800000000000009,0.007310583961289607,0.007767699929998317,0.004044802923331148,5.0625,-0.1875,95.125,0.6738281200000006,0.03540038999999996,-0.7374877900000008,-0.029846189999999995
346.0,-0.009655819203198239,-0.28131065921086074,-0.03278450850225045,-0.030000000000000027,-9.759999999999994,-0.8800000000000009,-0.004672871791067356,-0.00948463638735816,-0.0028318169006173043,5.0625,-0.1875,95.125,0.6738281200000005,0.03540038999999996,-0.7374877900000008,-0.029846189999999995
347.0,-0.009956437827405573,-0.2817667207344625,-0.03294467360596394,-0.030000000000000027,-9.759999999999994,-0.8800000000000009,0.014910917935111482,0.002975675757933822,0.01866662683194941,5.0625,-0.1875,95.125,0.6738281200000005,0.03540038999999996,-0.7374877900000008,-0.029846189999999995
348.0,-0.011698649021229673,-0.2807416203867815,-0.03236432116270827,-0.030000000000000027,-9.759999999999994,-0.8800000000000009,0.01993407578084997,-0.011937748631297018,0.009195850072866201,5.0625,-0.1875,95.125,0.6738281200000005,0.03540038999999996,-0.7374877900000006,-0.029846189999999995
349.0,-0.011502481389578168,-0.28148759305210913,-0.03195316377171217,-0.030000000000000027,-9.759999999999994,-0.8800000000000009,-0.0040245037220843684,-0.02191377171215881,-0.011955257444168733,5.0625,-0.1875,95.125,0.6738281200000005,0.03540038999999996,-0.7374877900000006,-0.029846189999999995
350.0,-0.011336848635235736,-0.2827115384615384,-0.0313463089330025,-0.030000000000000027,-9.759999999999994,-0.8800000000000009,0.04911988213399503,-0.15624224565756822,-0.01280145006203474,5.039671215880893,-0.1875,95.125,0.6738310281091816,0.035293767905707166,-0.7374877900000006,-0.029730359607940442
351.0,-0.00836459194926937,-0.2828056097128677,-0.024459282317145233,-0.030000000000000027,-9.759999999999994,-0.8800000000000009,0.024854606079404463,-0.09663209214620505,0.00806026201061483,4.922053349875931,-0.1875,95.125,0.6738610785707204,0.03468553572704711,-0.7374877900000006,-0.029063727707196025
352.0,-0.006239290391508135,-0.2831938253278978,-0.017017986381897682,-0.030000000000000027,-9.759999999999994,-0.8800000000000009,0.0054401558622828765,-0.051017949764169526,0.0163190674972429,4.863244416873449,-0.1875,95.125,0.6738761038014898,0.034381419637717084,-0.7374877900000006,-0.028730411756823816
353.0,-0.010607664736696996,-0.2837433534207726,-0.0049006262554649686,-0.03238213399503725,-9.759999999999994,-0.8735682382133998,0.09116004962779156,-0.18190751900429317,-0.015677557209815274,4.800589330024813,-0.1875,95.08678660049627,0.6741322406153848,0.034039866565756804,-0.7372852088784122,-0.02838249720595533
354.0,-0.0046462641301350995,-0.284457284650833,0.006237031785418885,-0.03532009925558315,-9.763890818858552,-0.8525657568238212,0.22565136476426798,-0.3376038835716255,-0.05099944858009374,4.596060794044664,-0.21181761786600495,94.96892059553349,0.674962562362283,0.03298751805955334,-0.7366144585459058,-0.027254756109181117
355.0,0.0013745895681379554,-0.2837306349564413,0.024025350993092935,-0.04094939469133017,-9.767106699751853,-0.8323434844725168,0.05844236408752538,-0.2923281467636306,-0.023816327042133496,4.361274343935634,-0.2319168734491315,94.85732197909616,0.6757918430691032,0.03178929167892322,-0.7359528504117607,-0.025926539440559414
356.0,-0.0003786122399507088,-0.2835910207590515,0.030792738316089308,-0.04433362849636321,-9.767482093255797,-0.8337547947157959,-0.2779526263337048,0.07590124327606274,-0.06050255714434819,4.249862617321693,-0.239077719343728,94.87127654082396,0.675744186695842,0.031209137560694156,-0.7360432625265352,-0.025277414867126126
357.0,-0.0048778917279158,-0.28472230938696985,0.03894971903397518,-0.04184423360302031,-9.763741046627896,-0.8600225586482209,-0.10853276477975562,0.05113300377202641,-0.0901303108302386,4.337632921564072,-0.213288859671864,95.021827786541,0.6747290596382436,0.031443191925508346,-0.7369456788439125,-0.025665776949692104
358.0,-0.0054827085528818785,-0.2885502666567904,0.05042402862744702,-0.035847675114165256,-9.761870523313945,-0.8951585084390813,-0.2095351056021494,0.035354831835633475,-0.07902259582417262,4.382557155571117,-0.200394429835932,95.23149955760617,0.67337537300109,0.031558264617840996,-0.738178627858154,-0.025862669194449038
359.0,-0.003312073879418606,-0.286892999333358,0.043537076348462975,-0.0368444330905814,-9.76081367356764,-0.9094576661302104,-0.08705663468693078,0.027385852642382497,0.01991798248493603,4.41043180359201,-0.19318728935965335,95.32248054803385,0.6727655679943415,0.03167873033621579,-0.7387209762988045,-0.02596620213320466
360.0,-0.0016853624529057842,-0.28912343026296433,0.0353242566493048,-0.03832446483463577,-9.760245546461235,-0.9061120197708721,0.04431075890286891,0.012654314395482546,0.06989300883777592,4.4285327395281655,-0.18933558016369764,95.32644066502377,0.6728436778925764,0.03175619321551746,-0.7386427403365974,-0.026035181946367718
361.0,-0.0028710875817730655,-0.29069989519888706,0.030821344649973693,-0.03904668114143922,-9.759999999999994,-0.9040791201406112,0.003962997687796073,0.022234901355365065,0.03248085499849613,4.4375,-0.1875,95.3262409150829,0.6728971516882236,0.031794874099333105,-0.7385904593498109,-0.026069798060328768
362.0,-0.0021603034062711484,-0.2886710936912549,0.03572200917362208,-0.039538461538461564,-9.759999999999994,-0.9022638544251438,-0.01831840034965035,0.014181869877434396,0.04539433181066245,4.4375,-0.1875,95.32165435371081,0.672954866675765,0.03179783543424315,-0.7385375310357931,-0.026064827230769215
363.0,-0.0022479838709677418,-0.2906512096774192,0.03563027295285359,-0.03993052109181143,-9.759999999999994,-0.9006749379652594,0.05019676643920595,-0.01043152915632754,0.013856040632754339,4.4375,-0.1875,95.29088089330025,0.6730569332605462,0.031799562233250596,-0.7384412785062036,-0.026086668342431764
364.0,-0.002396944789081886,-0.28975736662531004,0.036105459057071965,-0.04000000000000002,-9.759999999999994,-0.899999999999999,0.010760604063275432,-0.02140683157568238,0.046444149348635236,4.4375,-0.1875,95.26808312655086,0.6731211791414397,0.03179931999999998,-0.7383785777270466,-0.026105631637717133
365.0,-0.0012009925558312657,-0.28876622302428745,0.035048086322279876,-0.04000000000000002,-9.759999999999994,-0.899999999999999,0.005619430972253552,-0.01103466426047071,0.03405542709978193,4.4375,-0.1875,95.2580334987593,0.6731409284416879,0.03179931999999998,-0.738358464992555,-0.02611532533498761
366.0,-0.0011094568513923353,-0.2903339563662144,0.03405328810973973,-0.04000000000000002,-9.759999999999994,-0.899999999999999,0.0072624312291651,-0.023639845817265172,0.03456089721210688,4.4375,-0.1875,95.25300868486352,0.673150803091812,0.03179931999999998,-0.7383484086253094,-0.02612017218362285
367.0,-0.0018773090708574577,-0.28958633302181674,0.035664361176457965,-0.04000000000000002,-9.759999999999994,-0.899999999999999,0.0007621089148306887,0.00643379917573466,0.010968413866599348,4.4375,-0.1875,95.25049627791563,0.673155740416874,0.03179931999999998,-0.7383433804416863,-0.026122595607940467
368.0,-0.002725255031706644,-0.2903068141535883,0.03654185800758382,-0.04000000000000002,-9.759999999999994,-0.899999999999999,0.006119267856919066,-0.021550470139179816,0.00976460395563218,4.4375,-0.1875,95.25,0.6731567400000005,0.03179931999999998,-0.738342289999999,-0.026123050000000023
369.0,-0.003580369451337193,-0.29081872965743927,0.03590701771346933,-0.04000000000000002,-9.759999999999994,-0.899999999999999,0.02263813695265308,0.014930410091700414,-0.010018151651216167,4.4375,-0.1875,95.25,0.6731567400000005,0.03179931999999998,-0.738342289999999,-0.026123050000000023
370.0,-0.003080507306313758,-0.2900403521209972,0.03587628500531727,-0.04000000000000002,-9.759999999999994,-0.899999999999999,0.01878791011855528,0.007480478750640041,-0.01095054698885344,4.4375,-0.1875,95.25,0.6731567400000005,0.03179931999999998,-0.738342289999999,-0.026123050000000023
371.0,-0.002732009925558313,-0.29039267990074435,0.036117866004962786,-0.04000000000000002,-9.759999999999994,-0.899999999999999,0.018354528535980148,0.022429435483870965,0.010613756203473945,4.4375,-0.1875,95.25,0.6731567400000005,0.03179931999999998,-0.738342289999999,-0.026123050000000023
372.0,-0.002775434243176179,-0.29158715880893293,0.03527853598014889,-0.04000000000000002,-9.759999999999994,-0.899999999999999,0.02087856699751861,0.006104606079404466,0.013037957506203474,4.4375,-0.1875,95.25,0.6731567400000005,0.03179931999999998,-0.738342289999999,-0.026123050000000023
373.0,-0.0024423076923076924,-0.2917290632754342,0.03728442928039703,-0.04000000000000002,-9.759999999999994,-0.899999999999999,-0.005177962158808934,-0.013526481079404464,0.01334280009305211,4.4375,-0.1875,95.25,0.6731567400000005,0.03179931999999998,-0.738342289999999,-0.026123050000000023
374.0,-0.0015476116625310178,-0.2902091346153845,0.0369709212158809,-0.04000000000000002,-9.759999999999994,-0.899999999999999,0.006241761011166254,-0.013009848014888336,0.009081788926799008,4.4375,-0.1875,95.25,0.6731567400000005,0.03179931999999998,-0.738342289999999,-0.026123050000000023
375.0,-0.002749612282878412,-0.29060103908188584,0.03806963399503723,-0.04000000000000002,-9.759999999999994,-0.899999999999999,-0.01979683622828784,-0.01003314981389578,0.03546012329404467,4.4375,-0.1875,95.25,0.6731567400000005,0.03179931999999998,-0.738342289999999,-0.026123050000000023
376.0,-0.0016546215880893298,-0.28941446960297756,0.039492323200992566,-0.04000000000000002,-9.759999999999994,-0.899999999999999,-0.010678214174937965,-0.015509169509925558,0.007284720068238215,4.4375,-0.1875,95.25,0.6731567400000005,0.03179931999999998,-0.738342289999999,-0.026123050000000023
377.0,-0.0015077543424317618,-0.28885794044665003,0.035237593052109197,-0.04000000000000002,-9.759999999999994,-0.8970967741935479,-0.018806218982630272,-0.02878218052109181,0.05582544975186104,4.4375,-0.1875,95.25,0.6732305725806456,0.03179931999999998,-0.7382866678225797,-0.026123050000000023
378.0,-0.0017675248138957814,-0.2902056451612902,0.032066687344913164,-0.04000000000000002,-9.759999999999994,-0.8933870967741936,0.02635991780397022,-0.040057963709677416,0.025175441997518606,4.4375,-0.1875,95.25,0.6733196640322584,0.03179931999999998,-0.7382199705241925,-0.026123050000000023
379.0,-0.002618253722084367,-0.28948743796526044,0.03156187965260547,-0.04000000000000002,-9.759999999999994,-0.8915322580645164,0.04464708049007444,-0.02233977589950372,-0.008814264112903225,4.4375,-0.1875,95.25,0.6733642097580648,0.03179931999999998,-0.7381866218749991,-0.026123050000000023
380.0,-0.0024371898263027296,-0.28798169975186094,0.029602512406947907,-0.04000000000000002,-9.759999999999994,-0.8906048387096778,0.008143998138957815,-0.03587352667493797,-0.0028865539702233245,4.4375,-0.1875,95.25,0.6733864826209679,0.03179931999999998,-0.7381699475504022,-0.026123050000000023
381.0,-0.002095766129032258,-0.28909879032258057,0.029063042803970242,-0.04000000000000002,-9.759999999999994,-0.8901411290322585,-0.02161813740694789,-0.016114492866004963,0.026588670905707195,4.4375,-0.1875,95.25,0.6733976190524196,0.03179931999999998,-0.7381616103881039,-0.026123050000000023
382.0,-0.00304133064516129,-0.28876814516129024,0.02886871898263029,-0.04000000000000002,-9.759999999999994,-0.8900000000000005,-0.049210026364764264,-0.007899736352357321,0.02324897254962779,4.4375,-0.1875,95.25,0.6734008800000002,0.03179931999999998,-0.7381591799999989,-0.026123050000000023
383.0,-0.0024407568238213402,-0.28935887096774193,0.02563554590570721,-0.04000000000000002,-9.759999999999994,-0.8900000000000005,-0.01627830334987593,0.004313352977667493,0.017658576302729528,4.4375,-0.1875,95.25,0.6734008800000002,0.03179931999999998,-0.7381591799999989,-0.026123050000000023
384.0,-0.003020626550868486,-0.2886508995037221,0.027072115384615403,-0.04000000000000002,-9.759999999999994,-0.8900000000000005,-0.005603481699751859,-0.00028594137717121576,0.013528419665012406,4.4375,-0.1875,95.25,0.6734008800000002,0.03179931999999998,-0.7381591799999989,-0.026123050000000023
385.0,-0.0025847549627791566,-0.2893800403225806,0.029759382754342447,-0.04000000000000002,-9.759999999999994,-0.8900000000000005,-0.004817869882133995,-0.011278206420595533,-0.011675616470223325,4.4375,-0.1875,95.25,0.6734008800000002,0.03179931999999998,-0.7381591799999989,-0.026123050000000023
386.0,-0.00158723635235732,-0.29001008064516115,0.027961848635235747,-0.04000000000000002,-9.759999999999994,-0.8900000000000005,-0.007654020626550868,-0.0208073239764268,-0.005696049162531017,4.4375,-0.1875,95.25,0.6734008800000002,0.03179931999999998,-0.7381591799999989,-0.026123050000000023
387.0,-0.0035891749379652607,-0.2903478598014887,0.027412996277915647,-0.04000000000000002,-9.759999999999994,-0.8900000000000005,-0.014524852667493796,0.008470649813895783,-0.019587468982630273,4.4375,-0.1875,95.25,0.6734008800000002,0.03179931999999998,-0.7381591799999989,-0.026123050000000023
388.0,-0.003567166144787112,-0.2897643036846665,0.026531698028673847,-0.04000000000000002,-9.759999999999994,-0.8900000000000005,-0.00704505857605656,0.02806823482856749,-0.021756592421915,4.4375,-0.1875,95.25,0.6734008800000002,0.03179931999999998,-0.7381591799999989,-0.026123050000000023
389.0,-0.0029768412590993228,-0.2895239070964876,0.027037308569566647,-0.04000000000000002,-9.759999999999994,-0.8900000000000005,-0.01829554294272036,0.01948921654062783,-0.03446471483265838,4.4375,-0.1875,95.25,0.6734008800000003,0.03179931999999998,-0.7381591799999989,-0.026123050000000023
390.0,-0.003279983904983904,-0.28952374014874005,0.027449175376594744,-0.04000000000000002,-9.759999999999994,-0.8900000000000005,-0.018995786359697647,0.012598206285202251,-0.019636203570175342,4.4375,-0.1875,95.25,0.6734008800000002,0.03179931999999998,-0.7381591799999989,-0.026123050000000023
391.0,-0.0034322666580731092,-0.28975178942920865,0.02731041718138494,-0.04000000000000002,-9.759999999999994,-0.8900000000000005,-0.042078978369300954,0.009843830005120327,-0.012409767651703138,4.4375,-0.1875,95.25,0.6734008800000002,0.03179931999999998,-0.7381591799999989,-0.026123050000000023
392.0,-0.003532510500252436,-0.2897071602232892,0.030531139111784285,-0.04000000000000002,-9.759999999999994,-0.8900000000000005,-0.024637504072987943,0.006317696640277285,-0.006189375140988044,4.4375,-0.1875,95.25,0.6734008800000002,0.03179931999999998,-0.7381591799999989,-0.026123050000000023
393.0,-0.00321861650893909,-0.290183998796902,0.028669760347179715,-0.04000000000000002,-9.759999999999994,-0.8900000000000005,-0.01431986472309053,-0.0055336464610658154,0.019109564270854595,4.4375,-0.1875,95.25,0.6734008800000002,0.03179931999999998,-0.7381591799999989,-0.026123050000000023
394.0,-0.002376659183110796,-0.2905074441687344,0.02719656150301313,-0.04000000000000002,-9.759999999999994,-0.8900000000000005,-0.034423495411398636,0.03234742408129505,-0.001304821970144551,4.4375,-0.1875,95.25,0.6734008800000002,0.03179931999999998,-0.7381591799999989,-0.026123050000000023
395.0,-0.002242920162275001,-0.2906581885856079,0.02640721375398796,-0.04000000000000002,-9.759999999999994,-0.8900000000000005,-0.0173978519240616,0.01758500236322817,-0.006018415947851432,4.4375,-0.1875,95.25,0.6734008800000002,0.03179931999999998,-0.7381591799999989,-0.026123050000000023
396.0,-0.0017909429280397022,-0.2907323200992555,0.025427109181141452,-0.04000000000000002,-9.759999999999994,-0.8900000000000005,0.019038849255583128,0.0016400434243176174,-0.006457428660049627,4.4375,-0.1875,95.25,0.6734008800000002,0.03179931999999998,-0.7381591799999989,-0.026123050000000023
397.0,-0.002185794044665012,-0.2901329094292803,0.025512562034739464,-0.04000000000000002,-9.759999999999994,-0.8900000000000005,0.024035553660049627,0.0022468207196029775,-0.01562015353598015,4.4375,-0.1875,95.25,0.6734008800000002,0.03179931999999998,-0.7381591799999989,-0.026123050000000023
398.0,-0.0025780086848635232,-0.2886049162531016,0.024663228908188596,-0.04000000000000002,-9.759999999999994,-0.8900000000000005,-0.004049220688585608,0.005403807382133995,-0.026133587934243176,4.4375,-0.1875,95.25,0.6734008800000002,0.03179931999999998,-0.7381591799999989,-0.026123050000000023
399.0,-0.003090105459057072,-0.2896074751861041,0.025017524813895797,-0.04000000000000002,-9.759999999999994,-0.8900000000000005,-0.017039198200992554,-0.010311336848635236,-0.03255563740694789,4.4375,-0.1875,95.25,0.6734008800000002,0.03179931999999998,-0.7381591799999989,-0.026123050000000023
400.0,-0.0037683777915632757,-0.2895493951612903,0.026691144540942943,-0.04000000000000002,-9.759999999999994,-0.8900000000000005,0.009641070874689824,-0.0052021944789081885,-0.039292707040942926,4.4375,-0.1875,95.25,0.6734008800000002,0.03179931999999998,-0.7381591799999989,-0.026123050000000023
401.0,-0.003418087065264485,-0.2897620967741935,0.026631422564890324,-0.04000000000000002,-9.759999999999994,-0.8900000000000005,-0.017007611564063177,0.02322105537831344,-0.053330259290440746,4.4375,-0.1875,95.25,0.6734008800000002,0.03179931999999998,-0.7381591799999989,-0.026123050000000023
402.0,-0.0027616790691387463,-0.28934108297616346,0.027835299221387947,-0.04000000000000002,-9.759999999999994,-0.8900000000000005,-0.008953557643073772,0.020850414146785116,-0.027254929630181647,4.4375,-0.1875,95.25,0.6734008800000003,0.03179931999999998,-0.7381591799999989,-0.026123050000000023
403.0,-0.0036716661474725984,-0.2889094527784042,0.02667722622359721,-0.04000000000000002,-9.759999999999994,-0.8900000000000005,0.01820467279136634,0.012315328041134494,-0.014588276307026308,4.4375,-0.1875,95.25,0.6734008800000002,0.03179931999999998,-0.7381591799999989,-0.026123050000000023
404.0,-0.0034723095005353066,-0.2895254459921797,0.02470337737978868,-0.04000000000000002,-9.759999999999994,-0.8900000000000005,0.007078453020993344,0.012578259554066006,-0.004657661726714147,4.4375,-0.1875,95.25,0.6734008800000002,0.03179931999999998,-0.7381591799999989,-0.026123050000000023
405.0,-0.003094870631160954,-0.29119956387698315,0.023012164806519658,-0.04000000000000002,-9.759999999999994,-0.8900000000000005,-0.010923591417543031,0.00480029603013474,-0.01847773362390298,4.4375,-0.1875,95.25,0.6734008800000002,0.03179931999999998,-0.7381591799999989,-0.026123050000000023
