time,linaccel_x,linaccel_y,linaccel_z,gravity_x,gravity_y,gravity_z,gyro_x,gyro_y,gyro_z,euler_x,euler_y,euler_z,quaternion_w,quaternion_y,quaternion_x,quaternion_z
0.0,0.010746268656716422,-0.05089552238805969,-0.11208955223880597,-0.236716417910448,-0.7513432835820896,-9.76999999999999,0.008395522388059701,0.17350746268656717,0.37220149253731344,170.83488805970148,-1.4076492537313432,175.5419776119403,0.037554841194029874,-0.0795515810447762,-0.9960017376119411,0.015513862388059694
1.0,0.003373756218905474,-0.04842350746268655,-0.11246735074626864,-0.2334888059701495,-0.7504477611940299,-9.769999999999989,-0.11959732587064677,0.06434623756218906,0.3050567475124378,170.9091553949005,-1.3858830845771144,175.5556592039801,0.0375426937313433,-0.07894766357742539,-0.9960586272248142,0.015282142671019893
2.0,0.006987021063513604,-0.050363321380112416,-0.11226955724623633,-0.2319281029915361,-0.7501918976545843,-9.76999999999999,-0.045303615849324796,0.05787998925825419,0.10963470997286298,170.89234365409155,-1.3655949150352136,175.5595682302772,0.03755349211862766,-0.07905357296175371,-0.9960533320140974,0.015173678200999869
3.0,0.008593943162973017,-0.05391084350972409,-0.10986509686416403,-0.23424306497813985,-0.7463482587064678,-9.769999999999989,-0.10074367744610283,0.07327931837026987,0.09046634724106739,171.04926285947158,-1.3701134479119552,175.56312189054728,0.03739145063048396,-0.0776833148249378,-0.9961618569498625,0.015185060812207898
4.0,0.017485273412993683,-0.055975155381450495,-0.11039692939262633,-0.23413301892298063,-0.7430717380837748,-9.76999999999999,-0.09593037835018456,0.05327188972658701,0.3235044193438963,171.3916750957,-1.365895048219314,175.5921701974001,0.03724962236092268,-0.07472910676892751,-0.9963914164634626,0.015050088183085668
5.0,0.021159730125034658,-0.05899463915758448,-0.1086789362388935,-0.23829249099079397,-0.7413529128550795,-9.76999999999999,-0.12581321079718708,0.003798336716344962,0.31019666262711365,171.61981051658404,-1.3821398870748896,175.6099241694752,0.03713603745641295,-0.07273930876350693,-0.9965366544383818,0.015145550592615194
6.0,0.031230066675420554,-0.059469368699026845,-0.1100004376942268,-0.2478794444201281,-0.7405151661049592,-9.76999999999999,-0.1313041646605681,0.014938139215943742,0.23429726368159204,171.73452522942472,-1.4445523482295268,175.6184701492537,0.037032285561051065,-0.07172274610225993,-0.9966107610329584,0.015604119982127492
7.0,0.038528034315227375,-0.060883266949708914,-0.11090442217067156,-0.25918165769393486,-0.7400962927298991,-9.76999999999999,-0.12104980960301134,0.05646711457375877,0.3406182066208546,171.9767292569411,-1.5069474839876862,175.62274313914298,0.036925594579157034,-0.06960716235464905,-0.9967582024421877,0.01608852239331203
8.0,0.04390773405698778,-0.06203046351818618,-0.11110459433040076,-0.26605929297792535,-0.7400000000000002,-9.76999999999999,-0.1134859062458966,0.013353321369691131,0.226414664215579,172.22825389183117,-1.5560585999620664,175.62481945113143,0.036861003358427825,-0.06743792097751711,-0.9969066907901838,0.016388416386834158
9.0,0.04771785912969895,-0.06224575515892422,-0.11031344932864683,-0.2707042468392449,-0.7371575502571299,-9.76999999999999,-0.08565650248692785,0.03370295104231488,-0.29244868828114945,172.40113597510344,-1.5788769202248352,175.625,0.036819798924020736,-0.06593630690450589,-0.9970046550334708,0.016518858459268745
10.0,0.0548954259684619,-0.06895348261878165,-0.11004908835904627,-0.27996640538224304,-0.734958168484366,-9.76999999999999,-0.1102119613585775,-0.026816958335949985,0.2033064111737627,172.50781611276145,-1.6335137672278668,175.64714732787672,0.03665446062481803,-0.06500268252412233,-0.9970614875365779,0.016931829472882937
11.0,0.055459268111818824,-0.07342003802230715,-0.11007958422854489,-0.2865993156745912,-0.7289282898271612,-9.76999999999999,-0.08609701159509096,-0.001784277959938926,0.35566152724836864,172.775812600741,-1.6745589199863236,175.68855320173327,0.03638237620158484,-0.06268778762135706,-0.9972144124595466,0.017183482965457686
12.0,0.054379194173211465,-0.07989428098573814,-0.11040147344369572,-0.2871486314443335,-0.7210917108959854,-9.76999999999999,-0.1444506318972522,0.005858838537137086,0.33851013801323615,172.92072949196387,-1.675225452173025,175.7212927298989,0.036048551016237204,-0.06142499334391412,-0.997307733069949,0.01716102040012865
13.0,0.0630198996679916,-0.08300073110062434,-0.1101814781758681,-0.2918853782754056,-0.715061984480251,-9.76999999999999,-0.11118984504014123,0.04305293321249654,0.0031966359856188675,173.057248426216,-1.7016656778290407,175.7376624939817,0.03585778377177551,-0.06019411591213337,-0.9973878897981506,0.0173429984060567
14.0,0.07007642590117312,-0.0852793420670166,-0.11160643657417851,-0.30525440920818875,-0.7121359478268486,-9.76999999999999,-0.08888847270527578,-0.01556378944438646,0.18819544281749387,173.14957667112216,-1.7774772090371513,175.7458473760231,0.03572106475584855,-0.05937783611160307,-0.9974309269606786,0.017945550640616006
15.0,0.0774902702817965,-0.08843382680551673,-0.10985517932556932,-0.3143382523430669,-0.7106972469033139,-9.76999999999999,-0.11273406821071721,-0.02724135918647233,0.1589545785621857,173.22880300168453,-1.8293982097183832,175.74924771304768,0.035643213630433435,-0.05867443161066986,-0.9974657421862757,0.018398151907693644
16.0,0.08350718099105195,-0.08656297465974885,-0.10833709301451239,-0.3179369125498158,-0.7101319648093848,-9.76999999999999,-0.11686733964959771,0.01280218437476502,0.13795915106398976,173.250787653207,-1.8563660801564028,175.75,0.035613645679073595,-0.05848229221798634,-0.9974758645826751,0.01862458222039251
17.0,0.09041439205955334,-0.08819106699751861,-0.10834987593052109,-0.31966004962779154,-0.7108064516129037,-9.76999999999999,-0.014384305210918116,0.05856079404466501,-0.018416563275434242,173.37679900744416,-1.8578629032258065,175.7696572580645,0.03557127507071958,-0.05745500440322582,-0.9975402136476423,0.018612784160049627
18.0,0.0927382133995037,-0.08972580645161289,-0.11123945409429283,-0.3192667493796527,-0.7132617866004967,-9.76999999999999,-0.1245308622828784,0.019602977667493797,0.29567695409429284,173.50525744416873,-1.8609258684863523,175.7727318548387,0.03563749765198511,-0.056329461715260556,-0.9976010035111658,0.018591581419975182
19.0,0.09200618346273909,-0.09316163051308732,-0.11148829344432884,-0.3196780397022334,-0.7116308933002486,-9.76999999999999,-0.08304756913871768,0.016656827823581206,0.14447609411270315,173.6767567337709,-1.8684437034739454,175.79362399193548,0.03549352320644561,-0.05487537266328146,-0.9976890744651798,0.018588959763057307
20.0,0.0886780296966301,-0.09470860681981907,-0.11133843952613465,-0.3198017990074443,-0.7108154466501246,-9.76999999999999,-0.018152196480028814,0.00948381093412311,-0.03900574946970302,173.69869164231972,-1.8717218517369727,175.80407006048387,0.035434470118111135,-0.05468197829814196,-0.9977032321432598,0.01856587268798026
21.0,0.08518564134010283,-0.09465561500154368,-0.11080077279784617,-0.31989097394540955,-0.7104077233250626,-9.76999999999999,1.5437464424522367e-05,0.012608993576085147,-0.036942021609482255,173.63540351346754,-1.873314399813896,175.80929309475806,0.035414188937467464,-0.05528645856373877,-0.997663657451283,0.018524733138034793
22.0,0.08159843702949843,-0.09405327793087936,-0.10977018606610175,-0.3199404466501242,-0.7101786600496285,-9.76999999999999,-0.0017801456911108317,0.007738588569916613,-0.026144251892170723,173.60014883334668,-1.8745037220843672,175.81129032258065,0.0354051052373829,-0.05561845102330085,-0.9976419975462065,0.018508207090690787
23.0,0.08131766884693523,-0.0934244617461969,-0.11190174235667212,-0.3200000000000002,-0.7100000000000006,-9.76999999999999,-0.0003052453421535108,0.005693816017128321,-0.03544665568273789,173.5804094042664,-1.875,175.8125,0.03539785568320756,-0.05580825417530207,-0.9976302382693818,0.01850023181581686
24.0,0.08056646206002345,-0.09103729735477262,-0.1105945541804998,-0.3200000000000002,-0.7100000000000006,-9.76999999999999,0.03022816040871777,0.021101237575979055,-0.05619082201906083,173.56716229838707,-1.875,175.8125,0.035399805539314474,-0.0559586554383274,-0.9976225524697591,0.01849549596774194
25.0,0.0798645590737162,-0.09025386915085146,-0.1097801562525808,-0.3200000000000002,-0.7100000000000006,-9.76999999999999,0.02329749103942652,0.0417523495697273,-0.027294650083411788,173.5625,-1.875,175.8125,0.03540038999999996,-0.056017473885998356,-0.997619630000001,0.018493650000000007
26.0,0.08022925854351451,-0.09087706258361825,-0.11144409758353566,-0.3200000000000002,-0.7100000000000006,-9.76999999999999,0.021665386584741424,0.025724485076722328,0.03598785160959978,173.5625,-1.875,175.8125,0.03540038999999996,-0.05602487192507802,-0.997619630000001,0.018493650000000004
27.0,0.07989189501676494,-0.09120402028310456,-0.10984135242720051,-0.3200000000000002,-0.7100000000000006,-9.76999999999999,0.013408858166922683,0.022494859025816362,0.015753782435624263,173.5625,-1.875,175.8125,0.03540038999999996,-0.0560285553173777,-0.997619630000001,0.018493650000000004
28.0,0.08311761888244718,-0.09391672034752159,-0.11239532233288735,-0.3180337941628264,-0.7100000000000006,-9.76999999999999,0.007826049254249045,0.07366665014948054,0.06716713740647143,173.5650601638505,-1.862199180747568,175.8125,0.03540589078853043,-0.055982767859703,-0.9976241299078349,0.01838914452124936
29.0,0.09196075516574995,-0.09156665510463635,-0.11128982706506119,-0.32679979518689195,-0.7100000000000006,-9.76999999999999,-0.032345295905389565,-0.09123887154584345,-0.07376730175247345,173.515136968766,-1.8982974910394266,175.8125,0.03539364058883766,-0.056341041653865845,-0.9976028770660521,0.018853924777265746
30.0,0.09680491551459294,-0.08988735279057858,-0.11246287762416793,-0.3337224782386072,-0.7100000000000006,-9.76999999999999,-0.020033282130056326,-0.03942652329749104,-0.07008448540706605,173.423099078341,-1.9189068100358422,175.8125,0.03539701529441881,-0.05710171620583714,-0.997548249662058,0.01919082022017409
31.0,0.1014567332309268,-0.08870839733742955,-0.1140860215053763,-0.33839349718381984,-0.7100000000000006,-9.76999999999999,0.01083269329237071,-0.0410426267281106,-0.15351382488479262,173.34310195852532,-1.9564292114695339,175.8125,0.03538541385688682,-0.057792605280337916,-0.9975071528955453,0.0195357725294419
32.0,0.10913354970847167,-0.08758041804998096,-0.11307013197231716,-0.3455130857407132,-0.7100000000000006,-9.76999999999999,0.004816050162694282,-0.03851523916885519,-0.02308689691624135,173.24572501672364,-2.012488799283154,175.8125,0.03536140257360472,-0.058544462489284466,-0.997448561562237,0.020027858902598165
33.0,0.1165867441322696,-0.08811176560461156,-0.112684579555027,-0.34961266166195915,-0.7100000000000006,-9.76999999999999,-0.004280402978048659,0.05815533484465586,0.04396410402523826,173.2878010644294,-2.0296538978494625,175.8125,0.03534922503232209,-0.05818290987751476,-0.9974764511753833,0.020173079295129088
34.0,0.11546823125712302,-0.08721384491188078,-0.11198489090398561,-0.34488569591034457,-0.7100000000000006,-9.76999999999999,0.010052578848917299,0.04112643854367969,0.0021887852435459043,173.3122553069203,-2.015915018561188,175.8125,0.03534360503024196,-0.05789353287782552,-0.9974984271698728,0.020013520904605002
35.0,0.11473488367771663,-0.08742540683894087,-0.11214579926663695,-0.3424428479551722,-0.7100000000000006,-9.76999999999999,0.0197552320767884,-0.0023422466779809414,0.023807846282807257,173.31196162683443,-2.008965573796723,175.8125,0.035340498160282285,-0.05799400753594298,-0.9974979935849361,0.019932444627929743
36.0,0.11873336925821315,-0.08834728003237365,-0.11130475447202816,-0.3431997505904895,-0.7085483870967746,-9.76999999999999,-0.0028807004938638647,-0.04788861325834531,-0.15430071395537057,173.30884434668334,-2.010688684075781,175.8125,0.035273892741935486,-0.057990242379362636,-0.9975031276745243,0.019957268140577772
37.0,0.11693448017036726,-0.0868822295536005,-0.11202878438765534,-0.34657386072708674,-0.7080229716520043,-9.76999999999999,0.0024859772843643813,-0.12603079324349484,-0.008932571684587817,173.25543752982009,-2.0243753782060234,175.8125,0.03520257116080156,-0.05849709724232532,-0.9974685510053007,0.020058195938765542
38.0,0.11217766077791441,-0.09328733977390971,-0.11214144238955634,-0.3482459677419357,-0.7090114858260025,-9.76999999999999,-0.013637447576703559,-0.09098983214691135,-0.011981605532431501,173.18679454576,-2.0437897116324537,175.8125,0.035176457193304006,-0.05915737007789587,-0.9974198797602034,0.020224077454789845
39.0,0.11086197587026803,-0.09465094235239263,-0.11399986866021597,-0.3492842741935486,-0.7095057429130016,-9.76999999999999,0.009219802677342025,-0.03601830957063949,-0.009874551326123585,173.15241630009774,-2.054152920332356,175.8125,0.035163400209555225,-0.05949052719620597,-0.9973953161149816,0.02031376856610461
40.0,0.11599651965155192,-0.09891117922867584,-0.11165399517507668,-0.3544254784545019,-0.7043604785821629,-9.76999999999999,-0.04977080663857983,0.012068923196745733,0.8326136447600243,173.46307923815675,-2.084370634456019,175.8365731824747,0.03497679283467652,-0.05674081656621355,-0.9975475263194068,0.02045305944599766
41.0,0.11667265498706629,-0.11093877865608368,-0.11195543686647572,-0.3583072304511597,-0.6917417312265652,-9.76999999999999,0.0034812356750174855,-0.003395759582841557,-0.1168101353405761,173.59616989659258,-2.0875371020951823,175.89427093658838,0.03443279460311861,-0.05555928199678681,-0.9976363517576047,0.02048898896457854
42.0,0.11481726590995545,-0.11289851933781701,-0.11085552879491917,-0.3577508781776817,-0.6854260953298026,-9.76999999999999,-0.037971014616059194,0.033767662730573356,-0.2453399405930642,173.51136696198154,-2.075400393667337,175.91790159732645,0.034185782438411694,-0.05633141611569546,-0.997599978510767,0.02046044062109671
43.0,0.12284093386701786,-0.11215226511666511,-0.11130215994131706,-0.3546344523715733,-0.6884530856155658,-9.76999999999999,0.027975570307199632,-0.05063066793078971,-0.3274247064782056,173.2233068206492,-2.071322113342207,175.90979282902376,0.034266585023759934,-0.05880680409200332,-0.997460863591247,0.020430967578100548
44.0,0.11395099601065753,-0.09942850930222497,-0.11041750885772372,-0.33047012057376723,-0.7072159374167091,-9.769999999999989,0.07975944659472657,-0.017223418822551746,-0.1808021045174312,173.22762225698833,-1.9290409727117575,175.79839785065857,0.03529269447166785,-0.05876744814852044,-0.9974526980505948,0.01923199157959379
45.0,0.09832306126430271,-0.07809386199075834,-0.11057680664091982,-0.30919456384436494,-0.7254789899462513,-9.769999999999989,0.004378466142278499,-0.11481623784437917,-0.13317274487092337,173.24851730192808,-1.8023357781763463,175.69403355593965,0.03631210672601745,-0.05858126091131151,-0.9974496553217725,0.01816737101715473
46.0,0.09308165878062681,-0.0666343020021115,-0.11018212196567317,-0.308199118370416,-0.7363939359806382,-9.769999999999989,-0.050386692626139214,-0.1343981325038485,0.4544373775970303,173.04731047084132,-1.7998773065714722,175.6335444952764,0.03679395163228946,-0.06032544437883813,-0.9973237554314798,0.018249261750486856
47.0,0.10068089362715184,-0.059055455707102376,-0.11289534809357532,-0.3163051170681853,-0.7446209311239592,-9.769999999999989,0.07235718783020648,-0.07511957316436664,-0.2849802010213424,172.98324843120338,-1.8514651509815887,175.5859830771313,0.03721056135210339,-0.06089306141187404,-0.997269698129718,0.018695850387881338
48.0,0.11170336340229228,-0.05078100176647846,-0.11432698024450527,-0.3233878125630099,-0.7505712160229998,-9.769999999999989,0.01927827120082898,-0.07813292178810577,-0.024318547473281812,173.08889283681665,-1.8942096798150319,175.55336825569952,0.03749561372837419,-0.05995460510988442,-0.9973092343364935,0.01905648447685352
49.0,0.10300534161911619,-0.044850740002444066,-0.11543914938049762,-0.3134602266962606,-0.763039119802529,-9.76999999999999,-0.012877482001796212,-0.13246831590391764,0.04744334306892071,172.95307197310638,-1.8327314308717726,175.47544477058378,0.038121572102310486,-0.06112345759978485,-0.9972254789265074,0.018618478446159232
50.0,0.09500730922406364,-0.03347915979671012,-0.1160480324174257,-0.3128094671326549,-0.7710640201584859,-9.76999999999999,-0.01002049964521605,-0.1692058069610248,0.02091902157662776,173.06349966987597,-1.8241294593743218,175.42162415500513,0.03849568284775024,-0.06014979766427151,-0.9972718797955856,0.018511895578366345
51.0,0.09304714888345553,-0.025914203810437915,-0.11624268195317158,-0.3159852890685146,-0.7731011596626489,-9.76999999999999,0.010163152484192618,-0.13361221041564403,0.17796653141631186,173.17357852841275,-1.8455268679286896,175.40194146999812,0.038658475491644625,-0.059205850034624426,-0.997318981848583,0.018672308502741562
52.0,0.09350337926688362,-0.023935957963771418,-0.11500721790800353,-0.32033392943531425,-0.7748999970175545,-9.767495256166976,0.014880132761478256,-0.1448633361647209,0.15735206484071218,173.21639840625028,-1.8744364822159034,175.39559580276807,0.038727966142135695,-0.05883209923214008,-0.9973399101852023,0.01892256105267194
53.0,0.09114421174905771,-0.0236197682755223,-0.11598010359547486,-0.325148791160183,-0.7745215168026014,-9.763586337760906,0.016936084233586765,-0.1398826262030008,0.13400683125511037,173.26078693062868,-1.905911448740846,175.39271849229192,0.038756407489514005,-0.05843769019936104,-0.9973599955897015,0.019140228890849424
54.0,0.09260857690009573,-0.024921348623600927,-0.11625048438347671,-0.3279992024860431,-0.7721971509501426,-9.761631878557868,0.014972058886030506,-0.11297400829514516,0.09008434991362349,173.3359684966362,-1.9243749656243985,175.41560617935812,0.038726764753389445,-0.05769082015537151,-0.997402861038831,0.01929455957491132
55.0,0.09252711922458641,-0.022330290780088663,-0.11802576545089538,-0.32929846272309726,-0.7709704919836107,-9.76065464895635,0.025229582142687494,-0.09471079806396612,0.07984780358656277,173.35964902823298,-1.9329684363226356,175.423651085769,0.03871431665944156,-0.057514291567752465,-0.9974110292496499,0.01936866313422986
56.0,0.09936863895118161,-0.024739520441607744,-0.11793513886493012,-0.3267931688804553,-0.7730740037950672,-9.760621442125231,0.059629441952734175,-0.025349857685009487,0.133343036628141,173.46388128198492,-1.9169532732447818,175.41428666407913,0.038769439217986305,-0.05663720307342879,-0.9974615856151166,0.0192576054743833
57.0,0.09930524409177158,-0.0272490081076419,-0.1167211488701052,-0.3233206831119545,-0.776603415559773,-9.760227703984814,0.05434114628255994,-0.07278998476223333,0.055265654648956365,173.55050385256743,-1.8955170777988615,175.3943320179978,0.03888891008797654,-0.055852101304266544,-0.9975133451154323,0.019114775046863326
58.0,0.09457679259387038,-0.02457708009890175,-0.11590794088896555,-0.3214990512333967,-0.7784060721062626,-9.760113851992404,0.03422028635501121,0.02196179058133517,0.029704660456557994,173.5929701426025,-1.8842504743833017,175.38435469495715,0.038949238592375375,-0.05546716533666833,-0.9975388629158749,0.019042243197055962
59.0,0.09378644126272206,-0.02413604738082918,-0.11589874072796275,-0.3205882352941178,-0.7793643263757122,-9.7600569259962,0.019370651486401012,0.010950347881087919,0.029713644988787306,173.61272712897477,-1.8786171726755219,175.37866928296245,0.038980271392961896,-0.05529031368495192,-0.9975506953289045,0.019005195469495733
60.0,0.09129204761083315,-0.02328014490253581,-0.11279296762693347,-0.32013282732447834,-0.779843453510437,-9.760028462998097,0.02324837559657294,-0.021956399861997586,0.05258287332528319,173.62286527514232,-1.875800521821632,175.37594876660341,0.03899563864858261,-0.05519726395635667,-0.997556939653699,0.018986671605715617
61.0,0.09022837825257177,-0.022429770050737804,-0.11340082856211889,-0.3200000000000002,-0.7800000000000007,-9.759999999999994,0.02447865754317367,0.011937854931806543,0.03240971058511381,173.625,-1.875,175.375,0.039001430171065506,-0.055175779999999924,-0.9975585899999987,0.018981810684261993
62.0,0.08790304543127121,-0.021140330547588623,-0.11407397620300844,-0.3200000000000002,-0.7800000000000007,-9.759999999999994,-0.0024354118104118125,0.030256467882475945,-0.009296122224549643,173.625,-1.875,175.375,0.03900146000000001,-0.055175779999999924,-0.9975585899999987,0.01898193000000002
63.0,0.0859823145044919,-0.020460194599307514,-0.11218850325301936,-0.3200000000000002,-0.7800000000000007,-9.759999999999994,0.015170979334285784,0.012394240783857719,-0.016989214582460548,173.625,-1.875,175.375,0.039001460000000016,-0.055175779999999924,-0.9975585899999987,0.01898193000000002
64.0,0.08716026771167898,-0.019308787426730985,-0.11545642171448622,-0.3200000000000002,-0.7800000000000007,-9.759999999999994,0.02803698038073038,0.03361342048968057,0.013988286159405111,173.625,-1.875,175.375,0.039001460000000016,-0.055175779999999924,-0.9975585899999987,0.01898193000000002
65.0,0.1025176185821347,-0.020633209084822,-0.1147614464388658,-0.33290322580645154,-0.7800000000000007,-9.759999999999994,-0.01770308544502093,-0.12159166997876678,-0.08024018991760927,173.56195014662757,-1.938049853372434,175.375,0.03894179892473121,-0.055706541603128,-0.9975142012609965,0.019516987595307924
66.0,0.11214482291901645,-0.0229087901345966,-0.11501391082036243,-0.34709677419354823,-0.7800000000000007,-9.759999999999994,0.016506880216557634,-0.12356662155049253,0.01716012482141515,173.51754455222198,-2.013720956462892,175.375,0.03887712623655917,-0.05610512705466575,-0.997473391759531,0.02015041760658696
67.0,0.11774983081434695,-0.027742236258365305,-0.11549454846229039,-0.3541935483870965,-0.7800000000000007,-9.759999999999994,-0.02155425219941349,-0.03627152417474999,-0.012790905331227908,173.5067561470787,-2.073392736295962,175.375,0.03884478989247315,-0.05611298514023605,-0.9974529870087981,0.02051123702909994
68.0,0.11822277185180412,-0.029116777487745247,-0.1140507467442951,-0.3577419354838707,-0.7800000000000007,-9.759999999999994,0.026593992924638085,0.011592685987847271,-0.006525642815965395,173.5013619445071,-2.103228626212497,175.375,0.03882862172043014,-0.0561169141830212,-0.9974427846334317,0.02069164674035643
69.0,0.1163938883696948,-0.029182044657851125,-0.11301510944252877,-0.3573387096774194,-0.7800000000000007,-9.759999999999994,0.003078887957920216,0.002924886493434876,-0.02968633069439521,173.4986648432213,-2.0984893131062483,175.375,0.03882053763440864,-0.056118878704413774,-0.9974376834457486,0.020701619176629826
70.0,0.11325102295380651,-0.03005352981796792,-0.11269271538093079,-0.3537500000000001,-0.7800000000000007,-9.759999999999994,-0.019335276167352127,0.0032139922960032212,0.01594074030663521,173.514375050028,-2.0815485421836226,175.375,0.03881836000000004,-0.056108861678539936,-0.9974365200000008,0.02061260500620348
71.0,0.10352287545000355,-0.02823613664991251,-0.11432884411474703,-0.34378477092099097,-0.7835904628330996,-9.759999999999994,0.024121515726515618,0.04936138353247315,-0.4870497686606501,173.016660634303,-2.017000131486676,175.35209209911176,0.0390493750911641,-0.060512602917703454,-0.9971740051799909,0.020259450305633475
72.0,0.10243583288629211,-0.02050710368475775,-0.11206865592834123,-0.3357732787607434,-0.7869565217391301,-9.759999999999994,0.028886711647376915,-0.03966193385411082,-0.051764842456875904,172.9178836670274,-1.9702556488698888,175.33128798503975,0.03916795278627685,-0.06138721501964575,-0.9971390305304415,0.019832511090781997
73.0,0.10634080430796941,-0.017304243086618508,-0.11123914107220953,-0.3343689742498032,-0.785772167679601,-9.759999999999994,0.025036033755076067,-0.003861944909646295,0.3269241583926578,173.0425311832321,-1.9600702207483085,175.33983114049732,0.03919667008489472,-0.06030286173153306,-0.9972132722032653,0.019689708783998262
74.0,0.11231835500758272,-0.015491102622713726,-0.11209297314156383,-0.34010612949462876,-0.7876503518298745,-9.759999999999994,0.12199842746996978,-0.10459749695854521,0.14540681981357456,173.21220851965575,-1.9940178860410278,175.3276388953107,0.039361306645425004,-0.05884748054566727,-0.9972924252331463,0.019941743186121352
75.0,0.11498584164783325,-0.014367599052031037,-0.11491753314474212,-0.34990154959579917,-0.7879698484467064,-9.759999999999994,0.06852471589498237,-0.05954883125289857,0.7927442843116054,173.56335513092174,-2.0380341140860074,175.32590400288507,0.03940962726210642,-0.05578768026810371,-0.9974499105833375,0.02029303160772343
76.0,0.12136973241811953,-0.01353256062933483,-0.11373389513712094,-0.35802113477919906,-0.7869372383888509,-9.759999999999994,0.09971350334253559,-0.08614567556099814,0.11743046380143146,173.977965258308,-2.0842344483473516,175.33251867979692,0.03938537078042206,-0.05216834775326644,-0.9976389550894713,0.020595768313211887
77.0,0.13088153634433555,-0.014791814613874977,-0.11469733258416923,-0.3645923331784413,-0.7845560281434372,-9.759999999999994,0.07797649872962048,-0.01923548886510645,0.3201741488942321,174.2876028564813,-2.1275365590011788,175.34904419941978,0.039355204045377915,-0.04947476697116616,-0.997773608175889,0.02081376103253646
78.0,0.13771931399910073,-0.014861345094955923,-0.11537221979950907,-0.3661594538396045,-0.7822063294839053,-9.759999999999994,0.07855878187889113,0.04464172817369357,0.33339416610098194,174.51856141287965,-2.1459015360290072,175.36243812633558,0.039336938266928564,-0.047486338549587156,-0.9978749100147233,0.02082465537801939
79.0,0.1271958852873916,-0.011799158899835283,-0.11538089898164036,-0.3478998261753854,-0.7840994426575851,-9.759999999999994,0.07215780285011554,-0.03797690266253287,0.04883883243014356,174.74096494961603,-2.0361796762030893,175.35503264877576,0.03943034306522607,-0.045566539682982174,-0.9979815965768404,0.019836261718786368
80.0,0.11483493304102771,-0.011749300570037247,-0.11560431298343132,-0.33900712658892873,-0.7849562534431045,-9.759999999999994,0.09895804868513483,-0.07663410856776808,-0.08160075945050237,174.88438963224576,-1.982146318464951,175.34730960827034,0.03953175949003351,-0.04431932428861891,-0.9980450370047103,0.019355484218458223
81.0,0.11337668791068284,-0.010824247059212174,-0.11390626715479808,-0.3387701163538601,-0.7875436509151003,-9.759999999999994,0.07453762809320745,-0.08421924202389941,0.2858585264447437,174.87816446818061,-1.968575719396326,175.3294795269174,0.03963738459664726,-0.04438847038503686,-0.9980354394499753,0.01928229120049095
82.0,0.10971904114576808,-0.00956665006446561,-0.1134463697896779,-0.33582366379607664,-0.7888940939278932,-9.759999999999994,0.07331525005076606,0.08311800645943428,-0.029319696194901823,174.92096959101016,-1.9577204819666332,175.32016054909866,0.03968463641903121,-0.04393256378773176,-0.9980595462130203,0.019195876958205935
83.0,0.10321179911871095,-0.00953191694211504,-0.11197254485387631,-0.33550322974750046,-0.7896083372865268,-9.759999999999994,0.05153857740633541,0.06511571085900542,-0.07418365762126045,174.91639237359007,-1.9440580136407668,175.31532221003323,0.039716013695946725,-0.04403303753493091,-0.9980515472427103,0.019141017467838244
84.0,0.100170789647805,-0.009367366509559081,-0.11181629974223473,-0.3349135067832195,-0.7898671726755211,-9.759999999999994,0.03504104338578997,0.002284417929502708,0.1939769837869244,174.92004013190433,-1.9497499680586767,175.31335981973433,0.039720729215542955,-0.04400283420865629,-0.9980504286289154,0.019146278453286966
85.0,0.10062068282047468,-0.011569892473118286,-0.1116457393918372,-0.3376014402986306,-0.7899999999999994,-9.759999999999994,0.04000256016385049,-0.04491601010851791,0.17139780816940026,175.03714178352575,-1.9759571709363593,175.3125,0.03969752790710737,-0.04291521637890429,-0.9981119360393766,0.01919298413375617
86.0,0.0996944155393687,-0.013199098161637189,-0.1114530003468609,-0.33639680887963896,-0.7899999999999994,-9.759999999999994,-0.023510665972944846,0.03730272285813389,0.04404049601109956,175.16710891432535,-1.9724895941727367,175.3125,0.03966799360041626,-0.04174601425043359,-0.9981596308969822,0.019106330508151234
87.0,0.0946546999653139,-0.01128997571973639,-0.1120922650017343,-0.3331333680194239,-0.7899999999999994,-9.759999999999994,-0.04880983350676379,0.0074325789108567455,-0.018643773846687476,175.20922108047174,-1.9547346514047867,175.3125,0.03964427276795006,-0.04136055935726673,-0.9981657671134236,0.018912073232743666
88.0,0.09078043704474506,-0.011732570239334031,-0.11186784599375652,-0.33146722164412035,-0.7899999999999994,-9.759999999999994,-0.01814516129032258,-0.01736472424557752,0.005365504682622268,175.213319458897,-1.9461173257023934,175.3125,0.039657576867846024,-0.041408733506763766,-0.9981694258792925,0.018798128537981268
89.0,0.08943288241415191,-0.012460978147762751,-0.11132154006243496,-0.3306659729448488,-0.7899999999999994,-9.759999999999994,-0.02448621227887617,0.025624349635796042,-0.016909469302809572,175.23692767950052,-1.941532258064516,175.3125,0.039664467107180065,-0.0412904443288241,-0.9981711092299689,0.018761417523413107
90.0,0.09245057232049947,-0.01108740894901145,-0.11130072840790843,-0.33017169614984354,-0.7899999999999994,-9.759999999999994,0.03173777315296566,-0.010665972944849117,-0.01954344432882414,175.22271722164413,-1.938508064516129,175.3125,0.03966865855359006,-0.041427757585848046,-0.9981699978616025,0.018737600327783557
91.0,0.09059313215400623,-0.011516649323621233,-0.1121618106139438,-0.3299999999999996,-0.7899999999999994,-9.759999999999994,0.04341181061394381,-0.028323361082206032,-0.07178394901144641,175.20356399583767,-1.9375,175.3125,0.03967126233090536,-0.041573261789802265,-0.9981689500000002,0.01873302699271592
92.0,0.08719719042663893,-0.012753842151604905,-0.1123865564716241,-0.3299999999999996,-0.7899999999999994,-9.759999999999994,0.0019841111022172384,-0.014430330985351795,0.023603342872008326,175.19465400624352,-1.9375,175.3125,0.03967285000000005,-0.041640297804370424,-0.9981689500000002,0.01873550375650364
93.0,0.08713413511566476,-0.013407618266229094,-0.11323177979668611,-0.3299999999999996,-0.7899999999999994,-9.759999999999994,0.014180190906907869,-0.017002896622108382,-0.06602416103017689,175.19075182101977,-1.9375,175.3125,0.03967285000000005,-0.04166598793964618,-0.9981689500000002,0.018737281945889698
94.0,0.08779903746097813,-0.012369021652125195,-0.1122381183462739,-0.3299999999999996,-0.7899999999999994,-9.759999999999994,-0.025192732930441046,-0.004082973965420637,-0.027162804920755613,175.18811784599376,-1.9375,175.3125,0.03967285000000005,-0.04168338993756501,-0.9981689500000002,0.01873753597294485
95.0,0.08935587732160312,-0.010483299966162873,-0.11352248994285281,-0.3299999999999996,-0.7899999999999994,-9.759999999999994,0.008488243946913304,-0.0012610499379652608,0.027261962248101367,175.1875,-1.9375,175.3125,0.03967285000000005,-0.041687009999999976,-0.9981689499999999,0.018737790000000004
96.0,0.08913722836303478,-0.010050078953304764,-0.11346026016993756,-0.3299999999999996,-0.7899999999999994,-9.759999999999994,-0.0010414316865929767,0.020378411910669976,0.0031929092412963395,175.1875,-1.9375,175.3125,0.03967285000000005,-0.041687009999999976,-0.99816895,0.01873779
97.0,0.09093585983908561,-0.01012181367020077,-0.11192615986164371,-0.3299999999999996,-0.7871414392059551,-9.759999999999994,0.019981765546281675,0.038988833746898266,0.03352883675464321,175.2053660049628,-1.9375,175.3303660049628,0.03961275479404468,-0.041551794039702196,-0.9981752498709675,0.018745544957816385
98.0,0.09504113091209862,-0.009996390706068128,-0.11169260846680198,-0.3299999999999996,-0.7834094292803973,-9.759999999999994,0.04828182570118053,0.009398263027295286,-0.012578013384464997,175.22869106699753,-1.9375,175.3536910669975,0.039548299171215884,-0.04143039040694786,-0.9981720999354838,0.018741667478908194
99.0,0.09617441160989545,-0.008846830588766076,-0.11211677569742085,-0.3299999999999996,-0.7815434243176184,-9.759999999999994,0.02818867959996992,-0.020169044665012407,-0.014020086096698999,175.2403535980149,-1.9375,175.3653535980149,0.039516071359801494,-0.0413696885905707,-0.998170524967742,0.018739728739454096
100.0,0.0952140198511166,-0.009842431761786605,-0.11423821339950371,-0.3299999999999996,-0.7806104218362289,-9.759999999999994,0.005947580645161289,-0.0210026364764268,-0.025647487593052104,175.24618486352358,-1.9375,175.37118486352358,0.03949995745409429,-0.04133933768238211,-0.9981697374838711,0.018738759369727048
101.0,0.09270502481389575,-0.01411972704714641,-0.1148064516129032,-0.3299999999999996,-0.7801439205955342,-9.759999999999994,-0.02309630893300248,-0.001560561414392059,-0.024028768610421837,175.24910049627792,-1.9375,175.3741004962779,0.03949190050124069,-0.04132416222828782,-0.9981693437419356,0.018738274684863526
102.0,0.09218625930521089,-0.017057382133995047,-0.1139044665012407,-0.3299999999999996,-0.7800000000000007,-9.759999999999994,-0.011672223945409427,0.007253218052109181,0.0117449209057072,175.25,-1.9375,175.375,0.03948975,-0.04132079999999998,-0.9981689500000002,0.01873779
103.0,0.08966136786600494,-0.017722239454094305,-0.11216935483870968,-0.3299999999999996,-0.7800000000000007,-9.759999999999994,-0.025190950682382134,-0.0066323860111662525,0.0003125969292803992,175.25,-1.9375,175.375,0.03948975,-0.04132375354838709,-0.9981689500000002,0.01873779
104.0,0.08860561414392057,-0.01786662531017371,-0.11271184863523573,-0.3299999999999996,-0.7800000000000007,-9.759999999999994,0.021056916873449134,-0.03033595688585608,0.18153400279156326,175.36166253101737,-1.9375,175.375,0.039460668908188584,-0.040289496307692324,-0.9982227453349886,0.018792070575682378
105.0,0.08996161600496275,-0.018759615384615395,-0.11286709057071961,-0.3299999999999996,-0.7800000000000007,-9.759999999999994,0.03949092741935484,-0.032971948666253095,0.14876948278535979,175.4348635235732,-1.9375,175.375,0.039443704937965264,-0.03948206170223327,-0.9982588515384629,0.018827934158808925
106.0,0.09169871794871792,-0.019573900114222706,-0.11396946758438695,-0.33147465437788004,-0.7800000000000007,-9.759999999999994,-0.011181515616999486,-0.02036947287703336,0.14540753685158928,175.48221670802317,-1.9375,175.375,0.0394352229528536,-0.03899584027251962,-0.9982769046402,0.0188458659503722
107.0,0.09311597049903499,-0.016678753594076185,-0.11316646603844185,-0.3309831029185865,-0.7800000000000007,-9.759999999999994,-0.03325603607861672,-0.006367630605281813,0.002803910219484826,175.4905323171452,-1.9375,175.375,0.03943098196029777,-0.03897074319821578,-0.9982859311910687,0.018854831846153837
108.0,0.09274526123518056,-0.017222665327504046,-0.11321417739966125,-0.33049155145929304,-0.7800000000000007,-9.759999999999994,-0.020157243909764068,0.015068102820118948,-0.0019775111760998794,175.49929841663715,-1.9375,175.375,0.03942886146401985,-0.03894860059104338,-0.998290444466503,0.01885931479404466
109.0,0.09247239823348691,-0.016436571940604206,-0.11253808243727598,-0.3302457757296463,-0.7800000000000007,-9.759999999999994,-0.018301671306963644,0.03298011072708653,0.034825228814644144,175.50019201228878,-1.9375,175.375,0.039428710000000006,-0.038956396251920114,-0.9982910200000017,0.018859859999999992
110.0,0.09260624679979512,-0.016753712237583214,-0.11359447004608292,-0.33012288786482297,-0.7800000000000007,-9.759999999999994,0.002752176139272913,0.015008960573476702,0.014080901177675374,175.4944636456733,-1.9375,175.375,0.039428710000000006,-0.038965366226318465,-0.9982910200000017,0.018859859999999992
111.0,0.09487839221710187,-0.014984639016897089,-0.11477982590885817,-0.33211213517665106,-0.7800000000000007,-9.759999999999994,-0.08281330005120327,0.01719310035842294,0.03860247055811572,175.50294418842805,-1.9375,175.375,0.03942231169354838,-0.0388973942703533,-0.9982865896774211,0.018869705725806443
112.0,0.09195788530465948,-0.01545954941116232,-0.11259728622631848,-0.332359190988223,-0.7800000000000007,-9.759999999999994,-0.05539154505888376,-0.012524801587301588,-0.027181739631336407,175.48471902201737,-1.9375,175.375,0.03942551084677419,-0.03905063910394266,-0.9982888048387114,0.01889628737903225
113.0,0.08989471326164875,-0.016878520225294426,-0.1126990527393753,-0.3333570148489502,-0.7800000000000007,-9.759999999999994,-0.012446796594982077,0.0088025633640553,0.16646065348182282,175.49437564004097,-1.9375,175.375,0.03941825122983868,-0.038974369068100354,-0.9982963107258078,0.018917945221774198
114.0,0.0902417754736303,-0.016951804915514603,-0.11238383256528416,-0.3368397977470557,-0.7800000000000007,-9.759999999999994,-0.0029271873399897585,0.0036332325268817207,-0.009207589285714288,175.56170394905274,-1.9375,175.375,0.03939198126008061,-0.03847280566820274,-0.9983051651273698,0.018951906481854852
115.0,0.09104510688684073,-0.01666714669738864,-0.11369831669226829,-0.3385811891961084,-0.7800000000000007,-9.759999999999994,-0.0013595870135688678,0.0038967493919610852,0.026190176171274962,175.61671346966205,-1.9601814516129032,175.375,0.03937884627520158,-0.037982618891449015,-0.9983266388540079,0.018968887111895177
116.0,0.0909826228878648,-0.015981662826420898,-0.11609543010752688,-0.3393863607270864,-0.7800000000000007,-9.759999999999994,-0.04410082245263697,0.052852382552483354,-0.03609130984383001,175.59247391833077,-1.9488407258064515,175.375,0.03940197812564002,-0.038218414211149486,-0.9983104678438635,0.0189470703624232
117.0,0.09171378968253965,-0.014589653737839232,-0.11497551843317973,-0.33981350806451605,-0.7800000000000007,-9.759999999999994,-0.01100170410906298,0.019521749391961083,-0.010981202796979008,175.5790230574757,-1.9431703629032258,175.375,0.03941534406282001,-0.03835474946860597,-0.9983007439219326,0.018933985181211598
118.0,0.09285586277521758,-0.017568324372759868,-0.11432667690732208,-0.33999999999999986,-0.7800000000000007,-9.759999999999994,-0.03823144681259601,0.013880888376856117,0.05698664714541731,175.57170658922172,-1.940335181451613,175.375,0.0394223038812084,-0.038427704265552975,-0.9982956820138906,0.018927181121351763
119.0,0.09206285202252941,-0.016655385944700472,-0.11446876600102406,-0.33999999999999986,-0.7800000000000007,-9.759999999999994,-0.01316334245391705,-0.004652297747055813,-0.04174317156298003,175.56609523009473,-1.9389175907258065,175.375,0.03942649129544291,-0.038478676984286975,-0.9982929916393066,0.018923056205837167
120.0,0.09148505504352275,-0.017821140552995402,-0.11384728622631847,-0.33999999999999986,-0.7800000000000007,-9.759999999999994,-0.01214177707373272,-0.013981894841269842,0.10115147369431643,175.57774897593447,-1.9375,175.375,0.039413327502560144,-0.038318700513312855,-0.9983053868932423,0.01893575907066053
121.0,0.09294793143684268,-0.0168434545964788,-0.11266140356059712,-0.33999999999999986,-0.7800000000000007,-9.759999999999994,-0.003141962624069479,-0.036878891018255935,0.07441233931279294,175.60231854838707,-1.9375,175.375,0.03938958189516126,-0.038007183346774207,-0.9983296559274204,0.018959782016129044
122.0,0.09232326007326006,-0.016997836169207144,-0.1140121533932018,-0.33999999999999986,-0.7800000000000007,-9.759999999999994,-0.04776868796526055,-0.029795922323644097,0.058202263406396476,175.6146673387097,-1.9470766129032258,175.375,0.0393776465927419,-0.03784130618951616,-0.9983418373185493,0.018971840362903242
123.0,0.09094378336717043,-0.015754189694713896,-0.11272920661327919,-0.3392179863147603,-0.7800000000000007,-9.759999999999994,-0.030696416318896157,-0.04094617370197007,-0.1636428402746447,175.59933635752688,-1.9657487170087977,175.375,0.03937836062286168,-0.03795482104197215,-0.9983369504188059,0.01896736920393452
124.0,0.08846661873073162,-0.01564240967365968,-0.11383246155725993,-0.3344477028347993,-0.7800000000000007,-9.759999999999994,-0.016529776087487784,-0.032517761556320024,-0.11129931056846379,175.47918120605874,-1.9516243585043989,175.375,0.03940353531143084,-0.03916064500733845,-0.9982824806932735,0.018912630085838225
125.0,0.08763009906759905,-0.016727183434844733,-0.11424544138657042,-0.3320625610948188,-0.7800000000000007,-9.759999999999994,-0.006106515292503195,0.002961953201368526,-0.08877329827430633,175.42359387923904,-1.9445621792521994,175.375,0.03941659945259042,-0.039756500842882944,-0.9982547997947211,0.01888479911045943
126.0,0.08620462769757123,-0.016524882040003012,-0.11312768347244154,-0.33086999022482855,-0.7800000000000007,-9.759999999999994,0.0038481071180163917,0.02569003367264456,-0.021759477921272277,175.39526468155498,-1.9410310896260996,175.375,0.03942363908113392,-0.040037451044270256,-0.9982404210263924,0.01887036068426197
127.0,0.08525201142943076,-0.01774580795548538,-0.11163944657493044,-0.3302737047898334,-0.7800000000000007,-9.759999999999994,0.027550943679975938,0.006654870666967442,0.010636138055492897,175.38009201819688,-1.938966275659824,175.375,0.03942715889540567,-0.04017440239713513,-0.998233231642228,0.01886314147116324
128.0,0.08698573200992551,-0.017748759305210925,-0.11071464019851114,-0.3299999999999996,-0.7800000000000007,-9.759999999999994,0.02359646401985112,-0.005439671215880894,-0.11876550868486352,175.31218982630273,-1.9375,175.375,0.039428710000000006,-0.04068121366191067,-0.9982024180645157,0.018833282419354835
129.0,0.08661941687344911,-0.018301178660049634,-0.11108436724565754,-0.3299999999999996,-0.7800000000000007,-9.759999999999994,0.04459134615384615,0.019341268610421833,0.011670285359801483,175.2837701612903,-1.9375,175.375,0.03944249322580645,-0.040920366206885855,-0.998200449354838,0.01883082153225806
130.0,0.08631120514789865,-0.01934917927055025,-0.11046774193548384,-0.3299999999999996,-0.7800000000000007,-9.759999999999994,0.023257703877663558,0.010105369820591594,0.035423990212296655,175.32938508064518,-1.9375,175.375,0.03943560161290323,-0.04053877923247518,-0.9982152146774186,0.018845340766129027
131.0,0.08673656791454006,-0.017736224150603712,-0.11070109261186262,-0.3299999999999996,-0.7800000000000007,-9.759999999999994,0.04002775532472788,0.017331060800794475,0.014381630101745865,175.35219254032256,-1.9375,175.375,0.03943215580645161,-0.040348727797379025,-0.9982225973387089,0.018852600383064508
132.0,0.08632643327882661,-0.017574949312885065,-0.11206593609087756,-0.3299999999999996,-0.7800000000000007,-9.759999999999994,0.0218179931257536,0.011942490125819666,0.02749111427002296,175.36362777217744,-1.9375,175.375,0.03943043290322581,-0.04025382133064516,-0.998226288669354,0.01885623019153225
133.0,0.08654487306542455,-0.016695220752192666,-0.11447634842178285,-0.3299999999999996,-0.7800000000000007,-9.759999999999994,0.024434612202277717,0.018559300698470508,0.014225087824975637,175.37125126008067,-1.9375,175.375,0.0394295714516129,-0.0401924782610887,-0.9982289956451605,0.018858875645161283
134.0,0.08533604215185898,-0.01703582577672069,-0.11354491848768643,-0.3302497398543181,-0.7800000000000007,-9.759999999999994,0.020558735113886,-0.002844052987133113,0.09285239416612985,175.36563475546305,-1.9375,175.375,0.039428201945889696,-0.04020838319458897,-0.9982325206867841,0.018862400686784582
135.0,0.08673306575491799,-0.018096559470128677,-0.11327089836975371,-0.32629552549427676,-0.7800000000000007,-9.759999999999994,-0.009003414928232829,0.0380881150587186,0.015873532035082506,175.51651925078045,-1.9114854318418315,175.375,0.03942388348595213,-0.0387834255671176,-0.9982942542143602,0.018520707866805403
136.0,0.08452123852901729,-0.01716465441308075,-0.1148350704809994,-0.3229864724245578,-0.7800000000000007,-9.759999999999994,0.02580446481203036,0.012820551874389234,0.03710320168052892,175.5832530151311,-1.8922346514047867,175.375,0.03942629674297607,-0.03816365385970899,-0.9983251209781483,0.018280761352757538
137.0,0.0828540652450514,-0.015612537139976118,-0.1163207610469513,-0.3213319458896984,-0.7800000000000007,-9.759999999999994,0.011746958468483176,0.02136803323366159,0.017895558853577312,175.6404168301462,-1.8826092611862644,175.375,0.039427503371488024,-0.037807806123402884,-0.9983405543600423,0.018160788095733602
138.0,0.0856034409296065,-0.014723570938356589,-0.11663951301846381,-0.3205046826222686,-0.7800000000000007,-9.759999999999994,0.017469882420994693,0.0015520423399686019,0.05061254766687127,175.66899873765374,-1.877796566077003,175.375,0.03942810668574401,-0.03762988225524984,-0.9983482710509894,0.018100801467221636
139.0,0.08738770500959094,-0.014442012691504767,-0.11767792167188695,-0.3200832466181063,-0.7800000000000007,-9.759999999999994,-0.019585221359230225,0.019113626294427758,0.10928508475443664,175.70367754303066,-1.8753902185223725,175.375,0.039428424219562955,-0.037247146165452646,-0.9983706428291914,0.018074343436567095
140.0,0.09055649558492034,-0.01282194287020608,-0.11587330006591226,-0.3200000000000002,-0.7800000000000007,-9.759999999999994,-0.06174045147045799,0.031213941138889218,0.0826244622523484,175.7283183500793,-1.875,175.375,0.03942870999999999,-0.036917763850156084,-0.9983887858318692,0.018068217340031723
141.0,0.09149982367823487,-0.012156608664082419,-0.11816668705040723,-0.3200000000000002,-0.7800000000000007,-9.759999999999994,-0.04770986084892545,0.042229789183934295,0.010789359629611535,175.740910893707,-1.875,175.375,0.03942870999999999,-0.03669022013237576,-0.9984019224320635,0.018067313670015857
142.0,0.08933311716425824,-0.014288109759588576,-0.11617166917804539,-0.32253968253968246,-0.7800000000000007,-9.759999999999994,-0.020237098883244084,0.0083556780021054,-0.00433394281704267,175.76592075663334,-1.875,175.375,0.03941371030721967,-0.036564386087693246,-0.9983964890117307,0.018161366781244477
143.0,0.08460850693063196,-0.017242469313911296,-0.11707242321025577,-0.31922050540646374,-0.7815939278937385,-9.760075901328268,-0.025200320258204553,0.05995405872896573,-0.021966443958612993,175.56874073884796,-1.85792220113852,175.36598671726756,0.03945641986897987,-0.03831336391671189,-0.9983205326557703,0.01805922190105868
144.0,0.08254399868422407,-0.01817453899723206,-0.11540160699728397,-0.3173762613695774,-0.7756356736242891,-9.765199240986709,-0.08298092092059695,0.09537567731984092,-0.31220089090595826,175.43827718055604,-1.8515357274349316,175.40275142314988,0.039180674361548186,-0.039476314796189516,-0.9982849326033689,0.01802508758494057
145.0,0.08033883677107224,-0.019860382441864256,-0.11605015913779992,-0.31821170388578135,-0.7726565464895644,-9.76776091081593,-0.047788737495438154,0.05789055217949143,0.027173187781632274,175.3906646448686,-1.858801362476771,175.4211337760911,0.03902601902940931,-0.03984441358143745,-0.9982817723806895,0.018007944246564583
146.0,0.07458136184118226,-0.019525801219590348,-0.11655614186713906,-0.3100158182404354,-0.7711669829222021,-9.76904174573054,-0.03495372690142437,0.07241364945296663,-0.01967188894618868,175.3194897610477,-1.814421143443489,175.43032495256165,0.038978639237863044,-0.04048594045947172,-0.9982665593174513,0.017642224325978485
147.0,0.06943609822729875,-0.02287163775079039,-0.11524218209122909,-0.3007740963380176,-0.7704222011385209,-9.769682163187847,-0.029319075897763343,0.0962193928035675,-0.12292390937557537,175.32739197357415,-1.7572227906855762,175.43492054079695,0.038983627230298655,-0.040439346397868794,-0.9982781503674264,0.01725043586777907
148.0,0.06519954816488277,-0.02514549629475004,-0.11668655594125021,-0.30012850926957824,-0.770000000000001,-9.76999999999999,0.03166695635851871,-0.07660863851282725,0.07016458705794286,175.42518495737534,-1.7521289475249513,175.4375,0.03896240419864078,-0.0395839733127864,-0.9983093967989887,0.01723337537459161
149.0,0.06687061590311469,-0.025448160169152002,-0.11526579935872183,-0.3031464738118566,-0.7700000000000009,-9.76999999999999,0.07413965202467249,-0.16344250858273487,0.046395763400457674,175.4907914342819,-1.7703584350972412,175.4375,0.03895172569585384,-0.038987541954308105,-0.9983323102025762,0.017294365280421997
150.0,0.06837455150370411,-0.02551947823481287,-0.11416842866650281,-0.3021257596519996,-0.770000000000001,-9.76999999999999,0.10330036966223473,-0.18176919022640015,-0.17903677880056068,175.36722348614614,-1.763190252212881,175.4375,0.038979842982147545,-0.040058829763604156,-0.9982826843098747,0.01730115526882969
151.0,0.06649474584555227,-0.024682297541168526,-0.1152242461839236,-0.30483577712609977,-0.7700000000000009,-9.76999999999999,0.13786736197270472,-0.24214473362658848,-0.0700878590495526,175.3743910197665,-1.7800403225806452,175.4375,0.038980871706843584,-0.0400027076651064,-0.9982791708873184,0.017401458507345473
152.0,0.06903183040078201,-0.023966270960222587,-0.11677145838032935,-0.3076989247311827,-0.770000000000001,-9.76999999999999,0.08151921373317543,-0.15861513318670578,-0.04860697937814873,175.37510789991256,-1.7979960899315737,175.4375,0.0389911658534218,-0.03998565551143879,-0.9982850656147255,0.01750069777029052
153.0,0.07004301075268818,-0.022414617640424107,-0.11544431912173846,-0.3090107526881719,-0.770000000000001,-9.76999999999999,0.035416196706519285,-0.07741935483870968,-0.02204489059327769,175.3727385517708,-1.8062561094819158,175.4375,0.03899700505120687,-0.040001362382735495,-0.9982872891606902,0.017544874522746064
154.0,0.07181066133353087,-0.020578739507964364,-0.11427784268371655,-0.3095624483043836,-0.7700000000000011,-9.76999999999999,0.03665855389194339,-0.03823376911966224,-0.01301033463407079,175.3710622039251,-1.809734754492819,175.4375,0.039000216880442154,-0.040014216312955805,-0.9982881702255071,0.017564773742762607
155.0,0.07320561640253503,-0.021471864678412597,-0.11407271335629544,-0.3099156327543423,-0.770000000000001,-9.76999999999999,0.016763604714976885,-0.01500849295143951,0.021967368211951745,175.37509305210918,-1.81197270471464,175.4375,0.03900079366749381,-0.039978060263027235,-0.9982905050223341,0.017575464317617855
156.0,0.07430752284146604,-0.021867445986848984,-0.11264925990395416,-0.3099999999999999,-0.7700000000000009,-9.76999999999999,-0.018618817989906097,0.044325778338176025,0.003958249862799694,175.41222084367246,-1.8125,175.4375,0.03898110657071963,-0.03976187762282876,-0.9982910200000015,0.0175960604019851
157.0,0.07455112212454534,-0.021283185359015896,-0.1140152457877542,-0.30999999999999994,-0.7700000000000009,-9.76999999999999,-0.040941251614698894,0.06259238574777815,0.10130402717968919,175.42183622828784,-1.8125,175.4375,0.03897651796277915,-0.039679955343672454,-0.9983028322580656,0.01760038399131514
158.0,0.07484398725973113,-0.020624486130143338,-0.11548758379319285,-0.30999999999999994,-0.7700000000000009,-9.76999999999999,-0.04504601681419207,0.07218390059627422,-0.024143318765971637,175.46293424317616,-1.8125,175.4375,0.03895748962655085,-0.03922749839764268,-0.998328425483872,0.01762075635049628
159.0,0.07371650124069479,-0.02032909429280398,-0.11507537220843672,-0.30626799007444183,-0.7700000000000009,-9.76999999999999,0.02149503722084367,0.07192928039702233,-0.2323588709677419,175.40209367245657,-1.7886786600496278,175.4375,0.03897269033684864,-0.0398160063228908,-0.9983058442307697,0.0175218966144541
160.0,0.07303498959417273,-0.02112380433042505,-0.11397409049067475,-0.30297270471464044,-0.7700000000000009,-9.76999999999999,0.03882774353638037,0.04165682782358121,-0.060165567717922024,175.29177264267992,-1.7683312655086847,175.4375,0.03898707516842432,-0.040905080096929246,-0.9982669275992554,0.017424000404001237
161.0,0.07291026331888714,-0.019131952186875457,-0.11278396517128958,-0.30132506203473974,-0.7700000000000009,-9.76999999999999,0.04782356691175629,0.014234761148783,-0.1558412323996676,175.22674441933515,-1.7581575682382133,175.4375,0.03899490362887718,-0.0414928754221304,-0.9982399694371084,0.01737449197371277
162.0,0.07371043212770578,-0.01780519630675719,-0.1132184491569247,-0.30050124069478945,-0.7700000000000009,-9.76999999999999,0.017604266871590946,0.02722074783505747,-0.20015453594489102,175.17095789515145,-1.7530707196029778,175.4375,0.03899864323076924,-0.042032972098666035,-0.9982021217145219,0.01734988280893299
163.0,0.07510443562680813,-0.016238706373982136,-0.11507794206025213,-0.3000893300248143,-0.7700000000000009,-9.76999999999999,0.024142090999531164,-0.011078569078048786,-0.11959835603175874,175.14193056047895,-1.7505272952853597,175.4375,0.039001035970223336,-0.04231587968088547,-0.9981825826314545,0.01733700914640197
164.0,0.07600639215103314,-0.019284805840477023,-0.11429595494111622,-0.30083246618106163,-0.7700000000000009,-9.76999999999999,0.01639846885684555,-0.06076621161818872,0.09120738565977898,175.13828497927094,-1.7546826222684702,175.4375,0.039006033236212295,-0.04230637260575132,-0.998183064038452,0.017345666992715905
165.0,0.07998030325553737,-0.019853120922319684,-0.11355276415109922,-0.30719042663891793,-0.7700000000000009,-9.76999999999999,0.03504301694663297,-0.11322324628776241,0.4243758052128239,175.41692474769997,-1.7931679240374607,175.4375,0.038963386456815824,-0.03976004848029501,-0.9982877385514839,0.01751308873829343
166.0,0.08609911550468263,-0.02105228928199793,-0.1131659729448491,-0.3178303850156087,-0.7700000000000009,-9.76999999999999,0.0588010535900104,-0.16727367325702394,0.31862155306971907,175.7488943808533,-1.85483058012487,175.4375,0.03890417773413112,-0.03686352039412073,-0.9984003455085856,0.017867614452393342
167.0,0.08583420372124806,-0.023585108406976578,-0.11344900756363863,-0.32154879867053887,-0.7700000000000009,-9.76999999999999,0.019998881276499913,-0.04674929527699691,0.33636102542050417,175.85437617453834,-1.876079228435088,175.4375,0.03888746522238573,-0.03590209630442676,-0.9984322823041244,0.018061575425522614
168.0,0.08700659197508814,-0.024779026628046052,-0.11266102823551338,-0.322145367077205,-0.7700000000000009,-9.76999999999999,-0.015153394949679282,0.015159431445788747,0.06906500802762983,176.0360590550111,-1.8820920335723827,175.4375,0.038849959385386434,-0.03421937823285856,-0.9984955338939985,0.01809893972889034
169.0,0.08581338963998944,-0.024127286466988692,-0.11264424980974422,-0.3213692496156057,-0.7700000000000009,-9.76999999999999,-0.018844257308346407,0.03497630781446565,0.03154082867562552,176.09639841408205,-1.8804158138725597,175.4375,0.03883106355325515,-0.033597040841195164,-0.9985209677664588,0.01809412303301957
170.0,0.08729538123438677,-0.025073452476670532,-0.11294425579817237,-0.3207955119045771,-0.7700000000000009,-9.76999999999999,-0.015251213254049134,-0.015164412780112081,-0.02689082752012769,176.14120672875316,-1.8784482043153121,175.4375,0.03882301980586146,-0.033323324203747395,-0.9985304481246614,0.01809248063030476
171.0,0.09088951573622975,-0.023441323722017043,-0.11197531271288494,-0.32207411895799587,-0.769139784946237,-9.76999999999999,-0.024582867844821686,0.019341393553184903,0.15392827762832578,176.17826228973843,-1.8805376013535695,175.44238758553274,0.038816839365926975,-0.03302586366597991,-0.9985356972632267,0.018087881453802142
172.0,0.09210988138205878,-0.02329427024588316,-0.1121979448642755,-0.32342637839311217,-0.7684582299421017,-9.76999999999999,0.021260101205917738,0.009489684962215205,-0.12001560267689299,176.30211006231673,-1.882445710791225,175.4463954056696,0.03879827152778406,-0.03196119679869493,-0.9985696755506906,0.018037726365988514
173.0,0.0933580626362884,-0.023589644898112654,-0.11349045275960598,-0.32168042709978195,-0.7692291149710513,-9.76999999999999,0.044148673067523875,-0.013054273935070304,0.16745107421140684,176.32453567937438,-1.8785810963230318,175.4419477028348,0.03881213386750887,-0.03172350161576058,-0.9985808693769462,0.01795110963636364
174.0,0.09241491841491839,-0.026094217610346658,-0.11129915783141589,-0.3247918264531166,-0.765501654259719,-9.76999999999999,0.028469245807955484,0.02694375516956162,0.2031339292428002,176.50097751710655,-1.876790548161516,175.4397238514174,0.0387891572563351,-0.030286719759493173,-0.9986210185594405,0.017969872640762472
175.0,0.09235882397172716,-0.02722700954959021,-0.11285553425069555,-0.32755720354913875,-0.7625895368072788,-9.76999999999999,0.01842196781712911,0.011548800661703888,0.03246801921197082,176.58393323746145,-1.875895274080758,175.4386119257087,0.03877225411203853,-0.029495291765602664,-0.9986410931506876,0.017986455077205064
176.0,0.09151176780209036,-0.028019663132566375,-0.11447517670501545,-0.32888368486352326,-0.7611603598014887,-9.76999999999999,0.012219903752161816,0.007561423791262499,-0.02135457788179563,176.61115650142867,-1.8753101736972706,175.43790322580645,0.03876390699248067,-0.029119471760122924,-0.9986510559130756,0.01799459988953118
177.0,0.0897231531908951,-0.029446713680584668,-0.11187018514639482,-0.32952620967741897,-0.7604536290322579,-9.76999999999999,-0.003121654331331751,-0.0008586004049713734,0.02910322624284318,176.6215366874389,-1.875,175.4375,0.03876020451857286,-0.028959701808101153,-0.9986550820185722,0.018000151473301577
178.0,0.09069188428059394,-0.028346454173067095,-0.11241591461853559,-0.3299243951612899,-0.7600655241935481,-9.76999999999999,-0.015897017409114183,0.010330661162314387,0.06847288226446492,176.63090737807218,-1.875,175.4375,0.03875765842741939,-0.028860282473198266,-0.9986572299999993,0.01800490858366937
179.0,0.09119922998148802,-0.02999247336444919,-0.11272924297924297,-0.3299999999999996,-0.7599999999999998,-9.76999999999999,-0.08009781856808067,0.04330021736775769,0.0319922859678404,176.731108737113,-1.9062655086848634,175.46777295285358,0.03875732000000003,-0.028096823551154046,-0.9986887293548377,0.018014094327543435
180.0,0.08794272494978139,-0.0318263138071606,-0.1109663560006302,-0.3281157194060417,-0.7616385048643108,-9.76999999999999,-0.03198239302699988,0.1052059562581236,-0.02380115404308953,176.69811040214265,-1.8978012131237936,175.45826883689784,0.03876682136200721,-0.02843313823711055,-0.9986804795238087,0.01799773240954745
181.0,0.08945031312773247,-0.02995273543660642,-0.11235361770845642,-0.32905785970302065,-0.7608192524321553,-9.76999999999999,-0.024774508645476388,0.11806441766119186,-0.052367166883295915,176.69381326558744,-1.8864006065618968,175.44788441844895,0.038762070681003624,-0.02849387186049075,-0.998668854761904,0.018001551204773734
182.0,0.08809094616794928,-0.029633140590476715,-0.11260224201743449,-0.32952892985151017,-0.7604096262160777,-9.76999999999999,-0.01577327747983315,0.059176218047185786,0.0034575393966653073,176.69166469730985,-1.8807003032809484,175.44269220922445,0.038759695340501825,-0.028524238672180846,-0.9986630423809517,0.018003460602386875
183.0,0.08835133833677017,-0.030362132953183962,-0.11350013658442376,-0.32976446492575495,-0.7602048131080388,-9.76999999999999,-0.031924306182890994,0.06308702714790124,0.07526689549322224,176.71182635291635,-1.8778501516404742,175.44009610461222,0.03875850767025092,-0.028342640581486278,-0.9986794422466664,0.018004415301193444
184.0,0.0895580000991031,-0.03154898171547497,-0.11522570734849608,-0.3298822324628773,-0.7601024065540193,-9.76999999999999,-0.020369819797499297,0.07742534231868259,0.0836698710007763,176.73890458021572,-1.885688684075781,175.44553251408092,0.038757913835125474,-0.028071042619625723,-0.9986988511233326,0.018011120947260643
185.0,0.09036040500140394,-0.031717126670300466,-0.11670217861685082,-0.3299999999999996,-0.7599999999999999,-9.76999999999999,-0.05466569215268487,0.009049353352162927,-0.09160844358555076,176.74790954363013,-1.8827217845167896,175.44238082850205,0.038757320000000026,-0.02812894989429003,-0.9986813625702384,0.018008620465949837
186.0,0.08872644913261757,-0.03215845505281034,-0.11726637726390374,-0.3299999999999996,-0.7599999999999999,-9.76999999999999,-0.013311489693140464,-0.02555095308225586,-0.06883389241300655,176.74996283633118,-1.878860892258395,175.439940414251,0.038757320000000026,-0.028189192850370845,-0.9986692962851188,0.018006995232974925
187.0,0.08700110177754708,-0.03183885291662371,-0.11300623753934,-0.3299999999999996,-0.7599999999999999,-9.76999999999999,-0.024231837458432874,-0.013295767904291302,0.030180478351249068,176.75098948268172,-1.8769304461291973,175.43872020712553,0.038757320000000026,-0.028219314328411252,-0.998663263142559,0.018006182616487468
188.0,0.08708297015831856,-0.031919153518580365,-0.11481733210618764,-0.3284769962982548,-0.7613537810682185,-9.76999999999999,-0.016639948087296304,0.015563386326423463,-0.0925026562884583,176.7206934009509,-1.8759652230645987,175.43811010356274,0.03876558347964042,-0.02845020425556368,-0.9986596432570232,0.017995965033785775
189.0,0.08639862793630215,-0.03181723164920315,-0.11614906543865448,-0.3289107971762649,-0.7608407410205402,-9.76999999999999,-0.027569205994493005,0.006309598949182034,0.022457069193200438,176.70024045367563,-1.8751625910509886,175.43756503642038,0.03876195181150481,-0.028653883671560625,-0.9986574522736725,0.017997964413974304
190.0,0.08667502036373259,-0.029289309012786965,-0.11636145339490556,-0.3266762422605891,-0.7626436955723056,-9.76999999999999,0.027299654186776552,-0.004932729541658082,-0.030217925421009643,176.67393856510725,-1.8784739454094292,175.4375,0.0387736917667946,-0.028880065548459427,-0.9986630452655081,0.017937694204505767
191.0,0.08504747235084487,-0.030319633150171714,-0.11472394762248225,-0.323176830807714,-0.7664831381087339,-9.76999999999999,0.017190383575510067,0.00982388662241019,-0.07390213278738722,176.61122486568019,-1.8767369727047147,175.4375,0.03879701039952635,-0.0294449443970585,-0.998658683578163,0.017845039754858336
192.0,0.0836475655198553,-0.03053962927019513,-0.11286405497669377,-0.32142712508127647,-0.7684028593769481,-9.76999999999999,0.07870445297401933,-0.01573712016434121,-0.08335455234582681,176.5016809812272,-1.8758684863523574,175.4375,0.038808669715892224,-0.03029135969852926,-0.9986328516277914,0.017876477458074323
193.0,0.07974123636220408,-0.03163081452597584,-0.114603273071015,-0.3205998660837372,-0.7693204143526733,-9.76999999999999,0.025180565402339594,0.010861556678088935,0.03790421048485565,176.43477016375203,-1.8754342431761786,175.4375,0.0388142411403364,-0.030831368506311806,-0.9986135362977668,0.017909730976525255
194.0,0.0799347010516365,-0.02904034719760528,-0.11337237583205326,-0.32014888337468994,-0.7698163771712168,-9.76999999999999,0.05091544320374966,-0.0064798916361416365,-0.2477561640868092,176.29769151379534,-1.8752171215880895,175.4375,0.0388351998610422,-0.03199579282029129,-0.9985699541066994,0.017886872482630267
195.0,0.07767578725038399,-0.030537543325849792,-0.11391819784158493,-0.3200000000000002,-0.7700000000000009,-9.76999999999999,0.04387428487730907,0.014176307283666152,-0.2121690249714443,176.13834637724506,-1.875,175.4375,0.038858824555831256,-0.03332753241510843,-0.9985189019392052,0.017853617171836228
196.0,0.08608603258300836,-0.03334321335026982,-0.1146067416006932,-0.31737965260545914,-0.7700000000000009,-9.76999999999999,0.03967907792252551,0.051892744212552674,0.027786455256213316,176.1014157444538,-1.8482009925558311,175.4375,0.038870091632754324,-0.03363176608844751,-0.9985091129373455,0.01774879789609182
197.0,0.09879722157556772,-0.035664783432477226,-0.11544665137328836,-0.31791948446353835,-0.7691526239768902,-9.76999999999999,0.0008146721160533187,-0.2021030700729485,-0.07956902261262516,175.98883438620436,-1.8538970778860042,175.4375,0.038859269745120543,-0.03467749654540484,-0.9984786358701532,0.017876256675086105
198.0,0.11643952686095803,-0.03521311135502278,-0.11465415471424739,-0.3344436131995113,-0.7673866736697745,-9.764916911045937,0.054130047038802157,-0.15395673915135577,-0.05634266193704386,175.86564240606128,-1.9612227324913891,175.4375,0.03873142038575676,-0.03578831297037035,-0.9984276347923593,0.018745100918188224
199.0,0.13831405623444926,-0.033931617712250846,-0.11538663070699967,-0.36009525573126944,-0.7635320465123066,-9.762297165200383,-0.008853090624519513,-0.2617178236699707,-0.09484316719680978,175.8505631385145,-2.1106671975112032,175.4375,0.03862360319784115,-0.035913763919428354,-0.998409744984269,0.0200654723151735
200.0,0.14908611465568622,-0.034635318781683744,-0.11516117360412018,-0.37617666012369944,-0.7616047329335724,-9.760987292277608,-0.034321231649108386,-0.17854084809429055,0.1092282496832328,175.88012027893467,-2.2136772712121773,175.4375,0.038562484986017345,-0.03573048805896978,-0.9984046169189333,0.02089699631887705
201.0,0.15576390100029971,-0.03237969413029598,-0.11471954461843725,-0.3842992481759938,-0.7606410761442055,-9.760332355816221,-0.026155653045397867,-0.08323754563523461,0.07976921169025164,175.8836860699884,-2.270982556201622,175.4375,0.038531925880105435,-0.035636623428988615,-0.9984073844197644,0.021315575362912453
202.0,0.15969539063087457,-0.031768478832994974,-0.11617114068726973,-0.3883027295285363,-0.7626099706744873,-9.760004887585527,0.05538621324911647,-0.06428631852018948,-0.03828530340627115,175.85901806526806,-2.2814431536205726,175.4375,0.03851716055921496,-0.035781991079254075,-0.9983919290994814,0.02150437047883299
203.0,0.1629152567862246,-0.03239657117076473,-0.11627761485826006,-0.3897965260545909,-0.7612915256786226,-9.759999999999994,0.1168471313632604,-0.10048405895180088,0.04829780434619145,175.88024099556355,-2.2900857207308816,175.446929280397,0.03851360409925556,-0.03561346488818708,-0.9983903850844427,0.0215966271624934
204.0,0.15930521091811423,-0.03647627641176028,-0.11405865102639298,-0.3916422287390031,-0.7606457628393113,-9.759999999999994,0.15286205729754115,-0.13536638093089706,0.10664711632453568,175.97730374464246,-2.302331942251297,175.47154015339498,0.0384959985337243,-0.03472825348717948,-0.9984182371178281,0.02164123444394315
205.0,0.15421836228287847,-0.04030017294533422,-0.11361741484322133,-0.39082111436950173,-0.7603228814196554,-9.759999999999994,0.09322693435596661,-0.08209075870366192,0.08524043161139935,176.03026167381006,-2.3075710579742834,175.48677814121362,0.03848665886487701,-0.03430159445326717,-0.998431837295886,0.021664550589217228
206.0,0.15146650124069488,-0.04022700954959019,-0.11451838484096549,-0.39041055718475104,-0.7601614407098276,-9.759999999999994,0.05829150688021656,-0.06708446123768705,-0.0019672531769305973,175.9399292240018,-2.2862141890367695,175.46610929393188,0.038499919432438495,-0.0350603892018197,-0.9983987140896307,0.021638892532821995
207.0,0.14921076772689681,-0.0383759681179036,-0.11370103015264307,-0.3902052785923757,-0.7639150312053542,-9.759999999999994,0.02995525979396947,-0.03212177607338897,-0.10206500488758552,175.78150236859915,-2.2676488833746897,175.4518046469659,0.03852898475043238,-0.036426779363861954,-0.9983544271474554,0.021583039614407083
208.0,0.14812966074208256,-0.03644938178496196,-0.11328946178199911,-0.3899485709283498,-0.7653445383055404,-9.759999999999994,-0.011452178258268773,0.013569264550246735,-0.06371837518924664,175.72678711815388,-2.2648980593311356,175.44435765847055,0.03853942082490326,-0.03688220191284834,-0.9983423057937574,0.02155828252913977
209.0,0.1525692291980208,-0.03610836635680162,-0.114193606746327,-0.38859354255117406,-0.7626722691527701,-9.759999999999994,-0.019884813469310342,-0.0011271468060105507,0.15820679481006877,175.8574215405041,-2.2564409651494386,175.46738288593127,0.0384943825141134,-0.03577396717098917,-0.9983924622028411,0.02141709717610458
210.0,0.15121513569082184,-0.036642272508425625,-0.11498265945256794,-0.3892967712755872,-0.7613361345763849,-9.759999999999994,0.008916154059389492,-0.009992853800027608,0.21195079194597732,175.96566796628184,-2.25221241805859,175.4836914429656,0.0384621791602825,-0.03488544118847224,-0.9984158453048939,0.021362681302692504
211.0,0.15015324797173624,-0.036290382062168294,-0.11435951530414698,-0.38964838563779375,-0.7606680672881925,-9.759999999999994,0.05884233524459812,-0.008100043713308037,0.10294133326150659,176.0868996083759,-2.250842561386615,175.49272971652005,0.038424675709173524,-0.03385906324451059,-0.9984467091809824,0.02135415137410738
212.0,0.15196698887695523,-0.03496840633287432,-0.11536631752134882,-0.3888227484279484,-0.7602118440057773,-9.759999999999994,0.06206905355918356,0.010378613923390043,-0.03147330121331083,176.07927256902943,-2.2504212806933075,175.49737292277615,0.03842497198846282,-0.033909849595074495,-0.9984503310136901,0.021324039982256578
213.0,0.1508724089123914,-0.03562843990699802,-0.11435544250325184,-0.38462890507300307,-0.7586535764375871,-9.76119682094436,0.09021029066702697,-0.00408344742904413,0.017319928349894237,176.17524680135546,-2.234104721832632,175.49595446045305,0.038364867723662814,-0.03312914616412646,-0.9984868893674157,0.021093371436600797
214.0,0.15055489254069992,-0.033181117139125145,-0.11463920415966636,-0.38335021944973585,-0.7627933264951541,-9.760598410472177,0.060381813678008024,0.0035903979352933744,-0.11820525153535766,176.10462736545793,-2.2420523609163157,175.4658719027583,0.03848987803641305,-0.033729239683878205,-0.9984612659431364,0.021141577783341744
215.0,0.14433662365210803,-0.031080445027190977,-0.11559044951197092,-0.3767435359223264,-0.7661669467275383,-9.760299205236084,0.051091444473412614,0.023121990455728495,-0.1400250635449553,176.027170344884,-2.212301840282205,175.45067788686302,0.03860069378841484,-0.03433165298367907,-0.9984405720454083,0.020890350338772175
216.0,0.14353036912359518,-0.030204257403436838,-0.11567209519737201,-0.373763827514513,-0.7682447636863503,-9.76014960261804,0.08438097300744095,-0.0478701650097476,-0.10858474584872399,175.9875794577266,-2.1988928556249734,175.4430808789154,0.03868055205797914,-0.034698507948565604,-0.9984316619333738,0.020785271349963587
217.0,0.14194934440772922,-0.027461300584241295,-0.11297687571616315,-0.3718325637331833,-0.7692836721657563,-9.760074801309017,0.06132866657112539,-0.013297744998855505,-0.01732499208661524,175.99537705433272,-2.1921883632963572,175.43928237494157,0.03872225677285092,-0.034578550750883646,-0.9984242491792529,0.0207307122505716
218.0,0.14129448376210538,-0.026327406504585142,-0.11524608880928092,-0.3759045941620568,-0.7679394949457552,-9.759999999999994,0.051170635655469546,-0.011844956219354389,0.1163694203806144,176.16036181986243,-2.1893328445747797,175.4375,0.038702378882020085,-0.03312476468349377,-0.9984761125081008,0.02077943221004864
219.0,0.14198741446725321,-0.026799383412286652,-0.1147669279645086,-0.37791618730731624,-0.7690227084743224,-9.759999999999994,0.03206679073614557,-0.009561926648620198,0.0217626795247763,176.23101907333256,-2.1874083577712606,175.4375,0.03870073032931048,-0.03254175250622228,-0.9985033603495287,0.02078669132012747
220.0,0.13728613523573202,-0.028253101736972725,-0.11466051488833748,-0.37458111042183617,-0.7695235732009935,-9.759999999999994,0.0009692928039702221,-0.003452620967741935,-0.3182343362282879,176.00509169509925,-2.1875,175.4375,0.03874105356885857,-0.03448261465787842,-0.9984425951493493,0.020708764251085622
221.0,0.13620786151438838,-0.032138328210066305,-0.1134709929724825,-0.37642806863634676,-0.7697617866004973,-9.759999999999994,0.03229504231324765,-0.05715944259008925,0.18489462774526866,176.04418365726036,-2.1875,175.4375,0.03872628646921873,-0.0341533821637231,-0.9984492868081469,0.020750454242464415
222.0,0.13918614911007787,-0.03388685716466169,-0.11454318526923245,-0.3800881942644098,-0.7652670125573355,-9.759999999999994,0.02773644466591024,-0.05189789547637405,0.2683068416096822,176.3401948917717,-2.2178030303030303,175.46291544477026,0.03867074788484154,-0.03159576810639112,-0.9985313436812148,0.020867140814795865
223.0,0.14219853361211096,-0.036382634537665846,-0.1132641484658817,-0.3844113427897733,-0.762531769305963,-9.759999999999994,0.01912566650168961,-0.05108852590195873,0.14659138606538702,176.51575501412407,-2.2349095796676437,175.4824657869013,0.03862480086797911,-0.02995591879016827,-0.9985924994038824,0.02093332684660388
224.0,0.14300715461716915,-0.038003784371622606,-0.11273561585261149,-0.3841607056079853,-0.7611045943304007,-9.759999999999994,-0.028288696939395064,0.010732430785391784,0.0696643109738921,176.64464295935167,-2.243462854349951,175.49224095796677,0.03859754156302185,-0.028865354711122917,-0.9986269547441244,0.020913357116737544
225.0,0.14557181552198412,-0.03892620980367731,-0.11282562430347695,-0.38222179200994794,-0.7603910068426196,-9.759999999999994,-0.029319596608655348,0.0521791806532418,0.08198631181448948,176.7128921992788,-2.2477394916911044,175.4971285434995,0.03858257916860773,-0.028246326784841833,-0.9986465148236747,0.02086609660551518
226.0,0.14834440559440565,-0.03735309045792917,-0.11322913376945631,-0.38114219114219106,-0.760034213098729,-9.759999999999994,-0.02629767745695165,-0.0033699667268215668,-0.13201779739078126,176.74226398601397,-2.249877810361681,175.49957233626589,0.03857616625257544,-0.02803349318178055,-0.9986551343425063,0.020839925339348836
227.0,0.14784766711782849,-0.03754262538536732,-0.11370400969997743,-0.3805173321302353,-0.7599999999999998,-9.759999999999994,-0.019579068444995865,-0.0105437321415144,-0.1254694314422137,176.72862832731784,-2.243447580645161,175.5,0.03858332149627797,-0.02818917962852468,-0.9986496037866,0.020816463588540494
228.0,0.14408772343248155,-0.03920575280454312,-0.11337384501699019,-0.38012218963831856,-0.7599999999999998,-9.759999999999994,-0.013047835061443932,-0.04851574137108411,-0.12878669689405575,176.6395758419448,-2.2144657258064515,175.4953917050691,0.038610148951612924,-0.028935155949675308,-0.9986215335586278,0.020777799391379227
229.0,0.1411763152841782,-0.03896993407578085,-0.11415026561699952,-0.3799999999999999,-0.7629032258064511,-9.759999999999994,-0.006355906778033793,-0.028412318388376857,0.10360213053635434,176.54495287698413,-2.206023185483871,175.47350230414747,0.03863894447580647,-0.029798976948444696,-0.9985921284728624,0.02074541196108552
230.0,0.13999546152771963,-0.0390233193106177,-0.11351307574593865,-0.3799999999999999,-0.7614516129032254,-9.759999999999994,-0.028105116909300374,-0.0024745220057720025,-0.016308680119163983,176.51306783634152,-2.199663596652004,175.46231322440997,0.038641900478372446,-0.03010741022581081,-0.9985779027750437,0.020729560941442085
231.0,0.13974571463482757,-0.04078938142950239,-0.11468244513103382,-0.3799999999999999,-0.7607258064516127,-9.759999999999994,-0.07017340018852115,0.02645301117453335,-0.06407041868861425,176.56046536978369,-2.2092067983260018,175.46805177349532,0.03862971604563785,-0.029693867524699755,-0.9985983683230057,0.020751585873946855
232.0,0.14072467183354284,-0.0395453963599125,-0.11420866208164593,-0.3799999999999999,-0.7603629032258061,-9.759999999999994,-0.02632913961038961,0.006973355385653773,-0.19113614180398453,176.52731874839992,-2.1975500977517104,175.48402588674765,0.03860169117302057,-0.029981345002269212,-0.9985965253913418,0.020751506424876644
233.0,0.137896898128753,-0.043036907089326434,-0.11361226754875944,-0.3799999999999999,-0.7601814516129031,-9.759999999999994,-0.061711676820043755,0.052993846151608244,-0.09608010367208955,176.52967639928957,-2.192525048875855,175.4921569525904,0.03858697123167161,-0.029947067987565724,-0.9985963733203511,0.020768808773114204
234.0,0.14171558616115074,-0.042667647093050314,-0.1133409120001862,-0.3799999999999999,-0.7599999999999998,-9.759999999999994,0.025627276509332962,-0.014235183779034585,0.05961808828492296,176.5714315716206,-2.2104888349217986,175.4968345246823,0.038581103075513254,-0.029653011070395748,-0.9985943129227766,0.020782084774661952
235.0,0.14328660776225166,-0.044595104409262835,-0.11487064204367142,-0.37999999999999995,-0.7599999999999999,-9.759999999999994,-0.012406697254430735,0.02732953941310308,0.08653213483082273,176.63265799011137,-2.2311302923387095,175.49918094758064,0.038576557842742,-0.029125357793420042,-0.9986160542039542,0.020799088638552878
236.0,0.14275748657343357,-0.03725726839569842,-0.11559765818064464,-0.37825310173697296,-0.7669081885856078,-9.759999999999994,0.12360046650926106,-0.028857378634019184,-0.3736866214028268,176.47220993682055,-2.218224643300248,175.45434243176177,0.03884029796401989,-0.030487612718321375,-0.9985669677387635,0.02077612106086298
237.0,0.1385181163356242,-0.03141390019680863,-0.1176498956876168,-0.3781275914512128,-0.7789379652605455,-9.759999999999994,0.06777596247549421,-0.04336024254931968,-0.07724017513299512,176.29254083030546,-2.202862321650124,175.38768110141677,0.03927632637014732,-0.031990191245184346,-0.9984987608881123,0.020758939606263946
238.0,0.13975891966714477,-0.030189419271513376,-0.11859914978617533,-0.3790637957256064,-0.7798761745921979,-9.759999999999994,0.023774022468976065,-0.05121171621476879,0.13174019254060962,176.32329394137972,-2.1951811608250615,175.37932442167613,0.03946339058327568,-0.03171616567375348,-0.9985108114144428,0.020784352123186037
239.0,0.1387615162851853,-0.02938200802285347,-0.11820616091459304,-0.37953189786280317,-0.7802606679412606,-9.759999999999994,0.02195085532050954,-0.022717123228352138,0.12255692422729406,176.41742549051511,-2.2138130686517785,175.37514608180578,0.03955427925333139,-0.03094645951043186,-0.998522078255105,0.02082261862207689
240.0,0.1418449984346165,-0.02754397627907123,-0.11785211007261125,-0.380830977093204,-0.7804529146157919,-9.759999999999994,0.07579247917735832,-0.060066969274847004,0.3125154445063266,176.5447822537061,-2.231906534325889,175.37305691187066,0.039585283850936036,-0.02991355464380751,-0.9985435003281043,0.02087130559112037
241.0,0.1386757781963937,-0.02770199719857694,-0.1184121316836726,-0.3809616305766149,-0.7803331570597574,-9.759999999999994,0.11633227487955314,-0.09478298245143743,-0.1501613962627294,176.60208065775225,-2.2416666666666663,175.37343912591052,0.03958848528310322,-0.029347838652322437,-0.9985620574776927,0.020897103894500668
242.0,0.1402724517975708,-0.026800752100593468,-0.11760625519377503,-0.38051203277009726,-0.7800052882072983,-9.759999999999994,0.10715135604744276,-0.07926786658608445,-0.06988764657987291,176.5570887159729,-2.2182850784417414,175.375,0.039599104769543286,-0.029779991123853145,-0.9985502124459229,0.020887689585127548
243.0,0.14037274523485951,-0.026160649672377564,-0.11756500473989089,-0.3802560163850486,-0.7800000000000007,-9.759999999999994,0.06902769180717783,-0.05384652349109412,-0.04182595597276343,176.53965332490958,-2.2211027369315888,175.375,0.0396053816999488,-0.02985925919270734,-0.9985504684307034,0.020886476942049453
244.0,0.13872019155603538,-0.02551580870715653,-0.11640598485346955,-0.3801280081925243,-0.7800000000000007,-9.759999999999994,0.0528747113215563,-0.017608420434412825,-0.23715474003979828,176.4514332788266,-2.205139796318725,175.375,0.03961418944518772,-0.030649055456742152,-0.9985240131331456,0.02084696215598831
245.0,0.13758718231155584,-0.025478078444720106,-0.11655040666124578,-0.3800307219662058,-0.7829032258064517,-9.759999999999994,0.06123158249129531,-0.002779824656530529,-0.14059477913408244,176.3292832676775,-2.1953118336432333,175.35735887096774,0.039638066757924154,-0.03171240391372694,-0.9984936289833672,0.02080467577589481
246.0,0.14402400590232173,-0.03043361167499703,-0.11805118899370531,-0.3799999999999999,-0.7832258064516132,-9.759999999999994,0.030559787661418265,0.018819381066511997,0.163477572030501,176.3487334157128,-2.2029986587571004,175.3555947580645,0.03963241093912591,-0.03152245435061668,-0.9984999078147767,0.02081403476326743
247.0,0.15013072320499482,-0.03084742455775236,-0.11786615504682622,-0.3841129032258066,-0.781612903225807,-9.759999999999994,-0.037668281737773146,-0.08583588059313216,0.29266389177939645,176.58162477237252,-2.235456230489074,175.36529737903226,0.039582736114724223,-0.029490078677159214,-0.9985583861654528,0.020994648107440155
248.0,0.15947640003798952,-0.034672139016897086,-0.11741551975455464,-0.38615271377368166,-0.7808064516129039,-9.759999999999994,-0.02340191707753167,-0.05371114719083957,0.26670842417785706,176.87950167520398,-2.264672487426292,175.37014868951613,0.03954977485203698,-0.02692323717693415,-0.9986330383220183,0.021091202015664494
249.0,0.14016625791323373,-0.027411827084206128,-0.11628075833216964,-0.37165895708234425,-0.7840004887585532,-9.759999999999994,-0.052364487690848574,-0.18012966466217473,0.028127254689754702,177.1229658243582,-2.177161611070381,175.3505802098607,0.03975770078828317,-0.02477465018213529,-0.9986958968610058,0.020249568260063196
250.0,0.12211249883628919,-0.023371932167295082,-0.11761982585067264,-0.3558397191965741,-0.7870708088954053,-9.759999999999994,-0.0447411816174417,-0.15984304813689892,0.21214930482823627,177.15954593821277,-2.0855566119868034,175.33108332569648,0.039911503338249985,-0.024455956547080826,-0.9987136395752158,0.01947044807524409
251.0,0.11352680753386396,-0.022096912384210785,-0.1157043141670158,-0.35243598863054526,-0.7886412512218959,-9.759999999999994,-0.051635213744588744,-0.13271590290869523,0.19687946392205463,177.31665262940464,-2.05472132034632,175.32111436950146,0.03996995759030393,-0.02307507978443711,-0.9987508382654309,0.01916193860195417
252.0,0.10927681752863853,-0.02170199092155389,-0.1139773684518742,-0.35060559512172434,-0.7894819159335282,-9.759999999999994,-0.03409653994981779,-0.08416116344055989,0.1371054081772084,177.45179909696037,-2.0553344504957405,175.3157991202346,0.03998113101289387,-0.02196143145975887,-0.9987677302415869,0.01903670982265048
253.0,0.10550886447348465,-0.021624164943623854,-0.11589037393407843,-0.349690918400596,-0.7899022482893444,-9.759999999999994,-0.028697015494622155,-0.05760157506385394,0.09909865902972043,177.51369396732298,-2.0552209886887303,175.3131414956012,0.03998697159451653,-0.021413226743704314,-0.9987747496318027,0.01897389574081834
254.0,0.10788876564526931,-0.020568981486775467,-0.11619708560603462,-0.3497183819764467,-0.7899999999999994,-9.759999999999994,0.003777385176968946,-0.02898289708903653,0.049573062502302874,177.54176267281105,-2.0583717357910905,175.3125,0.03998287372247818,-0.021110942944188422,-0.9987774872401443,0.018970335622119833
255.0,0.10724955435361265,-0.020534106718810164,-0.11658420588545458,-0.35000000000000026,-0.7899999999999994,-9.759999999999994,0.008985146761551549,-0.01584353507805641,0.13655368434894968,177.58272529441882,-2.0614439324116742,175.31552419354838,0.03997924872503833,-0.020739161231438815,-0.9987891435483877,0.018989126533538167
256.0,0.1072909318107029,-0.020246572048601197,-0.11412927652183638,-0.35000000000000026,-0.7884434203789039,-9.759999999999994,0.008476828373095283,0.01316758217935377,0.13280897223079846,177.68109959037378,-2.0625,175.3462701612903,0.03997802999999993,-0.01988748644521251,-0.9988157211290325,0.01902611080389146
257.0,0.10732912875654811,-0.02025856177872308,-0.11396110027964867,-0.35000000000000026,-0.7883346134152581,-9.759999999999994,-0.009565566042380558,0.008242219809760132,-0.05244957215723345,177.67774737583204,-2.0625,175.33543346774195,0.03997802999999993,-0.020006175480670768,-0.9988088306451619,0.019018295321300577
258.0,0.10916143310094922,-0.01763446029776676,-0.11447544950569141,-0.34936476426799024,-0.7871027905785968,-9.759999999999994,-0.008881260708377643,0.006105975397810075,-0.09479065121706251,177.65833708741974,-2.0550558312655087,175.33736623759305,0.039961067220843624,-0.02016602451791623,-0.9988052112481394,0.01898024296337982
259.0,0.11045788776635551,-0.01374402915632755,-0.11463350639056284,-0.34452109181141444,-0.7929868791602659,-9.759999999999994,0.09634255823141911,0.06822823583786285,0.05805597712099728,177.57110402758082,-2.026519851116625,175.29771537686105,0.040227960465260525,-0.020929550242829092,-0.9987922556240701,0.018828007772012482
260.0,0.12306850653826461,-0.019484801488833758,-0.11522071566426403,-0.3528982630272953,-0.793557955709165,-9.759999999999994,0.0082642827602505,-0.09977066224546065,-0.0401664321901217,177.50798144927427,-2.0767679900744414,175.2926062344913,0.040219793803349835,-0.02149919248982335,-0.9987772305584681,0.019260894652445446
261.0,0.13507901674937967,-0.020933467741935496,-0.11377326302729529,-0.35422828784119087,-0.7918276209677414,-9.759999999999994,0.01346541563275434,-0.024190640508684868,-0.19390751008064513,177.378562635701,-2.0785669975186103,175.30154505272952,0.040135259375620326,-0.022642048813740698,-0.998753531366082,0.019323246003799623
262.0,0.11821510545905706,-0.020461693548387106,-0.11373185483870968,-0.33488337468982626,-0.790941532258064,-9.759999999999994,-0.1486575294665012,-0.21212682227047147,-0.22529369571960295,177.23602861352356,-1.9598635235732011,175.30683351426796,0.040214637581110435,-0.02385265971758685,-0.998737950843672,0.01835393073449131
263.0,0.10009710081585083,-0.013347848052485154,-0.11233145114294307,-0.3218163771712158,-0.7905352822580638,-9.759999999999994,-0.08640815040134596,-0.21265930180370707,-0.1559922121729077,177.01097336383373,-1.882382133995037,175.3092480226427,0.040285875490307085,-0.02574257141958748,-0.9986952732406942,0.017849500972704713
264.0,0.08564613880742913,-0.010718550266937368,-0.11156402737047898,-0.31542431761786593,-0.7940992555831258,-9.759999999999994,0.010701932476126025,-0.12920520339875177,-0.16912925783893523,176.7832506203474,-1.8444168734491315,175.29782878411908,0.04032403491315137,-0.027767816610421825,-0.9986495638213398,0.0175578300942928
265.0,0.07888984134145424,-0.007613655162042261,-0.11256455372584404,-0.3118908188585607,-0.7971464019851108,-9.759999999999994,0.027119520264681556,-0.07263422061809159,-0.16267388525453041,176.63119031506127,-1.8234181141439203,175.30555210918112,0.040336394114143935,-0.029003404479284164,-0.9986201810124071,0.017380034880366928
266.0,0.07386675689901495,-0.006834122866380934,-0.1121321527934431,-0.31021339950372195,-0.7987344913151355,-9.759999999999994,0.012257030603804796,-0.03461890931648996,-0.07798706669674411,176.55325024437929,-1.8136476426799006,175.30902605459056,0.04034508781141441,-0.029619415403413805,-0.9986059742928043,0.017292582365741764
267.0,0.07269516505000378,-0.006985299646589971,-0.11235639897736668,-0.3099999999999999,-0.7995285359801481,-9.759999999999994,0.010501964433416045,-0.01453340006767426,-0.04529005940296263,176.51676159861643,-1.8125,175.3107630272953,0.04034563324069481,-0.02990692938160766,-0.9985990072307697,0.017280146088578065
268.0,0.07106045567335892,-0.009660519587938947,-0.11378144033385967,-0.30999999999999994,-0.7999255583126542,-9.759999999999994,0.014565827317843448,-0.008403533630348146,-0.03363152304684563,176.50334047672757,-1.8125,175.31163151364763,0.04034493662034742,-0.030010445497255456,-0.998596614099256,0.01727457917332128
269.0,0.0706493345364313,-0.010892294533423571,-0.11314630329348072,-0.30999999999999994,-0.7999999999999992,-9.759999999999994,0.008973360309045792,-0.004046679966538838,-0.013078168471313633,176.5003054740958,-1.8125,175.3125,0.04034424000000002,-0.030027778597262977,-0.9985961900000004,0.017273158802541523
270.0,0.06986166253101736,-0.012112437965260552,-0.11254675868486352,-0.30999999999999994,-0.7999999999999992,-9.759999999999994,0.008311685794044666,0.009276616780397023,0.0833107165012407,176.51141439205955,-1.8125,175.3125,0.04034424000000002,-0.02994884834739456,-0.9985961900000004,0.017278280660049612
271.0,0.0691286562899466,-0.00759260094743966,-0.11304428904428904,-0.3099999999999999,-0.799999999999999,-9.759999999999994,-0.0016777577261448233,0.06809816527558463,-0.14645368072787424,176.431415895932,-1.8125,175.28659579667644,0.04036858041055717,-0.030708368562749076,-0.9985661213391989,0.01725747581878337
272.0,0.07007203549139032,-0.005473343860440636,-0.11179276637341151,-0.30999999999999983,-0.799999999999999,-9.759999999999994,-0.0032671629445822996,0.08303349875930521,-0.07778874351454995,176.3689337544176,-1.8125,175.26728983382208,0.040387909560117286,-0.03131389242409201,-0.9985496563147613,0.01723370839326266
273.0,0.07384991352733286,-0.004208135950071435,-0.11073509286412511,-0.3099999999999999,-0.7999999999999992,-9.759999999999994,0.008509098428453267,0.01982009925558312,0.05975637265959847,176.40717159184902,-1.8125,175.27252518986393,0.04038255136566658,-0.030997276569366107,-0.9985579003881498,0.017240727390179705
274.0,0.07611354237160689,-0.003604067975035718,-0.11137623129558612,-0.31016129032258055,-0.7987903225806445,-9.759999999999994,-0.0019023986765922245,-0.014772022332506204,0.2173471689600722,176.51860595721485,-1.8125,175.29251259493196,0.04036290342476879,-0.030018606429844344,-0.9985839368069782,0.017285878049928552
275.0,0.0859350032856344,-0.0019651224184884775,-0.11334870470810159,-0.30970663861617576,-0.7953558906030846,-9.759999999999994,-0.002025793864854173,0.017518239561980797,-0.08620180660853873,176.5257765733857,-1.807357410004675,175.29642869110785,0.04027960952444611,-0.029984919465578484,-0.9985923476110634,0.017244548012197707
276.0,0.08677383653725992,0.0009175788529083422,-0.1133128971666447,-0.3098533193080878,-0.7976779453015419,-9.759999999999994,-0.055235004867823415,-0.0808528460496803,-0.09451470125002445,176.61005822877132,-1.8099287050023376,175.27301578739167,0.04048324793758523,-0.02926901710811934,-0.9986060237424672,0.01725508322258972
277.0,0.0849827149450718,0.002208545047177534,-0.11624344760580527,-0.30992665965404387,-0.7988389726507705,-9.759999999999994,-0.06786371455512383,-0.0348973418909203,-0.025935258738404212,176.5867831466437,-1.8112143525011688,175.2615078936958,0.040593895097824885,-0.02945965218064812,-0.9986015990486532,0.017245803062907766
278.0,0.08471096045020339,0.004543478478923756,-0.11409194712796467,-0.3099633298270219,-0.7994194863253847,-9.759999999999994,-0.05240270095001849,-0.03995177268243286,0.14726810264072343,176.56692600260226,-1.8118571762505842,175.25528868630204,0.04065165717174121,-0.029630930998512637,-0.9985993639858652,0.017236634208873232
279.0,0.07933586878815152,0.00553091873604057,-0.11615788399897745,-0.30677036848144856,-0.7997475455820467,-9.759999999999994,-0.03725378510355275,0.015986528889721983,-0.20544135496018567,176.41168527570852,-1.7916507288877555,175.25163627863486,0.04070320213120297,-0.031002555968999115,-0.9985522183651216,0.0171875378015285
280.0,0.07136265155162602,0.006890050298361566,-0.1146883389139347,-0.30323558162267866,-0.8028225806451612,-9.759999999999994,-0.02111783458076188,0.03593418309843743,-0.4863330547591952,176.15239330405342,-1.7699780058651027,175.24042338709677,0.04075934206139391,-0.03324707103265291,-0.9984781507043003,0.017104333822456637
281.0,0.06742302052785923,0.009032410801564032,-0.11454927297165202,-0.3000855327468232,-0.8065725806451616,-9.759999999999994,-0.025491813294232647,0.04792315799120235,-0.5654688263685239,175.85851489949903,-1.7514204545454546,175.21295362903226,0.040803350669599184,-0.035821273636210904,-0.9983886755194591,0.017007636197458466
282.0,0.06648872800586508,0.008979411045943308,-0.11584066471163246,-0.2947201857282501,-0.8084475806451618,-9.759999999999994,-0.0447519550342131,0.009124129398826982,-0.33430321358748777,175.5609201261608,-1.717444098240469,175.19921875,0.040844267028347966,-0.038361427274254636,-0.9982827650757579,0.01689822892534215
283.0,0.06187063608434574,0.010282476260298845,-0.11657672636503283,-0.2920375122189635,-0.8093850806451619,-9.759999999999994,-0.02539317061746497,-0.003929978791369919,-0.4523368586498626,175.2924240787774,-1.7004559200879765,175.1923513104839,0.04088654841560769,-0.04072550983920427,-0.9981844640816571,0.016799294504593755
284.0,0.05800451228878646,0.011267361111111117,-0.1182382072452637,-0.2907963709677415,-0.8098538306451619,-9.759999999999994,0.012232282866103429,0.00973612311187916,-0.09269443244367635,175.14368169562852,-1.692603326612903,175.1889175907258,0.04090499714605734,-0.042097680906778026,-0.9981262288104842,0.01674067587725614
285.0,0.05598238287250383,0.010830293138760886,-0.1171793394777266,-0.29023689516128987,-0.8100000000000005,-9.759999999999994,0.009779125864055297,-0.011902761776753711,0.03341663866487458,175.1216297843062,-1.6890435987903225,175.1875,0.040900842484318994,-0.04234158925883253,-0.9981121933618959,0.016727261514736937
286.0,0.05348766321044546,0.009916154633896572,-0.11674491167434718,-0.28999999999999954,-0.8100000000000005,-9.759999999999994,-0.01122371831797235,0.012855322740655402,-0.043224266353046575,175.08088167642728,-1.6875,175.1875,0.04089802679155466,-0.04262014543586791,-0.9981068060987914,0.016722246319364434
287.0,0.0514842549923195,0.00899513568868408,-0.1175166410650282,-0.28999999999999954,-0.8100000000000005,-9.759999999999994,0.0010600678443420369,0.004324276753712238,-0.03538226446492575,175.03554227470556,-1.6875,175.1875,0.04089601910394265,-0.042896429230030744,-0.9981060351612915,0.016721661413210437
288.0,0.05303091397849462,0.008990655401945727,-0.11727214541730674,-0.28999999999999954,-0.8100000000000005,-9.759999999999994,-0.007926507296466974,0.0261396729390681,0.002654169866871482,175.02367551523298,-1.6875,175.1875,0.040894331362007166,-0.042959473974974405,-0.9981070662672824,0.01672275501792114
289.0,0.05659994239631336,0.009462045570916542,-0.1154435483870968,-0.28999999999999954,-0.8100000000000005,-9.759999999999994,0.045959941436251914,-0.11994667658730156,0.03838545666922683,175.068113359255,-1.6875,175.1875,0.04089355,-0.04264115391529057,-0.9981079100000012,0.016723629999999993
290.0,0.06387600806451615,0.005290418586789557,-0.114640616999488,-0.2845161290322577,-0.8123387096774195,-9.759999999999994,0.10200102806579621,0.04737753216205839,-0.0363468261968766,175.1489760344662,-1.662298387096774,175.18094758064518,0.041013653225806475,-0.04198737582861303,-0.9981369516129037,0.016488843225806446
291.0,0.06683467741935485,0.0020958141321044555,-0.11375176011264726,-0.2769354838709674,-0.8163306451612905,-9.759999999999994,0.03740739407322068,0.018034154185867905,-0.044209829429083455,175.0125708045315,-1.610383064516129,175.15196572580646,0.041234168548387115,-0.0432105928865847,-0.9980914236290317,0.016102697903225792
292.0,0.06759296594982078,0.0012450396825396833,-0.11338125640040965,-0.27314516129032224,-0.8183266129032261,-9.759999999999994,0.021599882392473117,0.008585049443164367,-0.007799999199948799,174.9417692732335,-1.5844254032258065,175.13747479838707,0.04134187938684078,-0.04380074892153095,-0.9980681674596764,0.015909132983870953
293.0,0.06307110855094725,0.001656073988735279,-0.11260947900665645,-0.280392857142857,-0.8146794354838716,-9.759999999999994,-0.029485287058371733,-0.09322196620583717,-0.35126688108038917,174.79600974462363,-1.6341193836405528,175.16617403513825,0.04109521522798259,-0.045075265688876084,-0.9980020833381333,0.01638703749193548
294.0,0.06228356736570268,-0.0022505043801064146,-0.11326293091453506,-0.28549563380751997,-0.8084500496727449,-9.761047218326315,0.043046794125258796,0.0028815757251942423,-0.20449650516763507,174.70361538790655,-1.6645497572714218,175.21610770480615,0.04070812787813342,-0.045864619599819946,-0.9979723610449432,0.01669458266602384
295.0,0.06871234819898037,-0.0008253529965048202,-0.1128587840056546,-0.28791918787150167,-0.8086680691912115,-9.760523609163155,-0.0036309628164028634,0.014734638669048731,-0.20894558121284978,174.43585507298553,-1.6768124290389368,175.23426668002406,0.04061496571326025,-0.04828923225454705,-0.997857599020455,0.01696845890357644
296.0,0.06326906816107376,0.0006165420990105418,-0.1139621540996015,-0.29217562521629825,-0.806826703217307,-9.760261804581575,-0.01017210714133926,-0.06774398778913154,-0.45940696093878075,174.27066429800914,-1.703233927129439,175.23926188351152,0.0405502748906294,-0.04969240422966843,-0.9977913698579333,0.017201620583875227
297.0,0.05336392476154046,0.0015883529747484863,-0.11313955119214585,-0.2890716835758909,-0.8082520612860731,-9.760130902290785,0.003890520930098418,-0.015206799322113138,-0.25180889521593414,173.80418295545618,-1.6878064796937517,175.21438900627192,0.04058623222002024,-0.053787562239002176,-0.9975637401709029,0.017200368920969863
298.0,0.0508086904913693,0.002068114019376291,-0.1129302466662214,-0.2895727081473922,-0.8091099016107788,-9.76006545114539,0.02830214730580702,-0.014307828744517909,-0.1923775018834407,173.60109781413362,-1.687710843533512,175.20082929576267,0.04061458647636953,-0.05560227101811861,-0.9974604879656366,0.017180307589517184
299.0,0.049010002094679504,0.002576834008285621,-0.11236975166410648,-0.289777003910068,-0.8096765029325519,-9.759999999999994,0.010279521525741284,-0.03830895177291346,-0.10288726660324443,173.50011646199903,-1.6874885447214076,175.19293743890518,0.0406370059567448,-0.056505207061186474,-0.9974087581202664,0.017168133395039087
300.0,0.048375968789275234,0.003052529907368617,-0.11291874679979519,-0.2898885019550338,-0.8098533724340182,-9.759999999999994,0.0013122658031932228,-0.05344442044290834,-0.055113618180654474,173.45649094269305,-1.6874942723607038,175.18921065493646,0.04064496148643688,-0.056893734611742436,-0.9973859867390654,0.017158522342680824
301.0,0.04945924539170507,0.0035912698412698413,-0.11476582501280083,-0.28985383064516085,-0.8100000000000005,-9.759999999999994,0.008995575716845878,-0.017313608070916538,-0.0008125520033282103,173.43583039314518,-1.6869014616935485,175.1875,0.040649348477822506,-0.057080513916330664,-0.9973749361945579,0.017150972283266112
302.0,0.05079061059907832,0.003448860727086534,-0.11653865847414233,-0.28999999999999954,-0.8100000000000005,-9.759999999999994,-0.006874439964157706,-0.02436055907578085,-0.0032572084613415255,173.4375,-1.6875,175.1875,0.04064940999999993,-0.05706787000000001,-0.9973754900000014,0.017150879999999986
303.0,0.0492086693548387,0.003215725806451613,-0.1161290322580645,-0.28999999999999954,-0.8100000000000005,-9.759999999999994,-0.00321320564516129,-0.022964969758064516,-0.008285030241935483,173.4375,-1.6875,175.1875,0.04064940999999993,-0.05706787000000001,-0.9973754900000014,0.017150879999999986
304.0,0.04824940796210957,0.003446780593958013,-0.11598358294930877,-0.28999999999999954,-0.8100000000000005,-9.759999999999994,-0.01229628696236559,-0.007480978782642089,0.00428627432155658,173.4375,-1.6875,175.1875,0.04064940999999993,-0.05706787000000001,-0.9973754900000014,0.017150879999999986
305.0,0.04713125640040962,0.0034421402969790067,-0.11446860599078343,-0.28999999999999954,-0.8100000000000005,-9.759999999999994,-0.0019741263440860215,-0.01478194604454685,0.011436231918842805,173.4375,-1.6875,175.1875,0.04064940999999993,-0.05706787000000001,-0.9973754900000014,0.017150879999999986
306.0,0.04601208446571349,0.0015761414884398754,-0.11371654555122299,-0.28999999999999954,-0.8100000000000005,-9.759999999999994,-0.04193386838296112,0.0023140711774784356,0.046917179622572774,173.4375,-1.6875,175.1875,0.04064940999999993,-0.057058177890818886,-0.9973754900000014,0.017150879999999986
307.0,0.04750659208622918,0.0018299665164584517,-0.1129784462848979,-0.2859335288367543,-0.8071847507331378,-9.761173020527853,-0.06754123312843072,0.2000655384601957,0.4624740277084026,173.49028592375367,-1.6664833822091887,175.20558406647118,0.040537244525904154,-0.05654992505977896,-0.997413196353862,0.016966163362658836
308.0,0.0636765589580281,0.0051307748080188465,-0.11483935755105107,-0.28482510943941497,-0.8178677376854101,-9.761409324663173,0.08728250040048777,-0.13898489746578807,0.03656962035840891,173.93420619235837,-1.6639014620255854,175.14277859237538,0.04118593300395255,-0.0526086289931901,-0.9976016166318163,0.016909685402694538
309.0,0.06690077759654062,0.015713334754992835,-0.11376963811409968,-0.30289642568744957,-0.8330610035675632,-9.760704662331584,0.05346493773977583,-0.14311786664199314,-0.027512003169791056,173.88461969959474,-1.77247492456118,175.0683651026393,0.04187477867465178,-0.053002793405513476,-0.9975427535436121,0.017954958450872895
310.0,0.0663335296829233,0.024849122167330248,-0.11488678936496771,-0.31193208381146675,-0.8421756630741046,-9.76035233116579,0.08183617732541087,-0.09415256113135825,-0.11325750604481732,173.7861820394357,-1.8267616558289772,175.03115835777123,0.042270161434100076,-0.05383014155612919,-0.9974743941862741,0.018418746478613378
311.0,0.0686481544196254,0.026005206244955455,-0.1153317321514665,-0.31644991287347546,-0.8467329928273754,-9.760176165582891,0.017375905039876658,-0.005699109349798233,0.2333836539254821,173.72151843907267,-1.8539050214628756,175.01255498533723,0.04246106722573491,-0.05437145638848644,-0.9974438428177029,0.01864893790431909
312.0,0.0706779384023836,0.027357441832155154,-0.11583302150095318,-0.3188359046283311,-0.8490996342436001,-9.760051425899949,-0.015261216590521104,0.019786075823634605,0.17482354739284858,173.90923795853928,-1.8681334735857877,175.002688172043,0.04253530636457811,-0.052825579763158194,-0.9975259036864669,0.01884358046731107
313.0,0.0713874462033855,0.02918816098512495,-0.11582635359580329,-0.3200000000000002,-0.8499051233396593,-9.759999999999994,0.003970112746203829,0.030772672536192463,0.10442210382912469,174.0135104004945,-1.875,175.0,0.04255040183352796,-0.05202228778948,-0.9975702272897041,0.018946939431879015
314.0,0.07156342582149035,0.030760057147153935,-0.11583976238814947,-0.3200000000000002,-0.8500000000000009,-9.759999999999994,0.01830635762087375,0.011330269193172421,0.040437720881269255,174.07413245356793,-1.875,175.0,0.04254655889826303,-0.05154674141371535,-0.9975971726296722,0.01896507166328297
315.0,0.07085991427926912,0.033348522445296645,-0.11663598766824572,-0.3200000000000002,-0.8500000000000009,-9.759999999999994,0.0019681930972253554,0.02821922700954959,0.020341755019174367,174.1067448680352,-1.875,175.0,0.04254304493300248,-0.05128927241506884,-0.9976118617938199,0.018975976794495843
316.0,0.07122152041506878,0.03252785923753667,-0.1183080682758102,-0.3200000000000002,-0.8500000000000009,-9.759999999999994,0.020121813670200765,0.02918405519211971,0.028362564854500335,174.12353372434018,-1.875,175.0,0.0425415,-0.051156558607038154,-0.9976190929912032,0.01898148256598242
317.0,0.07272291149710504,0.03375968117903603,-0.11786525302654334,-0.3200000000000002,-0.8500000000000009,-9.759999999999994,0.010855139484171742,0.008231821941499361,-0.007915068802165578,174.125,-1.875,175.0,0.0425415,-0.05114746000000003,-0.9976196300000008,0.01898193000000002
318.0,0.07229197684036393,0.0326006842619746,-0.1161770433867208,-0.3200000000000002,-0.8500000000000009,-9.759999999999994,-0.006141909166102715,-0.000839113843146101,0.009814177757726144,174.125,-1.875,175.0,0.0425415,-0.05114746000000003,-0.9976196300000009,0.01898193000000002
319.0,0.07281265508684862,0.030862903225806468,-0.1175924317617866,-0.3200000000000002,-0.8500000000000009,-9.759999999999994,-0.01367090570719603,-0.006269385856079404,-0.008289392059553351,174.125,-1.875,175.0,0.0425415,-0.05114746000000003,-0.997619630000001,0.01898193000000002
320.0,0.07320868289416674,0.030501009295364152,-0.11728181988262634,-0.3200000000000002,-0.8500000000000009,-9.759999999999994,-0.020489742112725983,0.004887482029619125,-0.0014914800701091024,174.0691884280594,-1.875,175.0,0.0425415,-0.05152398325652846,-0.9975921260573475,0.01895643052227343
321.0,0.07547034640986253,0.036498643605498454,-0.11443495460632558,-0.3188883374689826,-0.8485707196029788,-9.759999999999994,-0.03116608693725629,0.059996470543345545,0.18649061232226552,174.05292547953837,-1.867059553349876,175.0,0.04251096779156328,-0.05160276115183744,-0.9975864899988969,0.018851898196620587
322.0,0.0758846319743059,0.029133128038589133,-0.115314826891396,-0.3360500593375768,-0.8447224799510928,-9.759999999999994,0.03444033194044151,-0.08109811636640397,0.05319244177446754,174.25118807871263,-1.9664014456791457,175.0,0.04240890235767972,-0.04983288157171114,-0.9976628670120711,0.019601285711213525
323.0,0.08543579321675447,0.025672914825746185,-0.1170625071364001,-0.33690548507675805,-0.847285338647273,-9.759999999999994,0.07022323463720367,0.0554181278343502,0.39759731789861896,174.3702572272121,-1.9705109695188898,174.97770398481973,0.04258129142551917,-0.04878628266441344,-0.9977042507071734,0.01959968094858588
324.0,0.09371336031805466,0.029220025961260197,-0.11871018501981292,-0.34240435544160497,-0.8517878306139592,-9.759999999999994,-0.006408039939462679,0.030922269562336388,0.20376022648963207,174.6029713555415,-1.987271613791703,174.9460092504744,0.04286066740630794,-0.046774830525755096,-0.9977805641439097,0.019725437248486483
325.0,0.09220234166597914,0.03492499190851225,-0.11853028649155208,-0.3466860486885446,-0.8508939153069801,-9.759999999999994,0.012116345149020874,0.004767281143766169,0.10725916519644864,174.75282656358746,-1.9956519359281095,174.94074656072104,0.042858595961218465,-0.045385774901185484,-0.997858463666937,0.01982701209582542
326.0,0.09187564009132979,0.03587117687906608,-0.1189051054341253,-0.34886163476610865,-0.8504916226658974,-9.759999999999994,0.04458445364111409,-0.02298438298162434,0.05287211873592175,174.8273903289401,-2.0000902359541293,174.9381152158444,0.04285851437018738,-0.04469854601386819,-0.9978971598061732,0.019880667725332063
327.0,0.0914018219156976,0.03741665435818661,-0.12015849007096635,-0.34939575426944997,-0.8503884013282741,-9.759999999999994,0.026273351177733294,0.007105868350235049,0.01712241981676873,174.85822239682162,-1.9990808823529411,174.93679954340604,0.04286118605372387,-0.04441147121170269,-0.9979140330307164,0.01988244386266603
328.0,0.09063212537910116,0.039400211459687265,-0.11919941460868878,-0.349904233870968,-0.850196572580646,-9.759999999999994,0.012515224051262359,0.006702782824254599,0.006682266126570561,174.87301537298384,-2.0,174.93683845766128,0.04285553996471771,-0.04427298565803352,-0.9979223697933468,0.019895091260080638
329.0,0.0907925331836622,0.03916315136476427,-0.11967659222497931,-0.35000000000000026,-0.8500000000000009,-9.759999999999994,0.02343796156800189,0.012473475225491354,0.005759537841191067,174.875,-2.0,174.9375,0.04284667999999996,-0.044250247652605476,-0.9979248,0.019897459999999992
330.0,0.09205871756437572,0.039743106139438086,-0.11953260492542492,-0.3500000000000002,-0.8500000000000009,-9.759999999999994,0.022179838864526038,0.0034406718158994437,0.011033835197710716,174.875,-2.0,174.9375,0.04284667999999997,-0.04425049000000002,-0.9979248,0.019897459999999992
331.0,0.0910946842533406,0.03842175705696778,-0.12019789653634608,-0.3500000000000002,-0.8500000000000009,-9.759999999999994,0.0088652609250863,0.0014158002886378279,0.007438072810853442,174.875,-2.0,174.9375,0.04284667999999997,-0.04425049000000002,-0.9979248,0.019897459999999995
332.0,0.09112250796954231,0.039735559850023944,-0.11932956741489523,-0.3500000000000002,-0.8500000000000009,-9.759999999999994,0.003218786647506731,0.015323819434121201,0.009252721206415276,174.875,-2.0,174.9375,0.04284667999999997,-0.04425049000000002,-0.9979248,0.01989746
333.0,0.09355813223659218,0.039355499397122705,-0.11902697256495384,-0.35349635796045775,-0.8500000000000009,-9.759999999999994,0.006780304907256,0.006429314701947376,-0.009205234296285284,174.875,-2.0254942767950053,174.9375,0.04282178126951089,-0.04425049000000002,-0.9979248,0.020059544412070755
334.0,0.09708909776360006,0.03775217072380206,-0.12078009587008068,-0.3569094693028093,-0.8500000000000009,-9.759999999999994,0.018758742600774463,0.00927248767506525,0.03920949830265605,174.8787017451084,-2.0450052029136314,174.9375,0.0428027261186264,-0.044216922236911704,-0.9979248,0.020199018335067633
335.0,0.09765485065079066,0.03887088244826939,-0.12098318008904657,-0.35861602497398515,-0.8500000000000009,-9.759999999999994,0.04649890824107401,0.002652633015472271,0.0437982975384248,174.92315680387574,-2.0547606659729447,174.9375,0.042793198543184155,-0.04383993063458488,-0.9979303895109259,0.020274851945889703
336.0,0.10106727964381362,0.03490370345098174,-0.11989585643370125,-0.3594693028095731,-0.845837669094694,-9.759999999999994,-0.026145707169785568,-0.030899229798195184,0.1909288053769127,175.0785789222292,-2.0887747138397503,174.96767689906346,0.042634481956295496,-0.04253412869398339,-0.9979850142767941,0.020363578324661825
337.0,0.10642073659610035,0.0364372835673223,-0.11947186161955617,-0.35989594172736705,-0.842757544224767,-9.759999999999994,0.012453941420310127,0.027263054195595434,0.06720607802664574,175.1427624059637,-2.103180280957336,174.99369146722165,0.042439787887617056,-0.04202095584022791,-0.9980102941103008,0.020394729942767968
338.0,0.10710735060814384,0.037068797871070105,-0.1201729755548353,-0.35999999999999965,-0.8444640998959427,-9.759999999999994,0.07578342232305828,0.07193667798229303,0.28168446461165797,175.25289785230547,-2.115309573361082,175.00773933402706,0.04248599346514051,-0.04101238439774142,-0.998041225223725,0.020435218803329876
339.0,0.10896351136964569,0.035464594599205077,-0.12131599597413896,-0.35999999999999965,-0.8472320499479717,-9.759999999999994,0.06330815748622506,0.04158705924498047,0.1870644692175159,175.3864138917794,-2.12116285119667,175.00487773152963,0.042572812861602534,-0.03979936754524829,-0.9980775209989599,0.020503906273690323
340.0,0.1114224424694222,0.03648359802801045,-0.12230472015148156,-0.35999999999999965,-0.8486160249739864,-9.759999999999994,0.05025449497620307,0.034906432848296684,-0.018054003684686376,175.40553459937564,-2.1240894901144642,175.00344693028094,0.042640105015608776,-0.039614118585319255,-0.998095494214361,0.020515226628000212
341.0,0.11258431278893229,0.03381586803363984,-0.12235512870814214,-0.35999999999999965,-0.8494380853277844,-9.759999999999994,0.04835351239316968,0.09778439040616843,0.0015534108937070336,175.39272242455775,-2.124642299687825,175.00178850156087,0.04268618417793968,-0.039711381077259,-0.9981028611342363,0.02048480854557242
342.0,0.10924327459442859,0.03465464594599207,-0.12263156547994747,-0.35999999999999965,-0.8498803329864733,-9.759999999999994,0.01914949420856007,0.006294672557615871,0.011173470258098634,175.38673907388136,-2.125,175.00061784599373,0.042712828002081205,-0.039755645819586835,-0.9981066081113436,0.020466397685897565
343.0,0.10983248323979461,0.03279473226318215,-0.12155660940618551,-0.35999999999999965,-0.8500000000000009,-9.759999999999994,0.025375931833302057,0.012431551832960883,0.012125560805854555,175.38130853277835,-2.125,175.0,0.04272168821019774,-0.03980127772248852,-0.9981079100000012,0.020456255437641818
344.0,0.11024675457600522,0.03311074529605433,-0.11972330734719638,-0.35999999999999965,-0.8500000000000009,-9.759999999999994,0.01822405793145801,-0.016176476859828388,0.02943004639975435,175.37613813735692,-2.125,175.0,0.04272413362122793,-0.03984627430280957,-0.9981079100000012,0.02044961340628787
345.0,0.1101519933129766,0.03326452977601885,-0.12080858395455552,-0.35999999999999965,-0.8500000000000009,-9.759999999999994,0.053239240204022445,-0.036102676515241974,0.018698503949096737,175.375,-2.125,175.0,0.04272461000000004,-0.039855959999999996,-0.9981079100000012,0.020447005917503987
346.0,0.1107577976688023,0.03308841054034758,-0.1202853492829781,-0.35999999999999965,-0.8500000000000009,-9.759999999999994,0.04488728103558966,-0.024626447589208372,0.006805351459997404,175.375,-2.125,175.0,0.04272461000000004,-0.039855959999999996,-0.9981079100000012,0.020446780000000022
347.0,0.11093390878126724,0.033584362069717155,-0.12058927633875179,-0.35999999999999965,-0.8500000000000009,-9.759999999999994,0.03998495988354571,-0.002831698944226878,-0.036833341998086716,175.375,-2.125,175.0,0.04272461000000004,-0.03984645691756272,-0.9981079100000012,0.020446780000000025
348.0,0.11094553715107783,0.034999478760929445,-0.12052864134230026,-0.35999999999999965,-0.8500000000000009,-9.759999999999994,0.007333833722841073,0.010333886117521675,-0.011302379618821252,175.375,-2.125,175.0,0.04272461000000004,-0.03981970394265232,-0.9981079100000012,0.020446780000000025
349.0,0.10941380506416926,0.03389582610706441,-0.12021540475364616,-0.35999999999999965,-0.8500000000000009,-9.759999999999994,0.019597641345820323,-0.0001873668301868095,0.0071809757114777925,175.375,-2.125,175.0,0.04272461000000004,-0.03980632745519712,-0.9981079100000012,0.020446780000000025
350.0,0.10897849462365591,0.032293906810035855,-0.11999583973374295,-0.35999999999999965,-0.8500000000000009,-9.759999999999994,0.008400537634408602,0.011352726574500767,-0.045820932539682536,175.375,-2.125,175.0,0.04272461000000004,-0.03979963921146952,-0.9981079100000012,0.020446780000000025
351.0,0.10819573437315372,0.03141848832171415,-0.11992107556422073,-0.35999999999999965,-0.8500000000000009,-9.759999999999994,-0.021701942770491155,0.015233651876797039,-0.012424625945291265,175.375,-2.125,175.0,0.04272461000000004,-0.03979629508960572,-0.9981079100000012,0.020446780000000025
352.0,0.10852667493796528,0.03238957816377172,-0.12081862593052109,-0.35999999999999965,-0.8500000000000009,-9.759999999999994,-0.040179125310173695,0.09172805521091812,-0.22977812887717122,175.2717741935484,-2.0991935483870967,175.0,0.0427483556674938,-0.040833516843672465,-0.998056053166253,0.02036923470967743
353.0,0.10884499069478908,0.03278753101736974,-0.11975659119106699,-0.35999999999999965,-0.8500000000000009,-9.759999999999994,-0.04239299007444169,0.06413519696029776,-0.12520597472084366,175.19435483870967,-2.0798387096774196,175.0,0.0427679821885856,-0.041605800357320116,-0.9980189777121582,0.02031349896774194
354.0,0.10834359491315136,0.03095138027295287,-0.12011902915632754,-0.35999999999999965,-0.8500000000000009,-9.759999999999994,-0.025670750620347394,0.04267844680521092,0.007939477357320104,175.16755583126553,-2.070161290322581,175.0,0.042766164918114136,-0.0418586664019851,-0.9980062562034728,0.020298232903225792
355.0,0.10564609181141438,0.030382444168734507,-0.12207816377171216,-0.35999999999999965,-0.8500000000000009,-9.759999999999994,-0.017371665632754343,0.008911678039702237,-0.0060794044665012405,175.17450372208435,-2.0653225806451614,175.0,0.04274538745905709,-0.04170885255583126,-0.998025583746897,0.02030950258064515
356.0,0.10571882754342432,0.03105474565756826,-0.12183560794044665,-0.35999999999999965,-0.8500000000000009,-9.759999999999994,0.002526946339950374,-0.01916388802729528,-0.006839330024813896,175.1779776674938,-2.0629032258064512,175.0,0.04273499872952856,-0.04163394563275434,-0.9980352475186092,0.02031513741935483
357.0,0.1020116808594631,0.03313162878787881,-0.11987389089405219,-0.35608993157380253,-0.8500000000000009,-9.759999999999994,0.020735801916497484,0.014174541436386197,0.010448388976614783,175.19809196180165,-2.0659213098729228,174.99951124144673,0.042714263720279755,-0.04156689873734867,-0.9980235609666881,0.020155706692082102
358.0,0.10125417324610869,0.031989317805850084,-0.11932187100533875,-0.35288367546432076,-0.8500000000000009,-9.759999999999994,0.006113917164824423,0.04322904917662982,-0.014311901975712459,175.22606210993308,-2.0642106549364616,174.99975562072336,0.042686947989172164,-0.04145960291706147,-0.9980362049994724,0.020020676733137822
359.0,0.1003417268215655,0.032912773046845645,-0.1190976600684262,-0.35128054740957987,-0.8500000000000009,-9.759999999999994,0.004669861808218663,0.026747899278141214,0.020402982014625162,175.23967497556208,-2.063355327468231,174.99987781036168,0.04267365357771265,-0.041410119872922826,-0.9980423452590408,0.019952767947214067
360.0,0.0994752988946537,0.03299116474922928,-0.12013098729227763,-0.3504789833822094,-0.8500000000000009,-9.759999999999994,-0.010628148732987442,0.021312457703586737,-0.01766204225881645,175.24483748778104,-2.0629276637341154,174.99993890518084,0.04266762727272731,-0.041396472113880804,-0.9980446126295197,0.01991822284457477
361.0,0.10249362144836385,0.033317107503313584,-0.11950144046292338,-0.3511566799433916,-0.848459316321619,-9.759999999999994,-0.021046593532450537,0.05038369264943049,0.23008350981389017,175.26672242708744,-2.0627138318670575,174.9999694525904,0.04265474118812097,-0.04104724588602081,-0.9980457446970414,0.019907064342364417
362.0,0.10436557905262767,0.03546628365616089,-0.12010010740342951,-0.35053923928743397,-0.8487532313618025,-9.759999999999994,-0.03591759332987667,0.04719585038517092,-0.004775054627606384,175.29611663688382,-2.0625,175.0,0.04265524129572981,-0.04075303790244344,-0.9980517254045393,0.01990633300470352
363.0,0.10112199548164882,0.035863414780934036,-0.12047313062479169,-0.3502696196437171,-0.8493766156809017,-9.759999999999994,0.010926128893374316,0.021442217996555685,0.09299088459686677,175.31287686682901,-2.0625,175.0,0.04265251516399392,-0.04057964798347978,-0.9980566853635598,0.01991026488944854
364.0,0.10048655605347948,0.035254288035628314,-0.11906286804192438,-0.3501348098218587,-0.8487354542424366,-9.759999999999994,-0.012945744486315322,0.00906167971788082,0.011321745027961926,175.35190989743435,-2.0625,175.0,0.04262654322715824,-0.040207245708861486,-0.9980832820366193,0.019935366960853296
365.0,0.10089867504907227,0.03218223862079183,-0.11927305933113588,-0.35006740491092947,-0.8442064367986383,-9.759999999999994,-0.018966571839931855,0.028115914688344876,0.006542928965593865,175.39776064428168,-2.0625,175.0,0.0426135572587404,-0.03991240659182996,-0.9980965803731491,0.019951310234769072
366.0,0.10019641626294849,0.02947676405136084,-0.11842450224506677,-0.35000000000000026,-0.8419900744416886,-9.759999999999994,-0.09809552426739926,0.03997698929654575,-0.014943910256410255,175.42008277760544,-2.0625,175.0,0.04256837032542146,-0.03977568710669979,-0.9981032295919676,0.0199871979243176
367.0,0.09934603199220132,0.02740481236953013,-0.11772767118634056,-0.35000000000000026,-0.8408486352357332,-9.759999999999994,-0.03188727924741029,0.012106636363188785,0.05002907878411911,175.43065243098636,-2.0625,175.0,0.04252157294434848,-0.03971106190818863,-0.9981064027066544,0.02000515108374688
368.0,0.099296151876797,0.027211390759777875,-0.11868738430028755,-0.35000000000000026,-0.8402630272952867,-9.759999999999994,-0.01530534877309071,0.01632547559966915,0.011300661703887513,175.43585607940446,-2.0625,175.0,0.042498283573988785,-0.039679635066997565,-0.9981079100000012,0.020014047900744396
369.0,0.09880444416034048,0.027685140524907864,-0.119211690360289,-0.3500000000000002,-0.8400000000000012,-9.759999999999994,0.004026382278629765,0.033063838153737674,0.015710382513661202,175.4375,-2.0625,175.0,0.04248740791602668,-0.03967285000000005,-0.9981079100000012,0.0200177733052109
370.0,0.10079756347134927,0.02710679823011583,-0.11819809684107463,-0.3500000000000002,-0.8400000000000012,-9.759999999999994,-0.02099669439658522,0.009544005845459249,-0.029605786890932143,175.4375,-2.0625,175.0,0.04248197008704563,-0.03967285000000005,-0.9981079100000012,0.02001952999999998
371.0,0.10032197682016002,0.026308135418181323,-0.11880974990543235,-0.3500000000000002,-0.8400000000000012,-9.759999999999994,0.007646814092029969,-0.01450923107624631,-0.0057623148484358625,175.4375,-2.0625,175.0,0.04248047000000006,-0.03967285000000005,-0.9981079100000012,0.02001952999999998
372.0,0.09993172986656548,0.026308519916612597,-0.12011693084687405,-0.3500000000000002,-0.8400000000000012,-9.759999999999994,-0.01593940616112705,-0.002347978932735249,-0.01132505267222348,175.4375,-2.0625,175.0,0.04248047000000006,-0.03967285000000005,-0.9981079100000012,0.02001952999999998
373.0,0.09839698000851851,0.02769830303512774,-0.1185651466252275,-0.3500000000000002,-0.8400000000000012,-9.759999999999994,-0.013220619784393858,-0.015021585389926087,-0.026658450720433626,175.4375,-2.0625,175.0,0.04248047000000006,-0.03967285000000005,-0.9981079100000012,0.02001952999999998
374.0,0.09897915531110116,0.02748286341938789,-0.11838668384454026,-0.3500000000000002,-0.8400000000000012,-9.759999999999994,-0.012077676197083066,-0.005215301521232844,-0.027435046165535236,175.4375,-2.0625,175.0,0.04248047000000006,-0.03967285000000005,-0.9981079100000012,0.02001952999999998
375.0,0.09778042052755886,0.0268813900863849,-0.11782237418033464,-0.3500000000000002,-0.8400000000000012,-9.759999999999994,-0.038605825611548815,-0.006574872404737128,-0.023472986142080834,175.4375,-2.0625,175.0,0.04248047000000006,-0.03967285000000005,-0.9981079100000012,0.02001952999999998
