time,linaccel_x,linaccel_y,linaccel_z,gravity_x,gravity_y,gravity_z,gyro_x,gyro_y,gyro_z,euler_x,euler_y,euler_z,quaternion_w,quaternion_y,quaternion_x,quaternion_z
0.0,-0.0738095238095238,-0.017619047619047624,0.0442857142857143,3.092380952380952,1.4521428571428576,9.186428571428571,-0.5997023809523809,-0.5074404761904762,0.01488095238095238,21.833333333333332,18.37797619047619,-8.980654761904763,-0.9662780749999997,0.1718808123809524,-0.04367210714285714,0.18667311928571426
1.0,-0.04560317460317459,-0.018706349206349213,0.03776190476190477,3.162626984126984,1.4328809523809523,9.163976190476191,-0.16552579365079365,-1.2264384920634919,-0.00441468253968254,21.93819444444444,18.815575396825395,-8.884176587301587,-0.9655690499999999,0.1754118897936508,-0.041885860714285725,0.18739832309523807
2.0,-0.04582993197278911,-0.008588435374149661,0.034183673469387756,3.2571258503401364,1.4442346938775512,9.127846938775512,0.02995323129251702,-1.1131164965986393,-0.35724914965986393,22.145833333333332,19.406675170068027,-8.987861394557823,-0.964310564,0.18061214105442175,-0.04124297130612245,0.18899363818367343
3.0,-0.043736507936507935,0.010214285714285717,0.029793650793650796,3.1203730158730165,1.5243888888888888,9.158582539682538,0.5187400793650794,2.071021825396825,-0.0730654761904762,22.205357142857142,18.556448412698415,-9.441954365079365,-0.9650181063746031,0.17423327255555554,-0.046531566673015876,0.1896610993428571
4.0,-0.02884181933985239,0.003935315274811736,0.02763422127308831,2.9231702633846623,1.5588821138211384,9.218354257989581,0.042506017946124186,0.5536415598891011,0.019720481623018996,22.078910025851407,17.346353873965008,-9.589143929601738,-0.9667306453976248,0.16429080917519012,-0.05034768974343411,0.18885994506361692
5.0,-0.03735646498732697,0.0069330061173830055,0.02618609573996287,2.9275669842983394,1.5644214984495255,9.21791815353664,-0.12661375682553042,-0.18611247569078676,0.03587678959156165,22.063148436281544,17.370006278246393,-9.621215567665871,-0.9667589407839586,0.16456117795129316,-0.05060001232590203,0.18871126148556477
6.0,-0.029230075811635836,0.005497417037186127,0.023473616226356245,2.951008722563917,1.5604839827117063,9.212424706568626,-0.08487585882751175,-0.3700879678761153,-0.10702680297687663,22.116210834884242,17.513173742041783,-9.610488976229249,-0.9665251620605658,0.1657489134622057,-0.050141215404502476,0.18914398903387306
7.0,-0.020796784561994158,-0.0018929122524533586,0.02142543911239134,2.9456664383866005,1.5412007836453896,9.218765166030185,-0.12239035368598247,0.19503198970474322,-0.008864748852718402,22.192501931014114,17.479698594073604,-9.47491772768976,-0.9665557606528239,0.1652589263811815,-0.04901624974227878,0.18980069082515846
8.0,-0.029630343125851152,0.00439916599358899,0.022828694978622707,2.945909256059659,1.544636490132987,9.218218988545047,0.2883631948927998,0.3440597736542149,0.1716908974630417,22.15968702541489,17.4771284829047,-9.499651644182823,-0.9665907655760281,0.1652789870193158,-0.04926636570063248,0.1895556298327021
9.0,-0.028800222703759565,-0.003811431952064672,0.024345110667910883,2.913351952970822,1.556598339480341,9.227044191361436,-0.1419857904371563,-0.05549765054504044,0.033770311044660106,22.06946782427314,17.28589409983158,-9.565399189518633,-0.9669532804670069,0.16371406192035814,-0.0502958014223068,0.1888122696685147
10.0,-0.04780899928814955,0.005935708665842418,0.025650031845940578,3.0097969352965417,1.549841519613353,9.196051478026302,0.291841116855869,-0.3148697126372186,-0.26504135289048736,22.14083633059833,17.876500974111124,-9.558216018508112,-0.966056437420479,0.1686883818036042,-0.04896814737121126,0.18928152179367583
11.0,-0.04580158105728522,0.015202877374395865,0.02636956277396875,3.0553362556667043,1.6094829717882435,9.16992282042636,0.3147713648795474,0.2613919485969053,-0.2253826196096062,22.395734985575665,18.153544265857406,-9.948006818777865,-0.964985509608857,0.1718487754332921,-0.051240137690981964,0.1912863682125061
12.0,-0.02960810760181334,0.005355175901989436,0.023944026076205466,2.9060748941590795,1.6370034843205579,9.212691543966127,0.04177789329736614,0.6142227248885392,-0.05397769847514142,22.367394440073433,17.241848844179685,-10.07055632048256,-0.9661144198791729,0.1643622709542542,-0.054099691945412295,0.19127646180098162
13.0,-0.033149675920722335,0.00198096736727736,0.027838372485107347,2.871813944775393,1.6447352291034436,9.222205987036826,-0.23244726686898207,-0.4199767711962834,-0.0882263684387996,22.49529476227942,17.03487411487018,-10.1056938668465,-0.9661391597806002,0.16275347141261098,-0.05463210666471843,0.1924189782906598
14.0,-0.02891064403731595,-0.005702409051740287,0.02652830542130307,2.9114805739762466,1.6098371735791095,9.217140983852232,-0.32289910456708254,-0.2884617005732269,0.19171537222284665,22.585165177400622,17.276723895695177,-9.904369918699187,-0.9658470944596304,0.16447453103619197,-0.05236582307534375,0.19311924579738488
15.0,-0.030161927241392224,-0.015487917275486119,0.03218504364767151,2.9714023453598593,1.5495668202764978,9.207430706979878,-0.3194084616537409,-0.40657244014836463,0.2981906354201791,22.272310891311676,17.641837370274622,-9.549708000824248,-0.9661341543112282,0.16682009912869505,-0.04915450515979168,0.19043697132419168
16.0,-0.027418137199805175,-0.019869918699186993,0.02856179985762992,3.01665048143569,1.5018563748079878,9.201236090817126,-0.2488315349743359,-0.5039822646210332,0.13034531771008956,22.141229370387023,17.919180973923794,-9.266563869843768,-0.9661950139743546,0.16859998570029222,-0.046475640006163124,0.18930304457607433
17.0,-0.02084754224270353,-0.013086021505376346,0.026837941628264212,3.0449231950844853,1.4767991551459296,9.19638594470046,0.08894969278033793,-0.27955309139784945,0.03830405145929338,22.068406778033797,18.089148905529953,-9.117698732718894,-0.9661977313805681,0.16975609303110598,-0.0450406965672043,0.18866014151305688
18.0,-0.0811858678955453,-0.06936559139784945,-0.033927803379416276,2.7281228878648234,1.514379416282642,9.269430875576035,1.2480030721966207,4.745530913978494,4.216858678955453,20.251819316436254,16.162341589861747,-9.271399769585255,-0.9704930877588325,0.1524073678986175,-0.05153119460215054,0.1733974245952381
19.0,-0.05801228878648233,-0.0009193548387096823,-0.005696620583717352,2.4302327188940094,1.583649001536098,9.344492703533025,0.1499471966205837,-0.7896769393241172,0.5772993471582175,17.411839957757298,14.362588805683563,-9.608266129032259,-0.9763483491943162,0.13625252692549922,-0.06108519348003073,0.14964496780837175
20.0,-0.05970146303997602,0.02510444531864674,0.010645985538196399,2.5492888614139595,1.5983662002173018,9.317365647596567,-0.0604869150650032,-0.33913860243153143,0.5650560465138059,16.70566243068825,15.075537985650593,-9.724095200629426,-0.9768132267676932,0.14234816389921695,-0.062313829656813174,0.14365697774122363
21.0,-0.03510830429732868,0.020346380802517706,0.01776005020418868,2.5462797572215354,1.588085244089768,9.323870274624404,0.099836204151212,0.4452498618448165,0.46102121267468416,16.157230433479448,15.052982161590048,-9.659834775767113,-0.9778026075079616,0.14185347148265331,-0.0626983685520494,0.13904816021581246
22.0,-0.04010952193623318,0.023869590873328093,0.019554690719718264,2.607080279869619,1.5938112097710841,9.30773627814619,-0.06993093411636882,-0.5315210417369152,0.21634299717133107,15.852707958675207,15.42177038842681,-9.712979445318647,-0.977815553282305,0.14498508992995768,-0.06306638096888464,0.13642439540639165
23.0,-0.02298621258101982,0.03001180173092054,0.021815405942077856,2.6149269416657304,1.604429208347383,9.30600857967105,-0.11639925443033233,-0.7505350586339965,-0.07802723764564837,15.77324987823611,15.468161084260611,-9.777291502753737,-0.9778935119094451,0.14544172481922746,-0.06371211388314414,0.13574198052302272
24.0,-0.02164594807238395,0.03344138473642802,0.019704169944925257,2.8503367427222663,1.5970133752950435,9.234212431156568,-0.17140047206923684,-1.3932926829268293,-0.20833005507474428,16.078973249409913,16.903963414634145,-9.803363493312352,-0.9757057406467347,0.157844020945712,-0.06131708009441386,0.13807666898347756
25.0,-0.009589299763965381,0.022772619984264365,0.0198630999213218,2.9411723052714396,1.591518489378442,9.208601101494885,-0.17164634146341462,-1.1513473642800944,-0.1847659323367427,16.368745082612115,17.456687647521633,-9.790066876475215,-0.9746923656191973,0.16275243885916602,-0.05999390873957515,0.14045060485759248
26.0,-0.01248859166011015,0.022250983477576716,0.01972383949645948,2.943755310778914,1.5843052714398107,9.209492525570418,-0.10190302911093628,0.554587922895358,-0.061649291896144764,16.508413650668764,17.474641030684502,-9.746198859166011,-0.9745409351361132,0.1628737548418568,-0.059409767236034625,0.1416295009268293
27.0,-0.02088709677419355,0.019474822974036195,0.021773800157356415,2.8976801730920534,1.5801022816679782,9.22602793076318,0.016298682140047198,-0.30235297010228157,0.026900570416994486,16.492110051140834,17.190290617623916,-9.705480428796225,-0.9749787703131393,0.16045594936034616,-0.05956823740243902,0.14155961627301336
28.0,-0.019443548387096773,0.015556451612903227,0.02526612903225807,2.887153225806452,1.5740967741935488,9.231056451612908,-0.07515120967741935,-0.21980846774193546,-0.06628024193548387,16.522933467741936,17.120514112903223,-9.662752016129033,-0.9750786571612903,0.15985043469354837,-0.059311799201612905,0.14182355298387092
29.0,-0.026290322580645162,0.02394354838709678,0.025250000000000005,3.0154354838709683,1.5667983870967748,9.189556451612905,-0.1279233870967742,-1.0056451612903226,-0.17152217741935483,16.664112903225806,17.910836693548383,-9.662298387096776,-0.9738415627741934,0.16667982554838712,-0.05780624894354839,0.14286105218548384
30.0,-0.042358575924468914,0.021325334382376084,0.028537568843430373,3.021604051927616,1.5677513768686075,9.187069236821397,-0.007637932730133752,0.879554730527144,0.032925599921321796,16.767778815892996,17.945335857592447,-9.6734375,-0.9736571976878443,0.1669982360751377,-0.05769331448092054,0.1437316342079071
31.0,-0.03050059008654603,0.0167360346184107,0.025909323367427222,2.955340086546027,1.5664968528717544,9.208918568056646,-0.05772890440597954,-1.0800059008654603,-0.07436442761605033,16.69171911880409,17.543018538552317,-9.648821056254917,-0.9743023105037373,0.16350655796223446,-0.05822476815538946,0.14317297451652236
32.0,-0.045234657749803314,0.019675255704169947,0.02516011014948859,3.0297486231313924,1.5827462627852085,9.182600904799369,-0.026921469315499606,-1.0034495476003147,-0.10899513178599526,16.757905930369787,18.002897570810383,-9.777850855625491,-0.973540524802321,0.16757515378048782,-0.05844166965302912,0.14362143917348538
33.0,-0.04939634146341464,0.010898898505114085,0.03037372147915028,3.0036514555468123,1.5918650668764753,9.19043174665618,0.10090848741148702,0.672263473642801,0.09753638867033831,16.775602380015734,17.83423239575138,-9.82099109952793,-0.9737163575538944,0.16623149616856803,-0.05905398363709677,0.1438338672584579
34.0,-0.037513768686073964,0.0071911880409126685,0.027875688434303703,2.98243115656963,1.5893941778127454,9.198308418568057,-0.13857199055861524,0.11973839496459485,-0.09146341463414635,16.795190794649884,17.703088119590873,-9.798632966168372,-0.9738903507395751,0.16511690483870967,-0.059046830865460254,0.14407178243902438
35.0,-0.036166797797010236,0.0036837136113296617,0.027881982690794657,2.989996852871754,1.5954508261211644,9.19540204563336,-0.023377261998426428,-0.23208103855232093,-0.18646734854445318,16.903009441384736,17.751888276947284,-9.83661487018096,-0.973675801542093,0.16565250685601887,-0.05909748427380015,0.14493608993705742
36.0,-0.03791345397324942,0.007963808025177026,0.03137372147915028,3.046055074744295,1.603441384736428,9.176180959874117,0.07710464201416209,-0.2301534225019669,-0.0863985051140834,17.013345790715974,18.097728166797793,-9.901750590086547,-0.9730332076270651,0.16873886821085757,-0.0589224475436664,0.14574667007395753
37.0,-0.036006294256490955,0.02426514555468135,0.028007867820613694,3.208165224232887,1.6007411487018097,9.118885129819041,0.06124606608969316,-0.2730969708890637,-0.09293863099921323,17.30001966955153,19.10357002360346,-9.947777340676632,-0.9711956032588512,0.17746555093863098,-0.05717368185208497,0.14798528267269861
38.0,-0.03448454535236596,0.01762318759132292,0.03309557528755012,3.1250218800344682,1.615608669589,9.144458113221688,0.06937439118054775,0.7239229749728373,0.00031845940579221244,17.228745410437973,18.582859390805886,-10.019978644486905,-0.9719698055384212,0.17310967313912928,-0.058729199555917724,0.14748525231664233
39.0,-0.03193149376194223,-0.013792654827469934,0.03137076167996704,3.0435337566970144,1.5740395826308493,9.178830158105729,-0.5556943937094901,-0.5587702198306546,0.0031096624330298594,17.16300567138736,18.083768405080363,-9.72490375969428,-0.972941051427747,0.16846478509041435,-0.05725262414459929,0.14706472088688133
40.0,-0.03389828031920872,-0.022644065415308536,0.005918268330148744,2.988557397624667,1.5262092090966992,9.20577926079952,-0.21560474504514632,0.5230520704544602,0.08058340124011838,17.41185049501705,17.74209810891312,-9.405088091491514,-0.9732973709872803,0.1652268754424338,-0.05486623587167022,0.1492994594761905
41.0,-0.0298377730321082,-0.009061856056348586,0.012356599602862391,2.990895058259338,1.5010078303548005,9.209691281705442,-0.1112921958712675,-0.3786201341276086,-0.04585581282080101,17.50218940841482,17.758556254917387,-9.249332640215803,-0.973291833080814,0.1651659394155333,-0.053413795124199165,0.15005436764976957
42.0,-0.020936982503465585,-0.0010470570604323558,0.017393878086246307,3.048323217563972,1.4885999025888865,9.193222509460119,-0.14184299014649132,-0.49035255329511823,-0.13985355550560113,17.588796317110635,18.110626475216364,-9.176426744970215,-0.9727514040305725,0.16814510129863997,-0.052146197407103516,0.15077489052669435
43.0,-0.0050174965344123475,-0.006235285302161778,0.020545127571091382,3.0835674946611213,1.4709362706530287,9.184239481473153,-0.1359709265295418,0.12804878048780488,0.0795272751114608,17.566632947435465,18.322813869843767,-9.082517983589973,-0.9725573629856507,0.16982578726484582,-0.05107103798786106,0.1505254843806526
44.0,-0.022294743546513805,-0.0033166985126072456,0.024764302573901317,3.0298773743958627,1.4667238394964592,9.203137049941924,0.17726434003971378,0.7640047206923682,0.16481281143456594,17.43914849574763,17.993901034056424,-9.040604979206474,-0.9731913326737855,0.1668785128645236,-0.051397627043497804,0.1495832685640478
45.0,-0.031091360383649923,-0.005344797871941854,0.02643670150987225,2.977390449964406,1.4641099246937173,9.220968884642765,-0.16143924918511857,-0.07754627027837097,-0.11347774062418042,17.388971235622492,17.672315106215578,-9.007779541793113,-0.9737036012917466,0.16409547596993368,-0.05172174742418793,0.1492288644129669
46.0,-0.033376596980255524,-0.0069034131355138455,0.02826527668502492,2.9682335525083356,1.4639983140384403,9.223510368663597,0.05305732737626917,0.06636061781124726,-0.12722142997639652,17.406258781049793,17.619170787906036,-9.008239902963545,-0.9737587246343897,0.16364560321238436,-0.051809910365460274,0.14937262117935818
47.0,-0.034547169457869696,-0.0050553932037016224,0.02802472743621446,2.9697475366228314,1.4476673597841971,9.225335637480804,-0.09061563354688845,-0.0063982241204900425,0.038404213967254866,17.394289624779887,17.62774015585778,-8.911373215690684,-0.9738273410479937,0.16359928463172982,-0.051028400301393745,0.14926675508334272
48.0,-0.04109341163688135,-0.0029840301974448317,0.029862088344385758,2.959834429208347,1.4345929245813194,9.230692995766365,-0.08344215981042298,0.22029616724738676,0.06719581272713648,17.390766960304973,17.566304184931248,-8.830219455996403,-0.9739877588481511,0.16292242400351242,-0.05039522254644826,0.14919221498069576
49.0,-0.04546832265557679,-0.0004567082537184823,0.030702483983365187,2.915477501779626,1.432365404068787,9.244956352328497,0.1353042692293282,0.4408719231201529,0.11859802929826532,17.198336986250045,17.29370972425162,-8.807118972687423,-0.974600832985838,0.16047197020287737,-0.05091054126840509,0.14762860405024164
50.0,-0.04347532876250422,0.008750140496796678,0.028684575325015935,2.8425697800756806,1.4546274024952226,9.263883706118168,0.15144149713386534,0.37764602300400885,-0.023746300251020952,17.0397886928178,16.850075868270203,-8.920792589262298,-0.9752927802986022,0.15677807896856616,-0.052806052112697156,0.14632364567719455
51.0,-0.03904293582106329,0.007526132404181186,0.02368139073095801,2.7944044809111683,1.4747409239069347,9.276218013562623,0.02512082724513881,-0.1096624330298602,-0.08590442471244988,17.0003969034506,16.554660278745644,-9.018421471657113,-0.9756434012743997,0.15440326041661978,-0.05417810430575849,0.1460364299039002
52.0,-0.04398920984601552,0.0012285039901090262,0.02597587201678469,2.791142332621483,1.4800663144880293,9.27614971338653,-0.19821147577835224,-0.2637789891723802,-0.060540538009066724,16.991466692892736,16.53759319620846,-9.056397755797834,-0.9756562086594734,0.15430068681046039,-0.05451269714135851,0.1459561880694616
53.0,-0.04628728784983704,-0.018333820388895142,0.03106110674009967,2.825585328387846,1.4586350455209618,9.269007980218046,-0.09059373946274024,-0.06507202802442771,0.07292111573189464,17.052317728822448,16.743206511558203,-8.943398523846989,-0.9753852647160468,0.15594266735881002,-0.05313330011119853,0.14653797646195343
54.0,-0.054541680716346345,-0.016448765501479907,0.03370203439361583,2.819580532763853,1.4659261174178562,9.269942527443702,0.14480232100708101,0.012541212393690757,0.16732278670712974,16.92069026076205,16.705808840058445,-8.989660606571505,-0.9755740552222847,0.15561775496935293,-0.05373552686913192,0.1454126034870556
55.0,-0.03868761005582407,-0.016809299014649136,0.03026827395002061,2.742600857967105,1.463201622269679,9.29257214042186,-0.12273659660559738,1.1119318075381215,0.19659506013262895,16.792080312652203,16.234935699299392,-8.942374653441234,-0.9763282081878348,0.15147752693805025,-0.0542733137368214,0.14439965542622984
56.0,-0.043559383312727136,-0.012111966580495301,0.028246646809786075,2.660833867221161,1.4671185137312195,9.31572824172942,0.0650823311228504,-0.2912410199130794,0.050682463189839266,16.598046450582594,15.74488228710052,-8.943561441590798,-0.9771526130018641,0.1471949979521093,-0.05529525696833201,0.142822325340967
57.0,-0.024739369075718408,-0.021588241354763782,0.027990258888764007,2.6933564497396127,1.4643374826720614,9.307243153122776,0.04488995588400585,-0.17372030834363644,0.1040206670787906,16.606356894646133,15.939275820969614,-8.931684954666366,-0.976928805875932,0.1488549296252482,-0.054890300770456334,0.14284538067451577
58.0,-0.07403903937656889,-0.004007830354801244,0.030575774605672332,2.783597579708516,1.4833179348844179,9.276250608819453,0.04076655052264808,-1.5915980573976247,-0.16497555355737892,16.66492239893597,16.495167144355776,-9.07909852572028,-0.9760583669621595,0.15382475227230152,-0.055138843300550744,0.14322262718403206
59.0,-0.05464437450826122,0.0025027537372147926,0.032579858379228964,2.9418560188827696,1.49148269079465,9.225658929976401,0.12362559008654603,-0.6220987411487018,-0.018214004720692373,16.862499999999997,17.457700629425652,-9.176780094413848,-0.9745157215369789,0.16224379405979544,-0.05417882372147914,0.14471282086113296
60.0,-0.04998151062155784,-0.0022655389457120374,0.03121518489378443,2.948571597167584,1.5014061762391817,9.222947482297405,-0.09345372738001573,0.3529209284028325,-0.06447678992918962,16.91453088119591,17.49628245476003,-9.239501376868606,-0.9743880148951614,0.16266997997246263,-0.05454267450039339,0.14514210707100708
61.0,-0.04105219924319059,-0.011465334757034207,0.028214351279457497,2.8793591472781084,1.4958745550934773,9.24637216664793,-0.02989578650106777,0.2285701992244577,-0.0460368780675134,16.914362694822223,17.07376526731857,-9.184305219924319,-0.9749801963813365,0.15898479544475663,-0.054788008162639096,0.1452308746789367
62.0,-0.030479974523247542,-0.01821093252407179,0.027129303885204754,2.8827606121913742,1.4920001217638903,9.246278923607207,-0.08672147212543554,-0.08368709255928963,-0.07739061153572366,16.931733250440224,17.093128945618375,-9.158665198475141,-0.9749536225696022,0.15914008163917615,-0.05454036639190177,0.14539958889001908
63.0,-0.04064321306807538,-0.01858933722977783,0.033544490652279796,2.8010980480311716,1.4747057060432356,9.274272526319733,-0.12861779251433067,0.6680102843655166,0.14459602487729944,16.741899891349146,16.58610580345435,-9.029912236334344,-0.9759039302807689,0.1545878102994268,-0.054511575853208954,0.1438870908724289
64.0,-0.04038454909894722,-0.01988003446854745,0.02989104941740662,2.7430777415608256,1.4756305870892807,9.291425798958453,0.2225960998089243,0.2648125772732382,0.203223464838335,16.40640431231501,16.23311977820239,-9.0203308231239,-0.9767606676234686,0.1514225621733169,-0.05542049623738339,0.14108491951646623
65.0,-0.028074519500955384,-0.03417270298544887,0.029684777064006025,2.720874140808051,1.4642336195145007,9.299863578330928,-0.24015459691108787,-0.06395131389722264,-0.1449044873956361,16.325065114861538,16.107574308395513,-8.939323504321536,-0.9770785673485215,0.15014732425900404,-0.055076364182259654,0.1404353849737912
66.0,-0.018285339627589825,-0.03740509189211,0.029015967641066003,2.7216774697895865,1.4473141983901225,9.302449454296035,-0.049757597994714436,-0.21018706247856522,-0.21713350329843248,16.52868079091771,16.11251891303032,-8.842669624664609,-0.9768786394277167,0.15019116642212876,-0.053922785024309555,0.14224970422422284
67.0,-0.015150537634408604,-0.033652191894127395,0.023764474772539297,2.7597868072787435,1.4391519851116623,9.292905293631097,-0.07425429073614558,-0.28516335814722915,-0.17226659429280394,16.665323873035568,16.34283498759305,-8.795100547973533,-0.9764617629687755,0.1521827267744003,-0.0530977939669148,0.14330969411683214
68.0,-0.013043010752688173,-0.01911641852770886,0.026724979321753523,2.779437758478081,1.4477897022332504,9.28521877584781,0.023583540115798184,0.12944453060380479,-0.0005234181141439143,16.613987541356494,16.46239531637717,-8.853825475599669,-0.976344457375517,0.15324585480252279,-0.053469486572167074,0.1428157848930935
69.0,-0.026779569892473126,-0.013618693134822172,0.02441894127377999,2.7533035566583957,1.4502617866004963,9.292536807278747,-0.0021195202646815516,0.10058416046319271,-0.05845223325062035,16.586807278742764,16.302845843672458,-8.850803866832091,-0.9765797335909843,0.15185183311497105,-0.05377240615301902,0.14258270995864353
70.0,-0.034411290322580654,-0.017532258064516137,0.026572580645161298,2.7323548387096768,1.459991935483871,9.29695161290323,-0.11169354838709676,0.08074596774193549,-0.05453629032258064,16.59233870967742,16.178377016129033,-8.913760080645162,-0.9766875741693548,0.15086000406451616,-0.054420519274193536,0.1426532861935484
71.0,-0.04235936270653028,-0.01164575137686861,0.029069826907946506,2.7161518489378436,1.4667378048780488,9.30042545239969,0.31093627065302915,0.18203063532651453,0.08505728756884343,16.515588119590873,16.076031422108574,-8.95921272619984,-0.9768710897934698,0.15001924039201417,-0.05501175514181747,0.14203104723387097
72.0,-0.049492085347120754,0.00178445918099734,0.03033080439099323,2.7753950488928854,1.489000430856843,9.279116528043165,0.0779719755722903,-0.7495532787269117,0.01845630315462141,16.45907574182309,16.439421000992844,-9.112519669551535,-0.9763941577408207,0.15329616260556933,-0.05581086217517141,0.14146882602534563
73.0,-0.03927702221722678,0.0032388070885317156,0.031172483234048944,2.8388593065078114,1.5004890037840468,9.257934247499158,0.05212033082312391,0.09522545052639464,-0.13917431203401895,16.534391332752612,16.82503910494174,-9.19771833202203,-0.975768122053829,0.1567218807326627,-0.055850277067129375,0.14202525616412834
74.0,-0.03283264958225619,-0.006174262860140124,0.029578275448653112,2.7667403338203895,1.474684509759844,9.284254299201976,-0.2019554227080289,0.15985087435839795,0.12171582883743584,16.49050101157694,16.389058694878422,-9.014682090873329,-0.9764828404982955,0.15271536677860514,-0.055087894147353045,0.14172028903692258
75.0,-0.03992094713573864,-0.0013435240343186849,0.02565508973062082,2.7830392267056308,1.4768862163276006,9.279640328200513,0.012190438724663757,-0.3952853958263085,0.014684256865610132,16.400998932224347,16.48714220149114,-9.031372934697089,-0.9764671795489117,0.15353404171630886,-0.05518290675620996,0.14096192769135663
76.0,-0.03792664193923046,0.00019369825034655811,0.028433367052564544,2.7936242553669772,1.4756736353077806,9.276161627514888,-0.04949585066127159,0.12225797085159792,-0.07155736015885504,16.44110725525458,16.54839997564722,-9.029897718332021,-0.9763465247233152,0.15409882875744635,-0.0550194085354614,0.14128042461279083
77.0,-0.037791159797454066,-0.0018463152373459223,0.02800641529988502,2.7532599003409386,1.4612265730597753,9.290998809739957,-0.061978000363130184,0.19510555992656703,0.04113331921160403,16.514932467873066,16.305197048558576,-8.918278056850047,-0.976625614185479,0.15190220392705117,-0.054394881089188815,0.14195851028465375
78.0,-0.029403054328310037,-0.008090742197744558,0.03168141378684259,2.6799360083923416,1.434770642942161,9.31598248905566,-0.15806905525630938,-0.35209808549698396,0.09769588855938185,16.404107658012066,15.859202576206904,-8.740246424176402,-0.9774031746395531,0.1478316100422038,-0.053706920438378825,0.1411004519889044
79.0,-0.031430087352982715,-0.009087857330186206,0.02816643466682807,2.7189420403881455,1.4289817022735982,9.305761504165913,-0.005775282938933618,0.051055599265670104,0.07276120155742499,16.414961972200366,16.096394167725798,-8.72121487219835,-0.9771239869200912,0.14980837837515382,-0.05316199918299744,0.14119215277572678
80.0,-0.03508876515564163,-0.00987752425911356,0.029600133147733475,2.736300288486755,1.4390266497205917,9.300302467267851,-0.0038858712098287294,0.06454727248885395,0.03463001069216647,16.432962890112773,16.20273583287942,-8.775192408561804,-0.9769322710202343,0.15080415271629447,-0.053438081916439714,0.1413835268559987
81.0,-0.036442100909842845,-0.014510752688172045,0.0351997518610422,2.691747311827956,1.4317328370554172,9.314253515301907,-0.10217897022332506,0.7003696236559138,0.11886889991728701,16.357930107526883,15.928949545078575,-8.722637510339123,-0.9773808701993386,0.14835127577750207,-0.05355334715963606,0.14078935800785775
82.0,-0.04973387096774193,-0.017266129032258066,0.036895161290322595,2.677024193548387,1.4277258064516127,9.318669354838711,-0.018397177419354843,-0.05559475806451619,-0.01713709677419354,16.297782258064515,15.838104838709675,-8.698891129032258,-0.9775730757258068,0.14755618146774194,-0.05355894070967741,0.14027626329838705
83.0,-0.04856825334382376,-0.01936329661683714,0.037391227380015754,2.676527143981118,1.449554681353265,9.31451652242329,0.060847757671125095,-0.11177468528717549,-0.02735911683713611,16.230548042879622,15.836354248623131,-8.83726642407553,-0.9775864184944928,0.14765841761309992,-0.054780293938631,0.13964963832277735
84.0,-0.05004583942152785,-0.02598329961410214,0.03537783335206625,2.6410316211457054,1.4559724251620394,9.324035526956651,0.03603783812895732,-0.07768793788168298,0.10213145348619385,16.173678159304636,15.621126913098047,-8.867303526937917,-0.9778985367591513,0.14580684800835486,-0.055410723768086624,0.13917630260781721
85.0,-0.04617201491139335,-0.03309383312727137,0.04085935334007719,2.7621542842156535,1.4417824360271252,9.290080607695476,-0.5052667565846165,-1.1174914414034693,0.1141090981042299,16.251149907740437,16.366423138885764,-8.813559931250234,-0.9769166078154528,0.1521293298480012,-0.05372557412735567,0.1397476819987355
86.0,-0.03989649132666442,-0.040119497208796984,0.037711934734554725,2.8948190775916975,1.3052460567232402,9.268806432879995,-0.7970386202277921,-0.5984886642501218,-0.20007750739949795,16.4402674941928,17.17136681137837,-7.999824320463826,-0.9761379148472424,0.1580183409240006,-0.045504966793516545,0.14129592551146453
87.0,-0.05295579322329913,-0.04078741609819502,0.04404548349630963,2.8616460979356333,1.2614420937048787,9.285760743321717,-0.10669820279379683,0.09877378718842134,-0.40541251300495984,16.91918707112452,16.970069391007627,-7.727576423052426,-0.975974233733278,0.1561055127120003,-0.04289619931849111,0.14541553278075298
88.0,-0.05733942296884862,-0.03566436107820845,0.04192911468285191,2.8142723015248583,1.2650837533827302,9.300183282754485,0.159101724724266,-0.15159658398250062,-0.08202864045212589,16.916566391581142,16.68224161918595,-7.7401847496851435,-0.9763561354645933,0.1537064998784234,-0.04344197159866334,0.14543173175150947
89.0,-0.05829951179164397,-0.03396274889547904,0.03939850511408341,2.8135516653553623,1.2613613851399057,9.301891948596904,-0.09730205622465654,-0.022922907966672734,-0.11885610210010286,16.920759194254472,16.67604784492324,-7.717005777300329,-0.9763948269342937,0.15361881623721474,-0.043216728927595885,0.14546324192644597
90.0,-0.06150144747725393,-0.027831885856079416,0.03908870967741937,2.8048521505376334,1.2562888751033914,9.305118279569893,0.08060251240694788,0.15528716914805624,-0.07752403846153845,16.913890612076095,16.615654724979322,-7.680080386683208,-0.9764946876732838,0.15309084399193548,-0.043000681217535155,0.14545992184284529
91.0,-0.059625723738626964,-0.030331265508684875,0.03704838709677421,2.7973978494623646,1.241035566583954,9.309172043010754,-0.16839330024813895,-0.11451871381306863,-0.04937189826302729,16.93244933829611,16.571461435070304,-7.585478701406121,-0.9765861592559968,0.152602733,-0.042248281979735326,0.1456021715665839
92.0,-0.06010483870967742,-0.025733870967741948,0.0361693548387097,2.794451612903225,1.2149677419354838,9.313306451612902,-0.0747983870967742,-0.14188508064516128,-0.052167338709677415,16.955544354838707,16.555292338709677,-7.417842741935484,-0.9766642429919352,0.15224471614516127,-0.04095577091129031,0.1458248986451613
93.0,-0.065948859166011,-0.01086841070023604,0.03531923682140048,2.7869803304484657,1.2111837136113295,9.31649016522423,0.046377114476789924,0.1399968036978757,-0.0007277734067663265,16.922101199842643,16.503673288749017,-7.398372344610543,-0.9767829752836348,0.15176726690145553,-0.04087566169433515,0.14555451937214792
94.0,-0.08199921321793863,-0.0035293076317859974,0.03506845003933911,2.757508064516129,1.204056058221872,9.326299960660894,-0.02479346970889064,0.04003614280094414,-0.03502409520062942,16.89027955350118,16.323480527143982,-7.350255704169944,-0.9770681035385522,0.15018321130625495,-0.040783546529110926,0.1452965733627065
95.0,-0.0729492525570417,-2.104642014162119e-05,0.03553619197482299,2.7797812745869397,1.192930173092053,9.320720102281667,-0.13394226986624705,-0.33032430173092053,-0.0036327202989771823,16.864316974822973,16.464868951612903,-7.293222610149488,-0.9769641638440206,0.1512878156496853,-0.040094946073760816,0.14505599362844218
96.0,-0.06071656176239182,0.004009638080251771,0.037719708890637305,2.8440035405192763,1.1936223446105427,9.301146341463411,0.14653692958300552,-0.6026873524783635,-0.01413994885916601,16.883922600314712,16.857106854838708,-7.313824006687646,-0.9764321176195909,0.15466474646597167,-0.03963820804091267,0.1451614564876082
97.0,-0.04434618410700236,0.00790401258851298,0.029250983477576722,2.942509834775768,1.218262785208497,9.267137686860735,0.00494689221085759,-0.24665617623918173,0.0384441384736428,16.90824154209284,17.4633064516129,-7.4882376081825335,-0.9755119848339888,0.16002361516443744,-0.0401111519559402,0.1452432052478364
98.0,-0.040375295043273016,0.007517702596380802,0.032776553894571216,2.918044846577499,1.22007474429583,9.274608969315496,0.09803304484657749,0.5485051140833987,0.12879622344610542,16.856722069236824,17.309077498033044,-7.4918322187254125,-0.9757806112352477,0.15871459094492524,-0.04043598280959874,0.14487825372619986
99.0,-0.034238788355625493,-0.0023489378442171534,0.025890243902439034,2.7530468135326522,1.224246656176239,9.32299606608969,0.015204563335955934,0.8573957513768686,0.18894079464988198,16.641106904012588,16.302788158929978,-7.477923387096774,-0.9772925225066877,0.15004523578481507,-0.04211497067859951,0.14319301022501968
100.0,-0.025278324154209286,0.009230723839496456,0.024196105428796227,2.6736437844217154,1.2711673878835563,9.340337529504326,0.6021636506687646,0.6747639653815892,-0.08926780094413847,16.502914781667975,15.8174788552321,-7.7510584677419345,-0.9779017208245476,0.1462085306658143,-0.04532354630310778,0.14205784779150277
101.0,-0.035771046420141624,0.03270476003147128,0.02127596380802518,2.6768475609756104,1.3740080645161288,9.324857002360343,0.4417584579071597,-0.6526910405192761,-0.34635498623131394,16.652286585365854,15.842510818253343,-8.379501868607395,-0.9773169514364672,0.14731844079248624,-0.05036976386211644,0.143284026354642
102.0,-0.04058064516129033,0.01819315499606609,0.02401671911880409,2.6856923682140055,1.4231758457907158,9.315604838709675,-0.020906274586939416,-0.08329440401258856,-0.1989538257277734,16.84215061959087,15.892578432336741,-8.683200973642801,-0.9768444321882377,0.14824301082946498,-0.05258290901022816,0.14487636272974036
103.0,-0.04410719905586153,0.005584775767112511,0.025145161290322585,2.6608280881195903,1.4295731707317074,9.321919944925252,-0.011954169944925248,0.16689860346184104,-0.09506171321793862,16.954859608575923,15.74155069826908,-8.713284323367429,-0.9768719009744294,0.14705155844177814,-0.05292929288414634,0.1458731242145948
104.0,-0.044602675059008653,0.002856018882769473,0.029378442171518495,2.659866247049567,1.4317938630999216,9.32254130605822,-0.07646538158929977,-0.37849134539732493,-0.15681549960660895,17.031323760818253,15.736919748229742,-8.72806845003934,-0.9767701447521637,0.14706869841856807,-0.052952968442171525,0.14654536139260424
105.0,-0.04140047206923682,-0.0009126671911880413,0.02602675059008655,2.6175845790715973,1.4073406766325727,9.338056648308418,-0.10311762391817467,-0.5191778127458694,0.01858772619984264,17.00993312352478,15.479691188040913,-8.562303304484658,-0.97719739079465,0.14464573247049567,-0.05199475022029898,0.14641051780487802
106.0,-0.03266719118804091,-0.0008339889850511412,0.026679779701022824,2.6613926042486233,1.3838158929976392,9.329339103068449,-0.12224626278520849,-0.15111132966168372,-0.005654996066089695,17.052960267505902,15.743656569630211,-8.431746656176239,-0.9769160336113294,0.14673908040912664,-0.05042320330448467,0.14677471250983476
107.0,-0.04003147128245476,-0.0026199842643587724,0.028143194335169167,2.692950432730134,1.368198269079465,9.321778127458693,-0.07631785995279307,-0.13985051140833987,0.04278127458693941,17.090529110936266,15.941728953579858,-8.342250196695515,-0.9767032505035402,0.14830001438237606,-0.04939290406766325,0.1470030062313139
108.0,-0.041059008654602686,-0.0071392604248623134,0.028868607395751388,2.722154209284029,1.3552399685287178,9.315617623918175,-0.18095003933910306,-0.21742722265932335,-0.09821007081038552,17.137047600314713,16.117014162077105,-8.262185287175452,-0.9764790088733278,0.14971666399213218,-0.04839929367899291,0.14740412785523213
109.0,-0.041713611329661685,-0.009482297403619198,0.02913139260424863,2.7538190401258857,1.3414240755310782,9.308670338316288,-0.05283241542092839,0.22773406766325727,0.19022423288749016,17.120623524783635,16.306933516915812,-8.185060975609757,-0.9763228343697874,0.15124839187411487,-0.04746657489221085,0.1471903373579858
110.0,-0.05392225843917427,-0.01094548724289086,0.03287879809673674,2.691672923457345,1.3305927091528984,9.328047281855309,-0.04723900378404705,0.5824730246150387,0.012382919336105802,16.944060029597992,15.929373196957776,-8.105535807950245,-0.977039404403619,0.1478210644773894,-0.047603851766662916,0.14578879086043983
111.0,-0.05828685699299391,-0.008006181859053612,0.03123483571241243,2.605250309092952,1.3312640965119331,9.352217976096814,0.06735217395376718,0.18339819602113072,-0.04340039713761193,16.861265852721893,15.405210792027276,-8.090853073133266,-0.9777740096644373,0.14329701192004796,-0.04836007767326065,0.14509238245224987
112.0,-0.051606056348581925,0.0003648608145067631,0.028904855569293026,2.6204116743471584,1.3320544378254842,9.348496122288413,-0.06622533110411749,-0.2414000739949796,-0.09913852047506651,16.801120637574464,15.494579984826345,-8.107821163969128,-0.9777402893871245,0.14406078330425987,-0.04842157998327151,0.1445886568533026
113.0,-0.043626690644786636,0.002130306095687686,0.027446330223670903,2.6079446255292043,1.3271346146641188,9.35266269529055,-0.09631523734592184,0.5902153347570342,-0.009647446704881796,16.81268967067551,15.421111048668092,-8.073526656925555,-0.9778275771496008,0.14338602053725974,-0.04824319096586865,0.1447227904716946
114.0,-0.027064328799970023,0.00383069199355588,0.02692458131954592,2.4828519351092124,1.3272651830204938,9.386162976284144,0.05799403356936795,0.43986573189464606,0.054735678693192465,16.6933826008767,14.668256153759696,-8.043593580233038,-0.9788297912238957,0.13685557416870858,-0.04928465629489341,0.1438307104018583
115.0,-0.01983477576711251,0.005982166273275634,0.024362444269603992,2.406266981379492,1.3227024839833645,9.406958600277253,-0.07433919673298116,-0.13713798658723914,-0.04916825896369563,16.57211372747368,14.207649582256192,-8.001841913004384,-0.9794977654667865,0.13282830085931588,-0.04972912251380615,0.14291369046667413
116.0,-0.026474429583005506,0.005005245213742459,0.024479412536060847,2.433510359297141,1.3044975834550971,9.40259810422989,-0.0020446967142482494,-0.16285498857292718,-0.11575250084298078,16.640280899928815,14.369693201828332,-7.897149319995504,-0.9793062333643924,0.13410922173256903,-0.04855734282968041,0.14347208144183432
117.0,-0.02476947285601888,0.010626278520849722,0.02303540519276161,2.456523996852872,1.307255704169945,9.39626986624705,0.14083153029110934,-0.530640243902439,-0.035338808025177026,16.67654405979544,14.509020948072383,-7.919873623131393,-0.9791041556845005,0.135338990561369,-0.048503740745869384,0.1437450370365854
118.0,-0.03283870967741935,0.021516129032258066,0.02580645161290323,2.5840000000000005,1.3355161290322584,9.356790322580647,0.05559475806451612,-1.9809475806451613,0.0029737903225806467,16.723185483870967,15.285534274193546,-8.118094758064515,-0.9780360067580646,0.14227491805645165,-0.04893916967741936,0.1439880866048387
119.0,-0.013776113671274962,0.02407219662058372,0.02193817204301076,2.758765745007681,1.3415234254992319,9.304035714285718,-0.12378792242703532,-0.07518961213517672,-0.07203341013824885,16.898917530721967,16.34176747311828,-8.199323156682027,-0.9764668080817971,0.15144248983986175,-0.047762480705069124,0.1452958842281106
120.0,-0.028409370199692776,0.0334205069124424,0.028060291858678962,2.845681643625192,1.3745380184331792,9.273331029185865,0.12492079493087557,-0.172045410906298,-0.09345478110599079,17.014988959293394,16.870679723502302,-8.426687307987711,-0.9755479449880954,0.15631602502073733,-0.04868580368778802,0.14615929189093702
121.0,-0.033672033644299576,0.022818140946386428,0.02647123562249448,2.7945431231501257,1.3865617904911764,9.288491832452884,-0.122044298639991,0.16092912873253154,-0.19017066848375858,17.01609068834064,16.555601958525344,-8.483263377636657,-0.9759306434369075,0.1537078877283073,-0.04964758658612454,0.1462505456175771
122.0,-0.03634280281742909,0.020718275823311233,0.028746337716833395,2.6783634183807274,1.4587959424525119,9.310945955565543,1.1557289325053388,1.0114305852159904,0.33858832331122846,16.869462904162454,15.847508640552997,-8.900999927409988,-0.9766881353512233,0.14812812329953917,-0.054440998988085874,0.1450825364583755
123.0,-0.03778164924506387,0.016397100146116672,0.02461372747368027,2.6394539357835973,1.6144245251208271,9.295859091079393,0.5815408283691131,-0.6349097073920049,-1.3569566988872652,17.36878067513394,15.613106946161627,-9.8530883537522,-0.9755964334704583,0.14772949794874674,-0.062049741338653465,0.14929387866172117
124.0,-0.03432246824772396,0.011005769735116707,0.026462777715334757,2.626372897231276,1.70832670188453,9.28366456858117,-0.3763714828968566,-0.23249901652242333,0.02214089018770371,17.99149479225207,15.536526591360385,-10.417313186092692,-0.9744681477167957,0.14823521492368213,-0.06610362625918847,0.15452646064883294
125.0,-0.04342092840283241,0.012258064516129031,0.022505114083398902,2.5877277734067663,1.63679307631786,9.307394177812743,-0.3583595594020456,0.021252950432730094,0.19390243902439028,17.719777734067662,15.299822974036193,-9.966355232100709,-0.9754761414649882,0.1454214509472856,-0.06308267152793076,0.1523132853375295
126.0,-0.03694649881982691,0.010594020456333595,0.021425649095200634,2.6344933123524785,1.5929992132179387,9.302206136900077,-0.24662175452399687,-0.21021341463414633,0.02756687647521637,17.769679386309992,15.583944728560189,-9.712057435090479,-0.9752943180771049,0.1474798719960661,-0.0604330545483871,0.1527153771652242
127.0,-0.026915420928402836,0.0010955940204563329,0.0216726986624705,2.600901258851298,1.5313815892997638,9.322566483084184,-0.26611182140047207,0.29504573170731707,0.2976150668764752,17.50890538945712,15.38200973642801,-9.323254327301338,-0.9761570151990562,0.14505464172580645,-0.05787424118450038,0.15055636569905584
128.0,-0.030700039339103077,0.0019797403619197466,0.024601101494885917,2.6502381982690792,1.4819575137686858,9.31648387096774,-0.4132486723052714,-0.543738935877262,0.06272865853658535,17.42432385916601,15.683382916994493,-9.029914929189614,-0.976113552516916,0.14719641513512982,-0.05505925426258851,0.14984859360483865
129.0,-0.01917125622869132,-0.006361320295230601,0.017010228166797797,2.6793143756322353,1.447869693904313,9.314362519201229,-0.038165954816230196,-0.35453195833801654,0.0694475665954816,17.316710220673635,15.858695346746092,-8.830752875501105,-0.9761941302454011,0.14834508218987674,-0.05326009699861376,0.1489191244239631
130.0,-0.020199318122213483,-0.00693754449065228,0.02280094413847364,2.7133078565808706,1.4328058146940919,9.306846877224533,-0.1091449364954479,-0.10825044022329623,0.09515848038664718,17.252793544640515,16.06607564347533,-8.748578640740323,-0.9760892265467761,0.14997241846315235,-0.05233725444344535,0.14832657997752052
131.0,-0.014387621295567794,-0.00978269828781237,0.02025963808025177,2.728078003821513,1.4223824510134504,9.303592596755461,-0.10027958862537933,-0.28192321381739166,0.04831684837585703,17.182823798284062,16.153808868157807,-8.687994080401634,-0.9761134887572591,0.1506127055887752,-0.05177268323667153,0.14773067754186808
132.0,-0.017862575399947546,-0.010560113896069836,0.022989771833202208,2.758480386647185,1.412052751863924,9.297079539919824,-0.020119141283578737,-0.18661955340751565,0.014077779026638194,17.185235659960284,16.341140272001798,-8.63009066726612,-0.9759223930489678,0.1521206331366378,-0.051002260394889656,0.14773355695740137
133.0,-0.019356956969073406,-0.005992901669534242,0.024685388044947448,2.782363919846217,1.4025587853007209,9.291504627027837,-0.013713568099878093,-0.07633217981860782,0.001293110901686826,17.2101314221446,16.48624752509489,-8.57759602055432,-0.9757479140266524,0.15330183422370833,-0.05027974079519746,0.14792188958221297
134.0,-0.022576327946902293,-0.012576327946902298,0.02740721015150598,2.78160592305675,1.3984168734491316,9.292865984788882,-0.032432820916298497,0.03204800379269302,-0.011709435332566725,17.219557838568463,16.475093808630394,-8.553275736851663,-0.9757612252975042,0.153201313375295,-0.0501033146065081,0.1479921828947931
135.0,-0.03182710968548891,-0.009576912989973572,0.02759817627952955,2.782305715265589,1.3831148096592631,9.295044322056125,-0.19105413665799187,-0.22937824043252839,-0.03939130303213702,17.241933718654803,16.484694819342735,-8.45430309265872,-0.9757867912404123,0.15315144448465773,-0.049252312712380716,0.1481489797636829
136.0,-0.0336995501220521,-0.005111823922209446,0.027963525590590902,2.801137121991567,1.365491315136477,9.292356936795176,-0.09080145857289838,-0.07268479291492666,-0.10754970344368456,17.267190305432834,16.607989620528958,-8.345660594323064,-0.975679535212653,0.1539938288017309,-0.048148078157921256,0.14835859815092095
137.0,-0.03637849260626602,-0.009471726280538238,0.02995579898727028,2.8086016058423615,1.3437149730678453,9.292949514817732,-0.1099463626460086,-0.04097949323165688,0.03576586424983356,17.231352823841515,16.642925770138596,-8.217445757429038,-0.9757525928400008,0.15415695363217935,-0.04706100234017228,0.1480680845656257
138.0,-0.04008869094451313,-0.014546214079652318,0.032002004420965874,2.7716900266007265,1.3391332752613239,9.303571531602413,-0.016951055599265664,0.1194761342774718,-0.054771563916676036,17.15944413613203,16.42144589936683,-8.181528769060732,-0.9761387693238172,0.1521804049343693,-0.047202138527406234,0.14749168884786068
139.0,-0.04720593083811023,-0.011372634970589338,0.03440796523172606,2.7607629912704654,1.3304929751601662,9.308668240230787,-0.13291863362182008,0.32591381458169416,-0.018403558315537073,17.13187895732644,16.34901956652055,-8.126992010415496,-0.9762909129573454,0.1514879600276685,-0.04685920737149226,0.14732125226844253
140.0,-0.04850461766138399,-0.01867215540819003,0.03375000936645312,2.718111629388183,1.311229965156794,9.323260162601624,-0.14430156700760555,0.050176616181484376,-0.08689650771795736,17.128587000299724,16.08956190757184,-7.996226138960697,-0.976674593756407,0.14911620901462103,-0.046173915845462904,0.14740307638205766
141.0,-0.05843612078977932,-0.027321522235959694,0.0369426679405043,2.6921803229553025,1.2903317410363044,9.333947154471542,-0.17768038617886178,-0.15144776094938373,0.09934592887115506,17.025824774736805,15.93331729328238,-7.865048553351317,-0.9770745086334158,0.14756753285280622,-0.04544846689745609,0.14652580806711066
142.0,-0.03501723427372522,-0.023006256790678515,0.029792439399048375,2.7317490914540477,1.2645582780712599,9.325638604773147,0.06263932599003408,-0.4539896407028587,-0.06799459555655464,16.99009263422127,16.172973802030647,-7.716831047918774,-0.9769157020608069,0.14939413130081303,-0.04389974706792553,0.14618689751732794
143.0,-0.02934809486343711,-0.006649057734816984,0.03020343936158256,2.756323854482784,1.2824289086208838,9.316045108838184,0.03936017758795099,-0.048567400996590626,-0.2244974897905661,17.110301693454723,16.31807772282792,-7.832061837323442,-0.9765174156194969,0.15086762833089812,-0.04447634652167398,0.14714936805589895
144.0,-0.040651230751938855,0.008555093477202052,0.030124536360570987,2.784375931962084,1.2892766100932902,9.306906897456072,0.11310554119366077,-0.3673452661945974,-0.06009984639016898,17.215501948222247,16.495619309879736,-7.89043591472781,-0.9761382010056574,0.1524588464880297,-0.044514132613315355,0.14800903505233975
145.0,-0.027268967067550862,0.013165936083323969,0.026082649582256194,2.7601031808474765,1.3167257127870817,9.309867970476938,0.15286098310291857,-0.07776029373196958,-0.023750983477576718,17.207043572739874,16.35236971263722,-8.056198718669215,-0.9762282217120379,0.15143086546611215,-0.046137684796598105,0.147972709494811
146.0,-0.03454565209246562,0.007759956539657564,0.023214229515567047,2.76050436476715,1.343715409688659,9.305839159267169,-0.07081249297516018,0.23388384661496386,-0.1383717826233562,17.24052372522573,16.355958703308232,-8.214927316323854,-0.9760913338538457,0.15167291539106814,-0.047426369612528566,0.1482508864271852
147.0,-0.004906298003072204,-0.0054062980030722,0.022297235023041477,2.6684961597542243,1.344921658986175,9.332022273425501,0.09509888632872504,0.657186059907834,0.0665082565284178,17.038695276497698,15.791009024577573,-8.194796466973887,-0.9770225463003074,0.1467798142265745,-0.04840758254070661,0.14660737348540706
148.0,-0.006622584217482949,-0.00836661844032437,0.02109583645911478,2.5891019719215516,1.3451234594362877,9.355033392276642,-0.08852252125531382,0.07306821124924084,-0.15502006081877612,17.045706906637374,15.312766193780586,-8.173161035794664,-0.9775892323904102,0.14265949954550244,-0.04898597954911943,0.14671141831854395
149.0,-0.024250709890016056,-0.021670622359422614,0.023152068504931116,2.5871275005162433,1.3353245149266406,9.357505582841704,-0.13203110228776707,0.09892039102981318,-0.05554467340702772,17.26719784257911,15.297178361445763,-8.115660720493713,-0.977359716426027,0.14254525983933264,-0.04822507706035829,0.14863635037209652
150.0,-0.030070823454992665,-0.01503269981258381,0.022274958983648355,2.6036904783687205,1.3233650224402789,9.354709012619008,0.14457392658269094,0.17222805265776372,-0.025588196918567622,17.346252531120584,15.397317099309669,-8.049045798034875,-0.9771792076868997,0.14334778960476616,-0.04738758288885811,0.14931327210617112
151.0,-0.020894034484230814,-0.0011154095143995069,0.02149977389817838,2.6655108942740906,1.3241874754402887,9.336494197591207,-0.011128326506713804,-0.7680292242050059,0.009904915253203543,17.41199365063391,15.774963530734599,-8.06601745710818,-0.9766302134634528,0.14661387988565086,-0.046872315434538084,0.14983343802790855
152.0,-0.013848444689569604,0.00163011136059276,0.018335028007873053,2.7532560840558564,1.3212215336063977,9.311035023564251,0.013028246173041508,-1.100763703556551,0.04016329648614244,17.463482377563032,16.309275979709213,-8.066680542086742,-0.9759191395270506,0.15121014090120094,-0.0459937294631759,0.15017833840934972
153.0,-0.011039751227005356,0.013374695590273876,0.019034730808137577,2.8425935334007724,1.3360953879584883,9.281843093177477,-0.08117811247236896,-0.557897793263647,-0.0843303922670563,17.54451313176726,16.852457757296467,-8.185028193023866,-0.9750757669810796,0.15603753370941514,-0.045973460253718484,0.1507337109473606
154.0,-0.011936083323966881,-0.00297118879022892,0.022785658086995623,2.8752291034431083,1.332747143231801,9.272436888838934,-0.14519173129519314,-0.10234582818178412,-0.06709635270315836,17.587043151249482,17.051637021842566,-8.175499934434828,-0.9747955057155596,0.1577201596949908,-0.04552938085305908,0.15101156147761424
155.0,-0.024785995279307638,-0.006272226593233677,0.025398111723052723,2.868276947285601,1.3312800944138474,9.275329661683712,-0.03048780487804878,0.16125590086546024,-0.012377065302911088,17.54169453186467,17.003279897718333,-8.173677222659324,-0.9749262400881196,0.15731544107553108,-0.045608316815106215,0.1506125500881196
156.0,-0.03296262785208498,-0.0065625491738788375,0.02784854445318648,2.8514240755310776,1.3263119590873327,9.282216365066876,-0.046361132966168374,0.0014137490165224281,0.03838267112509835,17.51083054681353,16.903115165224232,-8.123266620771046,-0.9751260711990559,0.1563694681593234,-0.045442435049567284,0.1503645389480724
157.0,-0.04207046382675808,-0.0023571803229553044,0.03260116706005771,2.850127196433254,1.3465204095013303,9.279016091566445,0.1496855213367802,1.0978580677943879,-0.026584862406803793,17.571565848506985,16.89343288702184,-8.251746550803642,-0.9749617090130379,0.15648126625305347,-0.04643632348596905,0.15092726547999327
158.0,-0.04477313513918549,-0.00788826758083249,0.030949777078415952,2.670757146603724,1.351731978944214,9.329564497396124,0.01965122841032558,0.6252143161552584,0.13532148008692066,17.40097949683414,15.802084387059308,-8.236382347982467,-0.9764907851678092,0.147077657380559,-0.0482336420816942,0.14967957697386758
159.0,-0.044745438537334675,-0.016915907983964633,0.03362811434565959,2.5932817991083135,1.371329699149526,9.349008055149675,0.01640323517290473,-0.18570433385785468,-0.042067082537184816,17.35895749035255,15.335870822561912,-8.338957303023491,-0.9770411348580983,0.14320794902092465,-0.04989664341987936,0.1493956834304822
160.0,-0.04512173579109063,-0.02030453149001537,0.033010752688172045,2.630481182795698,1.3917089093701998,9.335786482334868,0.15829013056835636,-0.8834845430107526,0.0065284178187404,17.41989967357911,15.558902169738861,-8.47244383640553,-0.9766282439089862,0.1453553231516897,-0.050604941247311824,0.1498654408686636
161.0,-0.03903205200254768,-0.029185999025888885,0.03666666666666667,2.657332939942302,1.463210276872354,9.316418024802367,1.4791020381401971,2.2673026488329397,4.045912714023453,16.79465983383912,15.718044589000037,-8.919537835787345,-0.976839293906991,0.1469570712746056,-0.05480971741279832,0.1444128280466449
162.0,-0.017165027537372177,-0.004301140833988993,0.00961290322580646,2.051112706530291,1.608552911093627,9.411302714398111,2.380094413847364,2.5605330448465775,4.886445220298977,10.333169010621559,12.118200481904012,-9.672340922501967,-0.9844140344097168,0.11240538003284814,-0.07127852766876477,0.08905149872147915
163.0,-0.029255900865460274,0.024627655389457118,0.017887096774193555,2.1772861919748228,1.7306514555468135,9.37558280881196,1.4749262391817468,-0.35113468725413055,0.87175083595594,7.9030008359559405,12.849548829661684,-10.44950211447679,-0.9857581610637293,0.11814670414142406,-0.08066029606825335,0.06828644023977185
164.0,-0.04404983715441055,0.05605998298355078,0.06909808702175545,1.8836418769326475,1.8254881433773078,9.41667897004739,0.03443658170640218,2.463236693319671,0.23977815147384396,6.636030730243537,11.095999447651547,-10.958955506788282,-0.9879723904742876,0.10222809696352898,-0.08775846136374033,0.057433960000324774
165.0,-0.06356850536675981,0.06109316353478614,0.04103349051548602,1.968930385470932,1.7566154234551665,9.424601965822465,-0.41455494263374204,-0.26999935687319065,-0.4278439791785926,7.072158030252337,11.59626321268906,-10.547499306773556,-0.9882267291659073,0.10692290283717923,-0.08387128174600225,0.061286524224240725
166.0,-0.047362537498486124,0.04625075171231833,0.028431772795115155,2.103269284002185,1.715345477266529,9.409055506908082,-0.2171614209628191,-0.31082088221314913,-0.5338472452934662,7.738822917565193,12.39210288879929,-10.323956183677886,-0.9875762161329142,0.11428651427854242,-0.08085381258031821,0.06703548611290715
167.0,-0.05508449455569468,0.03944795650132045,0.02659895091368661,2.238590287162382,1.700547738633265,9.38396323732501,-0.19146881532011922,-0.7873408846549617,-0.36039640490479763,8.32341851523421,13.196379065367388,-10.259382325709911,-0.9866308986067795,0.12169969884491635,-0.07913956172967523,0.07203813716935681
168.0,-0.05332450534236348,0.02276430083130539,0.03235995932781105,2.280363691968288,1.6922537080263098,9.377320328339923,-0.13845114153102736,-1.8500212487790937,-0.20219921051691497,8.617505628584848,13.446274210103049,-10.221097412854956,-0.9862763489001639,0.12407085154342593,-0.078291763683386,0.07455164493951712
169.0,-0.03565625117080664,0.02486677157094152,0.019830392267056313,2.4049027762167023,1.6820023228803715,9.348291071896897,-0.12387204488404331,0.33171762017159323,-0.06744431643625191,8.979837773032108,14.191404171818217,-10.190814085272189,-0.9853060632197741,0.1306909609074969,-0.07694765075692182,0.07762466726570756
170.0,-0.02519315499606609,0.009649488591660111,0.017752950432730136,2.394750196695515,1.656720692368214,9.356053107789144,-0.1209751180173092,0.11520210464201412,0.06833939811172306,9.021540617623916,14.127675059008654,-10.035769079464988,-0.9854919881959086,0.13008227402517702,-0.07566456498937844,0.07799524339260426
171.0,-0.029087529504327296,0.010646931549960662,0.017798583792289536,2.415502557041699,1.6502761605035405,9.352499409913456,-0.11111206726986625,-0.06936590283241545,0.014254278127458695,8.964497688827695,14.252591463414635,-9.998559205350118,-0.9854413440428798,0.131110492956727,-0.0753132953467742,0.07751111751848938
172.0,-0.03445486306245551,0.012545239968528719,0.016876634446067962,2.4978348038664717,1.6467068206511555,9.330882385448277,-0.1590278558315537,-1.7268068473455471,-0.3644826439623843,9.071307744183432,14.7617892032895,-10.001430140309466,-0.9847866215202877,0.1355544885517122,-0.07468273576843316,0.07838207458451352
173.0,-0.030499953167734437,0.004011605035405194,0.017774371510996215,2.442500505788468,1.6521343898692438,9.343773313101796,0.04742966964519876,1.8028958731407587,0.151211667790641,9.078753547544116,14.41809218228991,-10.019317548518227,-0.9851301318663594,0.13260386635600951,-0.07517825072774531,0.07845911421269341
174.0,-0.04112359971525982,0.005066876475216366,0.022812933198456415,2.3627211419579632,1.6436757708590912,9.366826271027687,0.0017187441459668093,0.4001325353115279,0.13139728747517887,8.965648533213443,13.944115057510022,-9.948236296879097,-0.9857861740901425,0.12836161420741077,-0.07514121343261775,0.07756618330972986
175.0,-0.041816717245513474,0.003469708890637294,0.023491439061856058,2.3257468809711135,1.638678955453149,9.376788430557113,-0.0039596680529017285,0.3132891236746468,0.0008874714323180016,8.953319939305384,13.717828575175151,-9.905913978494624,-0.9860764068641114,0.1263996413641302,-0.07502996140946389,0.07747361824023077
176.0,-0.03895792589262298,0.006312352478363495,0.02061983440110899,2.320833314600426,1.635264733430745,9.378874152335992,-0.11252763103667902,-0.1392985931587427,-0.04471263721853808,9.002476256041362,13.691285452025028,-9.893845069499083,-0.9860970599977515,0.12617468942636095,-0.07484669991008205,0.07788898935300288
177.0,-0.03856805664830842,0.005107789142407554,0.026693941778127468,2.3289834775767106,1.6246561762391816,9.379518489378441,-0.050580251770259634,-0.022649488591660143,0.023937844217151845,9.077606215578285,13.74199449252557,-9.829012588512981,-0.9860447404044055,0.12659995650196695,-0.07420200991817466,0.07852607470338314
178.0,-0.03790050233008533,0.004076519598942888,0.022961750287478065,2.3381312110391574,1.6256767536161716,9.37668817204301,-0.05651932155177631,-0.27597036454235513,-0.06537969799673184,9.106200952208034,13.793893234682967,-9.836894783029717,-0.9859673436631359,0.12710216508388306,-0.07418099472950837,0.07876997668242247
179.0,-0.04084167524057375,0.004121658697976559,0.023427373963565944,2.374327603946014,1.6070869999394786,9.370734329923947,0.1087928569267082,-0.28249737739312875,0.3155398913635538,9.059320971776714,14.012903541023622,-9.730750695999514,-0.9858428752414814,0.1288819952893845,-0.07315021620975812,0.07834414126882727
180.0,-0.01807071960297767,0.00822684036393714,0.01545719602977668,2.6304627791563275,1.6121619106699754,9.29694623655914,-0.22844680521091815,-1.505981182795699,-0.21206187965260548,9.353150847808106,15.577296577750205,-9.839337779156327,-0.9837225366042184,0.14262949655893298,-0.07209513907340777,0.08071521053370553
181.0,-0.0027772952853598034,0.00473842018196857,0.014151985111662532,2.612529776674938,1.6013027295285367,9.305440860215054,-0.09620424937965262,0.10638440860215048,-0.04491702853598015,9.481464536807277,15.45419768403639,-9.763469292803968,-0.9838666469150124,0.1416128997673697,-0.07144375178267162,0.08189473685153018
182.0,-0.007733452593917715,0.004221141823917518,0.01303745167060996,2.5510910323734777,1.595368168965319,9.324508127031752,0.010336899128628299,0.22593695298824706,0.09048632350395291,9.457317274030046,15.07555626887491,-9.707619633273703,-0.9843784314139018,0.1382989726876046,-0.07139471758141458,0.08172061565288438
183.0,-0.0045000714464330386,0.00022176079734219237,0.013090272568142033,2.5858698692530275,1.5944110134676537,9.315863894545062,-0.07846397983424429,-0.32601961874397173,-0.14544350373307613,9.571367339602759,15.289004059050477,-9.709516274157824,-0.9840734651628176,0.1402140505710267,-0.0710840252689065,0.08267342562450435
184.0,0.006516290004556884,-0.0014682895462541602,0.009053397495715392,2.585603404335405,1.5918278513443695,9.316065110136421,0.17602113262418392,-0.2131198359258804,0.2656719833812983,9.50743020304292,15.288646649902894,-9.6899488087941,-0.9841323111552678,0.14016305264163054,-0.07102641282151068,0.08211575928953384
185.0,0.015076693389375215,-0.008282531869901275,0.00968798907043834,2.5416404118451212,1.5974340869625077,9.327512393777887,-0.05959528046210158,0.38033524332738233,0.020260386851939496,9.376698972489201,15.018063244306285,-9.71279194471963,-0.9845283144163435,0.1377578981071056,-0.07164257337043275,0.0809930103746056
186.0,0.02710286282371986,-0.005326749805918379,0.012118188083606266,2.520981496245142,1.5828501079973833,9.336078777534102,0.05603905331733631,0.15392770230885247,0.2227814031033891,9.232830333018795,14.90048827537895,-9.618593553004976,-0.9848321427726877,0.13655224461000437,-0.07116393983844219,0.07977772257036732
187.0,0.01544640515529579,-0.0016911318421939986,0.01617912404930501,2.5743437113633814,1.5673245288674091,9.324415982915589,-0.16251873290622304,-0.3800410250646285,-0.026043657037952875,9.13053744707954,15.223307716084074,-9.535014143344197,-0.9845970965506349,0.13922445018197144,-0.07025105121179424,0.0788973777097898
188.0,0.0006152030502935288,-0.0007879622344610544,0.015550273356331582,2.602062851782364,1.5633701103512283,9.317748875305131,-0.0992974439669955,-0.12236018227117754,-0.062415143537291454,9.102465565676127,15.385605544796142,-9.517335368375395,-0.9844382246013836,0.1406323007494401,-0.07001251632402308,0.07868004045480034
189.0,-0.03336352357320099,0.004427419354838709,0.023555624483043845,2.6346482630272954,1.5756645988420188,9.306780810587263,-0.016992349048800655,-0.637684811827957,-0.3848661083540116,9.126557330438379,15.58305159222498,-9.602712727460712,-0.9841323668254754,0.1424208606091811,-0.07048521672849463,0.07884436972622
190.0,-0.02674588452460207,0.009870771046420137,0.02558573907079021,2.800943624039218,1.5620952813250222,9.258128603562708,-0.1892876281042587,-0.43186303435615003,-0.23182501916520404,9.569741956918639,16.598147058897702,-9.56790644732595,-0.9825706692681664,0.1513857772445984,-0.06855319799593496,0.08252491083065522
191.0,-0.019151168068752646,0.017937844217151847,0.025021626419738145,2.853853794710404,1.5603989388529127,9.242481394621638,-0.09025934808045351,-0.8702317728822448,-0.20286790887449818,9.770987348443583,16.9258493211483,-9.572026714024894,-0.9820350527164002,0.15432626696966348,-0.06798992175819564,0.0842426967606266
192.0,-0.020705894813290562,0.011957907159716757,0.024399090157154676,2.9166384433819528,1.5649701224555672,9.223182573786037,-0.030577893945812906,-0.2581390965119328,-0.05161712713591155,9.982792798926749,17.30703608858359,-9.624026609372795,-0.9813724575593212,0.15774605479531562,-0.06769911419302385,0.08600596148003792
193.0,-0.013402635719905583,0.003461250983477576,0.020645751376868613,2.9515849724626273,1.5568119590873328,9.213577104642013,-0.1948158438237608,-0.4958165322580645,-0.06420264555468135,10.110668273013374,17.517664486624703,-9.58787372147915,-0.9810360862753739,0.15962462823013374,-0.06698397565145554,0.08706709291738786
194.0,-0.015850511408339887,-0.005386309992132181,0.025310778914240765,3.0261070023603462,1.5309866247049568,9.194006294256493,-0.22928796223446105,-0.5758064516129032,0.03264162077104642,10.23340873328088,17.976347364280095,-9.458654602675058,-0.980423984169945,0.1634953774618411,-0.06522298484185679,0.08810601958772621
195.0,-0.020525570416994487,-0.020129556779438763,0.028685699299389314,3.0291737289723124,1.5195984414222024,9.194820576224199,-0.0842638904499644,0.15375079614851445,0.037642370087295346,10.205970177213292,17.990443876212954,-9.38344994567457,-0.9804702327275111,0.16356382264066538,-0.06464500236304371,0.0878538871116856
196.0,-0.01706923682140047,-0.020534487280356676,0.022985650593833132,3.0030038589786816,1.5223956015136186,9.202595968678587,-0.015740324453935785,0.057815602637593166,0.02939356899329362,10.258708928103106,17.829466627327562,-9.390520212805814,-0.9806416387720954,0.16223420930695742,-0.06484204173462964,0.08831657437960364
197.0,-0.01593036978756884,-0.0312525945075119,0.026840882694541237,3.0278197894421335,1.507503858978682,9.197124667490918,-0.13947702409051738,-0.466965105278933,-0.09195199224457683,10.314201416207709,17.985371590611066,-9.309658452287287,-0.9804541991706192,0.16351241981476902,-0.06388261841986062,0.08876146008759506
198.0,-0.013540322580645161,-0.027934715821812603,0.026955453149001544,3.1215330261136707,1.484380568356375,9.16928302611367,-0.13830165130568356,-0.5712677611367127,-0.12133496543778802,10.568346774193547,18.565104166666664,-9.192727534562211,-0.9795345182926266,0.16851817928110596,-0.06186786898963132,0.09082905020430104
199.0,-0.014930875576036867,-0.027021505376344093,0.031181259600614446,3.1926966205837175,1.4725261136712753,9.14726574500768,-0.13649673579109062,-0.3139928955453149,-0.13148041474654376,10.710675883256528,19.006528417818743,-9.13464861751152,-0.9788393735913977,0.172282932141321,-0.060699045512288774,0.09203059898387098
200.0,-0.021194316436251914,-0.03017741935483871,0.034615207373271895,3.217404377880184,1.4693966973886328,9.13891705069124,0.10917098694316436,0.16493615591397853,-0.01413690476190476,10.867146697388634,19.157810099846387,-9.127520161290322,-0.9785016600944699,0.1736802954754224,-0.060225786031874035,0.09336154029838709
201.0,-0.031150462702783703,-0.0172918961447679,0.041069405417556486,3.1877957176576373,1.4721899891349142,9.14838417444082,-0.11147039264171443,0.1678886375557304,0.024937596006144393,10.911818824697463,18.976317274549473,-9.141443745082611,-0.9787132126147013,0.1721676788338953,-0.06046014268086622,0.09376348647757672
202.0,-0.05171409838522347,-0.026120564984451693,0.03577879247686487,3.1284651286950655,1.4640198568805962,9.168779869618971,0.08133523472331497,1.0827588770559364,0.15029674094263984,10.848164760593459,18.611240856000148,-9.069169968341388,-0.9793050619014647,0.16892760523913491,-0.06040219005910233,0.09324389131023568
203.0,-0.05496995241841819,-0.029060282492225854,0.03861923494810986,2.8813978869281778,1.4592357348919114,9.24672057997078,0.10024423026488329,1.512775607882807,0.5468973624068038,10.362741654490279,17.09435530703233,-8.967800709977144,-0.9817128906926677,0.1555656744784384,-0.06184646994084148,0.08924946453415009
204.0,-0.04825225731519987,-0.02224442696039864,0.03396706755085984,2.6565322767974227,1.4602284665242968,9.313829568019184,0.09428974186055225,0.8487409145404818,0.23286688396837885,9.816269060732083,15.722763290996964,-8.909145170656775,-0.9838397322464876,0.14344844759252184,-0.06347990316934546,0.08474918300363418
205.0,-0.04239417781274586,-0.023745869394177818,0.03224390243902439,2.542790715971676,1.455475216365067,9.348453186467347,0.08673780487804877,0.6969463021243115,0.09060778914240755,9.53882769472856,15.028835562549173,-8.850919551534224,-0.9849403454020454,0.13726638570102284,-0.06407870223367426,0.08244457939889849
206.0,-0.0371931549960661,-0.02043941778127459,0.032531864673485456,2.4791302124311563,1.4546313926042491,9.367524783634934,-0.02969364673485444,-0.22915765145554678,-0.0008654602675058978,9.42367230527144,14.646528324154207,-8.83331284421715,-0.9855014511180172,0.13387253892840284,-0.06447788023328088,0.08152911930448464
207.0,-0.0435241935483871,-0.02191129032258065,0.03216129032258066,2.503879032258065,1.4536209677419358,9.362129032258066,-0.02867943548387096,-0.3590221774193548,-0.08931451612903225,9.44133064516129,14.795967741935485,-8.824647177419354,-0.9853528423709677,0.13516678403225807,-0.06426893613709678,0.08162369258064514
208.0,-0.04715676632572778,-0.019507277734067664,0.031280881195908744,2.562929976396538,1.450097364280094,9.346619590873331,-0.1105428796223446,-0.7649943450039338,-0.07899414830841855,9.464112903225807,15.152827498033044,-8.816803943745082,-0.9849299256443746,0.13825361029051927,-0.06384664179504328,0.0818016678280881
209.0,-0.04227596380802519,-0.018402832415420928,0.0337452793076318,2.6853117623918163,1.437222069236821,9.313358182533435,-0.11061418174665617,-0.5869578579858379,-0.025258162863886706,9.594657258064515,15.894810926435877,-8.776017899291896,-0.9839912165479938,0.14468116699606615,-0.06256688288945712,0.08284047595436661
210.0,-0.03893253343823762,-0.01923859166011015,0.029846380802517707,2.6039681353265145,1.4333941778127457,9.336810778914238,0.051070761211644375,0.5883125983477577,0.004649390243902436,9.529059303697874,15.402145210464202,-8.731467594413846,-0.9846403842621951,0.1403493297077105,-0.06276657973249408,0.08232775875275372
211.0,-0.030023996852871757,-0.01765755310778914,0.027478953579858384,2.646508654602675,1.4352043666404404,9.324802124311566,-0.11128048780487804,-0.569857641620771,-0.12372270849724624,9.66549960660897,15.65914019472856,-8.742646046420141,-0.9842397079221086,0.14267758325275373,-0.06249403040440597,0.08346415729563333
212.0,-0.033294256490952016,-0.016187647521636508,0.02574350904799371,2.7931656176239184,1.4277191188040916,9.282925255704171,-0.15372492132179383,-0.8435729740361919,-0.1245377655389457,9.804523996852872,16.551369492525566,-8.744357297403617,-0.9830444425094415,0.15042270852557038,-0.06132307242800944,0.08459879123249409
213.0,-0.038663650668764774,-0.023681549960660905,0.030311565696302136,2.9025356018882773,1.4234268292682937,9.250192761605035,-0.2343958988985051,-0.781847462627852,-0.20439614476789927,9.920003933910307,17.22140661880409,-8.746195171125098,-0.9821178082940596,0.15623152884972463,-0.06049490565538945,0.08549559930861526
214.0,-0.04053343823760819,-0.03982061369000788,0.03160739575137688,2.8913202202989776,1.4363343823760824,9.252273800157358,0.11271636506687648,0.8952153815892997,0.04659225019669552,9.881574547600314,17.14424665617624,-8.816822383949646,-0.9821976829252557,0.15563282490873326,-0.06123401734382376,0.08520638927930764
215.0,-0.04227301337529506,-0.052228953579858385,0.03486664044059797,2.7646199842643595,1.4455503540519274,9.288447678992922,-0.006687647521636503,0.20283979150275372,0.02439270259638081,9.680160798583792,16.37944040125885,-8.841628147128244,-0.9832862985365853,0.14892957290597952,-0.06250843052557042,0.08352526932887488
216.0,-0.03665184893784422,-0.04763296616837137,0.03175275373721481,2.755272226593234,1.4402968135326515,9.292850904799376,-0.04698564122738001,0.0707599822974036,-0.059351642407553105,9.638934647915026,16.320080153422502,-8.807517456726988,-0.9834233802557044,0.1483975213939811,-0.06238757080566484,0.08318271947954366
217.0,-0.03811624704956728,-0.04731648308418569,0.03161428009441386,2.7437086939417785,1.4349024390243903,9.29719158143195,-0.02525693351691581,-0.1534052911093627,-0.023602232494099134,9.585117525570414,16.250866689614476,-8.773945220298977,-0.9835760480068847,0.14774732988650663,-0.06224268885444534,0.08274837563493312
218.0,-0.03395117267992957,-0.04540497733318348,0.034662938818328284,2.7650688246974635,1.432243846240306,9.290776282267434,0.12065086311865424,0.06412396734854445,-0.022701413866097184,9.57720257998951,16.377997908939342,-8.75813236437376,-0.9834439266257542,0.14882322876909815,-0.061988374538589804,0.08265466179173692
219.0,-0.041854810610318094,-0.038409285901614784,0.036952821175677206,2.7934503109662434,1.429963320969615,9.283206689520812,-0.10502475085234725,-0.24526016494323927,-0.08744157674871679,9.651412109887227,16.55452674824847,-8.74731575015923,-0.9831770616435224,0.15037585363646921,-0.06165893552467125,0.08327654503814955
220.0,-0.04074103630437226,-0.034423663407140995,0.04052686298752389,2.846479581132217,1.4210343748829184,9.268528698812336,-0.14584808549698403,-1.076511745532202,-0.14526607751676596,9.69250262260687,16.87392754111873,-8.708316239556405,-0.9827613522842906,0.15316043474545726,-0.06092970155816567,0.08359893611811098
221.0,-0.013202933573114532,-0.018167771908133835,0.034279953917050694,2.9485190981978944,1.4075588868907116,9.238099911955342,0.0654758392341988,0.14098291558952447,-0.030146807444456934,9.92974855756622,17.499832574650632,-8.656405366040987,-0.9817916735811696,0.15857086538610393,-0.059496552089074964,0.08556340403073132
222.0,-0.01667404743171856,-0.01427743434116369,0.023474654377880187,2.8467393878086247,1.4066625079614847,9.27008624630025,-0.08888506425386833,-0.12708918736652808,-0.09100586339964782,9.775458956202465,16.87380741635757,-8.623515183020494,-0.9827371095809073,0.15310236033014876,-0.06006062331066652,0.08430379602746244
223.0,-0.011819535827403652,-0.014648760890302986,0.021585489779038167,2.851537305862247,1.400212088200286,9.269975771147285,-0.017019853998610883,-0.1205131627486073,0.024456007210727895,9.759627741128526,16.906176203156924,-8.576042198032756,-0.982755168359519,0.15332291875304552,-0.05968704596733845,0.08418052797503335
224.0,-0.005369061308479093,-0.019193044039621538,0.02371133167907362,2.856872339567068,1.4004232484012182,9.269133046863965,0.02707955072726906,0.1399018287639452,0.05639563033347455,9.6704724727148,16.93710307853699,-8.574455430813614,-0.9827833521636304,0.15355757125977929,-0.05978348963420687,0.08343440063037383
225.0,-0.01649491617744962,-0.013863241138614861,0.026889497468175684,2.8587068228126444,1.4024468720369583,9.267210111158182,0.14715995632350864,0.5798102770885029,0.15072436906130848,9.676758659646149,16.950111334705156,-8.597303443180213,-0.9827406266892109,0.1536737515913373,-0.05991223483205228,0.08347282474240955
226.0,-0.01864950372208437,-0.011009511993382962,0.02783105872622002,2.7535957402812246,1.4161368899917282,9.296790736145573,0.14994701199338295,0.826800299834574,-0.1605691687344913,9.473066583953681,16.301393196856907,-8.656558881306864,-0.9836523244232838,0.14805824227088504,-0.061332259786600486,0.08178366257340777
227.0,-0.028775020678246492,-0.006793926503603924,0.027096596951435667,2.676798062152901,1.4829252038284297,9.308439914923785,0.34529200638071605,-0.27070003249438734,-0.5564102564102564,9.768796156800189,15.841799228996809,-9.047556274370791,-0.983726316885029,0.1445624527717712,-0.06473809179422191,0.08432984032453031
228.0,-0.03503149001536099,-0.0070729646697388635,0.026247695852534565,2.63773732718894,1.5570599078341014,9.307526113671274,0.07642569124423963,-0.10604598694316436,-0.8602534562211981,10.487689612135178,15.602580165130568,-9.489031298003072,-0.9831454455729647,0.14330582824692784,-0.06782601793894008,0.09050953496966208
229.0,-0.03611233165434216,-0.00783055585324903,0.024583431572178766,2.6624309291608617,1.5682882059800667,9.299349891044187,0.03125368395670346,-0.13631549628478548,-0.5402144062801415,11.169502978423179,15.752032651019897,-9.567149041724717,-0.9823707395372325,0.14506310924658844,-0.06742139052245205,0.09630904524092632
230.0,-0.039930134319294104,-0.001965634265709286,0.02272251098488909,2.6161950219697783,1.5961755170935592,9.307681322116242,-0.18125401886185832,-0.4897543582324152,-0.44713036518058086,11.454058269031544,15.471794176222627,-9.727782838566785,-0.9823517075481549,0.1429876287287893,-0.06875848432461687,0.09879744124396278
231.0,-0.029213788638797325,-0.005637419807913652,0.02537433574421481,2.7102175935970054,1.5693785728662133,9.285094496620673,-0.18756101808553183,-0.5966990713270652,-0.1351929609144446,11.891792362289177,16.041619698260803,-9.584893582934061,-0.9813936562490971,0.14800225782033483,-0.06631590448213534,0.10249258418777606
232.0,-0.023178229226296122,-0.004535018772114633,0.023850013025904566,2.7406377204057115,1.5654309221904783,9.276496706929345,0.24407506493348077,0.321968993990658,0.12044853003320519,11.921476667076178,16.231754666671893,-9.572973818367483,-0.9811656565824557,0.14959476840737623,-0.06597877085661222,0.10271737903770804
233.0,-0.03377882275446911,-0.0025317182954275163,0.02261471465427333,2.639630688159845,1.5943314365176662,9.300289060069893,-0.027405631895778798,0.2802817320183705,0.08318413444824621,11.788791328929793,15.61809987557865,-9.722988445282052,-0.9819000345001373,0.14437946395099993,-0.0681181178545734,0.10164765461332406
234.0,-0.033727370867107025,0.00029978226263883013,0.02358117578175032,2.595741825700328,1.5977148555431544,9.312814447514313,0.04777505351947744,0.22884585475637204,-0.00016993577662707815,11.706806579693703,15.349621018059391,-9.734689083856331,-0.9822854938982309,0.14203969735509486,-0.06861049809082759,0.10099883757297864
235.0,-0.025585365853658545,-0.00029346970889063714,0.020352478363493312,2.5899504327301344,1.590708890637294,9.315852084972462,-0.22573269079464986,-0.43496754523996856,-0.18902439024390244,11.764299763965381,15.315986428009442,-9.689943941778129,-0.982313204115657,0.14172836308339887,-0.06817769104091266,0.10148073390952006
236.0,-0.04121165446145777,-0.006746625915390666,0.03208943089430895,2.4934241461397244,1.5734429683875004,9.344629425649096,-0.07021367941657082,0.6424280422239705,0.1411687496217394,11.710456131856603,14.72384523341201,-9.562362754443303,-0.9831059448308318,0.13651417821946174,-0.06784072423961549,0.10106587481783977
237.0,-0.029781017369727047,-0.0033182382133995028,0.026005376344086027,2.4830846331088265,1.5474123537752575,9.352176651305683,-0.01366702853598014,0.22569844470046077,0.1273872297057781,11.714884644924968,14.664384120583717,-9.397399156622948,-0.9832904402266633,0.13584056340443693,-0.0665526388541002,0.1011193311011757
238.0,-0.03237034739454095,-0.0019050868486352353,0.023107526881720433,2.49127215526409,1.525202144629564,9.353709293394775,-0.1714252481389578,-0.557841301843318,0.012735953562566467,11.71404514504313,14.719818068356375,-9.253160263795344,-0.9833355296576863,0.13616927677076684,-0.065329571503663,0.10112820299816852
239.0,-0.03062114930702657,-0.01106770864855051,0.02261414896407029,2.490952265672958,1.5185372446200536,9.355165327263872,-0.051435971827150026,0.052765152579521135,0.06678792170653894,11.690690083339817,14.711041877411862,-9.203515738703338,-0.9833961430619272,0.13606876015583974,-0.06496119545187083,0.10095864207048473
240.0,-0.035913151364764265,-0.01899146644071901,0.02575740886441123,2.4999120100984777,1.5053839842297743,9.355730283616206,-0.06257565212128546,-0.2117560694616163,0.06543135758812392,11.63192856350311,14.77388000636919,-9.131374681900843,-0.983437395120755,0.1364570967617318,-0.06433417944407074,0.10043184414578524
241.0,-0.030654733805402574,-0.024013375295043285,0.025020062942564918,2.5167738750889814,1.4895836986250042,9.353423757071674,-0.1182877655389457,-0.44871012232587765,0.007962304709452625,11.647332551234499,14.874531794425087,-9.044520507849088,-0.983370039748136,0.1372538505076992,-0.06344887516061593,0.10055309487877936
242.0,-0.021999409913453973,-0.02413571990558616,0.024574547600314717,2.5939691188040914,1.47391089693155,9.333923092053501,-0.1859583988985051,-0.5816323269079465,-0.03344684303697876,11.745042043666405,15.343544699055862,-8.973186713217938,-0.9827920008156962,0.14126012066168367,-0.06217514969551534,0.10134538960759246
243.0,-0.019721479150275376,-0.029221085759244703,0.02744453186467349,2.6052950432730126,1.4862014162077108,9.329376868607397,0.08650668764752165,0.22196105428796226,0.06309008654602674,11.716699449252557,15.407533438237607,-9.054612509834776,-0.9826800566860738,0.1418858489598741,-0.06279999079937057,0.10112093491266719
244.0,-0.01945712037765539,-0.0539087332808812,0.029493312352478367,2.6041203776553887,1.495703383162864,9.328114083398896,-0.08449055861526357,0.21827301337529503,0.05147521636506687,11.68066974822974,15.399493509047995,-9.105979543666404,-0.9826929849307633,0.14185934590873323,-0.06328657086546027,0.10083618683792288
245.0,-0.029343036978756887,-0.06190715971675846,0.032665617623918175,2.5031616837136106,1.4872301337529503,9.35634657749803,0.07323957513768685,0.09273701809598742,0.25309303697875685,11.470227675059007,14.787522128245476,-9.027345594020456,-0.9836058804551533,0.13641955521636506,-0.06359859850118017,0.09906525007907159
246.0,-0.03212234461054288,-0.05201966955153424,0.02839417781274587,2.6155304878048775,1.4919824940991344,9.324569826907942,0.00782848151062155,-1.0310803501180175,0.04132818646734854,11.32748696892211,15.468111968922107,-9.08413896538159,-0.9829079909710856,0.14227565186860738,-0.06347918678796224,0.09774958217564911
247.0,-0.026940204563335957,-0.04227596380802519,0.02864870180959875,2.7571644374508257,1.486954956726986,9.284030881195907,-0.12844463021243113,-0.564784126671912,-0.16371090676632571,11.383274734461054,16.327982395751377,-9.088642063335957,-0.9818202860540912,0.14968975191011014,-0.06247684872462628,0.09814537203540519
248.0,-0.025642407553107795,-0.039736231313926056,0.027561959087332815,2.823266325727773,1.479524390243902,9.265793666404404,-0.1152992230527144,-0.4370254720692368,-0.19680984461054288,11.502317319040126,16.731477429189614,-9.06337160700236,-0.9812508671172304,0.1531982928845397,-0.061624817851691584,0.09912158129622345
249.0,-0.027990558615263575,-0.034869394177812756,0.029516129032258073,2.865346970889063,1.4691542092840284,9.255006294256491,-0.06234756097560974,-0.28513473642800946,-0.028274980330448465,11.596375885129818,16.98643784421715,-9.013404799370573,-0.9808879007741935,0.1553982978143194,-0.06077977344217152,0.09991490159559402
250.0,-0.03449863249784572,-0.028003615450901055,0.028930257390131515,2.847636768948334,1.4593508111348394,9.262390375032776,-0.017073756135026784,0.12624398205387585,-0.04891747218163425,11.616416699449253,16.87868007942752,-8.947556760705854,-0.9810643234281968,0.15440683848548198,-0.06033759094797872,0.10010039893893073
251.0,-0.026626184856318607,-0.01810330261136713,0.028398252219849394,2.8610811696826643,1.4499318965194261,9.260378507736686,-0.04223081984564085,-0.08757627805252705,-0.11855295324266607,11.729987460660897,16.958512935071745,-8.886912723389907,-0.9809056408612267,0.15510698805470008,-0.0596246027304803,0.10104433796513806
252.0,-0.03128889887977221,-0.015499231950844853,0.028832190626053734,2.8806776816155253,1.4463651418081005,9.254483608707053,-0.020888595406691392,-0.1741560825746506,-0.07041558952455884,11.799645948072383,17.080970177213292,-8.879141845565922,-0.9806979261241618,0.15617959770476939,-0.05929447303862724,0.10159134328095612
253.0,-0.041942639841144956,-0.017474242253943277,0.03450657525008431,2.9029863624442687,1.4466798171668356,9.247584054550225,-0.07432116631074145,-0.2841423607208422,-0.08676660672136674,11.833511998426435,17.218543703870218,-8.886979459368327,-0.9804928898834816,0.15736181345505978,-0.05915271664519874,0.10186291322191002
254.0,-0.03945519088831441,-0.016229646697388633,0.03416516803416883,2.921915683189091,1.443013394027949,9.242004458431683,0.02117438930725713,-0.023168741336030876,-0.031079998876025618,11.84515883162864,17.33535367726949,-8.865755662020906,-0.9803457060015361,0.1583365829556967,-0.05883626619986137,0.10195573870458208
255.0,-0.03455094413847364,-0.014201612903225806,0.03468627065302912,2.8409470889063737,1.4501119197482293,9.26588394964595,0.16890612706530292,0.8002003835562549,0.059517604248623124,11.78507941581432,16.83718528717545,-8.886362854051928,-0.9810105805161289,0.15405117590027534,-0.059672490737411474,0.1014960816671912
256.0,-0.04290047206923682,-0.01043548387096774,0.026831038552321013,2.6859291896144777,1.4577938630999212,9.30965971675846,0.043601249016522424,0.5687745869394178,0.06987976986624705,11.62441974822974,15.895860788749017,-8.886150177025964,-0.9822772340725806,0.1458796920267506,-0.060954453542092835,0.10025562483359558
257.0,-0.037494492525570425,-0.010664830841856803,0.027168764752163656,2.7261195908733282,1.4503430369787567,9.299492132179385,-0.13857690794649882,-0.718560680566483,-0.03927517702596381,11.69493754917388,16.144915420928402,-8.854560877262,-0.9819525983745081,0.14802014355940202,-0.060329292309992115,0.10080779397442957
258.0,-0.03474889475853284,-0.017175733393278637,0.026583707991457803,2.8288954703832756,1.435951931362632,9.27132787269117,-0.22777001142707282,-0.6164269440073433,-0.014076256978007566,11.796735381308306,16.76961686523547,-8.800638967723202,-0.9811203568063016,0.15338930591049416,-0.05899033190618559,0.10164046539997564
259.0,-0.03704921134464802,-0.039053838372485106,0.03225969427897045,2.8439207879060353,1.4388571615900494,9.266038936345588,0.0518850572290285,0.4733407913716233,0.05151689708141321,11.82129685568169,16.857194840957625,-8.822512270053576,-0.9809831146366284,0.15417899912814242,-0.05904985440726275,0.10180638282498781
260.0,-0.034169766962646585,-0.04332530628301676,0.03092016972013039,2.776125716533663,1.4547672904724436,9.283579952043764,0.08710684313064326,0.12797583923419875,-0.040269777265745,11.790940766550523,16.44553290434978,-8.893413393091304,-0.9814776489513785,0.15070963742294216,-0.060228440941534594,0.10161932040039715
261.0,-0.03326889213592597,-0.041065977295717676,0.03466179611104868,2.8117444082274923,1.4644824847326812,9.271966805290175,0.003164456183732331,-0.3431484395489116,-0.05355222734254992,11.840995560301225,16.66660250646285,-8.963520475066503,-0.9811201455943951,0.15269266833352063,-0.060463434546101674,0.1020239740857218
262.0,-0.03688936345584654,-0.03648499494211534,0.034176688771496024,2.8424772395189386,1.469484358023303,9.262176164250121,-0.05549881046045484,-0.26832874377130866,-0.13653712862013412,11.91536402720018,16.84992694166573,-9.012007090405005,-0.980798371329849,0.15437460957510019,-0.060498604454797496,0.10264199524191675
263.0,-0.04437018095987411,-0.03876553894571205,0.038468528717545254,2.809570416994492,1.461090873328088,9.27336073957514,-0.01870082612116444,0.3547133162863887,0.03967594413847364,11.902886506687647,16.650885129819038,-8.947108575924469,-0.9810987588623131,0.15257069165774978,-0.06025764421203776,0.10255950527380014
264.0,-0.05613237608182532,-0.026293863099921325,0.04043095987411488,2.8232777340676627,1.4441953186467347,9.272228756884338,-0.13071646341463417,-0.27137465578284814,-0.17152217741935483,11.995862018095988,16.73253343823761,-8.848642800944138,-0.9809788175476003,0.15324516968410698,-0.059182963703973246,0.10333020744335168
265.0,-0.04136860739575138,-0.030203383162863896,0.03302596380802518,2.7861227380015734,1.4221258851298189,9.286747442958298,-0.0924247639653816,0.2975535995279307,0.033165322580645154,12.051005605822187,16.505883654602677,-8.702345594020455,-0.9813045281125099,0.15117198260818251,-0.05815118535601889,0.10386389542328875
266.0,-0.04721852871754524,-0.025821597167584583,0.027107002360346185,2.773946498819827,1.4053391030684503,9.292834775767112,-0.11021218528717545,0.06063262195121949,0.013656815499606605,12.073889899685287,16.428394226986626,-8.594214693154996,-0.9814468079075531,0.15042618617033826,-0.057329731796813534,0.10406932104760028
267.0,-0.04310169158143195,-0.025750590086546035,0.027238198269079465,2.722398111723053,1.3943086152635722,9.30975590086546,0.0798005999213218,-0.0002950432730133845,0.09451711250983477,12.015192269866247,16.115229150275376,-8.516156077891424,-0.9819328837669159,0.1476352939382376,-0.05710721589378443,0.10361006738709676
268.0,-0.04527183320220299,-0.015117427222659328,0.03043568056648309,2.7446288355625494,1.3934242722265937,9.303385719905581,-0.027102183320220304,-0.32673337922895357,0.0187045141620771,11.988903914240755,16.250481904012588,-8.509060287175451,-0.981798739235838,0.1487861969474823,-0.05693512090047208,0.10332144334657747
269.0,-0.03717148318505518,-0.011018287639452078,0.030152600415582327,2.7382233301055097,1.38501558938046,9.306267198248902,0.0024848884887732226,0.14186619913655713,0.04174279161371018,11.947649330983072,16.21377227954972,-8.457436729609231,-0.9819166346054086,0.14838147523707862,-0.0565965021452319,0.1029974093920646
270.0,-0.029896225463495327,-0.004823659948758296,0.03324162278843633,2.705438277955981,1.3893747301741004,9.315500534608319,0.07218498456696726,0.4002173737618269,0.045442968387500254,11.891642205814117,16.012178478484536,-8.472770784159454,-0.9821968194881883,0.14664977966289416,-0.057048934701648214,0.1025373610710323
271.0,-0.0237797413706147,-0.0029610038532147105,0.028657790151102504,2.6483941979866454,1.3866999536000322,9.331914704754986,0.07281062760999818,0.426642911900583,0.09219925760051645,11.814531763803991,15.668736760878774,-8.442787831104116,-0.9826870016567614,0.14362453428227323,-0.0573086470746636,0.10192998776840363
272.0,-0.028679799874921835,-0.0018377009824688804,0.026916621275393897,2.507341080110553,1.3850580806552486,9.370015574250035,0.0016049597530714797,0.5813387651556416,0.06282366499223305,11.68698657427021,14.816788718755674,-8.402727511146079,-0.9837745747843208,0.13616263605223022,-0.058052543163610325,0.10097163996130647
273.0,-0.019508271298593883,0.00601033912324235,0.023492142266335815,2.505165425971877,1.3780388751033912,9.372482216708022,-0.0922689205955335,-0.5689490281224151,-0.15167235318444997,11.777197063688998,14.805350496277914,-8.36404569892473,-0.9837524441844498,0.13609227868858564,-0.05759895990281225,0.10172089116790736
274.0,-0.016819236821400473,0.00803048780487805,0.018433516915814324,2.5981136900078665,1.3704881982690789,9.347820220298974,-0.014264112903225809,-0.47691901062155784,-0.0003454464988198319,11.922278225806451,15.361730428796223,-8.342886998426435,-0.9829956523568053,0.14094852722088907,-0.05661714374016523,0.10293388360267505
275.0,-0.015655586152635723,0.004527340676632574,0.019345790715971683,2.6573310385523206,1.3698570023603456,9.331135916601099,-0.0988407258064516,-0.2943314811172305,-0.039764457120377655,11.995917338709678,15.724010375688435,-8.357078579858378,-0.9825200710251768,0.14407276792899296,-0.056192212543469726,0.10348860940617621
276.0,-0.020428599527930764,-3.068450039339036e-05,0.02193095987411487,2.536976003147128,1.3809244689221076,9.363071990558614,0.07449596774193548,0.8426276062155782,0.0013375295043272992,11.871370967741935,14.993330792682926,-8.3887711447679,-0.9834290774642014,0.13775480740401258,-0.05747377866286389,0.10249488940873328
277.0,-0.023894964594807236,-0.004397128245476003,0.024279701022816687,2.464846774193548,1.388210660896931,9.380943745082615,0.027977478363493315,0.3752286585365853,0.0653668371361133,11.786807877655388,14.556082808811958,-8.408787372147914,-0.9839845705513375,0.1339855383426436,-0.058283418035208506,0.10180623057808813
278.0,-0.02938591660110149,-0.0006498819826907937,0.02527891424075531,2.4702828481510615,1.3784476789929188,9.381851691581431,-0.07902488198269078,-0.06373918174665616,-0.03552812745869393,11.793214004720692,14.587799960660897,-8.348539535798583,-0.9839853131368999,0.13423995182887488,-0.05775137126593234,0.10189534310464202
279.0,-0.021811762391817466,0.0017151848937844217,0.021576514555468138,2.4728762785208493,1.3698139260424864,9.382495476003147,-0.07681082808811958,-0.40678599527930764,-0.153213512981904,11.855276357199056,14.607983379228953,-8.291613394964596,-0.9839524771152635,0.13436922659579076,-0.057203993963414634,0.10243770693469706
280.0,-0.025764752163650668,0.005099527930763179,0.024647128245476005,2.522708300550747,1.3566166404405986,9.372106608969318,-0.07351126081825334,-0.50117525570417,0.010893243509047995,11.999210759244688,14.90918322187254,-8.21879056845004,-0.9835254044124706,0.1369708570922502,-0.05609836000590086,0.1036613667576711
281.0,-0.021291109362706527,0.0062730133752950425,0.02048859166011015,2.607399685287176,1.3521313926042493,9.349022029897721,-0.00997738001573564,-0.7750491738788355,-0.0535060975609756,12.105969708890637,15.420692368214006,-8.217486231313927,-0.9828411534091266,0.14144538746498822,-0.055295661967741924,0.10452229538001573
282.0,-0.026299333108538457,0.011016129032258066,0.02013808025177026,2.7188794912142664,1.3491090442471254,9.317383893447232,-0.07763372953429995,-0.39565935146678655,-0.03724230545876887,12.212998997789516,16.09941459668053,-8.227818834063916,-0.9819319346636128,0.14731797217297965,-0.054465422054643886,0.10532872687643774
283.0,-0.03613943838747143,0.0015505507474429595,0.022362509834775772,2.7122839627589816,1.358063570117268,9.317936635944704,0.051515550653778434,0.3765704029448128,0.07416995663332208,12.127791788430557,16.056911271589673,-8.287837426473342,-0.982037354928187,0.14695911158609642,-0.055098092809383305,0.10457570011799855
284.0,-0.04150628489003785,0.002343233674272227,0.022728166797797014,2.661062418043535,1.3616552114945113,9.332834860065192,0.031612540275748384,0.48578225103967626,-0.07992119300513281,12.004573756135027,15.744655970177213,-8.307672647146976,-0.9825136453117531,0.14423242466558953,-0.05573437611486082,0.10361117024153271
285.0,-0.04645648345884381,0.0032505338878273575,0.02296354576448991,2.4759405792214606,1.4109741111235996,9.373448728035672,0.3042411299689034,1.023362275673448,-0.03344057922146042,11.985425798958449,14.621953561125473,-8.55920066689146,-0.9835944471443557,0.13481464098160426,-0.05923110517590198,0.10353726420928402
286.0,-0.039665617623918174,0.01244820351429321,0.022765726274774273,2.525069499082088,1.4176149263796778,9.359251995054514,-0.15221774193548387,-0.9590779663557003,-0.3305690588587914,12.113940560488555,14.928101935109213,-8.609343973624068,-0.983108861244427,0.13758156573620323,-0.05913320038140197,0.10458734997190063
287.0,-0.0375171406091941,0.012618110973736467,0.021505751002210485,2.6584564085272193,1.422555543066951,9.321811097373644,-0.17060291858678955,-1.2649652504589561,-0.4223169795062006,12.49528633247162,15.732412142669814,-8.664022985275935,-0.9817870942973286,0.14476708321756393,-0.05816590731819716,0.1077507710688996
288.0,-0.035395076992244576,0.00731220261511371,0.024706455359484472,2.725703420628676,1.41961372747368,9.303903188340637,-0.16985594395114456,0.01152307894046678,-0.07236521673972499,12.763993480948635,16.13811303435615,-8.6647465437788,-0.9810723376089319,0.1483437140714098,-0.05733421184556592,0.11001639628189278
289.0,-0.03307125997527256,0.0018425686561013084,0.022935446405155296,2.74584148214754,1.4067187441459665,9.30091304184931,0.04080963620696115,0.14003081563073697,-0.00407206549024015,12.819767196807913,16.257195777602938,-8.592281808474766,-0.9809407316722865,0.14932865625285677,-0.05652372457738564,0.110459430088232
290.0,-0.03548162301899517,-0.005442096586864486,0.024183432617736325,2.7193053838372485,1.3969064478663222,9.31022535686186,-0.10265515529579258,-0.05400345622119816,0.027573667153722232,12.765965119328612,16.095672464501142,-8.524938181409464,-0.9812500737604436,0.14785673853396275,-0.05622203326870481,0.11003107041605786
291.0,-0.037089505825933844,-0.007320894683601215,0.02773073320594958,2.667626578247349,1.394099921321794,9.326330036341831,-0.05797600314712824,0.1492799539170507,0.06478049717133116,12.717803988235733,15.777602937319696,-8.49318145629613,-0.9816943173594843,0.14510275006728862,-0.05639807790700985,0.10965876227484922
292.0,-0.035266719118804093,-0.021158143194335177,0.025797010228166807,2.655480723839496,1.3869693154996068,9.330704956726983,-0.027576711250983477,0.1806451612903226,0.04526947285601888,12.699891817466561,15.704258457907159,-8.448141227380017,-0.981836512162077,0.144409583606609,-0.056155301402045645,0.10947879254602674
293.0,-0.05410070810385523,-0.019796223446105432,0.028940991345397328,2.6390267505900864,1.3926113296616833,9.333940204563334,0.08711644374508261,0.42527045633359556,0.10868902439024389,12.688630999213217,15.6036782061369,-8.481004130605822,-0.98191415409048,0.14355272873485447,-0.05657420172383951,0.1094188769299764
294.0,-0.04857671125098348,-0.012108969315499606,0.026213217938631007,2.6108745082612117,1.4001963021243111,9.34051848937844,0.09863296616837136,-0.027874213217938648,-0.041741247049567276,12.678452006294256,15.43669846577498,-8.519391719118804,-0.9821137741066087,0.1421384465468135,-0.05713067830881196,0.10933650367348548
295.0,-0.0470255704169945,-0.009728756884343036,0.02753619197482298,2.606977773406766,1.411884146341463,9.339768292682923,-0.07776357199055861,-0.25920166207710466,-0.006482346577498037,12.628112706530292,15.414966070023603,-8.596502507867822,-0.9821392177968136,0.14201348293509045,-0.057823269548583814,0.10897791479110938
296.0,-0.04302084972462629,-0.01776357199055862,0.029139063729346982,2.617057435090479,1.406067073170731,9.339714791502749,-0.11337775373721479,-0.19252925845790717,-0.019849036191974822,12.62605232100708,15.480013276947284,-8.55200629425649,-0.9820903521524391,0.14249731854819042,-0.05745157568961451,0.10902379366168377
297.0,-0.041099134539732504,-0.030793076317859963,0.0352187254130606,2.6498190401258848,1.3993359559402045,9.330026750590081,0.0852970102281668,0.04715774980330449,0.07379523996852873,12.657582612116443,15.669694138473641,-8.52338217938631,-0.9818615756608968,0.14415173268135328,-0.05689658936900079,0.10921879060503542
298.0,-0.03423170731707317,-0.04272226593233676,0.037094020456333615,2.6465255704169937,1.394913453973249,9.33160031471282,-0.16848937844217152,-0.15608280881195907,0.002618509047993711,12.604799370574352,15.652023505114082,-8.490428304484658,-0.9819604439901651,0.1439349574437451,-0.05672222889535799,0.10872326604051925
299.0,-0.02920161290322581,-0.043612903225806465,0.03610483870967744,2.6469354838709673,1.3799193548387096,9.333516129032255,-0.20463709677419356,-0.3795362903225806,-0.10861895161290322,12.584274193548385,15.654989919354838,-8.400756048387096,-0.9820313966048386,0.14384485075806452,-0.05599453845161291,0.10856367576612902
300.0,-0.036026750590086545,-0.05240145554681354,0.03835975609756098,2.6455348151062155,1.359761998426436,9.337159913453977,-0.1965836447678993,0.30658561172305276,0.06401578481510622,12.584099626278519,15.647431894177812,-8.283244000786782,-0.9821142532075138,0.14366861092092842,-0.05498235900413061,0.10856545408536586
301.0,-0.047093233674272234,-0.055880015735641234,0.03958084185680567,2.575632572777341,1.3506756490952005,9.358096184107001,0.13693941778127458,0.4910884638080252,0.32516964988198266,12.355926681746656,15.222130704169945,-8.208987755704168,-0.9828565462452793,0.13982563838139261,-0.05514231535739575,0.10667161154622343
302.0,-0.04304661683713612,-0.049819040125885145,0.03358477576711252,2.5458566089693146,1.3526241148701805,9.366390833988989,0.090647128245476,-0.3098237116443745,0.14141547010228164,12.1402365263572,15.04166011014949,-8.211071498819827,-0.9832582001024782,0.13819033858182533,-0.0556484124730527,0.10484258645456332
303.0,-0.03693056648308418,-0.03656274586939418,0.03190932336742723,2.6312065302911085,1.3518160896931546,9.342078481510624,-0.0836582907159717,-1.0415802025963807,-0.06540617623918174,12.131307779307631,15.56226150668765,-8.22957808811959,-0.9826459067810779,0.1426737396538159,-0.05519837499862312,0.10471284279583004
304.0,-0.03754996066089694,-0.03242250196695516,0.03655546813532653,2.659901652242328,1.3474201416207712,9.33491424075531,0.07961742722265931,0.6517653422501967,0.09905094413847365,12.18069925255704,15.734406963021243,-8.204809205350116,-0.9824208283784421,0.14409365563335957,-0.0547528420920535,0.10511388166404406
305.0,-0.043511408339889854,-0.018650275373721485,0.03449724626278522,2.5836880409126666,1.3592844217151845,9.353936270653032,0.14831087726199843,-0.08356363099921321,0.07571056254917388,12.063623623131392,15.275174567269866,-8.259195515342249,-0.9830204661129032,0.14018091062942567,-0.055921185337922896,0.1041502555212431
306.0,-0.045626671911880426,-0.01203560188827695,0.0330865460267506,2.611179189614478,1.368973446105429,9.344595987411486,-0.007079809205350118,-0.18052591463414633,-0.029512932730133747,12.029500639260425,15.44103928992919,-8.320785798583792,-0.9828289798975218,0.1416252908733281,-0.056293150371557826,0.10389339975511407
307.0,-0.047990755310778926,-0.017600942265183023,0.03268152186130158,2.561882797572216,1.3831113390281367,9.35663516728485,0.047087735566295766,0.4077485154171818,-0.030305861526357197,11.928024369169382,15.13470095256828,-8.404126098216626,-0.9832140159581693,0.13907777132990523,-0.05742570065563299,0.1030170912786707
308.0,-0.041072374583192836,-0.01750304409726125,0.030226705631111617,2.5616485800457083,1.3992075512344981,9.354567007605556,-0.03443424281593046,-0.5485907000487056,-0.2912065981978944,12.096996295567795,15.139206275055262,-8.505942897418604,-0.9829989572014348,0.13929474448906937,-0.058058833344713574,0.10445636215239218
309.0,-0.05215390955752876,-0.006399535423925667,0.03119478475890751,2.7313603836499194,1.3861601288823948,9.306438499868868,-0.29548349630961745,-1.6379374133603088,-0.43914615413435243,12.533208759506952,16.17942377580458,-8.47187019969278,-0.9813395438983178,0.1483844249735866,-0.05590547960361171,0.10804216062792701
310.0,-0.045798433929039754,-0.012254842456258665,0.031586377430594594,2.681813944775392,1.3876245176276645,9.319994230264886,0.17477005357611183,1.0304461241617024,0.010944232138173915,12.584887227904538,15.871301187666255,-8.467234273725225,-0.9816620633677269,0.1457416657542992,-0.05618934588048406,0.10852609953504927
311.0,-0.029091978569555286,-0.018271402345359865,0.025729459368326407,2.60538061518864,1.4073354688846424,9.339987673747707,0.009857489415908,0.18535976546401411,0.014549614102131802,12.566637162339365,15.407709995878761,-8.557407459443258,-0.982193178743659,0.1418668081092503,-0.05761075162946312,0.10841478509482597
312.0,-0.0280621183170357,-0.020235547562848906,0.028475328762504217,2.6590635794837203,1.3989588250721212,9.32610981229628,0.021062577273238178,-0.31508701434940617,-0.11964051552957926,12.65863540144618,15.734816979506201,-8.525007493162489,-0.981760094957851,0.14469274462298154,-0.05680536160889438,0.10916460543066953
313.0,-0.04135287175452399,-0.006607789142407555,0.029014162077104645,2.6216900078678207,1.4262321007081034,9.332741542092844,0.25441089693154995,0.3152291502753737,-0.05912421321793863,12.53557730133753,15.50817269866247,-8.684330743509047,-0.9820571728729348,0.14281242559874116,-0.05857253651258851,0.10811527257631787
314.0,-0.03195814132104454,0.000323732718894007,0.02553533026113672,2.630551459293396,1.437404761904761,9.329788402457755,-0.056225998463901666,-0.2870823732718894,-0.06966925883256528,12.633472542242703,15.558429339477726,-8.758426939324117,-0.9818639523590631,0.14340463564976957,-0.05900521067396311,0.10896460003417818
315.0,-0.03972503840245775,-0.009487327188940093,0.03496121351766514,2.7939128264208914,1.4404362519201221,9.280140168970815,-0.14474606374807986,-1.9767569124423963,-0.3001320084485407,12.894710061443933,16.56404329877112,-8.826668106758833,-0.9803078718287251,0.15223845267165897,-0.05793088594585253,0.11104818192434715
316.0,-0.04293352628226743,0.0030666235809823543,0.030749587876063102,2.9848154808737033,1.432521233749203,9.220507043572741,-0.11000395732643961,-0.36032107030459704,-0.11803475422427034,13.246024877299465,17.727526542186503,-8.827102124779888,-0.978446472455275,0.16235183323935032,-0.05596372802396875,0.11388620824590687
317.0,-0.030954666366940168,-0.004688462403057208,0.0298385036154509,2.9539158049529806,1.422216262035891,9.233189005657337,-0.03458867221160691,0.34340297291221755,0.08448060675883258,13.245240261230379,17.532740085609383,-8.753999651099623,-0.9787873809655409,0.16061364027290098,-0.05564577743537148,0.11393175207456632
318.0,-0.022285358360496048,-0.014907665505226481,0.02791315424674984,2.942758944962722,1.4056076392791574,9.239769266794053,-0.06340714098385224,0.031804259862875106,0.06216187104267357,13.245468158742646,17.462513581357015,-8.644398158555319,-0.9789681774869992,0.1599149739523435,-0.054844326481847824,0.11393094431098498
319.0,-0.025855428796223445,-0.0036980723839496452,0.029337529504327307,2.9184862313139255,1.3952201022816677,9.249227183320219,-0.1837677025963808,-0.09067909126671912,-0.08915715971675844,13.258409962627852,17.31258359559402,-8.572683910306845,-0.9791952210737609,0.15860271056372938,-0.05441808294138475,0.11408096649036194
320.0,-0.03758497246262785,-0.004377261998426434,0.030604248623131398,2.8200979543666405,1.3822269866247048,9.281101494885917,-0.029686270653029118,0.18192859952793078,-0.0010301927616050352,13.211639457120377,16.713449055861524,-8.46406372934697,-0.9800604241860738,0.1533136685963808,-0.054358906559402065,0.11377310393469711
321.0,-0.020387293469708887,-0.010936860739575139,0.024683713611329667,2.817603658536585,1.3668452006294258,9.285081825334377,-0.048266620771046424,0.0345667781274587,-0.016039289929189612,13.237851593233675,16.699171420141617,-8.367166601101495,-0.9801382711441777,0.15308377956569627,-0.05353165862273801,0.11399653340165225
322.0,-0.014163257277734063,-0.006899291896144768,0.02622501966955154,2.8715059008654595,1.3636030684500395,9.269209677419354,0.05310287175452398,-0.29767161683713605,-0.09577842250196696,13.296993017309205,17.029691188040914,-8.362310680566482,-0.9796624444201413,0.15591895003973247,-0.052986314757277726,0.11447193729386308
323.0,-0.031389260424862314,-0.006836742722265933,0.03396616837136114,2.9306113296616836,1.358532454760032,9.2510564516129,-0.11858526750590087,0.08326489968528716,-0.02490042289535799,13.423476839103067,17.388812942564908,-8.345469856412274,-0.979073355616837,0.15901473910326513,-0.05222910324803304,0.115519236872738
324.0,-0.03486093627065303,-0.010463021243115659,0.028953776553894577,2.897773603461841,1.349141620771047,9.262943351691579,-0.03861747639653816,0.26652365263571987,0.030694335169158142,13.389377212824547,17.18939442368214,-8.281724527930763,-0.9794103408682138,0.15723714295574348,-0.05199088134716759,0.11526687730605822
325.0,-0.03224586939417781,-0.008415814319433518,0.02780409126671912,2.856833792289536,1.34733575924469,9.276266915814315,-0.1604088808025177,-0.6754106018882768,-0.08332267899291897,13.268360297010227,16.933615263571987,-8.261536191974823,-0.9798694475228167,0.15501209819630213,-0.052303058320023604,0.1142659535222266
326.0,-0.028953579858379222,-0.004064665992282042,0.029079464988198273,2.8986620958375475,1.3449207598066768,9.263793788168291,0.012277078415945455,-0.10843542767224909,-0.04504795623993107,13.270322861638753,17.188197800756807,-8.256699355588026,-0.9795508675160164,0.15718857725675323,-0.05195143409875988,0.11422986515454647
327.0,-0.015601888276947284,-0.003995354239256677,0.028190401258851305,2.888225619122551,1.3573384286838264,9.265028286688391,0.020226855494361397,0.23207260874452068,0.14451968828444045,13.307294593683263,17.120579034131353,-8.330921471657113,-0.9795625618972684,0.15671436660634672,-0.05260202806039488,0.1145206336000899
328.0,-0.02339889850511408,-0.007544490652279794,0.025137686860739583,2.8663905436289383,1.3613993480948636,9.271880783784791,0.031995803829006034,-0.11454001348769247,-0.06773818890262635,13.296005676070585,16.990216739725,-8.351239650069312,-0.979731489382938,0.15562183289011278,-0.052933038821700196,0.11445714940429358
329.0,-0.028634146341463412,-0.00923329961410213,0.02650196695515343,2.8765241467161218,1.3506800044958973,9.270353452474613,-0.11433254655127198,-0.04401764639766213,0.03990155857779776,13.32861357761043,17.052464782136298,-8.288891854932373,-0.9796590433791165,0.15608812966692892,-0.05229231910007118,0.11474738991929864
330.0,-0.01936821400472069,-0.014836948784234388,0.02591030684500394,2.8342730883069196,1.3398246599977521,9.284704657000486,-0.0520276029373197,0.23204802180510284,0.048176585740511785,13.229585112959423,16.794082509085456,-8.208150687497657,-0.9801335038807462,0.15373231668240234,-0.05210177987261623,0.11394917882668316
331.0,-0.025409913453973247,-0.005479150275373723,0.028729346970889073,2.9199606608969306,1.3352210857592453,9.257765538945709,-0.09016030684500394,-1.0185238001573564,-0.10482395751376869,13.369271243115657,17.320087529504328,-8.207253147128245,-0.9792944499795436,0.15832170881431948,-0.05120249358300551,0.11505977865066877
332.0,-0.020092840283241542,0.002862313139260424,0.02575727773406767,2.991510621557828,1.322783634933124,9.23625491738788,-0.10303156963021243,-0.4644153225806452,-0.02135867427222659,13.489857887490164,17.762497541306054,-8.150612214791503,-0.9786353731447678,0.1620853503827695,-0.04997043306215578,0.11601131787372146
333.0,-0.03722974036191974,0.0042517702596380795,0.03215086546026752,3.022486231313926,1.3181463414634154,9.227706530291112,0.0580927911093627,-0.27400545830055073,-0.046453333988985046,13.519515883162864,17.95191163453973,-8.127553353658536,-0.9783794511632571,0.16366878965637294,-0.04951145693233673,0.11622697916109365
334.0,-0.03997049567269866,0.0072128245476003145,0.03274822974036193,3.086472856018883,1.3227789142407553,9.205564909520065,-0.0023013375295043367,-0.3461300157356412,-0.028717545239968525,13.551339988198269,18.349068154996065,-8.165551239181747,-0.9777832438548386,0.1671059712498033,-0.04931240666247049,0.1164123221534225
335.0,-0.025602871754524,0.0019148308418568054,0.02956058221872542,3.1031026750590085,1.3199771833202198,9.200685680566483,0.034229937057435086,-0.03230477970102286,0.08634933123524785,13.526899341070024,18.449071843036975,-8.158552566876475,-0.9776840111249014,0.1679403312543273,-0.04914462666325728,0.11620187699724627
336.0,-0.03029574935947871,0.004205450987512354,0.035711432548568664,3.0921235046097353,1.3239137364078348,9.203937339869679,-0.07360825314208477,-0.03964675502834434,-0.01234642619379047,13.51673298835966,18.376942998648346,-8.181797090923762,-0.9777894025433234,0.16732314243620006,-0.04943282754544171,0.11610870329742379
337.0,-0.031173838487764532,-0.005296173011357907,0.02948592870544091,3.0210082511246945,1.340147269462769,9.225447033428152,0.04402297807097179,0.2067305170570316,-0.1363364703746293,13.485751427303356,17.939774607113314,-8.257775020678245,-0.9783541507169803,0.1636881216146382,-0.050704760691682296,0.11589675895240975
338.0,-0.02439887833121508,0.004753172345619238,0.030387338860981664,3.0130997195828035,1.3449910226149406,9.2276110068793,0.058085446549254585,0.11134126167564405,-0.09594655934152393,13.563986059835784,17.893239978615668,-8.284326141338337,-0.9783222050146663,0.16334871327309408,-0.05087826262672234,0.11662129720397829
339.0,-0.02248268070770038,0.00235219592890718,0.02691672214488895,3.0009015513728334,1.347595432629265,9.23080392987553,-0.054528283806411254,0.054121653654501806,0.10857668099013495,13.546086263592164,17.817666409449455,-8.298545840142022,-0.9784328319919909,0.16270246496699553,-0.05110896704664204,0.1165414000953015
340.0,-0.018286186931348224,-0.007664185277088506,0.02464640198511167,2.979716708023158,1.344159636062863,9.238385442514478,0.0006617038875103461,0.12727719189412737,0.11321339950372208,13.49577129859388,17.685667390405293,-8.275871071133167,-0.9786759479259719,0.16154166548428453,-0.051224738107113296,0.11602989307361461
341.0,-0.02305743509047994,-0.009726199842643592,0.025374704956726998,2.950319630212431,1.341644767899293,9.248521636506688,-0.03768686073957513,0.10717323957513768,0.1096085759244689,13.460803501180173,17.51006712234461,-8.256578235641229,-0.978971235494689,0.15997541065676632,-0.051284089904996055,0.11571860478520851
342.0,-0.028141030684500395,-0.01067977970102282,0.030691581431943366,2.952373328088119,1.3501477183320225,9.245674665617626,0.0880495180959874,-0.01648800157356413,-0.032430173092053496,13.462174223052713,17.521964742328876,-8.309489329268292,-0.9789125585178992,0.16016383911073956,-0.051667272838906375,0.11580361040381587
343.0,-0.027058418568056644,-0.012541502753737218,0.028644177812745877,2.9091140833988973,1.3582230527143984,9.258619590873327,-0.048339152242328876,0.3544576121164438,0.007272816679779703,13.459489329268292,17.257680959874115,-8.35063680173092,-0.979235204327498,0.157918159027144,-0.05233837416542092,0.11580516905271437
344.0,-0.03241227380015736,-0.012468332022029897,0.024261605035405198,2.912726396538159,1.3578615263571996,9.2574307631786,-0.056200826121164435,-0.2709062745869394,-0.06980109166011014,13.661523898505115,17.2760683025177,-8.346134933123524,-0.9789976817322972,0.15820943931195908,-0.052010241288355616,0.11753260334893781
345.0,-0.024288749016522428,-0.009984264358772622,0.026874114870180963,2.947136900078678,1.3423847364280102,9.247887490165224,-0.20918076317859952,-1.3425059008654603,0.0017112509834775816,13.535198662470496,17.496061172305268,-8.259515145554682,-0.9788644865696301,0.15992823907317075,-0.05115967208654601,0.11640944788276945
346.0,-0.043950039339103075,-0.003262785208497248,0.03171793863099921,2.9765708103855224,1.3495991345397327,9.235668371361134,0.08217201022816681,0.9838955546813533,0.12183811959087332,13.678432336742722,17.667154307631783,-8.31223691974823,-0.9784155846309992,0.16148861935955944,-0.051152788454760026,0.11760655403579856
347.0,0.09789909520062942,0.011020062942564903,0.021956530291109364,3.003371951219511,1.3047208890637294,9.234010424862312,-0.47924739378442166,-0.3314196498819827,-0.6246631589299764,14.165730723839495,17.840313975216368,-8.035421174272226,-0.9778308582281667,0.16288233499842644,-0.04794702753186467,0.12176533858359558
348.0,0.02368745082612116,-0.028852871754523984,0.035062942564909494,2.9151335562549177,1.3290418961447679,9.252646341463414,2.025320859559402,5.6358526750590086,1.4232530979543667,14.263308910306844,17.281119689221086,-8.162241837136113,-0.9781838489850512,0.15816361470889062,-0.04950641467722265,0.12264419299744296
349.0,0.0284199542917088,-0.0028043160615937885,0.04252379079090328,2.584437937881683,1.4570076992244576,9.323738301300061,0.022960688996291,-1.953775851410588,-0.9160316211457045,13.690859044247123,15.297628296991494,-8.864413449290023,-0.9805623141883784,0.14171009734753287,-0.058582549761230375,0.1180244587999888
350.0,0.007267814775993645,-0.0030767230135059854,0.0307523167812859,2.587634591139074,1.5249799808401576,9.319582176467462,-0.16743538290931614,-1.4899075678109421,-0.7120337739051488,14.941216235570216,15.309124996024703,-9.280091904781509,-0.979097318048208,0.14302974356251913,-0.06066049441449256,0.12869372838294132
351.0,-0.006687689779587757,0.0028192309401392176,0.024106980577897084,2.624445344350025,1.5422514971077268,9.310631174779758,-0.08321980593144801,-1.2624928771391455,-0.4896665722397498,15.386349905747343,15.527591240144531,-9.395042633153933,-0.978412848441492,0.14531191871772692,-0.0608359152589772,0.132452140064307
352.0,-0.014122759130549192,0.0020272393882442745,0.02531470193332305,2.7231510750074284,1.5288519483965068,9.285882070474067,-0.14426037503496084,-1.1514814897104066,-0.38933072907817545,15.814634433597512,16.124166391118685,-9.341551607686327,-0.9773052648737752,0.15058510408348974,-0.058973382995342265,0.13603468129493873
353.0,-0.02496863762979073,0.004029748726380201,0.02595573806343572,2.8735069891166174,1.512526780649866,9.243082164269293,-0.35975619558199656,-1.5751359061455261,-0.5336018564745716,16.218884757121337,17.045450131043214,-9.286224392552842,-0.9757446325497908,0.15855385730384164,-0.056605177227509844,0.13930652590553386
354.0,-0.018144841088320866,-0.0020842039778237245,0.025864197756756267,3.100712787953086,1.4931366622143336,9.171501143578578,-0.29730321299837154,-1.2589821235796754,-0.35861160412054227,16.87812997456681,18.44064461237261,-9.238623909026035,-0.9731065759477063,0.17066537405284246,-0.05304394421206522,0.14464363874539365
355.0,-0.011944138473642806,-0.008985837922895357,0.02784657749803305,3.2402431156569627,1.4824287962234455,9.125992132179388,-0.1114329268292683,-0.6074449252557041,-0.07463119590873327,17.119635129819038,19.298623131392603,-9.21772718332022,-0.9716365985184894,0.17803026366483088,-0.05114713984421716,0.14652737757749804
356.0,-0.009876081825334386,-0.010695121951219513,0.028987018095987412,3.3255416994492517,1.4676471282454755,9.09829819040126,-0.17768735247836348,-0.7351347364280094,-0.4372910110149489,17.37565155389457,19.827360346184108,-9.156862214791502,-0.9706035702608182,0.1825536502509835,-0.049377909900078676,0.14857131794531864
357.0,-0.01629917387883557,-0.017086349331235255,0.03144472856018883,3.2551705350118016,1.4565104248623126,9.126021636506689,-0.07883679189614476,0.28364230920535016,0.15632990755310774,17.40227306254917,19.386855822187258,-9.061957857985838,-0.9712871816843036,0.17869705740715974,-0.04928288175177026,0.14891035720239965
358.0,-0.01479071597167585,-0.01853914240755311,0.03192800944138474,3.2502667191188044,1.4368398898505106,9.131744689221089,-0.17054238788355625,0.43753688040912664,0.10722241345397322,17.35998229740362,19.359909765932336,-8.948695662863887,-0.9714770606365064,0.17827945842938633,-0.04843981124685287,0.14857181766168367
359.0,-0.021962627852084974,-0.024007081038552324,0.03177576711250984,3.0915476003147133,1.439711447678993,9.184460464201416,0.1310102773406766,0.9982051534225019,0.2059869197482297,17.110596970889063,18.3766215086546,-8.9057939122738,-0.9731606429590872,0.16976199179051932,-0.05008203337883556,0.14667483679169946
360.0,-0.029071943726349702,-0.023673663407140985,0.029298405829680418,2.916414737177326,1.430316361320295,9.24221275898243,0.1981628287625042,2.2485673424562584,0.4970506795361732,16.79127438790229,17.304928217844967,-8.79358075990034,-0.975046455487224,0.1603211859880016,-0.05131753668173729,0.14415181500664082
361.0,-0.025499681540594208,-0.0161634446067963,0.025395170656775694,2.8367275298789854,1.4261259225956309,9.268110411749282,-0.07291959368326403,-0.7641991916750963,0.060344896219699545,16.501710782660822,16.824817939567644,-8.741825662208235,-0.97604859352587,0.15603369103029113,-0.05204926248199768,0.14177724348315912
362.0,-0.025549211344648007,0.00041316361320295307,0.026606318609269042,2.941756369188116,1.407396556891836,9.238102412798327,-0.1318177826795549,-0.6204650561050542,-0.06606083277134613,16.680851457420104,17.45953721525982,-8.655983641489641,-0.9750669746283951,0.16144146906038553,-0.05008808003958263,0.14319899321836946
363.0,-0.021710089543291743,-0.0002571278708178781,0.027105578659473235,2.9647128620134127,1.3876418268330148,9.235639916076579,-0.06885748004945488,0.09422815743134388,0.18166212393690756,16.692945890000374,17.598493406017006,-8.53852609493837,-0.9749819514674235,0.16248493098583788,-0.04891471743108163,0.14328248229466858
364.0,-0.01631137836723989,0.00033563748079877163,0.026263253531152823,2.926986643437863,1.373478663219812,9.250644505638604,-0.027667331684837593,0.017068838747143232,0.06417881963957887,16.560477665692552,17.36336944101008,-8.437708169420404,-0.9755353356865049,0.16030882826239182,-0.04864961048580045,0.1422097194124798
365.0,-0.027071203776553893,0.002862903225806452,0.02611703383162864,2.8392275767112514,1.3739874114870179,9.277623328088117,0.008602970102281664,0.14014924272226598,0.0664548092053501,16.42139186664044,16.830052616050352,-8.41646833202203,-0.9763951312311172,0.1556818293247443,-0.04949772420987411,0.14112619992820613
366.0,-0.01254366640440598,0.011637096774193553,0.016191581431943353,2.7741823367427214,1.3751388670338311,9.296114083398898,0.15656963021243114,0.8545252261998426,0.19756712234461055,16.34287839299764,16.434935582218724,-8.40818376278521,-0.9769786146679781,0.15224505913414632,-0.050126959826711254,0.1405181750649095
367.0,-0.015937347795136936,0.012569124423963136,0.020793179348844185,2.6860882881870296,1.385387789891724,9.320333155370722,0.015206378086246308,0.10075891686336214,0.07838825587276611,16.134259617005732,15.899116216608594,-8.448915950133003,-0.9778548270751566,0.14766893111968454,-0.051544080125145164,0.13886161023253157
368.0,-0.02291448428309168,0.012854782510958751,0.02241163688134578,2.6714094076655046,1.3948223371173796,9.323880090667267,-0.00397172736128283,0.3356666338840808,0.04505381027312578,16.075917795324266,15.808242829980141,-8.49754634052677,-0.9780200543625195,0.14691149812337492,-0.05219514291259225,0.13835367903306356
369.0,-0.029852993518414445,0.009911262223221312,0.025760499793938033,2.6937212262560415,1.3954442134052671,9.317929817166839,-0.033855454553969495,-0.63761514883294,-0.052591112172642465,16.113086749747104,15.947851745438538,-8.511617387415233,-0.9778028541985689,0.14814549716790304,-0.051996152275336244,0.13867430608301487
370.0,-0.029927381889026265,0.006897212543554007,0.024545867520887193,2.7894327020343948,1.3894231295193138,9.290265360983103,-0.15229911299689033,-0.6645189975085235,-0.08991303248285938,16.23677486090817,16.526940846165374,-8.511279902401558,-0.9769497233835092,0.15313089217620174,-0.050958239675236966,0.13958822370997714
