time,linaccel_x,linaccel_y,linaccel_z,gravity_x,gravity_y,gravity_z,gyro_x,gyro_y,gyro_z,euler_x,euler_y,euler_z,quaternion_w,quaternion_y,quaternion_x,quaternion_z
0.0,0.08073170731707319,0.040731707317073186,-0.027317073170731714,0.5365853658536586,0.4702439024390246,9.774634146341455,-0.3673780487804878,1.4146341463414633,0.5426829268292683,104.4435975609756,3.1341463414634148,-2.7469512195121952,-0.6119905787804877,0.03612090414634145,0.006977360487804879,0.7900048226829266
1.0,0.0483391405342625,0.05548199767711962,-0.025613627564847072,0.6548935346496323,0.4202400309717383,9.768528842431278,-0.7067847464188927,-1.5492886178861787,-1.2943041037553231,105.0020325203252,3.8343979868370113,-2.4533488192024775,-0.6080127791173054,0.03770994360433604,0.013615352861014325,0.7928556115292297
2.0,0.11451468392234945,0.056251866600298656,-0.0303500912560146,0.5957906089264975,0.5795453791272607,9.759195287871242,0.4767089762734361,2.0372386759581884,0.2571449311431888,105.30139372822299,3.48042143686743,-3.3894143023062884,-0.6057798401095071,0.042147494715447154,0.006248574222664676,0.7942064666832587
3.0,0.11320086959111351,0.04019958902885733,-0.026060811816909384,0.3810099764733912,0.5235827153875936,9.641060365109144,-0.28693752047410587,1.328489159891599,-0.23640928854343485,105.30389826975193,2.2395812859227493,-3.0988206915036183,-0.6060287560169153,0.03365287202960183,-0.0007849199952351163,0.7945287569991959
4.0,0.11051654980215171,0.031967543078479356,-0.02241652184689164,0.26190805313228605,0.49592712034883557,9.717932434730233,-0.17351815506811574,0.679107658012064,-0.14826255897262977,105.35269271117028,1.5352812673819756,-2.917977753953364,-0.6057712251694749,0.028690717046581535,-0.004686913158984734,0.79498367467703
5.0,0.11986185778553994,0.028031523158195078,-0.01672299795667223,0.2093796554874446,0.48295962626411093,9.754214053714449,-0.14865827360418232,0.2497396306159091,-0.16063443670150987,105.3788689755694,1.2150220615995595,-2.8340380508555176,-0.6055463013140843,0.026414457058564836,-0.006373552435168291,0.7952841001984676
6.0,0.12328346345498194,0.025518065726562983,-0.01918791986927314,0.17162454356553491,0.47962113417660235,9.772502572172126,0.02690454215336198,0.6100512669208578,-0.014788224495148175,105.3800594877847,0.9972767758074603,-2.8088489025398937,-0.6056206435717888,0.025102727378744784,-0.007810338879642516,0.7952936738741958
7.0,0.13993834856462709,0.021913242147309817,-0.01962149730678448,0.10398300349008455,0.452989166616232,9.781861042183628,-0.32956012074078556,0.3405045870402873,-0.9461234592184631,105.75275102634711,0.5986334705158466,-2.6429177636224255,-0.603081104787468,0.02194002110085941,-0.009681707874124958,0.7972842950291514
8.0,0.11706512134600253,0.03569607516794772,-0.013450947164558497,0.10668380943734995,0.4205169158143196,9.790000000000003,-0.25743928286832496,0.34673078814379954,-0.07196061298392137,106.29401922698662,0.6218353456797594,-2.452191925649095,-0.5993480668867033,0.020751396273341202,-0.00845010639777381,0.8001410729173882
9.0,0.11511320583429158,0.03294077951945774,-0.020225473582279246,0.06704754987996529,0.3931294256490953,9.79103225806452,-0.16634564949867858,0.28916680536222233,-0.4171799032661543,106.57284126671911,0.39357896316246044,-2.288217938630999,-0.5974371925723839,0.018423428963283507,-0.009204020557757875,0.801631460974823
10.0,0.1166583398898505,0.028718528717545242,-0.003475019669551534,0.07441542092840281,0.429887293469709,9.790516129032262,0.21975314712824545,0.02812868804091266,-0.7513215479937057,107.36585611723052,0.4384871656176239,-2.5078186467348544,-0.5918312703829661,0.02027441937411487,-0.00986564414653816,0.805704055777734
11.0,0.1039461054287962,0.03616168371361133,-0.015322187254130606,0.1064980330448466,0.43439929189614485,9.790258064516133,-0.12187745869394176,-0.3124729543666404,0.25001966955153426,107.54618410700236,0.6283413650668765,-2.5334456136900076,-0.5905501764858379,0.02145064204996066,-0.008636966682140049,0.8066368716549961
12.0,0.09731451612903226,0.03866935483870968,-0.017911290322580646,0.13304838709677422,0.4215403225806452,9.790129032258069,-0.02752016129032258,0.08946572580645162,0.21653225806451615,107.13911290322581,0.7787802419354839,-2.4598286290322577,-0.593435865282258,0.021684363249999998,-0.007241279693548387,0.8045276757661288
13.0,0.0862258064516129,0.05338709677419355,-0.019540322580645166,0.22665322580645156,0.42872580645161285,9.788387096774189,-0.06441532258064515,-0.48533266129032254,-0.29586693548387094,107.19395161290322,1.3279233870967742,-2.502016129032258,-0.5930558233467742,0.024822062588709677,-0.003594921112903226,0.8047429231048387
14.0,0.09870967741935484,0.05420967741935484,-0.020822580645161296,0.3183709677419355,0.4379596774193547,9.783999999999992,-0.06809475806451612,-0.07132056451612903,-0.36985887096774195,107.43155241935484,1.8593245967741934,-2.559979838709677,-0.5913546652419355,0.028003174782258066,-8.933740322580657e-05,0.8059051989274194
15.0,0.10295889063729348,0.04219354838709678,-0.02471203776553895,0.33846774193548396,0.4463532651455548,9.783223446105424,-0.09144128638867033,0.310294551534225,-0.22926214594807237,107.6304312549174,1.9743373819826908,-2.6081358182533436,-0.5898925591937451,0.028961185761998423,0.0005093531026750589,0.806951813402439
16.0,0.08908831628638869,0.06659677419354837,-0.025597954366640446,0.4908629032258065,0.4267895357985838,9.777063335955933,-0.15388596577498032,-0.14555836939417782,-0.646309500393391,108.00629425649095,2.868292682926829,-2.4949449252557043,-0.5871450021573565,0.03268526364712824,0.0075744649545633385,0.8087185065238001
17.0,0.08111270653029112,0.047870967741935486,-0.025629622344610546,0.5198145161290324,0.4529834775767113,9.775144571203771,-0.1994480232100708,-0.5805664830841857,-0.27028176632572776,108.50455841856805,3.0404467446892207,-2.6516559303697873,-0.5836222456351298,0.034610330920338314,0.008129096005507475,0.8112027221127067
18.0,0.09045593083811021,0.058484254992319504,-0.030421762017159352,0.5871355606758832,0.43490610130755686,9.773039451500498,-0.12645332228091866,0.05175064862687795,-0.05837677025963807,108.59412108716421,3.4306532398561314,-2.549134656813158,-0.5829399317267432,0.03589904757825671,0.011424599389466491,0.8116013470315837
19.0,0.08459490090292607,0.061399385560675895,-0.02827136487954742,0.5532089093701995,0.43944095387958476,9.77548746768573,-0.12416416114045933,0.051051735603761556,-0.0767186270653029,108.65847687422726,3.234328636057098,-2.5720975703420628,-0.58253752080692,0.03505499543025738,0.009935588368120338,0.811965568435147
20.0,0.09154607358285563,0.05828820576224197,-0.025905942077853968,0.578370780412873,0.43947657450076794,9.772539170506906,-0.1628639452437151,-0.03473672071110113,-0.1174800845790716,108.71896601382488,3.3797036571316172,-2.565749807987711,-0.5821696853837903,0.03570416060261887,0.011027945891377245,0.8122056021758737
21.0,0.1004222303398149,0.05350700610692745,-0.019106196845378603,0.55932248698063,0.4325084485407066,9.774471198156675,-0.21734427100895434,0.3665278089992881,-0.0798337922895358,108.72546082949309,3.2645242075980665,-2.519366839477726,-0.5820981793572176,0.034838066091632015,0.010432470490043463,0.8123050545113237
22.0,0.10869115057510022,0.052210033344573095,-0.02563276010640292,0.5268066014761529,0.41400520774793004,9.777336405529944,-0.17016960304971715,0.15482910906298,-0.08254327301337529,108.7670650921659,3.07727956052602,-2.4128668137199805,-0.5817941212291596,0.033136760447566596,0.009635239070061068,0.812598104110599
23.0,0.11300609756097561,0.048475216365066895,-0.02373957513768687,0.5281160503540517,0.40698033044846593,9.778806451612894,-0.13339029307631786,0.19788306451612903,-0.08361034618410701,108.79259072580645,3.075592545239968,-2.3927333300550746,-0.5815611460946103,0.03292774331825335,0.00982412805192762,0.8127662527096775
24.0,0.11850400884193175,0.04925757746056725,-0.02201878910494175,0.503608332396688,0.4067128994792253,9.779435483870959,-0.08933219530928029,0.30612519201228877,-0.03471511932861263,108.82604166666667,2.936161768011689,-2.391065925780225,-0.5814231126285265,0.03220338402663819,0.008834083651155821,0.812910857158218
25.0,0.10763516728485259,0.05711108613390283,-0.023342203364429968,0.4993808774493275,0.42990247649020286,9.779879032258055,-0.011572077198306545,0.2600403694129107,0.07801517833726723,108.78408692302649,2.917874353714735,-2.522416322449515,-0.5816607179940427,0.033038443626222325,0.007986781876718745,0.8127146742478735
26.0,0.09723290622307146,0.05265231726049982,-0.02269126297253756,0.4724162451762767,0.4348060769547787,9.77999999999999,-0.08610357892173391,0.5328427653516166,0.007102347233149751,108.69816745344872,2.7594916123412387,-2.5479773144505637,-0.5822818684970212,0.03245449185343374,0.006701702914165823,0.8123003883174849
27.0,0.097203392529317,0.04306416020381404,-0.0205077085909108,0.46369828781237143,0.4454345097598442,9.77999999999999,-0.08214010574725561,0.18554018676707504,-0.033073531340152104,108.6908175976921,2.707199582724514,-2.607510490427485,-0.5823909723500056,0.03259745091176801,0.006034343148664344,0.8122361509683408
28.0,0.10478314787756174,0.04492724139222961,-0.02344337042448766,0.45938140197070193,0.45238660971863187,9.77999999999999,-0.0887263028736278,0.07981646435127945,-0.08059926567007605,108.6871426698138,2.6827076542654824,-2.6525455677943874,-0.5824423331104868,0.03270989677846464,0.005687139332396689,0.8122041397422346
29.0,0.12047836349331234,0.038423682140047224,-0.02493981117230528,0.47936428009441395,0.456651062155783,9.77999999999999,-0.07665961841070024,0.0003392997639653922,-0.06627409520062942,108.68463316286389,2.7993607395751376,-2.6771464398111724,-0.5823884610460267,0.03350041734775767,0.006383669706136901,0.8121994389417777
30.0,0.11351612903225808,0.030943548387096786,-0.023169354838709688,0.49293548387096797,0.4636048387096775,9.77999999999999,-0.15942540322580645,0.12993951612903226,-0.07232862903225806,108.68518145161289,2.884072580645161,-2.715171370967742,-0.5822954260564516,0.03423683256451612,0.00669944504032258,0.8122345441129026
31.0,0.10831144393241168,0.03238940092165899,-0.017869815668202768,0.5098329493087557,0.4246562980030722,9.77999999999999,-0.5594014016897081,-0.0593509984639017,-0.38075316820276495,108.9217549923195,2.9796754992319507,-2.485867895545315,-0.58068708515745,0.03306608768701996,0.008630408793778802,0.813404509784946
32.0,0.11054436960888572,0.02702762022923314,-0.018558046791917762,0.5535294812714167,0.38101477017606045,9.77999999999999,-0.26187282139903106,-0.09410245332624366,-0.07835670713694906,109.09412294694553,3.23514895722557,-2.2323492703533026,-0.5794603925516366,0.03255703977082594,0.01178576852581827,0.8142495680851944
33.0,0.10919960415928158,0.029275906888810127,-0.018662087912087916,0.5913211922486117,0.36377351412028813,9.778064516129024,-0.16327008005435426,-0.005644976663121838,-0.09923379711686162,109.14887598960179,3.4559313334514945,-2.133311731950845,-0.5790693249854961,0.03294764021605814,0.013903502722586556,0.8144822766232427
34.0,0.1210554472409311,0.026242792154082487,-0.021810882665721378,0.619745273543661,0.3499633699633698,9.77554838709677,-0.20156951583362875,-0.13324083510575446,-0.0963910921068179,109.17625251092991,3.6180866344676827,-2.0554915514592933,-0.5788636997629093,0.0332868150273839,0.01547422871209973,0.8145871876906536
35.0,0.13920111071723978,0.01968994446413802,-0.024752215526409084,0.6495782819331208,0.34288491078813643,9.772612903225802,-0.17041681436842726,-0.05706900626255464,-0.08899695734373153,109.189940771594,3.7958628736854543,-2.015649001536098,-0.5787437564056481,0.03391155598546615,0.016960240218953086,0.8146182580388752
36.0,0.1396999334261333,0.015082692812039788,-0.022868970525933553,0.6511873650870503,0.3256979160362323,9.773536978756878,-0.23142576509511992,0.306967749500696,-0.1005742626439912,109.18946443341605,3.8037136995904697,-1.9091143784421716,-0.578758993680607,0.03318271636849644,0.01751856908722185,0.8146334305608751
37.0,0.1298450039339103,0.00705664830841857,-0.026092053501180178,0.670354642014162,0.3173485444531865,9.771607199055858,-0.2283266129032258,0.10638399881982691,-0.1279442859952793,109.1875,3.9193609854445324,-1.8577829956726988,-0.5787767573076321,0.03341677184264359,0.018549374040715966,0.814587947676633
38.0,0.13595476003147128,0.0005605822187254137,-0.02809441384736429,0.6741490952006295,0.3130291109362707,9.770702793076314,-0.14616935483870966,0.18335833005507474,-0.14912839299763964,109.1875,3.9452399685287176,-1.8312352478363492,-0.5787771222989775,0.03335685661487019,0.018847854193745083,0.8145861018705747
39.0,0.13624696526919186,0.0069058671462290675,-0.026670094788505495,0.6480472818553069,0.2944408227492413,9.775091603911424,-0.4049419162826421,0.4728991631074144,-0.5776855962684051,109.4217549923195,3.7915019927128997,-1.7205331385111085,-0.5771430432892737,0.03173302964883294,0.01837960969268667,0.8158108375255332
40.0,0.1143289311003709,0.010032988647858827,-0.02409527556105055,0.617920572477614,0.25566258289311006,9.777707092278288,-0.2654805224607546,0.3595459377692855,-0.2206558390468697,109.7601743096924,3.6126551318796603,-1.5062146416395037,-0.5747928381867298,0.02918783223314975,0.018346341638436174,0.8175595097777153
41.0,0.12240600764302571,0.01799682477239519,-0.02281002959799184,0.6254638267580833,0.23636394290210183,9.77894009216589,-0.15673219671424823,0.02746179657937131,-0.08727028773743958,109.91577263871717,3.658938698905998,-1.4012190438724663,-0.5736705439753476,0.028612865529635455,0.01926223932826608,0.8183446314836649
42.0,0.1342392941440935,0.021776638192649213,-0.026034047057060437,0.6450141714435578,0.2295690682252446,9.778082949308747,-0.11518565480873702,-0.0234414807425724,-0.0687359503203327,109.97099115806826,3.772740518807838,-1.3552466187104266,-0.5731362758263834,0.02887205425675321,0.020309638950423363,0.8186874012902196
43.0,0.13630947337477628,0.015729199989624854,-0.02510955868154925,0.6816246415530443,0.22849421153197724,9.774041474654371,-0.02595575647798308,0.01725659110100494,0.048585395394010654,109.9986004177438,3.9854287529936627,-1.35806685774231,-0.5728479289131916,0.029945608240452698,0.021824168176927977,0.8188120347849984
44.0,0.14740195485081403,0.006260969557586395,-0.029519861203574825,0.7143420686316043,0.2275940204563338,9.771870967741929,0.02976885755209909,-0.07790075450382294,0.23597044019447638,109.99564319433517,4.173164364320442,-1.3546813532651456,-0.5728408921250983,0.030887183348524288,0.02318924690608041,0.818747346671095
45.0,0.13743201035785618,0.0004602963257565938,-0.02632993547234304,0.7664488807809029,0.22882361095500378,9.767824884792622,0.09680225688290203,0.14766566373568735,0.1112870353158512,109.9306383706118,4.481018743173296,-1.3366382863137387,-0.5733497820301036,0.032395999901192574,0.025388266087261475,0.8182666752071521
46.0,0.13009100517892808,-0.0031488840951862194,-0.029592387091010232,0.7749421823259353,0.22957309580008267,9.765783410138242,0.14285677360274135,0.5323005738033275,0.1162785983030869,109.88880708853172,4.531512395780196,-1.3302143044471921,-0.5736647291924712,0.03260973746672531,0.02569836199121138,0.818023280776963
47.0,0.12399308323462535,-0.014747829144367303,-0.028130870964859958,0.7129993169694193,0.22611719306133168,9.770488479262667,0.039623951317499705,1.1149406094823089,0.4331897023773499,109.75730677007232,4.164294504341711,-1.3203490877074668,-0.5746601084470422,0.03064736759223362,0.023165967374637948,0.8174708182433201
48.0,0.10671844441946725,-0.025398486381177178,-0.028275223858229365,0.6246531415083736,0.19797205050391525,9.777167921771381,-0.10860308718294555,0.6107243546513806,-0.2650626615713162,109.64969980517778,3.651848703682889,-1.1564865029410663,-0.5755287456830018,0.026940513967292343,0.02029436350413997,0.8170604973386909
49.0,0.11508433554381631,-0.030351822711775514,-0.02145955565546439,0.4416609905960811,0.14028084373009633,9.787347401745908,-0.3648334176314113,1.750094249934435,0.4366153385036154,109.56784847888801,2.5808347148851674,-0.8151442667940505,-0.5762507718741339,0.019127595998857293,0.014342554673092048,0.8168452851005392
50.0,0.11279331984564087,-0.037034590311340904,-0.02029275785845416,0.2654203570491926,0.07120877823985615,9.794249737739317,-0.04217093308605896,1.1690947440148365,0.36522587201678464,109.33518191993556,1.554175037934135,-0.4169519337042449,-0.5779842213249318,0.011059450091594545,0.009069236568496869,0.8158381094250775
51.0,0.11067085347120753,-0.04319874676857369,-0.010009282155033532,0.18195614626653178,0.08208826008767002,9.79770148177289,0.29776533990858345,0.6881007994267732,0.15247180697613424,109.16350829867746,1.0657215915477125,-0.4798721362069611,-0.579246715868111,0.009108944574023076,0.005233274183441983,0.8150393718617324
52.0,0.11471042673560379,-0.041716308868157824,-0.007153834625903863,0.15479258926229814,0.10893525907609307,9.799249934434837,0.054754645760743334,0.2215957626166124,0.1443810647783897,109.10131060095162,0.9054414409351466,-0.6333080439099321,-0.5797084182445392,0.009443708347495413,0.003308894007043572,0.814746445196995
53.0,0.12492012288786482,-0.048041474654377886,-0.0014431643625192013,0.1664615975422427,0.09389170506912442,9.799892473118287,0.23539266513056836,0.45910138248847926,0.2137768817204301,109.01910042242703,0.9733294930875576,-0.5480318740399386,-0.5803159601482334,0.009184230069892474,0.004206490081413211,0.8143246369777266
54.0,0.11064516129032256,-0.05972580645161292,-0.004733870967741936,0.12075000000000002,0.09392741935483873,9.800000000000008,0.15962701612903227,0.7723790322580645,0.09939516129032258,108.9046875,0.7044354838709677,-0.5481854838709677,-0.5811383151693548,0.0077897102016129035,0.0022378740967741936,0.8137581611048388
55.0,0.11959677419354836,-0.05562903225806452,-0.01392741935483871,0.07921774193548389,0.09933064516129034,9.800000000000008,0.18744959677419354,0.46875,0.233820564516129,108.7922379032258,0.4560987903225806,-0.5811995967741935,-0.5819558411612903,0.006801777604838709,0.00033943448387096793,0.8131868418790322
56.0,0.12853599527930762,-0.05498682140047208,-0.007203383162863885,0.10918017309205352,0.09819905586152636,9.800000000000008,-0.06267210857592447,-0.049398849331235256,0.27986944335169156,108.62988419551533,0.6337283634933124,-0.5686270653029111,-0.5831055354685286,0.007662104246066089,0.001643122794649882,0.812351769394571
57.0,0.1187397718332022,-0.058723249409913456,-0.007392014162077109,0.10323524783634934,0.09176888276947286,9.800000000000008,0.21196031667977971,0.5782995672698662,-0.17626991542092835,108.54626770259638,0.5976605527143981,-0.530230871361133,-0.5837111769439418,0.007203047457710464,0.0015810060666797798,0.8119205723343822
58.0,0.11524567269866245,-0.05933654602675058,-0.019484067663257287,0.04742820613690008,0.09970357985837924,9.800000000000008,0.1641202793076318,0.6330509933123525,0.1486636998426436,108.50003933910307,0.27466807631786,-0.5791724036191974,-0.5840254911420141,0.005785999524390243,-0.0011037242840283242,0.811699881303501
59.0,0.11786073957513768,-0.07563198269079466,-0.0030283241542092875,0.026919748229740362,0.0996945318646735,9.800000000000008,0.13427788158929976,0.5965406176239182,0.0909397128245476,108.43530192761605,0.15230379622344611,-0.5815720889063729,-0.5844866927645553,0.005144187947678992,-0.0019994042629819042,0.8113742866073956
60.0,0.10228520849724626,-0.07660228166797797,-0.01611093627065303,0.0009437450826121109,0.09104484657749803,9.800000000000008,0.14670043273013375,0.5768489378442172,0.05812106608969316,108.33388080251771,0.004024881982690812,-0.5327719315499606,-0.5852104224185679,0.003963006627065302,-0.002900036691974823,0.8108591102391816
61.0,0.105455743509048,-0.07523426435877263,-0.006370180959874119,-0.041375491738788364,0.09840833988985051,9.800000000000008,0.09405241935483871,0.5633064516129032,0.05222142997639654,108.14944433516916,-0.24488960464201415,-0.5727343135326515,-0.5864977437183321,0.0029201242199055856,-0.004968673755900864,0.8099243600039339
62.0,0.11491542092840282,-0.06356058221872543,-0.004071203776553897,-0.0331066089693155,0.10054681353265149,9.800000000000008,0.2668961447678993,-0.10845790715971676,0.1429165027537372,108.20779405979543,-0.19143882769472853,-0.5851224429583005,-0.5860615213878833,0.0033048899937057436,-0.004593582605035405,0.8102396290059009
63.0,0.11486998426435878,-0.045268095987411494,-0.006963217938631002,0.03561113296616834,0.09500196695515345,9.800000000000008,0.23707710464201415,-0.22338217938631,0.14296690597954367,108.20519522029898,0.20850953973249414,-0.5462148406766325,-0.5860814160062944,0.0052108470991345385,-0.0014118632324940992,0.8102139253809995
64.0,0.12436270653029113,-0.03249193548387097,-0.012121557828481514,0.08828599527930758,0.09990086546026754,9.800000000000008,0.28052591463414633,-0.09662544256490951,0.3990423387096774,108.12000147521637,0.5142493607395752,-0.5910085562549173,-0.5867285013670336,0.007124910419944924,0.0006313833013375286,0.8097372884146341
65.0,0.14153619197482298,-0.025072580645161296,-0.010625295043273017,0.09457848151062154,0.12203107789142409,9.800000000000008,0.2505704169944925,0.1517628835562549,0.30297379032258065,107.84472856018883,0.5487829464988199,-0.7134478265145554,-0.5885855180786779,0.008251628302714399,0.0002277071103461836,0.8083792738847365
66.0,0.14239299763965385,-0.026838709677419366,-0.011533438237608185,0.1394162077104642,0.12162706530291113,9.800000000000008,0.03430123918174667,-0.11575531077891424,0.17656864673485445,107.69686024783636,0.809630704169945,-0.7182312155782848,-0.5895646993780486,0.009605816865460269,0.002094787538158929,0.8076597583859166
67.0,0.15618469708890637,-0.029697875688434315,-0.0125330448465775,0.18611250983477576,0.1228630999213218,9.800000000000008,0.21146120180959874,-0.021882376081825333,0.16912618017309206,107.60878122541305,1.0872504425649094,-0.723248180566483,-0.5902032617818648,0.011042204597167586,0.0040153305432730135,0.807176436218922
68.0,0.14170180959874115,-0.026356412273800166,-0.014279701022816683,0.2306561762391816,0.13626632572777342,9.800000000000008,0.2047108575924469,0.2190179976396538,0.21505950039339103,107.5114525963808,1.3445097364280094,-0.7987018095987412,-0.5909830035519277,0.0129281513202203,0.005430861446105429,0.8065694080908731
69.0,0.12560228166797796,-0.023017702596380803,-0.01655369787568843,0.21312116443745072,0.22967132179386301,9.79651612903226,1.662563926042486,1.0095532553107789,0.45614796420141623,107.27676288355624,1.2432914535798583,-1.3471872541306058,-0.5925580060332416,0.01624761257671125,0.0018244903115656962,0.8053135541209676
70.0,0.11238140197070172,-0.003943951144580572,-0.012543554006968636,0.2673309355213368,0.3943231800981604,9.787198156682024,1.2186907571840693,0.8984030197444832,0.45446967142482486,106.63115937956616,1.5588349068974559,-2.3123609081712937,-0.5969494122122811,0.024650137955790342,-0.001123258480161852,0.8017772209493088
71.0,0.11398939717507775,0.0006009890974485771,-0.012714960098909742,0.3114703458094488,0.5193924918511856,9.779712749615971,0.30802541118729154,-0.4866979974523247,-0.32657192499344345,106.87025518901501,1.8212913528904875,-3.0401207335806077,-0.5951658502382451,0.031116982137949122,-0.0029595432069611464,0.8028784318264208
72.0,0.12377374090909488,-0.021730135059897383,-0.06531984259130984,-0.11699916921739145,0.5659427465751454,9.751086682384878,0.17922632607193603,6.67261798844746,1.350962454790527,106.32169889434465,-0.7077713134729673,-3.3238354340327243,-0.5985265541671161,0.01939093051648888,-0.02209661174363756,0.7994079700878212
73.0,0.10478222844038537,-0.06311133031515717,0.03645494888530494,0.06454526196880228,0.4891790837517741,9.74658976133406,-0.7892715733920413,-6.231698480205853,-0.923481203761306,106.293422224513,0.4004908184798813,-2.865153358243742,-0.5986403584918979,0.022046656591840033,-0.011962080584643323,0.7992167312712906
74.0,0.10287095292987011,-0.07459195548015922,0.012465377668458925,0.34566376001665905,0.46903712252104834,9.751855364537997,0.6112865923362375,1.0818070098970733,-0.3189230615580724,107.07778470096618,2.0199026673044567,-2.7494113565412257,-0.5932525218870781,0.029805692045920013,0.00011282740525898373,0.8034142277767742
75.0,0.10746260171314609,-0.06030776073809392,0.0018390730086702842,0.303588970413335,0.505177865895045,9.766328379133107,0.22655003907771376,0.559869987096077,0.06939662833826926,107.08512984626819,1.7687370666708488,-2.95093045909561,-0.5934589232506838,0.030126634787618504,-0.0027503576006187944,0.8037577392938607
76.0,0.09566144584926721,-0.06886589940167968,-0.0036567251568989842,0.22444987466378785,0.5244410553857974,9.775919144420241,0.24473084734598283,0.394333339432419,-0.03614017071341005,107.24907004190072,1.3084147942473423,-3.0598171646570176,-0.5924447568583793,0.028597419307375624,-0.006560604102190181,0.8047964738847821
77.0,0.1010483870967742,-0.06608025177025964,-0.007658143194335169,0.2675424862313138,0.5257588512981901,9.778848544453176,0.16622738001573564,-0.42968135326514556,0.10368558221872543,107.27403619197483,1.561710759244689,-3.067982887490165,-0.5923379009822973,0.03001292951691582,-0.004835550408733279,0.8050159350177024
78.0,0.10150688434303698,-0.06326671911880408,-0.013851888276947286,0.34488690007867817,0.529651258851298,9.77949036191974,0.11047895357985837,-0.1079956726986625,0.38716438827694727,106.99585955940205,2.0113284323367426,-3.0959554484657748,-0.5943080505053107,0.03254409337450827,-0.0018791048967348538,0.8035321243027143
79.0,0.10060094010369384,-0.055687950130121656,-0.015867941657084068,0.43173346244628685,0.5097614234703141,9.777713853416444,0.08844615586354374,-0.22492939135346687,0.23508795819968123,106.76605943230649,2.518949343339587,-2.9823178296919446,-0.59589874262414,0.03439971719304404,0.0022140972126127208,0.8022905496653149
80.0,0.09974297876264833,-0.051340846669721586,-0.018852257891597002,0.5058155903891544,0.5018770775513497,9.773683834654719,0.07857103229841231,-0.13879379537326036,0.1462662075663649,106.56102627866494,2.9545006167449124,-2.9333760947942693,-0.5972679487582131,0.03631858683057095,0.0054570253355409335,0.8011761454268653
81.0,0.08076055311067114,-0.04639819674162712,-0.02192180164446097,0.5909770320159775,0.4679330313012453,9.77121091811414,-0.04920287881538865,0.1771412612433462,0.26298361519152236,106.4828685681287,3.45409432882879,-2.734680769663067,-0.5977734266135677,0.03752236305493929,0.009959531198061575,0.8006972445474216
82.0,0.08729451731064633,-0.03715582535743826,-0.015753190358029065,0.5585105459057071,0.4948492851234786,9.772895781637713,0.3288358147229115,0.2852759807396904,-0.06411696502422312,106.3389657553468,3.2615377230296585,-2.8973413683091103,-0.598790752425588,0.03764543004123833,0.0077378968020205595,0.79996470092674
83.0,0.08455933575996519,0.03831105270287016,-0.014931964966583375,0.5001338134721297,0.5305601657718102,9.770925074139075,1.398092179588049,4.766259892415479,2.703315976575221,106.01177548683941,2.9180697073055453,-3.1099216676321317,-0.6010743955984155,0.037132080413616805,0.004021937333543718,0.7981326750916156
84.0,0.11657963358435428,-0.07534547225656588,0.006792626728110604,0.03054563335955937,0.5957808999288149,9.767102675059004,-0.22198318253343818,1.0594038018433185,-2.265053060956877,105.70389960567232,0.1778491579558652,-3.4915132909969655,-0.6030147097039265,0.025018917045558427,-0.01726286878919861,0.7964121346262412
85.0,0.13020535011801732,-0.05063768686073957,0.008399685287175454,0.016779504327301298,0.5605519276160502,9.775978560188829,-0.07659446302124312,-0.40813704760031444,-1.2760621557828482,106.54687622934696,0.09734092250196692,-3.2828899488591663,-0.5973285889132574,0.023510878285995282,-0.016516368895554686,0.8010427610794651
86.0,0.13699783634933127,-0.03637529504327301,-0.003404996066089694,-0.05721911880409128,0.5047033831628638,9.782936860739575,-0.314683320220299,0.20991837136113306,-0.31645849724626285,106.83414880015735,-0.33290715971675844,-2.948602232494099,-0.5954578565332416,0.01901205183654603,-0.01785244352439025,0.8027107464913454
87.0,0.13038889513319096,-0.042789030010115775,-0.007566745344872802,-0.08280963620696113,0.46144385748004946,9.786714398111727,0.04662339365329135,-0.3086208834438574,-0.046290884567831855,106.79818759132291,-0.47791671349893217,-2.697588606646435,-0.5957909718466898,0.016487160121614025,-0.01766132192079727,0.8026494051807725
88.0,0.13826289760593458,-0.047688771496009905,-0.0012892735378966691,-0.05229388183282754,0.4585228728784984,9.788691581431948,0.16571924993443482,0.4574863718107226,-0.14824379004158705,106.72939473979993,-0.3032286163875464,-2.6784805739762465,-0.5963086341884904,0.017323483825559177,-0.016289627530028845,0.8023417903362557
89.0,0.13851382488479264,-0.042896313364055305,-0.015683975872016788,0.02199231950844853,0.4295446779813421,9.790651848937848,0.17845364542355102,-0.15628828537709338,-0.0020575755872766083,107.29201837698099,0.12371023940654152,-2.5078083436364316,-0.5923722945844103,0.01845176181443183,-0.012224204599003408,0.8052714827055
90.0,0.14536196658049533,-0.06415300101157695,-0.009462196995241843,-0.008140065939829915,0.4551623580982355,9.790416404405985,0.0896565087482672,0.29143385176651304,-0.3982682599003409,107.51580729459369,-0.04915022854145591,-2.66139991008205,-0.590783791262832,0.018617310219530933,-0.014274146445281178,0.8064319512459723
91.0,0.14597879435015548,-0.07779251433067326,-0.0019004533363305987,-0.03565490240155859,0.4550631298939718,9.79022029897719,0.23250346558765125,0.5342261904761905,0.15622541306058224,107.48824158892509,-0.2112158592784084,-2.6579945018920235,-0.5909846829307632,0.017744351561762396,-0.015504957991457794,0.8063085124768646
92.0,0.13060844479412537,-0.07510209433891574,-0.006906447866321977,-0.031141583305233977,0.4316099059608109,9.790110149488598,0.057303960136375544,0.094758064516129,0.22917837473305608,107.2589777453074,-0.18495700798021802,-2.5188734030197444,-0.5926130752710651,0.01691937046982129,-0.014551336269154396,0.8051561962077103
93.0,0.11250309092952679,-0.06553969502828669,-0.009299763965381588,-0.07173541643250533,0.4153444981454424,9.790055074744302,0.08290481810348056,0.7334284028324155,0.03056507811621896,107.24296579371324,-0.4227946686148889,-2.4220500355925214,-0.5927357130163726,0.014976197368026679,-0.01577404938143943,0.805085202424038
94.0,0.11518938968191525,-0.06254561462665319,-0.009732494099134539,-0.1374963470832865,0.4129476227942003,9.790000000000006,0.09286369937432093,0.5783094020456334,0.029149572889738115,107.13173565059384,-0.8065242029148401,-2.405458534712075,-0.5935193636010266,0.01283873524577573,-0.018449204073095797,0.8044883261962833
95.0,0.11772526319733244,-0.05947326814281968,0.00047015848038664803,-0.15319287400247275,0.4126327975722153,9.790000000000004,0.2802548143568993,0.5591671818215878,0.05938565434041437,106.93638913866096,-0.89985388333146,-2.40397254692593,-0.5948826165048144,0.01229917644239631,-0.01913396920014237,0.8034757699391555
96.0,0.11172668689820539,-0.05552234835712413,-0.0004907272114195802,-0.18407185942827176,0.4274976583867221,9.790000000000003,0.35227698475141433,0.5492888520475067,0.4521390637293469,106.78110739575138,-1.0808793226181108,-2.4930625023416133,-0.5959700799037129,0.011934544236559139,-0.02087647575598516,0.8026298374150463
97.0,0.1026459855381964,-0.05783106665168034,0.000720842231463789,-0.22047832602749984,0.44019122550672507,9.790000000000003,0.13341575812071482,0.43849331235247835,-0.046496712374957894,106.62005638604772,-1.2885099378067513,-2.566975759619347,-0.5970869646815029,0.011330710943164362,-0.022759065551571686,0.8017637986253418
98.0,0.10556646435127945,-0.05923043347945,-0.004005938331272714,-0.20494730433479447,0.4315088231988309,9.790000000000003,-0.001216468097860704,0.10413528904874304,0.3473113596343337,106.31895676445242,-1.1968903375669702,-2.524607311453299,-0.5991840050519649,0.011406902913978494,-0.021926871569948665,0.8002157765630548
99.0,0.097826505189015,-0.043014115244839085,-0.0054805458768873395,-0.2142714491776254,0.42653725975047774,9.790000000000004,0.20779066445618372,0.4990582031396351,0.4423417537746806,105.96561036491701,-1.249630259263422,-2.488134694278971,-0.6016586170224419,0.010807282688303173,-0.022150085190953874,0.7983557280218894
100.0,0.10743734275166217,-0.04506671436352791,-0.006346455734142595,-0.20743959142090534,0.4181960492300777,9.790000000000004,-0.029964004000195985,0.07781435798007397,0.014207477383618217,105.7594374715404,-1.2088592776879559,-2.4400105336572686,-0.6030495615126685,0.010657797335259938,-0.021650403357366926,0.797322358117541
101.0,0.10964825438133857,-0.036285225789159714,-0.00793670150987224,-0.18278342670966596,0.4164651567944252,9.790000000000004,0.17569585991965025,0.29444538709389223,0.30668453137473595,105.55764396688741,-1.067604550330996,-2.4355995331543623,-0.6044715007656771,0.011332476091508805,-0.020663060548175984,0.796270487372795
102.0,0.10516863938579124,-0.04259560266641306,-0.006887902289161141,-0.2174028266514498,0.4108008317410364,9.790000000000006,0.09552827516045453,0.5529834134525322,0.16564311147808394,105.39820079441932,-1.2695842627736806,-2.40035471838678,-0.6055733222754429,0.009986877207831507,-0.02190883041108642,0.7954206507648789
103.0,0.10813117069135952,-0.04961270148681637,-0.002398636244426961,-0.25136423974661587,0.39743036978756885,9.790000000000004,0.11111859226532711,0.5552023442070648,0.10035707801246747,105.20305105005144,-1.4663925538138756,-2.3223115757832518,-0.6069567966246646,0.008366296501765215,-0.022871356070366562,0.7943516476819787
104.0,0.11156597873671047,-0.04668046561358914,-0.003536847626540781,-0.23086465331154557,0.4009535798583793,9.788709677419352,0.17883329298553532,0.6795681272569549,0.18209238637051384,105.30221887671729,-1.3429179527527284,-2.3401929633440255,-0.6062747929905383,0.009145075717444369,-0.022112369193326473,0.7948690549377635
105.0,0.10978599527930766,-0.062103068450039337,0.0029968528717545257,-0.2910975609756097,0.39150354051927616,9.78910306845004,0.07291502753737217,0.31969905586152636,-0.1763178599527931,105.17068253343824,-1.7030733674272227,-2.2849282061369003,-0.6071496031361134,0.006853317101494885,-0.024296213590086546,0.7941633482100706
106.0,0.12597875688434307,-0.058919354838709664,0.0012702596380802546,-0.06517505900865457,0.36163690007867827,9.790180959874117,-0.02242820613690007,-1.8790961841070024,-0.552704563335956,106.18909815106215,-0.37774636113296617,-2.1118287765538946,-0.6000763872014163,0.01285507748859166,-0.013820907003540519,0.7995294382985838
107.0,0.11580793151249485,-0.04341157131617398,-0.011563176726237306,0.19488633809149156,0.3547828949833277,9.786649619721999,-0.08437546832265558,-1.6313379275785844,0.09910082050129254,106.12847671031433,1.1443770254954855,-2.071395964463677,-0.6004427937631224,0.02071420180019482,-0.002866430194475664,0.7991684560739106
108.0,0.13428830879322617,-0.033882516578622,-0.016132394814731554,0.3270782005170282,0.3320589337229777,9.786310647783898,0.28319828078753134,-0.08707312389944166,0.4758658115094976,106.11590412030273,1.9095047253755948,-1.9435209316810909,-0.6005312862710184,0.023867048584401106,0.0031886980859840396,0.7990933724505077
109.0,0.14007717957363905,-0.06206586489828031,-0.015165036903825261,0.32404293582106325,0.3401423700872952,9.788195646472598,0.35311996553145253,0.5233177850211682,0.7913763066202091,105.0847874751789,1.889487561350268,-1.9926894833464461,-0.607738043416882,0.024145147265745,0.0025969476059345847,0.7936479460496048
110.0,0.12996935296541906,-0.05018478138698437,-0.020760331197782027,0.3615470383275261,0.3420884942489977,9.789105691056914,0.21994117867445956,0.3624456745719531,0.09617989209846012,104.69309692405679,2.1082125060881944,-2.000622869131917,-0.610466427628189,0.02543001436851373,0.003973681473305609,0.7915671126196098
111.0,0.11328758757633658,-0.04562661571316175,-0.017723202577647895,0.3098262335618748,0.3727476302873628,9.789533175976924,0.35758565621370497,0.7398430182458506,-0.32560202877374395,104.90782403244538,1.8034817447828857,-2.180887752425911,-0.608987644224008,0.025051355207860324,0.0009543810702483987,0.7927505415230229
112.0,0.11712981904012587,-0.04614476789929191,-0.014771833202202989,0.3027702596380802,0.3821487018095987,9.789748229740365,0.09924763965381592,0.04967545239968524,0.44229937057435087,104.74196498819826,1.7632572777340676,-2.231392604248623,-0.6100995991966955,0.025208864369787566,0.00037249224075531075,0.7919031230983478
113.0,0.11147678992918961,-0.036469708890637303,-0.012740755310778914,0.3243512981904011,0.37365971675845777,9.789937057435093,0.09665371754523996,0.3663158929976396,-0.4615558615263572,104.63275472069236,1.8930861526357199,-2.1805468135326516,-0.6108607491254918,0.02553641376003147,0.001485545886703383,0.7913031747828482
114.0,0.10940165224232887,-0.02919000786782062,-0.012726789929189615,0.28126612903225806,0.37847501966955166,9.789968528717548,0.1440093922108576,0.5481018882769473,-0.021597167584579052,104.79386064122738,1.6405291109362707,-2.2104051927616046,-0.6097973030182926,0.024403543646341463,-0.00037483775216365074,0.7921682414158142
115.0,0.09483792289535799,-0.01705468135326515,-0.012020653029110935,0.2177983870967742,0.3693463808025177,9.789984264358775,0.1513141719118804,0.5289904602675058,-0.5898812450826121,104.81184967545241,1.2704157651455548,-2.1549505802517697,-0.609702832021243,0.02205949126671912,-0.0026511225131785996,0.7922989324740362
116.0,0.10622541306058221,-0.023083792289535804,-0.013135326514555467,0.19885483870967746,0.3877498033044846,9.789992132179389,0.2832931746656176,0.21515047206923682,-0.3102380015735641,105.50937745869393,1.162954858379229,-2.264597265932337,-0.6048689389944926,0.022253569165617628,-0.003865854478363494,0.7959710129225019
117.0,0.1065241935483871,-0.03570161290322581,-0.01824193548387097,0.24426612903225808,0.39661290322580645,9.788967741935483,0.09339717741935483,-0.12046370967741934,0.5320564516129032,105.55272177419354,1.4258568548387096,-2.3109374999999996,-0.6045576524193548,0.023999170862903228,-0.0022529845483870974,0.7961601996532258
118.0,0.13184697088906375,-0.06726986624704957,-0.02467918961447679,0.2865788749016522,0.39889516129032254,9.789483870967743,-0.12896956136900078,-0.1495144079464988,-0.04428968332022026,105.17626376868607,1.676893194335169,-2.3218995869394177,-0.6071299036294255,0.025387724973839496,-0.0006718131742722268,0.7941658725680567
119.0,0.13101219512195122,-0.06279622344610544,-0.02000491738788356,0.3056079858379228,0.3830887096774194,9.789741935483873,0.3371533241542093,0.6648849331235247,0.10061221479150279,105.16348470692368,1.7836078874901653,-2.2402340676632573,-0.6072375698469707,0.025352135950629424,0.0005355429128638862,0.7940954619211251
120.0,0.1270302911093627,-0.0558174665617624,-0.0272322974036192,0.3145902832415421,0.40290322580645166,9.78754838709677,0.47331456530291105,0.05905536978756881,-0.22403865066876472,105.39199940991345,1.8379228953579858,-2.3604900177025963,-0.6056105239073564,0.026450472358379225,0.00034886477498033045,0.795292945561369
121.0,0.12046675845790716,-0.05130389457120378,-0.026676632572777345,0.36183949645948066,0.4763225806451613,9.777161290322576,2.7525090971675845,2.9604248623131393,2.5364181746656174,104.77382228560188,2.109788060582219,-2.793576662077105,-0.6097497093448071,0.030726156646931554,-0.00037200447541305994,0.7917223217645553
122.0,0.1574492525570417,-0.08932690794649881,-0.01712155782848151,0.1621431943351692,0.6070184893784422,9.768129032258058,-0.4459185680566484,-0.20312254130605822,-0.862443450039339,103.80855133752951,0.959962627852085,-3.538982592446892,-0.616151885557435,0.02938129245279308,-0.012589341436664046,0.7863734834173878
123.0,0.15174586939417783,-0.10390814319433514,-0.014363296616837135,0.16664594807238398,0.5514714791502753,9.777931549960659,-0.3646538158929976,-0.1439737411487018,0.018940548780487898,103.66725757277733,0.9799075531077892,-3.218202940597954,-0.6173097940769079,0.0275131193813926,-0.010685984589299764,0.7858490242696694
124.0,0.13874095200629424,-0.0862785208497246,-0.010082808811959087,0.10456530291109366,0.5206933516915814,9.78396577498033,-0.1524918863099921,0.27195244885916603,-0.3667351003147128,103.74751794846577,0.6131343430369788,-3.0408094020456335,-0.6168764440885128,0.024381101041306055,-0.012236593431549963,0.7864204754187646
125.0,0.13085287175452398,-0.07724331235247836,-0.00978422501966955,0.1303556254917388,0.47713237608182524,9.787055468135328,-0.07719315499606609,0.5234965086546026,0.19556820416994491,103.69696597167584,0.7627581628638866,-2.7866443745082607,-0.6173019815184894,0.02350799921420141,-0.009808839480330449,0.7862169394840676
126.0,0.1206136900078678,-0.07186467348544452,-0.01202989771833202,0.05705743509047993,0.46996066089693167,9.788890637293473,-0.13473642800944138,0.8137785208497247,0.23455940204563336,103.6034126671912,0.3365460267505901,-2.7461152635719905,-0.6179632853186467,0.02089222401258851,-0.012571321321793866,0.7857777903855231
127.0,0.1114083398898505,-0.07766011014948859,-0.010788355625491738,-0.03193391030684498,0.462475216365067,9.789929189614481,0.21220495672698664,0.4581136900078679,-0.04989181746656174,103.43350708103856,-0.18122541306058224,-2.7008949645948075,-0.6191596893029112,0.017669750144767897,-0.016071320317859954,0.7848684099291895
128.0,0.1058599527930763,-0.06699449252557041,-0.007907159716758459,-0.06345239968528718,0.4505129819040126,9.790000000000003,0.19053894571203778,0.7151357199055862,0.0895357985837923,103.2874704956727,-0.37091856805664836,-2.6322285601888273,-0.6201585048229742,0.0161237216270653,-0.017067581252557043,0.7841012874838709
129.0,0.1106955153422502,-0.06739181746656175,-0.005365853658536585,-0.13388985051140834,0.4484154209284029,9.790000000000004,0.2544453186467348,0.47826514555468136,0.011550944138473664,103.06048387096774,-0.7795535011801732,-2.6204022423288746,-0.6217137632730133,0.013737073752163648,-0.01988272793548387,0.7828507289071597
130.0,0.10433280881195908,-0.06576750590086547,-0.003291896144767898,-0.14348072383949645,0.43012431156569636,9.790000000000003,0.05921026750590086,-0.006589299763965356,0.23454219118804093,102.94867230527143,-0.8372295436664045,-2.5105158339889853,-0.6224847655216365,0.012666833521243114,-0.019735787627065307,0.7822715265338315
131.0,0.10754563335955943,-0.06304740361919749,-0.0016679779701022817,-0.11917309205350116,0.4211046420141622,9.790000000000003,0.18659765932336742,0.04514162077104643,0.5555726298190402,102.66091660110149,-0.6933934893784421,-2.4589508752950433,-0.6244463515971674,0.01302227418784422,-0.018515985006294255,0.7807261085682533
132.0,0.102433320220299,-0.06213158929976398,-0.0025690401258851303,-0.10300196695515343,0.4130529110936272,9.790000000000003,0.07847536388670337,0.8015354543666403,0.06791773210070814,102.26067933713611,-0.5984940499606608,-2.409297551140834,-0.6271768088811958,0.013139511594217154,-0.01764538173052714,0.7785506794803304
133.0,0.11138512981904014,-0.04661723052714399,-0.006487018095987413,-0.09366207710464203,0.40398898505114095,9.790000000000004,0.16498819826907946,0.5563532651455546,0.09840184893784425,101.97088168764753,-0.5474970495672699,-2.359837234461054,-0.6291414942132179,0.013075077310778916,-0.01701635938512982,0.7769820264771833
134.0,0.10820633359559403,-0.05746282454760032,-0.004958693941778129,-0.15645731707317073,0.4247678992918964,9.790000000000006,0.24112903225806448,0.19930173092053502,0.014410405192761606,101.81726617820614,-0.9067884539732494,-2.479190843823761,-0.6301564081805664,0.011858426444531864,-0.020179820333792287,0.7761002464761999
135.0,0.10450098347757673,-0.053123918174665635,-0.009630605822187256,-0.1401195908733281,0.42779209284028336,9.790000000000006,0.16438090086546026,0.4169514653815893,0.29395161290322575,101.80579022423288,-0.815967987804878,-2.4958534126671914,-0.6302378343172698,0.012465671843036978,-0.019655728544256495,0.7760425280953973
136.0,0.1086577498033045,-0.03642486231313927,-0.007904012588512983,-0.12405979543666407,0.4334162077104642,9.790000000000004,0.14101101494885915,0.23859166011014948,0.16129032258064513,101.63822777340675,-0.7260031471282455,-2.5315204563335953,-0.6313875425255704,0.013188924171518488,-0.019234612050354056,0.7751080958662471
137.0,0.11211014948859169,-0.028697088906372945,-0.009957513768686074,-0.10925885129819041,0.43169472856018876,9.790000000000003,0.07317073170731707,0.2764063729346971,0.06162470495672698,101.56340479937057,-0.6434992132179386,-2.517043666404406,-0.6319366667128247,0.013571741030684498,-0.018628121623918175,0.7746768348890641
138.0,0.11231707317073171,-0.032800944138473655,-0.008297403619197482,-0.09933280881195908,0.43797088906372916,9.790000000000003,0.18419059795436665,0.15383556254917388,0.12706038552321006,101.62803894571204,-0.5814761998426436,-2.5566089693154996,-0.6314731308867034,0.01415522963021243,-0.01842878006058222,0.7750435109645953
139.0,0.1086526357199056,-0.041750590086546045,-0.008222659323367427,-0.13065774980330447,0.44173367427222665,9.790000000000003,0.07569089299763965,0.3397374114870181,-0.12001622738001573,101.65109657749804,-0.7679607592446893,-2.5775127852084974,-0.6312873863276947,0.013292492141620767,-0.019781371897324942,0.7751724371974826
140.0,0.10519571203776557,-0.04966365066876477,-0.004894177812745868,-0.12311801730920535,0.43649232887490164,9.790000000000003,0.25133384146341464,0.47253392997639654,0.16919133556254917,101.71030930369787,-0.7207722757671124,-2.549623819826908,-0.630926698301534,0.013336438501966957,-0.019306211334185683,0.7754795236223448
141.0,0.1041986624704957,-0.04849311565696304,-0.0019632179386309986,-0.11234126671911882,0.44666148701809605,9.790000000000003,0.04867599331235248,0.3070330940204563,0.11274586939417781,101.63741271636505,-0.6622762588512983,-2.6084812647521636,-0.6313826721306057,0.014067501363886705,-0.019227134501770264,0.7750968955611723
142.0,0.10361978756884342,-0.05107887490165226,-0.005701612903225808,-0.11557887490165225,0.4320485837922896,9.790000000000004,0.05652045633359559,0.13053697875688436,0.15238001573564122,101.54901160503539,-0.6722339693154996,-2.519647423288749,-0.6320121038251376,0.013375253047600316,-0.018825561505507474,0.7746087154803305
143.0,0.101112697163838,-0.05235068937094903,-0.005076804915514594,-0.09026697201303813,0.42037317822486986,9.790000000000004,0.124904813420254,0.3825855976733731,0.2129003573301862,101.23336236933798,-0.5266747803566746,-2.451576783840995,-0.6341598505667547,0.013670708516887713,-0.017508951223183848,0.7728713415581377
144.0,0.10815469633959013,-0.04549035255329512,-0.008200086171368626,-0.06678818702933574,0.415621089505826,9.7906294256491,-0.04577069517814994,-0.10244921040800267,0.26643063204825596,101.10186017758795,-0.3941294584316811,-2.424633420441347,-0.635044399581076,0.014285370777621672,-0.016410176945974297,0.7721492709418344
145.0,0.10493100670638045,-0.06424399610355551,-0.0004179030384773904,-0.11737914465550187,0.4178813551384362,9.790314712824554,0.37008770512532313,0.7218625309092953,0.2949236165748754,100.94486203214566,-0.6912867984526619,-2.4391558132891236,-0.6360648005733862,0.012649655805805328,-0.01855426896472594,0.7712839296605316
146.0,0.12431306432879996,-0.08789442134052677,0.0019189989134914382,-0.1903607957738564,0.4168453785920348,9.79015735641228,0.18581403843992356,0.4255647971226256,0.30076383425124575,100.76430257390132,-1.1124442696039865,-2.4346736727735943,-0.6372585537173581,0.010220273088681578,-0.021397954739050616,0.7702581057019221
147.0,0.11816597354913641,-0.06851684088269455,-0.0006935296541905518,-0.19753444981454424,0.40761938481135973,9.790078678206141,0.07254411599415533,0.46977492413172983,0.01192302648832938,100.51502402495223,-1.1557648177288224,-2.3837412423663404,-0.6389131558830693,0.009587715955041026,-0.021415141775504846,0.7689006981460043
148.0,0.11490479937057434,-0.061273013375295046,-0.003757671125098348,-0.18673957513768685,0.4086845003933911,9.790039339103071,0.2266522423288749,0.6483379228953581,-0.07501966955153423,100.46731904012589,-1.0902143981117232,-2.383162863886703,-0.6392499364154209,0.009968467313926045,-0.02100566915656963,0.7686311661306058
149.0,0.11715735641227379,-0.055813532651455555,-0.004719118804091267,-0.24241384736428007,0.4236616837136113,9.790000000000004,0.18359559402045633,0.3016227380015736,-0.17765538945712037,100.54810188827695,-1.413075334382376,-2.473028127458694,-0.6386710482824551,0.008759001335955943,-0.02366277765066876,0.769050210653816
150.0,0.12290204563335956,-0.05150629425649097,-0.006501966955153423,-0.23937372147915026,0.4181723052714398,9.790000000000004,0.04154209284028325,0.4111624704956727,0.12854543666404405,100.54959677419355,-1.394922797010228,-2.4408069433516912,-0.6386965037793078,0.0086309287324941,-0.02336398390401259,0.769046276766719
151.0,0.10428182432568744,-0.056807334220984905,-0.006494038612842705,-0.24111224757408864,0.424691672214489,9.790000000000004,0.240009633036777,0.4557659525106418,0.5458060355262362,100.05397173636749,-1.4043768849986886,-2.4788557049264663,-0.642018153682508,0.00873307835583732,-0.023686787610179748,0.7662529027503027
152.0,0.1102598146018681,-0.05278633823559081,-0.004827074381165648,-0.25640112772095464,0.4255799037705018,9.790000000000004,0.02540902580241683,0.6935116642962336,0.29365931201960904,99.68928794332143,-1.4950699088644113,-2.4849929832657507,-0.6444621032559866,0.008194835103961148,-0.024329006373933308,0.7641882182147463
153.0,0.11086505678952571,-0.048559180132744274,-0.0006681595351933668,-0.3080776291633884,0.41087030200326835,9.78949645948073,0.005082561681696218,0.09906393108596098,0.2853371058524481,99.44343490891484,-1.8005671387359037,-2.400759547297706,-0.6461040899191026,0.005859503633117474,-0.02589130930400048,0.7627741873358351
154.0,0.11673465270632856,-0.043344106195404394,0.0006635598862192092,-0.30342197744558097,0.4085673303879441,9.789748229740367,0.1698062297000141,0.2513218947325949,0.16463944198995337,99.24526190764388,-1.772210201940729,-2.3897680505961385,-0.647387630895035,0.005889155099800279,-0.025662149883314167,0.7616982856026147
155.0,0.11604789283624847,-0.054441525953721086,7.056829873509587e-05,-0.29464411224757414,0.40704290988319325,9.789874114870184,0.19334135245818956,0.21917983013577033,0.13181323004297038,99.10796238576529,-1.7173255966430632,-2.3826249773043635,-0.6482907096772579,0.006124869097500454,-0.025263484934576048,0.760943825827271
156.0,0.10482769472856018,-0.06232415420928404,0.0008898505114083397,-0.28791345397324936,0.4030251770259639,9.789937057435095,0.1511900078678206,0.5336496852871755,0.19232887490165224,99.00431746656176,-1.6784569236821398,-2.358467741935484,-0.6490092662305269,0.006137394428009441,-0.0248836777411487,0.760343629656963
157.0,0.09428324154209283,-0.06405271439811173,0.0025605822187254133,-0.2891581431943352,0.39619630212431173,9.789968528717548,0.1551829268292683,0.16976544059795437,0.15855133752950434,98.8133654602675,-1.6880482887490165,-2.312519669551534,-0.6502516867738,0.005785184266719119,-0.02468739275098348,0.7592923655019669
158.0,0.09657907159716758,-0.07461093627065303,0.0008514948859166013,-0.2932061369000787,0.3879565302911094,9.789748229740365,0.14373033044846578,0.6712812254130606,0.12144226986624704,98.6416601101495,-1.7154098642800943,-2.267564909520063,-0.6513960185914633,0.005287874238001574,-0.024598965443154992,0.7583156870861525
159.0,0.09452773406766324,-0.0663933910306845,-0.0036308025177025955,-0.27094669551534223,0.3895812352478363,9.789622344610546,-0.01525250786782062,-0.29927345594020455,0.3843209087332809,98.40778053697876,-1.5809820023603463,-2.280218577891424,-0.6529617618103856,0.00608575084520063,-0.02379291698387096,0.7569785561634539
160.0,0.0644055861526357,-0.06437490165224233,-0.007845790715971673,-0.21951180173092052,0.6875066876475215,9.76375295043273,0.384773308418568,1.0934254523996851,0.6144718725413061,96.53047059402047,-1.2831038552321006,-4.024672993705743,-0.6647280408005508,0.018680952706923677,-0.03239986707041699,0.7455502055719905
161.0,0.0912122344610543,-0.08512293469708893,-0.0014948859166011006,-0.35917525570417,0.5256888276947285,9.771715184893779,-0.058724675452399705,0.8630532061369,0.08587480330448466,96.75600535995281,-2.101509638080252,-3.0737890932336747,-0.6634269955977576,0.007858579760228164,-0.03207417458162863,0.7471363659173882
162.0,0.11069079464988196,-0.08370259638080253,0.0018977183320220304,-0.4480755310778913,0.4254492525570417,9.775696302124302,0.01582415420928402,0.6292584579071597,0.1345200629425649,96.88372344610542,-2.6113394964594807,-2.490548780487805,-0.6626456959480725,0.001138433021243113,-0.03198197975452399,0.7480292026845003
163.0,0.1257442958300551,-0.09714319433516916,0.0028961447678992913,-0.48244059795436645,0.38762391817466557,9.778597954366635,0.3405241935483871,-0.3252409520062942,-0.503545436664044,97.00970200629425,-2.806427025963808,-2.269861329661684,-0.6618933546821402,-0.001422056741148703,-0.03193595594177812,0.7487948597356411
164.0,0.1400751376868607,-0.06351416207710464,0.0011868607395751367,-0.36789378442171516,0.3690424862313139,9.784693941778126,0.0695933320220299,0.38928255310778914,-0.4344831825334382,97.68222610149488,-2.1402168568056648,-2.158386605035405,-0.6576148963583792,0.0018379603516915804,-0.02687764007395751,0.7527516831715184
165.0,0.11912096774193548,-0.05191129032258064,0.0022016129032258057,-0.3724032258064516,0.33253225806451614,9.788161290322583,0.002268145161290317,0.2823084677419355,0.03805443548387094,97.89289314516128,-2.170010080645161,-1.9426915322580647,-0.6563197969596775,0.0003475071129032255,-0.025789617387096772,0.7540073022741935
166.0,0.10326075268817202,-0.07145506912442395,0.0027446236559139775,-0.36136904761904753,0.31816705069124435,9.789733486943167,0.08956653225806452,-0.008170122887864811,0.0672811059907834,97.81826996927802,-2.1053787442396312,-1.856350806451613,-0.6568549892999233,0.00014866692242703508,-0.0248911961609063,0.753578739109447
167.0,0.10413440860215054,-0.057763824884792626,0.00038440860215053715,-0.3135675883256529,0.3023214285714285,9.791060291858681,0.050554435483870966,-0.2182483678955453,0.3153945852534562,97.83312692012288,-1.8256480414746543,-1.7617439516129032,-0.6567964385975422,0.0011471492354070657,-0.02252516004416283,0.7537110170506912
168.0,0.10413978494623656,-0.05407949308755761,-0.001416666666666667,-0.31578379416282637,0.2955679723502303,9.790921274961601,0.1470766129032258,0.5683707757296466,0.20371543778801843,97.67578725038402,-1.8408482142857143,-1.7219254032258065,-0.6578230223229646,0.0007625620330261135,-0.022383235332565286,0.7528265090092163
169.0,0.11079038814581692,-0.0612880746318984,-0.0004444662995017056,-0.37259557528755016,0.2965716533663031,9.789693229927696,0.22310557631785993,0.8214468945524709,0.08443418427559851,97.54428622944063,-2.1775401820838485,-1.7302616050354054,-0.6586250629928158,-0.0011271043782548422,-0.024633875685362107,0.7520554094076374
170.0,0.11326055599265669,-0.06397173204450937,-1.4817728822449526e-05,-0.41207650518901506,0.30833421377992576,9.788461878535836,0.41824105035405196,0.9189619160016484,-0.2179453045970552,97.55499126578246,-2.410303332584017,-1.7991001180173094,-0.6585448686595669,-0.002019379634839459,-0.026548242031508747,0.752058703995223
171.0,0.11250910347192802,-0.045333378724606105,0.0023209616897657817,-0.3718299340313503,0.32247030906413277,9.78881855595231,0.3720263357642882,0.10981365621658701,-0.08131919016925901,97.61490368854525,-2.1734677923702312,-1.8881899473461237,-0.6581442115665788,-5.037996541689381e-05,-0.025475267654653112,0.7524208063858309
172.0,0.10905716778631805,-0.04384086324113862,0.002573443079343945,-0.4297410881801125,0.3322037815973694,9.785474580887243,-0.003828123423914115,0.5366252093042022,0.29662834256289217,97.57111787987452,-2.5110675901268937,-1.9446162167887189,-0.6583861994230416,-0.0016496178063709172,-0.02800710329506849,0.7521257720283796
173.0,0.10560519679638482,-0.059271238072182195,0.0030125279912848755,-0.47441893118683043,0.30308979402449104,9.78476148399201,-0.03266002945389254,0.053393249813391414,0.2659805019266073,97.1983361576792,-2.7750398434505437,-1.770796011620166,-0.6608025917881337,-0.004394873225766103,-0.028723237925760054,0.7499607830262865
174.0,0.10598749218261411,-0.05796921463011155,0.0053693639169642305,-0.4195336198026992,0.28000831164639184,9.787404345457848,0.07667745970263673,0.12874225826625513,0.3312839173677097,96.92429593092456,-2.4523310940305434,-1.6354225927495007,-0.662650548529,-0.003487007503520345,-0.025844593476648713,0.748441710893946
175.0,0.10614874215739672,-0.04995234925053965,0.003180354657144585,-0.4235787689886824,0.2832614335572635,9.788116020093208,0.15623310435957957,0.2364059442393431,0.016153367023744702,96.75689619520264,-2.474887026165547,-1.6554129092779761,-0.6637586306335006,-0.003518133385906514,-0.026098327108111927,0.7474621444398919
176.0,0.09933279007905285,-0.05523494810984976,-0.0035226668165299177,-0.4260301974448315,0.2948653853358809,9.787841538346258,0.4462188799595369,0.945702085909108,0.6431167106889963,96.57568164362519,-2.4910880540257017,-1.727557275860777,-0.664932152194335,-0.0031893181333408267,-0.02661780879805927,0.7464014197137425
177.0,0.11153500243527781,-0.06860095163163614,0.0062520418867783156,-0.4597971600914166,0.3234712449889474,9.784636740848972,-0.011720418399460503,-0.0014801922932823341,0.07863939389681915,96.09153869750102,-2.687248393653291,-1.8922503137761792,-0.6680395500586152,-0.00337658786289386,-0.02880674362798322,0.7435302238104513
178.0,0.11945269004533364,-0.07716672286538534,0.0033253718481885295,-0.41674633771683334,0.30018782548424544,9.787536997489791,0.01857490586714623,0.22248534150088042,0.10091797094526246,95.93454909894722,-2.4336603396275898,-1.7527341262035891,-0.6691278748280879,-0.0028292528458843808,-0.02635457433444794,0.7426487930268817
179.0,0.12166048480761306,-0.07711101120227792,4.030174590686001,-0.343782923082687,0.2900760555992655,9.789505825933837,0.11990933273388032,-0.9078481510621557,0.3131017946124162,95.91568084747666,-2.0033485069873738,-1.695365479000412,-0.6692917294290208,-0.0006993924832340492,-0.023229890200442097,0.7426095073425498
180.0,0.13227241392229594,-0.0836735229103443,2.0105554306695153,-0.21040286988123336,0.2730451088381851,9.794933872841037,0.003552227342549924,0.3401996459480725,0.5001779626091192,95.2978335393953,-1.2274561181671724,-1.5915310872578772,-0.6733340291252107,0.003151930358697686,-0.017601135025476753,0.7390572541756024
181.0,0.11895725150799896,-0.052360570978981676,1.0071125847664013,-0.25420988348132323,0.25053253905810946,9.794569855007312,0.10059523809523808,0.9768442546176614,0.3197318384474167,95.11287606309241,-1.4816380053201452,-1.4593936158255592,-0.6745265403529278,0.0007219184389494576,-0.0185134123568244,0.737978298146941
182.0,0.11516942040388145,-0.0364910644037316,0.5044658124461432,-0.33231186542280167,0.2664322805440035,9.792422614364398,0.10459541605784721,0.581006706380428,0.012280356674534504,95.05212056498445,-1.9362851710314337,-1.5530052264808363,-0.6748640435139934,-0.0013860769905960821,-0.022017937601700947,0.7375785795242966
183.0,0.11370194072908471,-0.05098353377542992,0.2505885317148104,-0.3570685999025889,0.264958862537934,9.790829717882435,0.051560099846390164,0.3978007568094114,0.3054369918699187,94.84224832340489,-2.0828406578996663,-1.5427791671349893,-0.6761943307971225,-0.002348094628264209,-0.02287504812815181,0.7363408159305196
184.0,0.10219453186467348,-0.05573033044846578,0.0014136506687647515,-0.37754838709677413,0.24378914240755306,9.790391817466567,0.03953702793076318,0.6177271833202203,0.3441606018882769,94.46094856412273,-2.2053771636506685,-1.4256023800157358,-0.6786571232537371,-0.003927319104248623,-0.02294728364614476,0.7340671072370182
185.0,0.10287549173878834,-0.04617564909520064,0.0022673092053501175,-0.3851612903225806,0.23078166797797017,9.790034618410704,0.03995500590086546,0.3137023013375295,0.23407626868607395,94.17901258851299,-2.2500172108575924,-1.3556439319433518,-0.6804548130784813,-0.004718264745672699,-0.022789608625491738,0.7324149804370579
186.0,0.10298957513768683,-0.04551416207710467,-0.0011846970889063731,-0.39869315499606606,0.23050865460267517,9.78995279307632,0.21951465381589302,0.3487817171518489,-0.11785995279307632,94.03050747442958,-2.330305861526357,-1.3571965971675846,-0.6813910016569631,-0.005216199417781274,-0.023284289867033833,0.7315289327718333
187.0,0.10543430369787568,-0.04200708103855233,0.000532651455546814,-0.42455625491738785,0.25518174665617627,9.788815106215582,0.16232789142407555,0.7646882376081825,-0.12425255704169945,94.25860051140833,-2.4819876081825334,-1.4961890243902438,-0.6798845742155784,-0.005164020934697089,-0.025117772078678203,0.7328662224020459
188.0,0.10535129819040123,-0.05116325727773409,0.00470456333595594,-0.4221215578284816,0.25585051140833986,9.78903225806452,0.22068007474429585,0.33764998033044846,0.02200531077891424,94.26608723446105,-2.4663380212431156,-1.4999483674272227,-0.6798609456664043,-0.005050015564122738,-0.02505002598505114,0.7328895288194336
189.0,0.11023662470495671,-0.04033379228953581,0.0006528324154209282,-0.35765401258851304,0.24339339103068452,9.791907946498823,0.0791146243115657,-0.15641104445318643,0.1306427025963808,94.2181636014949,-2.08741763375295,-1.4195011309992132,-0.6802119370660898,-0.0033193771723052717,-0.02216126867702596,0.7326557257472462
190.0,0.10617466561762391,-0.05341306058221874,0.0005338316286388669,-0.38224429583005504,0.24027301337529502,9.789821007081036,0.12001622738001574,0.7414757081038552,0.2668297600314713,93.88529701022816,-2.233401357199056,-1.4001598151062156,-0.6823143788446105,-0.004366052158536586,-0.022955824682140046,0.7306628830590087
191.0,0.11004080026975388,-0.04430478438424938,0.0013208291184294335,-0.34084227829605473,0.24312028399085836,9.790402054999813,0.21802720252144914,-0.42716335796710503,0.03544529288898879,94.00237252257315,-1.9867505081300814,-1.4185723300925406,-0.6815798894751322,-0.002752908119656439,-0.021488369588269454,0.7314080220862462
192.0,0.10919244314562962,-0.04771460417369151,-0.0022022966543029485,-0.3537742497471057,0.25664462740249516,9.790728869281782,0.34004398720542506,0.554377470402008,0.016074940991345398,93.96311742488105,-2.068522863512045,-1.5031765740324454,-0.6818288099067289,-0.002723660576149264,-0.022506652101354385,0.7311496055646283
193.0,0.10337454572702409,-0.046799670300850485,-0.0009864748417069424,-0.35606946161627506,0.2788940092165897,9.790376531415088,0.10350633172230338,0.29578322280918656,0.1270653029110936,93.88725366228317,-2.0774582256191225,-1.633692068487505,-0.6823398067981716,-0.00196764305833427,-0.023345786242553665,0.730654830431606
194.0,0.10095163163613204,-0.05488291933610582,0.001697950620059196,-0.33048555692930204,0.2614847701472406,9.790365291671353,0.003931568693567124,0.16869216215203625,0.08162863886703382,93.69620845978045,-1.92825999400547,-1.5238188902626353,-0.6835633965422803,-0.0017822968832190626,-0.021757403939530177,0.7295577115769358
195.0,0.108622944063542,-0.05672155408190027,0.003862350605072871,-0.3301483646172867,0.24928683826008768,9.790469821288077,-0.013941965456520922,0.07915823685886628,0.2523849331235248,93.55537212918213,-1.9305442377580457,-1.453294181559327,-0.6844723460642164,-0.002264607127683489,-0.021326134845453523,0.7287234013352815
196.0,0.1108514105878386,-0.05986231313926043,0.00472687422726762,-0.355703982615863,0.24897905661084255,9.79021954966094,0.22137963171106367,0.7225188265707542,0.2032133959012401,93.3864610261886,-2.075895198756135,-1.4500533887827358,-0.6855483320643663,-0.0032020609025514217,-0.02226933378217377,0.7276764451760892
197.0,0.11108201266344461,-0.053031358885017435,0.002955303285751752,-0.4090633546888464,0.26552433404518366,9.78820613690008,0.23480995466636695,0.8213395901240118,0.14185259076093065,93.21501629762841,-2.3901221385485742,-1.549117680116893,-0.6865881831448803,-0.00450604311827957,-0.024837231618897754,0.7265961510112022
198.0,0.10994365718205218,-0.05038362109959278,0.00927788969488419,-0.4798131032356052,0.28197205626788635,9.783941778127454,0.6263779493519855,0.4407326871921679,0.35578364069709467,92.90890493914686,-2.8063907309580007,-1.6444977131444478,-0.6884388759180997,-0.006455321677257964,-0.028009368834525036,0.7247032582167714
199.0,0.15131329200566024,-0.07051832510526451,0.013761682849015654,-0.5709805091315713,0.6514226921780029,9.751085759244686,0.3918180069340573,1.4143572956023782,0.4281868636215607,91.41410530198885,-3.343055711663107,-3.8191509022055836,-0.6971624317159343,0.0031700095311585873,-0.04469926894519328,0.7149756419132638
200.0,0.15427959006637215,-0.05815133594441227,0.006540651847496849,-0.6526053870074328,0.4947908110771997,9.759475103967624,0.017371528288129406,0.22727671456526694,-0.608385353172922,91.70566758674056,-3.8144774924131726,-2.896491686912615,-0.6955348639488967,-0.005226289801877904,-0.04196998151298478,0.7169024989347892
201.0,0.145811350988377,-0.04267603888374935,0.002678459751630483,-0.5646617845831063,0.37795739272529194,9.77184219399797,-0.09459811431683972,0.10487077176691655,-0.04764552586149756,92.26626142347031,-3.2988671274961594,-2.213271975860489,-0.6922213465782473,-0.006143660034036251,-0.034555246247856525,0.7205761427357247
202.0,0.14362164717003428,-0.05722314926091479,-0.0008165529723358203,-0.5798131896951723,0.3239157537977364,9.775818815331,-0.024654485954643306,0.47867456763011446,0.3132395895476147,92.31726230103492,-3.38657459443258,-1.9006957833669083,-0.69199822424113,-0.008622355898214034,-0.033201652321410556,0.7209511004119221
203.0,0.12947922520699862,-0.07089505825933834,0.004131355138436179,-0.5934434828219248,0.2973800157356412,9.777028211756768,0.011953935783597464,-0.17310610318084743,0.47883415758120706,91.93900799895096,-3.467210389269791,-1.7421040800269751,-0.6943863507856581,-0.01014459378592035,-0.03269375560713349,0.7187048646513805
204.0,0.11304016335094227,-0.07302424038065267,0.0037926641939230463,-0.5800380277996328,0.2508221872541307,9.779977520512528,0.009861704319808175,0.634581881533101,0.24494914015960434,91.59762654078153,-3.3943546045483495,-1.4690555805327639,-0.6965881590041587,-0.011472704532613991,-0.030526914963283497,0.7167029479197107
205.0,0.10832730133752949,-0.04725098347757671,0.004613690007867822,-0.5614760031471282,0.22336270653029117,9.781205350118015,-0.02738001573564123,-0.00482887490165218,-0.21574547600314714,91.64814122738001,-3.2800354051927614,-1.305409126671912,-0.696319104184107,-0.011779948281667977,-0.028836916906372932,0.7170401702171516
206.0,0.10989614476789927,-0.03542722265932337,0.002322580645161291,-0.5574854445318647,0.21289535798583797,9.78285444531864,0.3489870180959874,0.7206038552321008,-0.3216070023603462,91.74358772619985,-3.255094413847364,-1.2458103855232099,-0.6957329078237608,-0.01196853808811959,-0.028339780588512983,0.717626319389457
207.0,0.11719826907946501,-0.030332284290584842,0.0009823910681503124,-0.6237462815181148,0.2242394440073434,9.77860080176838,0.05845017983589973,0.3073381476902327,-0.23666006331722306,92.06749653441234,-3.6448716327601063,-1.3115467292345735,-0.69364306478371,-0.013814697221160691,-0.031218634756247417,0.719488498376494
208.0,0.12027535498857293,-0.04577158967442208,0.003413903562998763,-0.659839683788543,0.24365132441646992,9.775641302311636,0.2691385907234648,0.7594619909332734,0.0978933676145517,92.06409791690082,-3.858328064703458,-1.430460993406017,-0.6936010348130831,-0.014393921124161706,-0.03323371776851748,0.7194259051696639
209.0,0.12890242965793713,-0.0521304840582968,0.005672333370799146,-0.702673579109063,0.2370931681091005,9.77239185493237,0.08637889410288112,0.34344067288599156,0.15789141236746468,91.95103499306882,-4.112164622438275,-1.392256460511034,-0.6942683555300664,-0.01618408716318235,-0.03456904628787793,0.7186851254841238
210.0,0.1205349087707467,-0.052897559102319136,0.007535124199168259,-0.6850234535985913,0.21199652504589567,9.774275392454378,-0.10118075849537295,-0.0860380722902851,0.43806930472818556,91.61277777387508,-4.010002084035817,-1.2398517992956428,-0.696410168531949,-0.016589504394533737,-0.032975272117483426,0.7166735232024278
211.0,0.11611235997152597,-0.04494848450788656,0.005907609306507812,-0.6435538196395789,0.18969053238919492,9.77744277097148,0.005046176613839881,0.12713672211606908,0.4001266812783335,91.15781185605634,-3.7658819920572477,-1.1088826758083248,-0.6993170460790153,-0.01605362363924169,-0.03061365525514218,0.7139493998915365
212.0,0.10702352853021616,-0.03891274212281294,0.002206174365891124,-0.5884003971376118,0.15799895095725155,9.781201528605147,-0.05681924618785358,-0.13977089655689184,0.24065579221460418,90.88101209209097,-3.438145114458057,-0.9184299014649132,-0.7011433107195308,-0.015284837151099621,-0.027382699024202914,0.7123092462702785
213.0,0.10326214828968565,-0.030992469371698333,-0.0015735641227380016,-0.5598876025626613,0.14615001311303444,9.783296616837129,0.15913837997826982,0.4054409726124911,0.16547478550822375,90.70089871117605,-3.27117989209846,-0.851256041362257,-0.7022689294035442,-0.014757608529466861,-0.025914951896894085,0.7112773201704694
214.0,0.11224869806301749,-0.04790378779363831,0.0021085759244689212,-0.603618073507924,0.16339365329137168,9.781691581431936,0.21875585403319472,0.5516583305233973,0.07853302611367127,90.61773397399872,-3.52477661009329,-0.9545422614364393,-0.7027394158150688,-0.01572114838747143,-0.02809580334419842,0.7107095768633622
215.0,0.10657674871679593,-0.0523924918511858,0.0043886703383162855,-0.6127822861638754,0.16474009965906117,9.780646734854436,0.26876522048630624,0.5172778277321943,0.14452811809224084,90.49696199093327,-3.5811678093739463,-0.9653366303248285,-0.7034758584488405,-0.016017281853059083,-0.028492983148102356,0.7099595572924209
216.0,0.10619632085721781,-0.05825132066988872,0.004062942564909518,-0.6014800494548724,0.1677807500655652,9.780311565696294,0.05326046232812556,0.1824538233861601,0.456321887527631,90.22042729759094,-3.516193660784534,-0.9829141845565921,-0.7051780357901164,-0.015558454360046457,-0.028140988794350157,0.7082894681945975
217.0,0.10198486381177177,-0.057426211082387324,0.005076317859952792,-0.5696385298415196,0.15216732231838445,9.782976396538155,0.09468687947248135,0.17944485032407925,0.1136595668952081,89.87061392416919,-3.32588302236709,-0.8916587051815219,-0.7073868138116595,-0.015064356483721102,-0.02636975046719868,0.7061610360288486
218.0,0.10408536585365853,-0.06845043273013376,0.0023607395751376868,-0.5741026750590086,0.16520731707317077,9.782439811172297,0.35979543666404407,0.2629991148701809,0.010036388670338306,89.81968676239183,-3.3543297600314714,-0.9626352281667978,-0.7076963001577496,-0.014795090496852868,-0.026996517198269076,0.7058364659284029
219.0,0.10362804878048779,-0.06763434303697877,0.004440794649881983,-0.6463699842643587,0.19798760818253347,9.77683674272226,0.2941433910306845,0.7818978658536585,-0.2336668961447679,90.02315475019668,-3.7836853363493317,-1.1576551435877263,-0.7063450594187648,-0.016194161126475214,-0.030857021789535796,0.7069917363749016
220.0,0.10953579858379228,-0.0628864879547413,0.004446395788842681,-0.6519344160953129,0.21771749840770305,9.776091566445611,0.12610395357985837,0.03189915374096136,-0.22491716543029486,90.35374447379266,-3.809237781461916,-1.273471629013525,-0.7042906083543515,-0.015549438196686145,-0.03178192242817804,0.7090084478345322
221.0,0.10441935483870966,-0.07058043909932185,0.0012815181147203176,-0.6427372709902214,0.21524712449889483,9.77703870218425,0.20399537765538947,0.13065195196882845,0.5401998801094001,90.18917800007492,-3.756083042973287,-1.2602605981416957,-0.7053146942322503,-0.015348899805365098,-0.03134412798847927,0.7080179105641976
222.0,0.10856766325727772,-0.06742161215390954,0.005707635532576524,-0.6281782342362593,0.19252128058146945,9.77842887115506,-0.00329342053501179,0.3982528052527069,0.33654368513731214,89.74690508973062,-3.669401670975235,-1.1277306137836725,-0.7080480908793039,-0.015749689736671534,-0.02992775886127346,0.7053296388178973
223.0,0.10973544453186466,-0.05839225768985799,0.001055430669514069,-0.6531657300213555,0.18708322093589608,9.777762822674301,0.10936639457120378,0.6891969671424825,0.13339281031059155,89.53645657712337,-3.8117169645198756,-1.0948884923757072,-0.7093125937622324,-0.016916464916722863,-0.0305873784427335,0.704009094384755
224.0,0.11049789182755351,-0.04889701800952785,0.0022756475101085643,-0.6637443621157231,0.18936429450434183,9.77716573722631,0.08489088442373258,0.3338587193032512,0.18581861359202034,89.36323966159725,-3.8761645203079116,-1.1039346308032383,-0.7104044910600866,-0.017290301915454068,-0.0310248473375785,0.7028855748836513
225.0,0.11331542899796246,-0.04478607597490369,0.003708446811515261,-0.6678463858459924,0.18530183179003012,9.777522867114516,0.11297307793177187,0.3384256037039278,0.10010742601222539,89.20180102483407,-3.898356205491335,-1.0844472477758278,-0.7113551878256672,-0.017602622281113197,-0.03101976998159132,0.7019228760650508
226.0,0.11247203393249813,-0.04242844318021345,0.002268857552099094,-0.653274884504428,0.19053053823962562,9.778792904839708,0.1513527860154532,0.247148482418447,0.19621323306905525,88.9602091276806,-3.8153858132098692,-1.1133634743993222,-0.7128867761913541,-0.01697749173300349,-0.030652135900315722,0.7004008939601414
227.0,0.11119972664366842,-0.042085976114103585,0.001854334362202183,-0.6374079969335672,0.19576930137787735,9.77939645241985,0.20557411133974865,-0.049773516461901604,-0.3200668197361254,88.84603198319513,-3.725034074976296,-1.1449777393633118,-0.71359188380801,-0.01623210004224919,-0.0302742044461256,0.6997130851310345
228.0,0.10736196009602775,-0.06320024612156795,0.004080392987552704,-0.5896233533054933,0.2197314248824871,9.78180709717766,0.4852971363150356,0.3773561853174363,0.32739098529322763,89.14816720127499,-3.445808368133309,-1.2827963293590754,-0.7117961975370695,-0.01355246121870524,-0.029456687545643442,0.7016159547308398
229.0,0.10582572777340676,-0.07030566483084187,0.0032726199842643584,-0.6041723052714398,0.2400460267505901,9.780445318646724,0.12304042092840282,0.2778840479937057,0.25617378048780487,88.84468430369787,-3.5301829268292684,-1.4047821597167585,-0.713633226247443,-0.013424968198269079,-0.03065470302675059,0.6996997214952794
230.0,0.10216167434715823,-0.061277556105054164,-0.0012727230152485857,-0.6035141620771045,0.23037519201228887,9.780258064516119,0.09773443061331535,0.378165919692031,0.027349516222696782,88.70274097542242,-3.525251723427372,-1.3455795609943426,-0.7144884827357629,-0.01381375128620134,-0.030279559798003067,0.6988380627891517
231.0,0.10748003072196621,-0.06468313289123676,0.0029644449439886105,-0.6419103068450038,0.26376420890937025,9.776645161290315,0.485283545951819,1.044602113071822,-0.6117032660822,88.9762192780338,-3.7540573133265895,-1.5462524821100745,-0.712734156831591,-0.013923064385036155,-0.032945064165130565,0.7004969908098984
232.0,0.11867549923195085,-0.11088287250384024,0.0027450076804915527,-0.7668064516129034,0.4579466205837174,9.75329032258064,-0.2822844662058371,-0.34599654377880174,0.33941292242703536,88.67036770353303,-4.478921850998463,-2.696985407066052,-0.7141768029201228,-0.011721832268049156,-0.044452378114823346,0.6981682725261137
233.0,0.13445429170881573,-0.08418524034318683,0.0014016147765164278,-0.7000098347757671,0.24093564310067064,9.76582533438237,-0.32473229506200585,0.13731471984938742,-0.9147269327675996,89.27565518339514,-4.089651474279719,-1.4170275678131206,-0.7107011036282361,-0.016926653220767293,-0.034192477181034804,0.7021504474005471
234.0,0.13276132404181185,-0.07662315012551046,0.0006604848076130525,-0.6053117530253644,0.1741826833014874,9.777475647221907,0.10247520231538723,-0.3557990052826796,-0.1992257455696677,89.79849387433967,-3.537817288599153,-1.0220350492675434,-0.7076903539306696,-0.01568787798711176,-0.02844764219497209,0.705580203053576
235.0,0.13136376493949273,-0.07928085309654942,0.002741148701809599,-0.5749623281255853,0.1463893447229403,9.78196363006256,0.2363278469334233,0.3910809121052039,-0.04082351026563262,90.0923536960024,-3.3578967395376713,-0.8573116874601926,-0.7059573108462871,-0.015491695720130379,-0.026370853695028285,0.7074873140114268
236.0,0.1263149469858754,-0.06087832977408117,0.006677025963808024,-0.5493037447079537,0.12638822074856695,9.78470358922483,0.23830001217638908,0.03969368185905359,-0.27199945674571957,90.44159015445283,-3.2075774020269003,-0.7435247953429995,-0.7038710242174984,-0.015167058505226483,-0.024788480371707687,0.7096729511024878
237.0,0.12288239481473155,-0.054147465437788034,0.005941778127458694,-0.4768024427709714,0.0987259750477689,9.78879888351879,0.09451758083249039,0.1352597785770484,0.4933374077404368,90.2485531171556,-2.786580916788431,-0.57777083099172,-0.7051512208671087,-0.013577531392267056,-0.021169028860814502,0.7085816590018734
238.0,0.1172350605072871,-0.056327076542654834,0.0014185680566483085,-0.4817804503390655,0.0738995728897381,9.789584335543818,-0.32641351485519465,0.32929885073620324,0.40427590292607996,89.76189949327488,-2.812896083885954,-0.43119462084597804,-0.7081461418151436,-0.014756264439642577,-0.020335017225057136,0.7055895716102993
239.0,0.11819433516915812,-0.047304091266719125,0.004451219512195121,-0.4697604248623132,0.05875393391030685,9.78981136900079,0.20847142997639653,0.006052075137686852,0.32784839693155,89.53310508457906,-2.7418359067663256,-0.346165666797797,-0.7095751647954367,-0.014886426805074744,-0.019333174548780484,0.7041852668727379
240.0,0.12472773594095388,-0.05147001798358997,0.007191431568693568,-0.5087077853958264,0.053219708890637304,9.78812285039901,0.3733757399497958,0.18777186130156232,-0.12967339178000076,89.35647309720505,-2.9746273907871563,-0.3175300780225544,-0.7106395767610059,-0.016547104011024313,-0.020566874600811132,0.703040683562137
241.0,0.11641225506725114,-0.04155355737889177,0.002523135139185493,-0.4697006668914615,0.07550904799370575,9.789109812296282,0.30911730545876887,0.12453109194110373,0.021050400884193174,89.46465287924768,-2.7456050260387395,-0.44240919223708364,-0.7100131951546966,-0.014320758195028286,-0.01998047108669589,0.7037494284262298
242.0,0.11382296466973886,-0.045894009216589864,0.004017665130568357,-0.42666858678955455,0.08019354838709679,9.790313364055303,0.23648233486943165,0.12080213133640552,0.08782162058371736,89.55082565284178,-2.4945324500768047,-0.47093413978494625,-0.7095133017158219,-0.012556631243855605,-0.01859778698079877,0.7043224111493858
243.0,0.11501425574163576,-0.02666120602450264,0.002938415570791653,-0.3647814806489078,0.06851986624704959,9.7917931887153,0.15447616940167097,0.6388475399010902,0.08959703177100894,89.3973468350755,-2.128662517327938,-0.3985153586414896,-0.7105037238541736,-0.01077899631852497,-0.015864858232924956,0.7033785731780562
244.0,0.11411629388183282,-0.034223895695178155,0.005506481585553182,-0.44286300625679065,0.0714134539732494,9.790896594357653,-0.020391119665804952,0.5513849471732044,0.26799506387921024,89.25622283728597,-2.5852080289236072,-0.4167199383687385,-0.7113180211935111,-0.013518681442602378,-0.01879150718609269,0.7024453070129069
245.0,0.12904355400696865,-0.04962730883069201,0.005790875201378742,-0.4822149132666443,0.07016909257802253,9.789399910082054,0.07260973970626804,0.40837296513806154,0.6569430004495898,88.9349230545877,-2.816917570529392,-0.40855678178037536,-0.7132168783962947,-0.015040198374911022,-0.020127745313476456,0.7004574736946256
246.0,0.1244614851448054,-0.056862809561275346,0.004521205649844517,-0.5210546532539059,0.06520493799408038,9.78724219774456,0.08073531340152111,0.4099600520774793,0.15477718378854294,88.4929631593983,-3.0426969765089353,-0.3840198943464089,-0.7158598763444605,-0.016709755830120635,-0.021278688835309655,0.6976911470748474
247.0,0.11818965194260242,-0.05158405455022293,0.004752538308793228,-0.5255351991307933,0.05703795286800794,9.787736690270131,0.11311631261473906,0.004908021430444692,-0.004769866247049587,88.45952521449178,-3.066471376119291,-0.33832331122850395,-0.716083048886516,-0.01716056389681915,-0.021129360060319957,0.6974667059761717
248.0,0.1061255104716946,-0.046936795174403356,0.009703570491926116,-0.48733565621370506,0.05818695440410626,9.788817204301079,0.3799895095725151,0.4849186055224608,-0.34586939417781276,88.55725572290285,-2.8477960735828556,-0.3429568955827807,-0.7155302644849577,-0.01572659123951894,-0.019845087952268553,0.6981048586505565
249.0,0.11445929339477728,-0.03453763440860215,0.008205837173579108,-0.5194254992319508,0.09887711213517666,9.787473118279564,0.4950940860215054,0.3442492319508449,-0.38568548387096774,89.04359639016897,-3.0355030721966205,-0.5790610599078341,-0.7125253808003074,-0.015340956654377881,-0.022561378526881726,0.7010851785023042
250.0,0.11568817204301077,-0.039966205837173585,0.0051643625192012285,-0.5230291858678955,0.112852534562212,9.787351766513051,0.1519489247311828,0.32423195084485407,0.32335829493087553,89.06159754224271,-3.054790706605223,-0.6581221198156681,-0.7124046029447002,-0.014995343731182794,-0.0231783307265745,0.7012025610168973
251.0,0.095142089093702,-0.03715898617511521,0.0038225806451612906,-0.45990245775729643,0.07840322580645165,9.789655913978494,-0.04086021505376343,-0.8411146313364055,-0.21038786482334867,88.97031970046083,-2.687951228878648,-0.4578341013824885,-0.7130185830023041,-0.013937124717357908,-0.01962808647388633,0.7006766464162827
252.0,0.09363709677419355,-0.026733870967741935,0.0006693548387096777,-0.42986290322580645,0.07078225806451613,9.791532258064517,-0.39375,0.5686995967741936,0.08760080645161293,89.12121975806451,-2.5203629032258066,-0.4119959677419355,-0.7121180379758063,-0.013211994548387096,-0.018288643056451614,0.7016389904516129
253.0,0.0912258064516129,-0.0357983870967742,0.000491935483870968,-0.4157580645161291,0.02914516129032258,9.791798387096776,-0.14732862903225807,-0.16597782258064514,0.11174395161290324,89.04490927419354,-2.4310987903225807,-0.17056451612903223,-0.7126165568548387,-0.014244079975806453,-0.016110377225806456,0.7011852142903227
254.0,0.09814535798583791,-0.02193823760818254,-0.0021288355625491734,-0.3160731707317074,0.021922108575924467,9.79612096774194,-0.16100634343036976,-1.5616074940991347,0.07646046420141621,89.13055664830841,-1.844225757277734,-0.1250430271439811,-0.7121620131748623,-0.010843295667977971,-0.012275515178992922,0.7017700927228561
255.0,0.10885090479937055,-0.02261428009441385,-0.003681353265145553,-0.27006077891424085,0.012170731707317072,9.796201612903234,0.42481436860739563,1.600597462627852,0.9401455546813533,88.60373598544453,-1.580605822187254,-0.0709640538945712,-0.7153856684463022,-0.009611195092053503,-0.010270157460464203,0.6984953973977184
256.0,0.09913512981904013,-0.020286978756884344,-0.0018809992132179383,-0.3044215184893785,0.026012785208497254,9.796685483870974,0.11601101494885913,0.3556414732494099,-0.19474577104642016,88.41953432336743,-1.7733674272226594,-0.14982174468922108,-0.716469197533635,-0.010256110787962236,-0.012036161516522426,0.6973859783682139
257.0,0.10497482297403618,-0.027671715184893794,-0.0015493705743509045,-0.27176317859952803,0.03238139260424864,9.798451612903232,0.07282405586152632,0.10677738985051144,-0.08396562745869396,88.4799788552321,-1.583054681353265,-0.18678083202202989,-0.7161220406418176,-0.008783963321400471,-0.011155567266325729,0.6978093587728162
258.0,0.11401966955153425,-0.03879150275373722,-0.0005287175452399684,-0.2518332022029898,0.035581825334382394,9.799354838709686,0.10874065696302122,0.2484239771833202,0.2997762588512982,88.44709628245477,-1.4753983084185682,-0.2072261014948859,-0.7163431228410702,-0.007935072507474428,-0.0106171703509048,0.6976093318823758
259.0,0.11982258064516131,-0.07616129032258066,0.001999999999999999,-0.21077419354838717,0.02213709677419356,9.799677419354847,0.024546370967741926,0.2267641129032258,0.23170362903225805,88.20216733870967,-1.2341733870967742,-0.1269657258064516,-0.7178707005645163,-0.0070049165,-0.008594586677419356,0.6960748001370965
260.0,0.14262903225806453,-0.10543548387096777,0.004951612903225806,-0.19233064516129034,-0.04425806451612902,9.79990322580646,0.020766129032258062,-0.3813508064516129,-0.31849798387096767,88.18724798387096,-1.1223790322580647,0.2621471774193548,-0.7179629423709678,-0.008838383177419355,-0.00531232289516129,0.6959756174999999
261.0,0.1360725806451613,-0.04325806451612904,0.0013145161290322584,-0.09763709677419355,-0.06664516129032258,9.800000000000008,-0.026814516129032257,-0.33467741935483875,0.1618951612903226,88.12741935483871,-0.5720262096774194,0.3831653225806452,-0.7183453962741936,-0.006132409500000001,-0.0009832078548387092,0.6955951320161291
262.0,0.14070967741935483,-0.045846774193548406,-0.0007419354838709678,-0.06087903225806452,-0.0711209677419355,9.800000000000008,0.16068548387096773,0.2226310483870968,0.043245967741935495,88.14657258064516,-0.35660282258064513,0.4057459677419355,-0.7182175160403224,-0.005022356790322581,0.0004643099677419356,0.6957731682661292
263.0,0.13574193548387098,-0.03166935483870969,-0.0011532258064516129,-0.018741935483870965,-0.08093548387096773,9.800000000000008,0.16915322580645162,0.24274193548387096,0.11895161290322581,88.16310483870967,-0.11058467741935485,0.4644657258064516,-0.7181111958951609,-0.0036882958870967757,0.002493975354838709,0.6959168974758068
264.0,0.13361331679073618,-0.02146753515301903,-0.0023655913978494624,-0.005943134822167079,-0.08706451612903224,9.800000000000008,0.094683105872622,0.22713373655913977,0.11397720223325061,88.17837701612903,-0.03497725392886683,0.4910786290322581,-0.7180145237016125,-0.003301881276054592,0.003286315663771712,0.6960327172580649
265.0,0.13977440033085192,-0.03042328370554178,-0.0019489247311827956,-0.0031046319272125724,-0.08941935483870966,9.800000000000008,0.17239195616211744,0.5968581989247311,-0.18356079404466502,88.22757056451613,-0.01955515922249793,0.5152217741935484,-0.7176994561935481,-0.0033392764968982634,0.0034512753560794036,0.6963394680483873
266.0,0.13491542597187756,-0.03317535153019025,-0.001970430107526882,-0.03978618693134823,-0.04824193548387097,9.800000000000008,0.4068108974358974,0.44694220430107523,-0.3156715260545906,88.69485887096775,-0.23424834574028122,0.27726814516129034,-0.7149188121129033,-0.003279391179900745,0.00036435676674937876,0.6991740568548388
267.0,0.1266889285642236,-0.040612852791058945,-0.002199711513244164,-0.08069915168754666,-0.03151986624704957,9.800000000000008,0.19953546445358994,0.39149701678468396,-0.05439482085577681,88.90946597167584,-0.47218662369626174,0.17926337529504327,-0.7136154142006296,-0.004278591450493252,-0.0017356027311021,0.7005087392407553
268.0,0.12549769008856343,-0.03962094252456174,-0.0026240493050091788,-0.08485360810183781,-0.03642525570416996,9.800000000000008,0.08482317577518207,0.3648513309729871,-0.023316362040791624,88.99928943745081,-0.49476266668684055,0.20495426829268293,-0.71314059684225,-0.004667800507504689,-0.001732703688131695,0.701014946136507
269.0,0.12256687647521637,-0.04461113296616839,-0.0019034225019669544,-0.09431845003933909,-0.06282553107789146,9.800000000000008,0.008256294256490944,0.4024525472069237,0.5518809008654603,88.61516891227379,-0.549123475609756,0.3573158438237608,-0.7154123223566089,-0.0059717823058615255,-0.0010677013874901653,0.6986565324230923
270.0,0.13453343823760822,-0.04936605035405195,-0.0009315499606608966,-0.09145357985837924,-0.08089260424862317,9.800000000000008,0.004228953579858377,0.01959824940991345,0.31772472462627854,88.33543223839496,-0.5417240361919748,0.46426780094413844,-0.7170721265049176,-0.0065867428908339895,-0.0003222453389063729,0.6969318954655787
271.0,0.13820220298977182,-0.04103383162863889,-0.0024980330448465776,-0.061170338316286405,-0.09874468922108581,9.800000000000008,0.12197334775767113,0.14563581825334382,0.2591143784421715,88.18177861919747,-0.35735395357985833,0.5691802714398111,-0.717982900143588,-0.006075614780094413,0.0014354141007081032,0.6960049994142409
272.0,0.1285967741935484,-0.02477419354838711,-0.0025000000000000005,-0.058733870967741936,-0.09826612903225808,9.800000000000008,0.2762600806451613,0.23331653225806454,-0.047026209677419356,88.14581653225807,-0.3424899193548387,0.5694052419354838,-0.7182169728467742,-0.005955455604838709,0.0014840896451612903,0.6957800083790324
273.0,0.12925806451612903,-0.022225806451612908,-0.0024919354838709683,-0.004758064516129024,-0.08392741935483872,9.800000000000008,0.2651209677419355,-0.205695564516129,-0.07051411290322579,88.32998991935483,-0.02610887096774195,0.4913306451612903,-0.7171109586209679,-0.003314848032258064,0.0031036873790322578,0.6969223505080646
274.0,0.13205625491738787,0.010314516129032256,0.0005365853658536577,0.14954878048780493,-0.10245967741935486,9.797104642014167,0.13361895161290321,-0.04295215381589297,0.20199400078678204,88.33359559402047,0.8681254917387883,0.5970089988198268,-0.7170385856939419,0.0017409046852871765,0.009322648646538156,0.6968738086986624
275.0,0.12263296616837137,-0.029072580645161293,-0.003473642800944139,0.1015808418568057,-0.06925000000000002,9.798552321007087,0.050554435483870966,0.35551485051140835,0.3830030487804878,88.03111231313926,0.5932361329661683,0.4038220397324941,-0.7188930806211644,0.00123444846361133,0.006469072811172304,0.6950356699622344
276.0,0.10832454760031471,-0.04768548387096776,0.00039221085759244697,0.01943961447678995,-0.0631209677419355,9.799276160503547,0.036542338709677415,1.0798239575137687,0.1563200727773407,87.8427738985051,0.11244467938630998,0.371996705350118,-0.7200668541170341,-0.0017206439254523996,0.0032166443652635714,0.6938506066585365
277.0,0.09491797797010228,-0.05100255704169947,0.006656569630212429,-0.051402045633359573,-0.045130409126671905,9.799638080251778,0.34356436860739575,0.36634908536585375,-0.0053279897718332,87.80582218725414,-0.3010154405979544,0.26438458890637295,-0.720306761638277,-0.0036139795867427224,-7.416516955153487e-05,0.6935949282586545
278.0,0.11938670338316286,-0.07024154209284028,0.0029909520062942553,-0.052359166011014965,-0.03920613690007868,9.799819040125893,0.10173583792289535,0.34414093233674276,0.6880187844217152,87.34280832022029,-0.3066409323367427,0.23104346970889061,-0.7231140063690009,-0.0035242514673485444,-0.00031448220062942593,0.6906781356601102
279.0,0.11559028324154208,-0.06931431943351693,-0.0035918568056648305,-0.07319925255704171,-0.04669984264358774,9.800000000000008,0.31296469315499603,0.5732063827694729,0.5715270948072384,86.87247123328088,-0.42894989181746657,0.2744467938630999,-0.7259361517132179,-0.004640838481904013,-0.0008260057336742723,0.6877190138001574
280.0,0.13117820613690007,-0.07330232100708103,0.003998426435877262,-0.2141681746656176,-0.032285405192761615,9.797161290322586,0.06182508851298189,1.0330497639653815,0.44869197482297407,86.38883138276947,-1.2538650668764753,0.19009638080251773,-0.7287761076711252,-0.009427987886113296,-0.006301566697482296,0.6845939768920142
281.0,0.13555153422501964,-0.0898552321007081,0.00848072383949646,-0.3333107789142408,-0.03659559402045635,9.793671125098353,0.15317171518489378,0.8571990558615263,0.7792486231313926,85.86854838709678,-1.9468135326514555,0.21371459480723837,-0.7318217233524784,-0.014081857545239964,-0.010196669568056647,0.6812063151306058
282.0,0.12244217151848935,-0.08549331235247834,0.008684893784421718,-0.39929661683713613,-0.05214830841856807,9.791674272226597,0.12104887883556253,0.5032159716758458,0.497241345397325,85.26765342250195,-2.3338463808025174,0.3041281471282455,-0.7353434042608182,-0.017166474095987407,-0.011807567957120377,0.6773265317572776
283.0,0.11555310778914239,-0.06869315499606608,0.005386506687647523,-0.3907088906372935,-0.05403560188827697,9.79209520062943,0.20049296813532652,0.2872098741148702,-0.05920780881195903,85.34138473642801,-2.2823392014162076,0.3124791011014949,-0.7349368090485838,-0.01687247377655389,-0.01148191687942565,0.677806873928206
284.0,0.10933733280881194,-0.06187411487018096,0.0028505114083398906,-0.3627179386309992,-0.05795948072383952,9.795292289535805,0.20535257671125098,0.38120082612116446,0.2195281766325728,85.19037667191188,-2.1216057730133753,0.33345544846577496,-0.7358457794047994,-0.01596451964083399,-0.010356903903815893,0.6768682962464594
285.0,0.120473360366358,-0.06238329399423029,0.006012104339405676,-0.3073815086041679,-0.052370352438015716,9.795882083560295,0.09158887106861144,-0.0845365803223789,0.4509635558514393,84.90596687193607,-1.7985271162420058,0.3039214277068329,-0.7375569750930118,-0.01373931339299764,-0.008630248553955092,0.6750599023061288
286.0,0.12421779741370614,-0.06474396800419617,-0.0005974096713671872,-0.31099602574189517,-0.0590018559987089,9.797339153503202,0.3133986841574371,0.16413906625108432,0.3828381901995198,84.55123284588149,-1.8200690262563295,0.34162436452218115,-0.7396529954969385,-0.014128878569040125,-0.008472214072414209,0.6727647549099488
287.0,0.11234945732211664,-0.04970862837660635,0.0018220662107365476,-0.357388453468902,-0.053731258447820236,9.793795461881423,0.1439706835421332,0.6369438938651173,-0.041597476497407665,84.41278142589118,-2.092973021192681,0.3077565174302488,-0.7403907132259476,-0.015709479976986622,-0.010250695954185075,0.6719018276558988
288.0,0.11747301741007483,-0.059247311827956985,-0.0001283059977001765,-0.39073130383909294,-0.06109645141116425,9.791853376102004,0.06531551978050797,0.4611929835179245,0.32567733865924264,84.1843755673909,-2.283708063507434,0.3564727954971858,-0.7417428852978674,-0.01725591069236821,-0.01102611066513345,0.670357850966128
289.0,0.11513304686396739,-0.04756936795174403,0.00019391151727894424,-0.40880388952772906,-0.06852068833343421,9.790789001190264,0.1460527244850612,0.5001971998628174,-1.5382597994689773e-05,83.93357743751133,-2.3900050939095,0.4031773890939902,-0.743189530921947,-0.018231215395751375,-0.011325422312897175,0.6687239000023403
290.0,0.1260173092053501,-0.04379543666404406,0.0012383949645948065,-0.42532336742722276,-0.06964909520062944,9.790678206136903,0.1379819040125885,-0.014624311565696269,-0.045515342250196676,83.95931353265144,-2.48787372147915,0.4085365853658537,-0.7430388999464987,-0.018886553891424074,-0.011846400546026752,0.6688639926546025
291.0,0.12791330410999963,-0.05237840470570604,-0.0023467835600014986,-0.34859926567007604,-0.08403926417144356,9.794748267206181,0.08278188340639166,0.34762841407215916,0.01940307594320184,83.83608543141884,-2.039519875613503,0.49161468285189763,-0.7438037822742123,-0.016469168639916078,-0.008684596966655427,0.668112578810348
292.0,0.12013839871117604,-0.049736015885504484,0.003013862350605075,-0.2709872803566745,-0.05955149675920722,9.79701536098311,0.30947709433891574,-0.09278689445880631,0.044300279120302724,83.96014539076842,-1.5782276797422352,0.34859058296804163,-0.7431204734809298,-0.012548233349855758,-0.006997097084429209,0.6689480658347571
293.0,0.13404301075268818,-0.06419662058371736,0.005470814132104455,-0.31706720430107527,-0.03654301075268817,9.796948540706612,0.30995823732718897,0.8054819508448541,0.26275441628264207,83.85559955837172,-1.850739247311828,0.21235119047619044,-0.743706624392857,-0.013574669086789556,-0.00947034006950845,0.6682635862791858
294.0,0.14690643849986884,-0.06814217339178,0.004867389756846877,-0.42058956202465253,-0.02057854707579334,9.79322250009367,0.2056128470270878,0.6592171752650706,0.2723292144355775,83.63716678843056,-2.455816860083923,0.12099783166610467,-0.7448786269313811,-0.016993017823095802,-0.013570114929227078,0.6667965102706905
295.0,0.1341661608781986,-0.0597118317035705,0.0036222509460117638,-0.44129631711063666,-0.024029672923457354,9.791353377542995,0.08696540968865911,-0.05895468041661989,0.09884581881533099,83.47362851710315,-2.5746190195196883,0.14222174609418906,-0.745808357440729,-0.017940452107976478,-0.014068496874751788,0.6657383007559289
296.0,0.12113491439061852,-0.05555662020905924,-0.0011141114982578405,-0.41589337229777823,-0.03826478962946313,9.791038140197074,0.07504472481360758,0.20233359325240716,0.4114281265220486,83.29507710932523,-2.4275188734030198,0.22323260883818513,-0.7468738424307912,-0.01749393475448653,-0.0126478499576449,0.6645965633662375
297.0,0.1246289011277209,-0.062293095050766176,0.00017009478850548733,-0.41006650181709187,-0.045103592971413614,9.791357011726802,0.12669766962646584,0.011411852309767323,0.13803693192461874,83.0301014386872,-2.396339121801356,0.26494651755273313,-0.7484238477589823,-0.017543984480161853,-0.012131010493799409,0.6628677384202539
298.0,0.13144393241167432,-0.06437563223558503,-0.0020520025476752466,-0.42208871904387246,-0.03577572964669741,9.791829830279873,0.3267932074482035,0.6091566445618373,0.10759010527893295,82.83365179273912,-2.4690227979468733,0.21133293994230262,-0.7495559670896557,-0.017714563325090856,-0.01288100019781949,0.6615651397583455
299.0,0.1276849874489528,-0.04497853208946836,0.00032647708965568884,-0.44973830130006365,-0.04500352178636995,9.790922782960552,0.11170010490427483,0.2366151043422876,0.06244473792664194,82.8704008373609,-2.6289842549923197,0.26142964857067924,-0.7493164403858977,-0.019059079483945904,-0.013437131560750815,0.6617921656871978
300.0,0.11942467498407702,-0.045151324416469976,0.0042538683451350656,-0.4406564010340564,-0.05571451050916041,9.79046907197183,-0.04855662957551234,0.1274905398823573,0.27193857480049455,82.70565452774343,-2.5719278033794164,0.32714819602113065,-0.7502924699686785,-0.019097423728148065,-0.01265684154074407,0.6606989541669476
301.0,0.10327646023004008,-0.04956228691319173,0.004613165486493575,-0.43753512419916823,-0.060473305608632136,9.790596455734146,0.07463494248997789,-0.11143667341051292,0.08999171068899628,82.50681526544528,-2.5532239331609907,0.3536557266494324,-0.7514290060779663,-0.019147678815293542,-0.012350684613802407,0.6594127190425612
302.0,0.12750275373721479,-0.06610228166797798,0.0026573564122738006,-0.4305094413847365,-0.05559126671911882,9.791148701809602,0.22624409913453972,0.5460710070810386,0.3437008261211644,82.38752704563336,-2.51287372147915,0.32142014162077104,-0.7521186641864672,-0.018728916374508256,-0.012283807994492527,0.6586309524980329
303.0,0.1317104642014162,-0.068360346184107,0.00010129819040125844,-0.44532002360346185,-0.061697285601888294,9.790535011801735,0.08215725806451613,0.5985026553894571,0.5518513965381588,82.09179165027537,-2.5962922895357985,0.3598151062155783,-0.7537953057478364,-0.019536247440597954,-0.012498948356018884,0.6566845144417781
304.0,0.12187214791502751,-0.06433477576711251,0.0034051927616050356,-0.4570153422501966,-0.06675629425649096,9.79026750590087,0.12446646341463413,0.24682828481510624,0.12839422698662473,81.66908192368214,-2.6676694040125883,0.3866628147128245,-0.7561845383135326,-0.020208130437057437,-0.012654346950236036,0.6539084331711251
305.0,0.11402360346184107,-0.06328245476003147,4.123304484657751,-0.4531605035405192,-0.07676317859952794,9.790133752950439,0.12923878835562547,0.38630015735641227,0.22114968528717543,81.49182238394965,-2.647236428009441,0.44674468922108573,-0.7571963093981117,-0.020423247029110938,-0.012105082277734068,0.6527474034712826
306.0,0.11476160503540517,-0.058214791502753736,2.060696302124312,-0.4539956726986626,-0.07396774193548386,9.790055074744302,0.19839693154996066,0.2872934697088906,-0.07953137293469709,81.18663208103855,-2.6503048780487806,0.43127950432730133,-0.7589406275236035,-0.020406343605035404,-0.012178386559795435,0.6507146418693943
307.0,0.11430055074744297,-0.06055586152635718,1.0321428009441387,-0.4794061762391818,-0.0722946498819827,9.788322580645158,0.22384441384736428,0.8394522029897717,0.02273923092053501,81.18791183123525,-2.8022816679779696,0.4238714594807238,-0.7589195407547207,-0.021364052748229743,-0.013123046434893784,0.6506896431093627
308.0,0.11462627852084972,-0.06690637293469708,0.5211471282454762,-0.5199433516915815,-0.06251770259638081,9.787021243115653,0.24166011014948857,0.38140243902439025,-0.04461054287962234,81.27264948859167,-3.037775373721479,0.3622049567269866,-0.758397063952793,-0.022559534874901654,-0.014843126490952006,0.651223162267506
309.0,0.10396538158929976,-0.05893312352478363,0.2655027537372148,-0.5206679779701023,-0.060070810385523234,9.78851062155783,0.19852478363493312,0.3654897718332022,-0.02557533438237608,81.33528225806452,-3.0427370180959876,0.34600708103855227,-0.7580381760125885,-0.022493716654602675,-0.014964567442958304,0.651647627754524
310.0,0.1038466149638455,-0.06152811809224083,0.006282155033531902,-0.5268897568468773,-0.06121201903263275,9.78778065640103,0.21939066539282903,0.5224591154321682,0.09113664250121763,81.28328872560039,-3.078900776478963,0.35229384436701505,-0.758334305105691,-0.022752750421078265,-0.015108947079539923,0.6512867344568581
311.0,0.11251339402794952,-0.06540607320819751,0.008329905211494511,-0.5382285133565621,-0.0712551047169458,9.786876166123413,0.16678620602450264,0.17033164268854667,0.23722351401221384,81.08381588128958,-3.137945667547113,0.41100136750215427,-0.7594542091775502,-0.023506044620452585,-0.015028111277771533,0.6499555188452661
312.0,0.14101082761979694,-0.06541605784721441,0.009521561575062756,-0.48017946124161703,-0.05388483009254057,9.788868157806002,0.8558643362931325,0.722160559739238,2.2210108276197973,80.4702474616912,-2.800089449627215,0.3074233824135476,-0.7629708459192237,-0.02076496049492338,-0.013731417426848,0.6458799325308154
313.0,0.13180510284365518,-0.07060619684537858,0.004234760780787546,-0.5912850773669027,0.2178475890749691,9.773279757221534,0.5145297103892698,1.070850192948934,1.747058933722978,77.8266667603312,-3.4596867858079503,-1.2812886366190852,-0.7771607843089431,-0.01700279275036529,-0.028007606445618366,0.6276990960466073
314.0,0.1312329998876026,-0.054240942639841146,0.008631935858529099,-0.7798478888014686,0.13717713836124537,9.763134764527369,-0.14492829980143118,1.0304093608332394,-0.43936392416919556,77.75314946985876,-4.56833178786857,-0.804147465437788,-0.7774431284054549,-0.026879533381476903,-0.030818796948222246,0.6271702092113447
315.0,0.13922146041736919,-0.03678768124086771,0.01053725975047769,-0.8549477351916375,0.053744707953991985,9.760500168596153,-0.21318047281855307,0.5287222284665243,-0.1451987561350268,77.92667706342962,-5.000496422014912,-0.3111559139784946,-0.7764962095751375,-0.03246354576636319,-0.029774486830766923,0.6283357036431756
316.0,0.13437862950058074,-0.03415308530965494,0.009135663706867485,-0.8616477464313814,0.029059608107601814,9.761591547712706,0.07166507436963769,-0.25609521936233187,-0.23339796185980294,78.06156335468884,-5.035899273163238,-0.1678468397587202,-0.7758121271203775,-0.033419051785620615,-0.029033953973998723,0.6292916195084481
317.0,0.1325866396912817,-0.0372968416320108,0.00691637630662021,-0.7662566033494437,0.026717058184406735,9.769993256153752,0.12250149863249783,-0.2328371454797497,-0.14863741523359936,78.32351377805253,-4.475635513843617,-0.15419289273537898,-0.7745472107592446,-0.029539226388483015,-0.026033605456708256,0.6312120906000147
318.0,0.1259902358328794,-0.03873408783715629,0.006513546773184854,-0.6658014081381509,0.014205450987512361,9.77745970263672,0.2610653836066896,-0.043452056729003985,-0.08176103007928343,78.41912536060845,-3.8864537311626215,-0.07955198813774739,-0.7741694518870664,-0.02597554157336239,-0.022278235000302613,0.6320056076333999
319.0,0.11239322963949241,-0.032093243761221725,0.005943634126167566,-0.6013782807803265,-0.0201868103048276,9.781538663277445,-0.34242167483709574,0.7950520990941919,-0.05649322156993282,78.55746787306583,-3.5131029474066446,0.1233091750892695,-0.7735008455934151,-0.02458653955536727,-0.018815045112267746,0.6329721527702801
320.0,0.11754201214468718,-0.046554096310193874,0.005418709273941376,-0.687211563678912,-0.044216143153987364,9.77544675099356,-0.04262114426355182,0.31572530210413763,0.13847742540700841,78.47774062418043,-4.014714337590026,0.2576862555226049,-0.773857017564607,-0.028839679887833126,-0.02050838162379713,0.6323164061530393
321.0,0.12491577397163547,-0.056864774354939585,0.005101172103532449,-0.7312100304625875,-0.03610885835905506,9.772703705945244,0.09579702031511629,0.4133947124210696,0.11499500695999515,78.3547239706268,-4.275059765175816,0.20924241965744722,-0.7744947872166073,-0.030405288291674232,-0.022196431988137748,0.6314294429663703
322.0,0.12742641570336297,-0.06157400794851621,0.004923520748855131,-0.7665216163327884,-0.029771187637434693,9.771210232201572,0.3041091710544897,0.5544894490508181,0.0475692973430975,78.28983739837398,-4.482361707922291,0.17122722871149307,-0.7747865203730557,-0.03162488078077024,-0.02353996105465109,0.6309748595760254
323.0,0.12749803304484655,-0.07053029110936271,0.003751376868607396,-0.7664594807238394,-0.03290007867820614,9.77062942564909,-0.08873918174665618,0.21447678992918962,0.3467643587726199,78.12797010228167,-4.478707710464201,0.19172895357985836,-0.7756661610495672,-0.031703542788355625,-0.023330537518489375,0.6299072737199056
324.0,0.1236978756884343,-0.054612116443745085,0.0031699449252557037,-0.7591896144767899,-0.05729189614476789,9.770833988985046,0.043971282454760036,0.4510129819040125,0.05713512981904009,77.97375098347757,-4.440032454760031,0.3379720692368214,-0.7765233236955154,-0.03229539178756885,-0.022077165360346183,0.6288724761636508
325.0,0.11895515342250197,-0.0509874114870181,0.002663650668764751,-0.7629244689221085,-0.06072541306058222,9.771723052714393,0.13906864673485445,0.07320023603461842,0.3216684697088906,77.83700826121164,-4.457231018882769,0.3530881195908734,-0.7772592650617622,-0.03255110282061369,-0.022029952695908732,0.627944729584579
326.0,0.10418410700236033,-0.052169551534225034,0.004349921321793864,-0.7891750590086546,-0.048119590873328094,9.769317073170726,0.10924714791502754,0.6968676239181747,-0.004153963414634143,77.77280684500393,-4.614900914634147,0.281294256490952,-0.7775705186190007,-0.03322907209323367,-0.02339156173741149,0.6274704364736426
327.0,0.11131632385448278,-0.08094230264883293,0.008365628863661906,-0.8171163313476454,-0.06069420403881458,9.76707789142407,0.23928899254430333,0.6141452174890412,0.165634951856431,77.56306432879997,-4.776002444644263,0.3605972050503915,-0.7786692663818889,-0.034808224387246636,-0.023669075359297142,0.6260029643996476
328.0,0.11982023903188338,-0.08452701285077366,0.008041980442845903,-0.8215361357761041,-0.02928888014686598,9.643778914240752,0.68637344985201,0.12955490614813983,-0.05946714248248472,77.53794935558803,-4.834893433179723,0.17152106515304785,-0.7787880803073882,-0.03409031239425274,-0.025320618214660372,0.6258320608544266
329.0,0.11844726686898206,-0.0672065583904687,0.006066810910044585,-0.8050093851860177,-0.02059269978644487,9.706865853658531,0.07054683694878416,0.09700039339103067,0.15751821775130193,77.42967608463528,-4.71955814928253,0.117210740511783,-0.7794206343315069,-0.03307070375866397,-0.02500273250716533,0.6251167724876456
330.0,0.11968100670638043,-0.07043680454085649,0.007912629725375596,-0.7672765819939306,-0.031011211644374523,9.740358810085793,0.10061760050204184,0.034905726649432395,0.42734541839946044,77.2024268480012,-4.491109479787195,0.18092199852010044,-0.7807002274489714,-0.03194001535936271,-0.02323380875838297,0.6236419485796524
331.0,0.10765482746993368,-0.0735526956652055,0.00668596156007643,-0.7724714323180097,-0.05979112809561277,9.755350680004492,0.07352548611891646,0.5234676482709527,0.25719109437638155,76.80150144243377,-4.518920235285302,0.3520861432692668,-0.7828774511588175,-0.03314169701397474,-0.02209223033925293,0.620878768675771
332.0,0.10339814918886515,-0.061590798396463226,0.005916601101494886,-0.7827634783260273,-0.05039189239818667,9.762504214903895,0.2762143606459106,0.5174520437600689,-0.08906794425087106,76.7348895695178,-4.574931624892287,0.29656532164399985,-0.7832240974482036,-0.033275086451612895,-0.02278003488966318,0.620408286262036
333.0,0.10854407852834289,-0.05682214978831816,0.00510228166797797,-0.8223416132778836,-0.04283560001498634,9.765996403282003,0.06869825034655874,0.33435544752912966,0.023325980667640772,76.76688420254018,-4.81143807837848,0.2475893091304185,-0.7829890873787044,-0.03462111272619983,-0.024331511410213176,0.6205750431624895
334.0,0.13445974298452662,-0.058957701097748304,0.007773032108201267,-0.8352963545764489,-0.044731744782885635,9.765480499044617,0.06246721741410961,0.23898036791427818,0.13023818890262634,76.66084190363793,-4.883899301262598,0.25868387284103256,-0.7835555493718855,-0.03521278751657862,-0.024614007571840697,0.6198249406468475
335.0,0.13678562062118316,-0.058642051627889547,0.010530703233299615,-0.8370190326327227,-0.039939492712899496,9.764909332733879,0.18328275448653103,0.6440630736952531,-0.1278122775467386,76.62037414296954,-4.897086096437,0.23312282229965156,-0.7837714764729682,-0.03517063632891236,-0.024857147093589597,0.6195436293565246
336.0,0.1333044846577498,-0.035966955153422506,0.009564122738001574,-0.8349803304484658,-0.05521321793863101,9.764999213217935,0.02313139260424861,-0.013788355625491744,-0.0683320220298977,76.79580055074744,-4.8823564122738,0.3203776553894571,-0.7828546819968532,-0.03550678674586939,-0.02423199415892998,0.6207079274225018
337.0,0.13033359559402044,-0.03715342250196696,0.008824547600314713,-0.8217057435090478,-0.050026750590086565,9.765701022816678,0.2603461841070024,0.5751671911880409,0.14747246262785207,76.77385916601101,-4.807464594807238,0.2916896144767899,-0.7829745621101496,-0.03480619285287175,-0.02401513951848938,0.6206075629630212
338.0,0.10914791502753735,0.0005342250196695535,0.008621557828481511,-0.6773162863886701,-0.11258221872541302,9.775155782848145,-0.15301927616050356,-0.3259343036978757,0.1047895357985838,76.69075039339103,-3.9549714791502755,0.6557287568843431,-0.7836036324988199,-0.030982554502753737,-0.016880417878835565,0.6201753562061367
339.0,0.10525845790715971,-0.012600708103855236,0.007040912667191188,-0.6083749016522422,-0.12781353265145554,9.780083792289535,-0.23369394177812747,-0.33755900865460264,0.4379671518489378,76.50046961054286,-3.551541601101494,0.7539806254917387,-0.7847344828308416,-0.028757347691974824,-0.014021132212431156,0.6189478990275372
340.0,0.11572915027537374,-0.017814909520062948,0.004818646734854446,-0.6113432336742721,-0.13194374508261209,9.78079327301337,0.16708300550747443,0.3309746262785208,0.1632941581431943,76.37206309008653,-3.570223987018096,0.7748807533438238,-0.7854347520173091,-0.029024325805074747,-0.013945211354051926,0.6180718773343823
341.0,0.11419866247049569,-0.03912568843430368,0.004789929189614477,-0.618432730133753,-0.12965755310778912,9.780634539732485,0.1069015538945712,0.4673632966168371,-0.06302001376868609,76.25875295043272,-3.6147066778127455,0.7616148701809599,-0.7860182519339103,-0.029271686512785205,-0.014239667295436662,0.6173292197090872
342.0,0.11435090479937057,-0.055570416994492514,-0.00012588512981904013,-0.6750983477576713,-0.12667191188040913,9.776758457907153,0.11782061369000787,0.7423780487804877,0.19197482297403617,76.06849921321793,-3.9474331235247835,0.7400668764752163,-0.7870102581667977,-0.031502832446892205,-0.016086870062942564,0.6159072990086545
343.0,0.11793076317859952,-0.059952793076317845,0.0034539732494099132,-0.7350196695515343,-0.11672698662470495,9.771644374508256,0.2047108575924469,0.5153914240755311,0.17048583792289534,75.78279897718332,-4.298780487804878,0.6789437450826121,-0.788462376490952,-0.03364929148701809,-0.01831371653815893,0.6138678791974821
344.0,0.11975295043273011,-0.0761243115656963,0.003571990558615264,-0.7390416994492526,-0.11352478363493312,9.77136428009441,0.3701514555468135,0.5711447678992919,0.22065302911093626,75.68464791502754,-4.324321400472069,0.6598937844217152,-0.7889614341306058,-0.033712689288749015,-0.01854967392446892,0.6132171030983478
345.0,0.1213186467348545,-0.081801730920535,0.003287175452399685,-0.727501180173092,-0.11900550747442958,9.772698662470491,0.14379425649095198,0.5234756097560975,0.19288945712037764,75.46563729346971,-4.255232100708104,0.6948269079464988,-0.7901376693485443,-0.033442520914240756,-0.017881063202202986,0.6117256168764753
346.0,0.12857142334364083,-0.07607789142407553,0.007086289865149214,-0.7905870857958393,-0.13261557462536366,9.767467110680103,-0.10356041754341025,0.3823984959654548,0.10997097597570124,75.3714752621082,-4.62013075677456,0.7736229026768886,-0.7905234031901816,-0.03641939092278558,-0.019259880669313667,0.6110116067766638
347.0,0.13066258027921615,-0.08233870967741935,0.006765017473880665,-0.8217844949042139,-0.12918347574698552,9.765039613561921,0.2724723482699943,0.38637037308107514,0.0745812787038223,75.36546815819807,-4.804139925987595,0.7523208927231808,-0.79052093145347,-0.0375777692458145,-0.020400316483358646,0.6109238284552083
348.0,0.12261988929288073,-0.06856904012588513,0.0044973039862753125,-0.7440039705048213,-0.1607788421408488,9.77088498605487,-0.003986653784526284,0.048722867781405305,0.03262614570236636,75.08582758440045,-4.348554733141038,0.9374346118106182,-0.792116512425997,-0.03543460123187657,-0.016604226159516795,0.6090760189273157
349.0,0.12977307828699342,-0.07190721591547714,0.005383252607576981,-0.7298844737316734,-0.16547678666182222,9.771524290262454,0.09424563240113162,0.1353181351195813,0.14534173068528455,75.06227103106352,-4.2644499376150655,0.9659643297148328,-0.7922717878038201,-0.035015923726729375,-0.015963754891970373,0.6089313998501784
350.0,0.12029130104825861,-0.06689408414821477,0.0064527630165381045,-0.7427509926262055,-0.1446279862648589,9.771185148203418,0.24935975936492835,0.03437493737545885,0.12852243984341033,75.03663426745189,-4.339180613968823,0.8413875027990447,-0.7924118399986844,-0.034896436820929966,-0.01721187545212958,0.6087277738144901
351.0,0.10894983327713462,-0.05661383987111762,0.006956277396875349,-0.7780487804878049,-0.11880933648046157,9.768568805964549,0.20252613240418119,0.6889775579783448,0.051391386609718634,74.97720205312652,-4.548529935184144,0.692604716945787,-0.7926689000071185,-0.03554370179948298,-0.019325515214491776,0.6082902684316809
352.0,0.1146468847176951,-0.06731688584166948,0.007557978344760404,-0.7707796635570043,-0.11771664606046982,9.769521374245993,0.3829181652991645,0.27950315649469865,-0.10878081563073695,75.03552344423214,-4.502148430182459,0.6824514817728822,-0.792396911464164,-0.035190494603986364,-0.01914343102094339,0.6086788759441384
353.0,0.10966599228204264,-0.06287887302836162,0.004355026038739649,-0.7938767749428646,-0.09499887602562661,9.768796785433288,0.1934032070735454,0.2439902495223109,0.0255587089281031,75.08887827357538,-4.641843224307818,0.5537833445730771,-0.7920608068841557,-0.03545283548555693,-0.020801129949795813,0.6090501186748343
354.0,0.11366479337604433,-0.05886339964782136,0.006851860177587951,-0.7637056685774231,-0.09910696489453374,9.77052512082724,0.06763094301449928,-0.2648376325353115,0.1940869581506875,74.94433353002884,-4.463913163613203,0.5755427859578135,-0.7928613527684989,-0.03434933364216402,-0.019660667044022334,0.6081056759272788
355.0,0.10174867933011125,-0.062099134539732495,0.007693979243939906,-0.6827191937357162,-0.11400816754711328,9.775666554269222,0.16946255292046009,0.3836958150687497,0.2597354913641302,74.72991926117419,-3.988307388258214,0.6632994267730696,-0.7940778180616688,-0.031552084010790155,-0.016507026219399798,0.6067424723945148
356.0,0.10744003596717994,-0.057859166011014956,0.007501592297028962,-0.6979488966318235,-0.10834948109849762,9.775291971076385,0.14619862500468322,0.6223406298003071,0.10036341838072757,74.72604342287663,-4.079396613090555,0.6335035686186354,-0.7940897920992847,-0.032005246474317184,-0.01717749181937732,0.6066997074757783
357.0,0.11307907159716758,-0.05120666142145294,0.00890740324453936,-0.732902926079952,-0.10528681952718144,9.772642145292416,0.05139021580307969,0.3232225984414222,0.09133673335581281,74.71266379584878,-4.284646861301562,0.6119373103293245,-0.7941330508074258,-0.03331354986289385,-0.018389977207785395,0.6065384848505301
358.0,0.11613630999213219,-0.0453076317859953,0.0044345003933910325,-0.7390259638080252,-0.1102570810385523,9.771347954366636,0.27334775767112507,0.509297551140834,0.15365607789142405,74.50661511605036,-4.31805787765539,0.6382843233674274,-0.795225457843037,-0.033760841241738795,-0.018340080444138474,0.6050785268046813
359.0,0.12183831628638866,-0.0627909126671912,0.0027132179386310006,-0.7160129819040126,-0.11407612116443744,9.774508654602668,-0.06332612116443742,0.11661954169944924,0.23958005507474425,74.35076219512194,-4.181080350118018,0.6673780487804878,-0.7960531090908736,-0.03296005866522424,-0.017376857028520848,0.6040657082854051
360.0,0.12177261998426436,-0.06319905586152635,-0.00016522423288748886,-0.7453918174665617,-0.11802989771833203,9.772588512981898,0.07562450826121166,0.4780832022029897,0.23345298977183318,74.17861428009441,-4.353653619197482,0.6890194728560188,-0.7969150791896147,-0.034318977953579854,-0.018083991304484653,0.6028308350629425
361.0,0.12062667191188042,-0.0875121951219512,0.005590086546026752,-0.5937777340676632,-0.12962077104642014,9.780409126671909,-0.011386211644374498,-0.9324277143981117,0.1389039142407553,73.97055222265932,-3.4633138276947286,0.7541527340676633,-0.7981889511801733,-0.02849570050708104,-0.012872947981117228,0.6014822772836351
362.0,0.10355881195908734,-0.07089142407553106,0.0037911093627065306,-0.5086339496459481,-0.1632832415420929,9.785527143981119,0.09066802714398112,-0.10363026160503536,0.35458669354838707,73.77621336546025,-2.968925796616837,0.9505765637293468,-0.7993217751801732,-0.02611996133851298,-0.00887701614870181,0.6001982279345004
363.0,0.11399311565696302,-0.06318764752163651,0.004347167584579072,-0.5496193941778127,-0.16664162077104644,9.783440991345394,0.25453260228166796,0.5880286191974823,0.3109375,73.61025890047208,-3.208429632179386,0.9687106608969315,-0.8001620156546027,-0.027904124649095204,-0.009993839050157355,0.5990085286728953
364.0,0.11454475291296691,-0.07246210333071071,0.0014160953130268631,-0.6049946049230077,-0.17064223895695182,9.780531939605105,0.0229424244127234,0.3862594132853771,0.23622311827956988,73.34238343449103,-3.5373309355213363,0.9931350923532277,-0.8014827480646286,-0.030334377455884007,-0.01144260003525533,0.5971024253746582
365.0,0.11298048031171556,-0.07133333333333333,0.009185624367764416,-0.6380323142632348,-0.16706384174440825,9.778523247536615,0.2896478447791391,0.8663692817803754,0.08292764883293993,73.1389582396688,-3.7331373403019743,0.9744638876400284,-0.8024894668017872,-0.031612369774362145,-0.012538797614008468,0.5956657432734818
366.0,0.11020778539582632,-0.09129609231576184,0.007181325165786221,-0.7050114364392491,-0.15932263684387998,9.773470907796629,0.11718820248398337,0.29311284702708773,0.156456940073433,73.01342089796185,-4.123231730733206,0.9296739186429883,-0.803053117287597,-0.03411082529630774,-0.01484363792187441,0.5947199247091248
367.0,0.10764037503278262,-0.08594451313176725,0.0062579052864261365,-0.6985585215990409,-0.1507565565171781,9.774362182008907,0.24760739809299015,0.2534952675995654,0.16759218931475028,72.96219359990258,-4.085204575044022,0.8813320150050579,-0.8033327399473699,-0.03357903525356862,-0.014980919581712934,0.5943796287602845
368.0,0.10994211531977073,-0.09124030572102956,0.0075991907384511635,-0.737216664793376,-0.11162002173017124,9.772126559514437,0.34897531002959803,0.7546434191300437,-0.060273125772732375,72.90896978382226,-4.308341294818478,0.6499534018957701,-0.8035792104612041,-0.03398250429882732,-0.017749744433329585,0.5939466712843282
