time,linaccel_x,linaccel_y,linaccel_z,gravity_x,gravity_y,gravity_z,gyro_x,gyro_y,gyro_z,euler_x,euler_y,euler_z,quaternion_w,quaternion_y,quaternion_x,quaternion_z
0.0,0.0017187499999999998,0.0020312499999999996,-0.10953125000000001,-0.06999999999999998,-0.8100000000000006,-9.76999999999999,-0.0048828125,0.0234375,0.0087890625,195.375,-0.375,175.25,0.04156494000000005,0.13415527000000002,-0.9901123,-0.0020141600000000005
1.0,0.0017187499999999998,0.00296875,-0.10619791666666668,-0.06999999999999998,-0.8100000000000005,-9.769999999999989,-0.0068359375,0.030598958333333332,0.004231770833333333,195.375,-0.375,175.25,0.04156494000000005,0.13415527000000002,-0.9901122999999998,-0.0020141600000000005
2.0,0.0020552884615384613,0.0031184752747252754,-0.10819471153846155,-0.06999999999999998,-0.8100000000000006,-9.76999999999999,0.003114268543956044,0.029597355769230768,-0.0020325377747252753,195.375,-0.375,175.25,0.04156494000000005,0.13415527000000002,-0.9901123,-0.0020141600000000005
3.0,0.002625801282051282,0.0038719551282051286,-0.10749086538461539,-0.06999999999999998,-0.8100000000000006,-9.769999999999989,-0.019380008012820513,0.007041266025641027,-0.014490184294871795,195.375,-0.375,175.25,0.04156494000000005,0.13415527000000005,-0.9901122999999998,-0.0020141600000000005
4.0,0.002802807071960298,0.0034057847394540946,-0.10806009615384615,-0.06999999999999998,-0.8100000000000005,-9.76999999999999,-0.03407500387717122,0.008447386786600496,-0.003987185949131513,195.375,-0.375,175.25,0.04156494000000005,0.13415527000000002,-0.9901123,-0.0020141600000000005
5.0,0.0026441532258064514,0.0040522642679900744,-0.10689368796526055,-0.06999999999999998,-0.8100000000000005,-9.76999999999999,-0.015469913151364763,0.004341947115384616,0.0018348712779156329,195.375,-0.375,175.25,0.04156494000000005,0.13415527000000002,-0.9901123,-0.0020141600000000005
6.0,0.0037558933002481386,0.004273418114143921,-0.10654993796526054,-0.06999999999999998,-0.8100000000000005,-9.76999999999999,0.0008277760545905722,0.006582467431761787,-0.0006029001240694788,195.375,-0.375,175.25,0.04156494000000005,0.13415527000000002,-0.9901123,-0.0020141600000000005
7.0,0.003270006203473945,0.00526077853598015,-0.10677124689826303,-0.06999999999999998,-0.8100000000000005,-9.76999999999999,-0.008689709987593051,-0.007595863058312656,0.010228946960297768,195.375,-0.375,175.25,0.04156494000000005,0.13415527000000002,-0.9901123,-0.0020141600000000005
8.0,0.003569711538461539,0.005177651985111663,-0.10724495967741934,-0.06999999999999998,-0.8100000000000005,-9.76999999999999,0.009684689050868488,0.003851000310173697,0.021901170905707194,195.375,-0.375,175.25,0.04156494000000005,0.13415527000000002,-0.9901123,-0.0020141600000000005
9.0,0.003301000075193624,0.005199789457853975,-0.1066119257086999,-0.06999999999999998,-0.8100000000000005,-9.76999999999999,0.0285857959245056,0.015453229566132792,0.014277389277389278,195.375,-0.375,175.25,0.04156494000000005,0.13415527000000005,-0.9901123,-0.0020141600000000005
10.0,0.0037222347544928194,0.005731709151063991,-0.1075909466877209,-0.06999999999999998,-0.8100000000000005,-9.76999999999999,0.02842036995262802,0.013576208737499061,0.027053725844048422,195.375,-0.375,175.25,0.04156494000000006,0.13415527000000005,-0.9901123,-0.00201416
11.0,0.004286638093089707,0.00529633807053162,-0.10604225881645235,-0.06999999999999999,-0.8100000000000005,-9.76999999999999,0.017856605759831567,0.01005432739303707,0.011129596210241371,195.375,-0.375,175.25,0.04156494000000006,0.13415527000000005,-0.9901123,-0.00201416
12.0,0.00436649372133243,0.004816753139333786,-0.10548763064892097,-0.06999999999999999,-0.8100000000000005,-9.76999999999999,0.02680276712534777,0.009262914504849989,0.00963794270245883,195.375,-0.375,175.25,0.04156494000000006,0.13415527000000005,-0.9901123,-0.00201416
13.0,0.004701857282502444,0.0052199413489736075,-0.1072336265884653,-0.06999999999999999,-0.8100000000000005,-9.76999999999999,0.012005131964809384,0.0063538611925708696,0.0028409090909090906,195.375,-0.375,175.25,0.04156494000000006,0.13415527000000005,-0.9901123,-0.00201416
14.0,0.004150873199982493,0.0056082490771946734,-0.10775594169912898,-0.06999999999999999,-0.8100000000000006,-9.76999999999999,-0.010122134926540318,-0.003028296931763469,0.007091102405859266,195.375,-0.375,175.25,0.04156494000000006,0.13415527000000005,-0.9901123000000001,-0.00201416
15.0,0.0038080856713499957,0.00528457419646635,-0.10866780467165639,-0.06999999999999999,-0.8100000000000006,-9.76999999999999,-0.0025714535825272465,0.00025760128973898876,0.006829397732743905,195.375,-0.375,175.25,0.04156494000000006,0.13415527000000005,-0.9901123000000001,-0.00201416
16.0,0.003443559329452445,0.006030624006069362,-0.10788119519703535,-0.06999999999999999,-0.8100000000000006,-9.76999999999999,-0.006222552924526925,-0.0009410425876482687,0.007824240235771291,195.375,-0.375,175.25,0.04156494000000006,0.13415527000000005,-0.9901123000000001,-0.00201416
17.0,0.0030375249850454473,0.00440809150727302,-0.10647911469047722,-0.06999999999999999,-0.8100000000000007,-9.76999999999999,-0.013771866474081207,0.00037021636684612133,-7.705242117856444e-05,195.375,-0.375,175.25,0.04156494000000006,0.13415527000000005,-0.9901123000000002,-0.00201416
18.0,0.0032367488072832327,0.003912256897331525,-0.10669263652412425,-0.06999999999999999,-0.8100000000000007,-9.76999999999999,-0.01418676412658117,0.008432908769933325,0.004406121883252359,195.375,-0.375,175.25,0.04156494000000006,0.13415527000000005,-0.9901123000000001,-0.00201416
19.0,0.003563487547599248,0.004247895420259408,-0.10714265913832599,-0.06999999999999999,-0.8100000000000007,-9.76999999999999,0.00301735457609314,0.009211639748471716,0.015503494258910726,195.375,-0.375,175.25,0.04156494000000006,0.13415527000000005,-0.9901123000000001,-0.00201416
20.0,0.0038369734903196625,0.0049367531842255015,-0.10607621715469573,-0.06999999999999999,-0.8100000000000006,-9.76999999999999,0.004349586378955661,0.02116251586641572,0.008118316044411374,195.375,-0.375,175.25,0.04156494000000006,0.13415527000000005,-0.9901123000000001,-0.00201416
21.0,0.0035101618009658452,0.007130330750937397,-0.10675683167739017,-0.06999999999999999,-0.8100000000000006,-9.76999999999999,0.0008589749201208031,0.03016169154228856,0.011255124669905603,195.375,-0.375,175.25,0.04156494000000006,0.13415527000000005,-0.9901123000000001,-0.00201416
22.0,0.00448497979311653,0.0058304518463401485,-0.10822675478910435,-0.06999999999999999,-0.8100000000000006,-9.76999999999999,-0.0040691885149034875,0.0010883084577114448,0.003340609999854102,195.375,-0.375,175.25,0.04156494000000006,0.13415527000000005,-0.9901123000000001,-0.00201416
23.0,0.004532323718650152,0.005674267956405656,-0.10978786419807124,-0.06999999999999999,-0.8100000000000006,-9.76999999999999,0.015301060679009642,-0.003625567178768911,0.005442910083016005,195.375,-0.375,175.25,0.04156494000000006,0.13415527000000005,-0.9901123000000001,-0.00201416
24.0,0.005053836389898019,0.006537182124567779,-0.10800659459301734,-0.06999999999999999,-0.8100000000000006,-9.76999999999999,0.02853401613632716,-0.003889095577829328,0.013373838286573,195.375,-0.375,175.25,0.04156494000000006,0.13415527000000005,-0.9901123000000001,-0.00201416
25.0,0.00531120059526415,0.005026991143986812,-0.10869632774543705,-0.06999999999999999,-0.8100000000000007,-9.76999999999999,0.009360729344479946,-0.014018981339636128,0.010041890984957908,195.375,-0.375,175.25,0.04156494000000006,0.13415527000000005,-0.9901123000000002,-0.00201416
26.0,0.0044811134941130145,0.005648881691250494,-0.1097807151923666,-0.06999999999999999,-0.8100000000000007,-9.76999999999999,-0.0030939510657854424,0.041744175019331496,-0.015247260763630527,195.375,-0.375,175.25,0.04156494000000006,0.13415527000000005,-0.9901123000000001,-0.00201416
27.0,0.0046189871755591555,0.00598765702280387,-0.10874206679213902,-0.06999999999999999,-0.8100000000000007,-9.76999999999999,-0.0105443274828205,-0.004209159481186438,-0.0017708378926481966,195.375,-0.375,175.25,0.04156494000000006,0.13415527000000005,-0.9901123000000001,-0.00201416
28.0,0.005286033177222394,0.005408295764578866,-0.10724004610379188,-0.06999999999999999,-0.8100000000000006,-9.76999999999999,-0.029267153966239183,0.014146642155789967,-0.007361469777213638,195.375,-0.375,175.25,0.04156494000000006,0.13415527000000005,-0.9901123000000001,-0.00201416
29.0,0.005056389606221096,0.006261653608788901,-0.10641236632088824,-0.06999999999999999,-0.8100000000000006,-9.76999999999999,-0.01969441648064662,0.005178469820983062,-0.0030492697801315994,195.375,-0.375,175.25,0.04156494000000006,0.13415527000000005,-0.9901123000000001,-0.00201416
30.0,0.006059730672152436,0.007232897098087278,-0.10752491209640944,-0.06999999999999999,-0.8100000000000006,-9.76999999999999,0.024487168264250594,0.017394242132446273,0.0012588268335740646,195.375,-0.375,175.25,0.04156494000000006,0.13415527000000005,-0.9901123000000001,-0.00201416
31.0,0.007037685472928614,0.0089879050495324,-0.10734261245094179,-0.06999999999999999,-0.8100000000000006,-9.76999999999999,0.00662286076946645,0.011064545308647379,-0.006075742985950015,195.375,-0.375,175.25,0.04156494000000006,0.13415527000000005,-0.9901123000000001,-0.00201416
32.0,0.008133890663982145,0.010023343692096707,-0.10651777768051238,-0.06999999999999999,-0.8100000000000005,-9.76999999999999,0.007018609299543338,0.009262248143446988,0.01584316321617718,195.375,-0.375,175.25,0.04156494000000006,0.13415527000000005,-0.9901123,-0.00201416
33.0,0.00897652499963526,0.01040756627420085,-0.10699544798004113,-0.06999999999999999,-0.8100000000000005,-9.76999999999999,0.04383188529493296,-0.031063524022118143,0.012030208196553888,195.375,-0.375,175.25,0.04156494000000006,0.13415527000000005,-0.9901123,-0.00201416
34.0,0.008554733663062988,0.00923359740885018,-0.1073173720838622,-0.06999999999999999,-0.8100000000000005,-9.76999999999999,0.014233269138180068,-0.013026874425526325,0.0006082126026757716,195.375,-0.375,175.25,0.04156494000000006,0.13415527000000005,-0.9901123,-0.00201416
35.0,0.006552282575392832,0.008954786186370207,-0.10737077077953339,-0.06999999999999999,-0.8100000000000006,-9.76999999999999,-0.01465454983148772,0.015182518492581083,-0.017118859514743002,195.375,-0.375,175.25,0.04156494000000006,0.13415527000000005,-0.9901123000000001,-0.00201416
36.0,0.006433521541850865,0.008998409710975916,-0.1050539093389358,-0.06999999999999999,-0.8100000000000006,-9.76999999999999,0.01778269575874294,0.027019411738959165,-0.0005101873331290769,195.375,-0.375,175.25,0.04156494000000006,0.13415527000000005,-0.9901123000000001,-0.00201416
37.0,0.006745597525568641,0.00831152157103048,-0.10720437402430662,-0.06999999999999999,-0.8100000000000005,-9.76999999999999,0.019537120117885644,0.03296840577172787,0.018699573977619236,195.375,-0.375,175.25,0.04156494000000006,0.13415527000000005,-0.9901123,-0.00201416
38.0,0.008146583796559727,0.008529712143096837,-0.10733415036255671,-0.06999999999999999,-0.8100000000000006,-9.76999999999999,-0.00013495571993405418,-0.0002302454005631699,0.005857351804029704,195.375,-0.375,175.25,0.04156494000000006,0.13415527000000005,-0.9901123000000001,-0.00201416
39.0,0.0077756379393355834,0.007654396638508341,-0.10722034986358531,-0.06999999999999999,-0.8100000000000006,-9.76999999999999,-0.006176959775900556,-0.015343006375745906,0.0040742037612523894,195.375,-0.375,175.25,0.04156494000000006,0.13415527000000005,-0.9901123000000001,-0.00201416
40.0,0.007279730380356286,0.007693351424694711,-0.10734151821537474,-0.06999999999999999,-0.8100000000000006,-9.76999999999999,0.004780441633474854,0.00030273850687909457,-0.0007914970601537764,195.375,-0.375,175.25,0.04156494000000006,0.13415527000000005,-0.9901123000000001,-0.00201416
41.0,0.006430676529376579,0.00768831794108636,-0.10675238178608426,-0.06999999999999999,-0.8100000000000006,-9.76999999999999,-0.015495287492157978,0.006871799360966428,-0.01725791861805343,195.375,-0.375,175.25,0.04156494000000006,0.13415527000000005,-0.9901123000000001,-0.00201416
42.0,0.0055620184662072015,0.007451535465016451,-0.10815019645737027,-0.06999999999999998,-0.8100000000000006,-9.76999999999999,-0.038852896020686103,0.01771328895787249,-0.001299460850495997,195.375,-0.375,175.25,0.04156494000000005,0.13415527000000005,-0.9901123000000001,-0.0020141600000000005
43.0,0.006632718429059308,0.007666547703620409,-0.10688203130523788,-0.06999999999999998,-0.8100000000000006,-9.76999999999999,-0.010970742666096543,0.01567236426709224,-0.010655146891304812,195.375,-0.375,175.25,0.04156494000000006,0.13415527000000005,-0.9901123000000001,-0.00201416
44.0,0.006950279058126918,0.00771157297204481,-0.10457737928898257,-0.06999999999999998,-0.8100000000000006,-9.76999999999999,-0.022882121088668994,-0.0029317797432867245,-0.00877943072815485,195.375,-0.375,175.25,0.04156494000000006,0.13415527000000005,-0.9901123000000001,-0.00201416
45.0,0.006964073160028868,0.007249667520731559,-0.10646939900093487,-0.06999999999999999,-0.8100000000000005,-9.76999999999999,-0.02730702033482486,-0.014444435559625737,0.0010919488952709942,195.375,-0.375,175.25,0.04156494000000006,0.13415527000000005,-0.9901123,-0.00201416
46.0,0.0066760737256644845,0.007175664649906348,-0.10649960663634234,-0.06999999999999999,-0.8100000000000005,-9.76999999999999,-0.008720103520296105,-0.032866768121943855,0.00595286594323667,195.375,-0.375,175.25,0.04156494000000006,0.13415527000000005,-0.9901123,-0.00201416
47.0,0.006357887979457553,0.007520834806342754,-0.1065897536903796,-0.06999999999999998,-0.8100000000000005,-9.76999999999999,-0.010346404117468152,0.009404084921658343,-0.0037233188894238486,195.375,-0.375,175.25,0.04156494000000005,0.13415527000000005,-0.9901123,-0.0020141600000000005
48.0,0.0057908113391984374,0.007699300699300703,-0.10719166854650727,-0.06999999999999998,-0.8100000000000005,-9.76999999999999,-0.008361530942176103,0.018680445898187834,-0.005944525904203323,195.375,-0.375,175.25,0.04156494000000006,0.13415527000000005,-0.9901123,-0.00201416
49.0,0.006844574780058652,0.0066184675539514275,-0.10723219790961727,-0.06999999999999998,-0.8100000000000005,-9.76999999999999,-0.008518497631400857,0.0013826227535904956,-0.006775415444770283,195.375,-0.375,175.25,0.04156494000000006,0.13415527000000005,-0.9901123,-0.00201416
50.0,0.006907135874877813,0.006249116474922928,-0.10645334235656817,-0.06999999999999999,-0.8100000000000005,-9.76999999999999,-0.004748007368975111,-0.020905707196029775,-0.0016006842619745842,195.375,-0.375,175.25,0.04156494000000006,0.13415527000000005,-0.9901123,-0.00201416
51.0,0.006713587487781038,0.006450560192495678,-0.10546762914504851,-0.06999999999999999,-0.8100000000000005,-9.76999999999999,-0.0005564328144973306,-0.011613655162042257,-0.003885630498533724,195.375,-0.375,175.25,0.04156494000000006,0.13415527000000005,-0.9901123,-0.00201416
52.0,0.007013685239491693,0.008260019550342133,-0.10504887585532749,-0.06999999999999999,-0.8100000000000005,-9.76999999999999,-0.0025048875855327468,0.012432795698924732,-0.00027492668621700877,195.375,-0.375,175.25,0.04156494000000006,0.13415527000000005,-0.9901123,-0.00201416
53.0,0.006597488532972406,0.007973155876381685,-0.10517896082412212,-0.06999999999999998,-0.8100000000000005,-9.76999999999999,0.021667982555079332,-0.00266326415519964,-0.0009925558312655087,195.375,-0.375,175.25,0.04156494000000005,0.13415527000000005,-0.9901123,-0.0020141600000000005
54.0,0.006506654635686896,0.008898638995413193,-0.10668305887660727,-0.06999999999999998,-0.8100000000000005,-9.76999999999999,0.004038837506579443,-0.00950870366192947,0.015010527107301302,195.375,-0.375,175.25,0.04156494000000005,0.13415527000000002,-0.9901123,-0.0020141600000000005
55.0,0.007508158508158511,0.007847808105872624,-0.10594841717422364,-0.06999999999999998,-0.8100000000000005,-9.76999999999999,0.00552391157229867,-0.014488871343710054,0.016377171215880892,195.375,-0.375,175.25,0.04156494000000005,0.13415527000000002,-0.9901123,-0.0020141600000000005
56.0,0.006825174825174828,0.008421836228287845,-0.10583886006466652,-0.06999999999999998,-0.8100000000000005,-9.76999999999999,0.00617480637641928,0.005719884953755921,-0.00412672005413941,195.375,-0.375,175.25,0.04156494000000005,0.13415527000000002,-0.9901123,-0.0020141600000000005
57.0,0.005795285359801491,0.009614143920595538,-0.10413399503722084,-0.06999999999999998,-0.8100000000000005,-9.76999999999999,-0.006412841191066998,0.01536910669975186,0.0044432382133995025,195.375,-0.375,175.25,0.04156494000000005,0.13415527000000002,-0.9901123,-0.0020141600000000005
58.0,0.007245037220843676,0.008573821339950376,-0.1053151364764268,-0.06999999999999998,-0.8100000000000005,-9.76999999999999,-0.01285282258064516,-0.002473635235732012,0.0012600806451612896,195.375,-0.375,175.25,0.04156494000000005,0.13415527000000002,-0.9901123,-0.0020141600000000005
59.0,0.007726736972704718,0.007862593052109184,-0.10609925558312655,-0.06999999999999998,-0.8100000000000005,-9.76999999999999,-0.013157180521091811,-0.002462003722084368,-0.0008432847394540944,195.375,-0.375,175.25,0.04156494000000005,0.13415527000000002,-0.9901123,-0.0020141600000000005
60.0,0.0074589019851116645,0.007395316377171219,-0.10566501240694788,-0.06999999999999998,-0.8100000000000005,-9.76999999999999,-0.008672262717121588,8.723635235731962e-05,0.0007880350496277914,195.375,-0.375,175.25,0.04156494000000005,0.13415527000000002,-0.9901123,-0.0020141600000000005
61.0,0.0077592276674937994,0.007285747518610424,-0.10599627791563275,-0.06999999999999998,-0.8100000000000005,-9.76999999999999,-0.017844195874689828,0.005595727357320099,0.00475195797146402,195.375,-0.375,175.25,0.04156494000000005,0.13415527000000002,-0.9901123,-0.0020141600000000005
62.0,0.007188585607940449,0.007339950372208439,-0.10602233250620349,-0.06999999999999998,-0.8100000000000005,-9.76999999999999,-0.011142990074441687,0.0013802729528535982,0.0011631513647642681,195.375,-0.375,175.25,0.04156494000000005,0.13415527000000002,-0.9901123,-0.0020141600000000005
63.0,0.00643920595533499,0.007258064516129035,-0.10500372208436724,-0.06999999999999998,-0.8100000000000005,-9.76999999999999,-0.018397177419354836,-0.009064826302729529,-0.0019075682382133994,195.375,-0.375,175.25,0.04156494000000005,0.13415527000000002,-0.9901123,-0.0020141600000000005
64.0,0.0058672456575682395,0.006688585607940448,-0.1038988833746898,-0.06999999999999998,-0.8100000000000005,-9.76999999999999,-0.008485189205955333,-0.008952388337468982,0.003543734491315137,195.375,-0.375,175.25,0.04156494000000005,0.13415527000000002,-0.9901123,-0.0020141600000000005
65.0,0.0054373449131513655,0.007282258064516132,-0.10456482630272952,-0.06999999999999998,-0.8100000000000005,-9.76999999999999,-0.027505621898263024,0.008396014267990075,-0.0022448821339950374,195.375,-0.375,175.25,0.04156494000000005,0.13415527000000002,-0.9901123,-0.0020141600000000005
66.0,0.004847704714640199,0.007556761786600499,-0.10492261166253102,-0.06999999999999998,-0.8100000000000005,-9.76999999999999,-0.01535020549007444,0.011572386786600497,0.00026558622828784127,195.375,-0.375,175.25,0.04156494000000005,0.13415527000000002,-0.9901123,-0.0020141600000000005
67.0,0.004541330645161291,0.0072306141439205975,-0.10395362903225802,-0.06999999999999998,-0.8100000000000005,-9.76999999999999,0.003818044354838711,0.004328861662531018,0.00016429513027295286,195.375,-0.375,175.25,0.04156494000000005,0.13415527000000002,-0.9901123,-0.0020141600000000005
68.0,0.004435483870967743,0.007370347394540945,-0.1043306451612903,-0.06999999999999998,-0.8100000000000005,-9.76999999999999,0.01340725806451613,-0.0010487748138957812,0.0011689671215880893,195.375,-0.375,175.25,0.04156494000000005,0.13415527000000002,-0.9901123,-0.0020141600000000005
69.0,0.004469602977667495,0.007860111662531019,-0.10316656327543425,-0.06999999999999998,-0.8100000000000005,-9.76999999999999,0.00820021712158809,-0.0008888415012406948,0.002461034429280397,195.375,-0.375,175.25,0.04156494000000005,0.13415527000000002,-0.9901123,-0.0020141600000000005
70.0,0.00413802729528536,0.007932537220843675,-0.10340462158808933,-0.06999999999999998,-0.8100000000000005,-9.76999999999999,0.0053252946650124075,0.01056674550248139,0.0003620308622828785,195.375,-0.375,175.25,0.04156494000000005,0.13415527000000002,-0.9901123,-0.0020141600000000005
71.0,0.004417803970223325,0.007308002481389579,-0.10306823821339947,-0.06999999999999998,-0.8100000000000005,-9.76999999999999,0.004237748138957817,0.01966404311414392,-0.010450915012406947,195.375,-0.375,175.25,0.04156494000000005,0.13415527000000002,-0.9901123,-0.0020141600000000005
72.0,0.004124534739454094,0.00790958436724566,-0.10346960297766747,-0.06999999999999998,-0.8100000000000005,-9.76999999999999,0.008710065136476427,0.008885991780397022,0.0076777683002481395,195.375,-0.375,175.25,0.04156494000000005,0.13415527000000002,-0.9901123,-0.0020141600000000005
73.0,0.004169122208436725,0.008349953473945413,-0.10319145471464018,-0.06999999999999998,-0.8100000000000005,-9.76999999999999,0.020137542648883375,0.022698414236972702,0.0007831885856079408,195.375,-0.375,175.25,0.04156494000000005,0.13415527000000002,-0.9901123,-0.0020141600000000005
74.0,0.0039171836228287845,0.008726271712158812,-0.10481854838709678,-0.06999999999999998,-0.8100000000000005,-9.76999999999999,0.006051294975186104,0.0054096231389578146,0.00032859026054590573,195.375,-0.375,175.25,0.04156494000000005,0.13415527000000002,-0.9901123,-0.0020141600000000005
75.0,0.0037228598014888347,0.008283731389578167,-0.10330257444168733,-0.06999999999999998,-0.8100000000000005,-9.76999999999999,0.012439419199751861,0.0008592780707196027,0.0021804241625310175,195.375,-0.375,175.25,0.04156494000000005,0.13415527000000002,-0.9901123,-0.0020141600000000005
76.0,0.0036406637717121596,0.008146401985111667,-0.10402527915632753,-0.06999999999999998,-0.8100000000000005,-9.76999999999999,0.008692617866004964,-0.0005311724565756825,0.008477434863523573,195.375,-0.375,175.25,0.04156494000000005,0.13415527000000002,-0.9901123,-0.0020141600000000005
77.0,0.003346386476426799,0.007509925558312657,-0.1040151209677419,-0.06999999999999998,-0.8100000000000005,-9.76999999999999,0.003632909429280397,-0.0066861817617866,0.008301992866004963,195.375,-0.375,175.25,0.04156494000000005,0.13415527000000002,-0.9901123,-0.0020141600000000005
78.0,0.003540632754342432,0.006678349875930523,-0.10429838709677416,-0.06999999999999998,-0.8100000000000005,-9.76999999999999,0.003832583746898263,0.0006261631513647635,0.002733405707196029,195.375,-0.375,175.25,0.04156494000000005,0.13415527000000002,-0.9901123,-0.0020141600000000005
79.0,0.0038546836228287844,0.006527760545905709,-0.10435018610421837,-0.06999999999999998,-0.8100000000000005,-9.76999999999999,0.000551527605459057,-0.008930094602977669,-0.0030997983870967747,195.375,-0.375,175.25,0.04156494000000005,0.13415527000000002,-0.9901123,-0.0020141600000000005
80.0,0.00353776364764268,0.006789934863523575,-0.10317757444168735,-0.06999999999999998,-0.8100000000000005,-9.76999999999999,-0.002004012872208437,-0.028736139112903226,-0.0016119339330024816,195.375,-0.375,175.25,0.04156494000000005,0.13415527000000002,-0.9901123,-0.0020141600000000005
81.0,0.003457816377171216,0.006204404466501242,-0.10381591191067,-0.06999999999999998,-0.8100000000000005,-9.76999999999999,0.0014006281017369727,-0.016337430210918116,-0.00598926023573201,195.375,-0.375,175.25,0.04156494000000005,0.13415527000000002,-0.9901123,-0.0020141600000000005
82.0,0.003211538461538462,0.006458281637717124,-0.10321440756823823,-0.06999999999999998,-0.8100000000000005,-9.76999999999999,-0.009868854683622828,-0.003934844137717122,-0.005654369571960298,195.375,-0.375,175.25,0.04156494000000005,0.13415527000000002,-0.9901123,-0.0020141600000000005
83.0,0.0034509925558312664,0.007659429280397025,-0.10343982630272955,-0.06999999999999998,-0.8100000000000005,-9.76999999999999,-0.012953629032258064,0.011786600496277916,-0.011712934243176178,195.375,-0.375,175.25,0.04156494000000005,0.13415527000000002,-0.9901123,-0.0020141600000000005
84.0,0.003008374689826303,0.007616315136476429,-0.10236259305210917,-0.06999999999999998,-0.8100000000000005,-9.76999999999999,0.014413383995037223,0.007180521091811415,-0.0002578318858560795,195.375,-0.375,175.25,0.04156494000000005,0.13415527000000002,-0.9901123,-0.0020141600000000005
85.0,0.002484336228287842,0.007108405707196033,-0.10249891439205955,-0.06999999999999998,-0.8100000000000005,-9.76999999999999,0.007268726736972706,-0.0021014267990074444,-0.002114027605459057,195.375,-0.375,175.25,0.04156494000000005,0.13415527000000002,-0.9901123,-0.0020141600000000005
86.0,0.003929513027295286,0.0074140043424317644,-0.10367749689826303,-0.06999999999999998,-0.8100000000000005,-9.76999999999999,-0.005515760700992554,-0.014093517369727046,0.0011142020781637716,195.375,-0.375,175.25,0.04156494000000005,0.13415527000000002,-0.9901123,-0.0020141600000000005
87.0,0.0037431761786600503,0.008204094292803974,-0.10401923076923078,-0.06999999999999998,-0.8100000000000005,-9.76999999999999,-0.009375,-0.00816532258064516,-0.002838089330024814,195.375,-0.375,175.25,0.04156494000000005,0.13415527000000002,-0.9901123,-0.0020141600000000005
88.0,0.0031830024813895783,0.008476736972704717,-0.1038855459057072,-0.06999999999999998,-0.8100000000000005,-9.76999999999999,-0.020568393300248136,-0.0035088399503722077,-0.006180210918114144,195.375,-0.375,175.25,0.04156494000000005,0.13415527000000002,-0.9901123,-0.0020141600000000005
89.0,0.003852047146401986,0.009516284119106704,-0.10279388957816377,-0.06999999999999998,-0.8100000000000005,-9.76999999999999,-0.035749457196029774,-0.016673774813895783,-0.006238368486352357,195.375,-0.375,175.25,0.04156494000000005,0.13415527000000002,-0.9901123,-0.0020141600000000005
90.0,0.003506668734491315,0.009248216501240698,-0.10506443858560795,-0.06999999999999998,-0.8100000000000005,-9.76999999999999,-0.03652392214640199,-0.00359898418114144,-0.0030571495037220843,195.375,-0.375,175.25,0.04156494000000005,0.13415527000000002,-0.9901123,-0.0020141600000000005
91.0,0.004453107152703927,0.009334209697112926,-0.10589495450785774,-0.06999999999999998,-0.8100000000000005,-9.76999999999999,-0.0108099841466777,0.004242394590176847,0.005064847227145614,195.375,-0.375,175.25,0.04156494000000005,0.13415527000000002,-0.9901123,-0.0020141600000000005
92.0,0.0037823848418606486,0.008152216511087482,-0.1057005789909016,-0.06999999999999998,-0.8100000000000005,-9.76999999999999,0.00035648435346015937,0.0218094727293316,0.0011288876334239234,195.375,-0.375,175.25,0.04156494000000005,0.13415527000000002,-0.9901123,-0.0020141600000000005
93.0,0.0034612529048012926,0.008934979223285679,-0.10641883788254758,-0.06999999999999998,-0.8100000000000005,-9.76999999999999,0.006730661531568789,0.015409524671117412,-0.005326433199417071,195.375,-0.375,175.25,0.04156494000000005,0.13415527000000002,-0.9901123,-0.0020141600000000005
94.0,0.0036137003677326265,0.009225441337336503,-0.10740499755620728,-0.06999999999999998,-0.8100000000000005,-9.76999999999999,0.012449660414630172,0.013057608414211237,0.003294938148768794,195.375,-0.375,175.25,0.04156494000000005,0.13415527000000005,-0.9901123,-0.0020141600000000005
95.0,0.004820963087092121,0.00866261986221664,-0.10745753910068429,-0.06999999999999998,-0.8100000000000005,-9.76999999999999,-0.009321414752362332,-0.0021815032525718,0.006183759396965041,195.375,-0.375,175.25,0.04156494000000005,0.13415527000000002,-0.9901123,-0.0020141600000000005
96.0,0.004742790811339199,0.008696389296187688,-0.10555672653958945,-0.06999999999999998,-0.8100000000000005,-9.76999999999999,-0.015469399132453567,0.011838075818670576,0.0069161244501466275,195.375,-0.375,175.25,0.04156494000000005,0.13415527000000002,-0.9901123,-0.0020141600000000005
97.0,0.005179552973907813,0.01019012237762238,-0.1063427630836905,-0.06999999999999998,-0.8100000000000005,-9.76999999999999,-0.00890051648620197,-0.01653147969302203,0.011445761899390932,195.375,-0.375,175.25,0.04156494000000005,0.13415527000000002,-0.9901123,-0.0020141600000000005
98.0,0.005159720655688399,0.011846999774419133,-0.10536070381231671,-0.06999999999999998,-0.8100000000000005,-9.76999999999999,-0.02548294279645086,0.01640639686254606,-0.022375948144597337,195.375,-0.375,175.25,0.04156494000000005,0.13415527000000002,-0.9901123,-0.0020141600000000005
99.0,0.005744571960297768,0.010366315136476432,-0.10569354838709677,-0.06999999999999998,-0.8100000000000005,-9.76999999999999,-0.02913015663771712,0.014098848480148885,-0.010867226271712159,195.375,-0.375,175.25,0.04156494000000005,0.13415527000000002,-0.9901123,-0.0020141600000000005
100.0,0.0059526985111662545,0.009657568238213404,-0.10574317617866005,-0.06999999999999998,-0.8100000000000005,-9.76999999999999,-0.006616877326302729,-0.0006232552729528535,-0.01748604218362283,195.375,-0.375,175.25,0.04156494000000005,0.13415527000000002,-0.9901123,-0.0020141600000000005
101.0,0.005997518610421838,0.008340260545905712,-0.10733715880893302,-0.06999999999999998,-0.8100000000000005,-9.76999999999999,-0.006451612903225807,-0.008661600496277917,-0.01680947580645161,195.375,-0.375,175.25,0.04156494000000005,0.13415527000000002,-0.9901123,-0.0020141600000000005
102.0,0.005568275810211295,0.009614524588314913,-0.10621328201368524,-0.06999999999999998,-0.8100000000000005,-9.76999999999999,0.010979208963079929,0.0017279259718775844,-0.010119152520866231,195.375,-0.375,175.25,0.04156494000000005,0.13415527000000005,-0.9901123,-0.0020141600000000005
103.0,0.005752105421460262,0.010143678566057602,-0.10561532587036618,-0.06999999999999998,-0.8100000000000005,-9.76999999999999,0.02813510414316866,0.004487355722234754,-0.0075968910961350476,195.375,-0.375,175.25,0.04156494000000006,0.13415527000000005,-0.9901123,-0.00201416
104.0,0.005872020452665615,0.009216031280547411,-0.10477389277389278,-0.06999999999999998,-0.8100000000000005,-9.76999999999999,0.011593916835852319,0.007513722836303481,0.0001560267689299944,195.375,-0.375,175.25,0.04156494000000005,0.13415527000000002,-0.9901123,-0.0020141600000000005
105.0,0.005808406647116325,0.007670351154222124,-0.10463869463869466,-0.06999999999999998,-0.8100000000000005,-9.76999999999999,-0.0032333258139709753,0.010847620121813669,-0.0010160538386344837,195.375,-0.375,175.25,0.04156494000000006,0.13415527000000005,-0.9901123,-0.00201416
106.0,0.0050752688172043025,0.00856951650500038,-0.10679178885630501,-0.06999999999999998,-0.8100000000000005,-9.76999999999999,0.008267068952552824,0.005183190465448529,0.007560248890894052,195.375,-0.375,175.25,0.04156494000000006,0.13415527000000005,-0.9901123,-0.00201416
107.0,0.0045190615835777135,0.008873073163395747,-0.10791826453116779,-0.06999999999999998,-0.8100000000000005,-9.76999999999999,-0.006731239190916611,0.009867753214527408,-0.011558669824798858,195.375,-0.375,175.25,0.04156494000000005,0.13415527000000002,-0.9901123,-0.0020141600000000005
108.0,0.004901270772238515,0.00825129709000677,-0.10669373637115573,-0.06999999999999998,-0.8100000000000005,-9.76999999999999,-0.005030453417550192,0.02581303105496654,-0.011048763064892098,195.375,-0.375,175.25,0.04156494000000006,0.13415527000000005,-0.9901123,-0.00201416
109.0,0.004773216031280548,0.008507782540040608,-0.10626622302428754,-0.06999999999999998,-0.8100000000000005,-9.76999999999999,-0.04324878750281976,0.032393178058500637,-0.01724119294683811,195.375,-0.375,175.25,0.04156494000000005,0.13415527000000002,-0.9901123,-0.0020141600000000005
110.0,0.0044833822091886605,0.010018798405895184,-0.1062660538386345,-0.06999999999999998,-0.8100000000000005,-9.76999999999999,-0.01890567429881946,0.009628895969621775,-0.011018568125422965,195.375,-0.375,175.25,0.04156494000000006,0.13415527000000005,-0.9901123,-0.00201416
111.0,0.004155932776900519,0.009304534175501922,-0.10505335927513347,-0.06999999999999998,-0.8100000000000005,-9.76999999999999,-0.009758311245206406,-0.0026144470448905936,-0.008235052917512595,195.375,-0.375,175.25,0.04156494000000005,0.13415527000000002,-0.9901123,-0.0020141600000000005
112.0,0.004792606586961427,0.009267651703135576,-0.10452667963756673,-0.06999999999999998,-0.8100000000000005,-9.76999999999999,-0.016960421131288067,-0.003028687542296413,-0.02001392844386796,195.375,-0.375,175.25,0.04156494000000005,0.13415527000000002,-0.9901123,-0.0020141600000000005
113.0,0.005407544740206032,0.008955842544552225,-0.10686022680276715,-0.06999999999999998,-0.8100000000000005,-9.76999999999999,-0.015397553974922927,0.021153948957628392,-0.015298010541206105,195.375,-0.375,175.25,0.04156494000000005,0.13415527000000002,-0.9901123,-0.0020141600000000005
114.0,0.005724941724941726,0.010133318294608621,-0.10579840589518011,-0.06769727047146401,-0.8100000000000005,-9.76999999999999,-0.014363391984359727,-0.00442937438905181,-0.0504629107451688,195.375,-0.375,175.25,0.04156494000000005,0.13412522207940447,-0.9901123,-0.0020141600000000005
115.0,0.00533498759305211,0.008615384615384618,-0.10637220843672457,-0.06368734491315138,-0.8100000000000005,-9.76999999999999,0.009119106699751859,0.0004652605459057064,-0.0003411910669975128,195.375,-0.375,175.25,0.04156494000000005,0.1340772421687345,-0.9901123,-0.0020141600000000005
116.0,0.004431761786600498,0.00893300248138958,-0.10653598014888338,-0.06168238213399507,-0.8100000000000005,-9.76999999999999,-0.003877171215880895,0.0004652605459057068,-0.020440446650124067,195.375,-0.375,175.25,0.04156494000000005,0.13405325221339953,-0.9901123,-0.0020141600000000005
117.0,0.005146401985111664,0.008764267990074445,-0.10701240694789083,-0.06067990074441691,-0.8100000000000005,-9.76999999999999,0.010856079404466501,-0.005179900744416874,-0.0007754342431761773,195.375,-0.375,175.25,0.04156494000000005,0.13404125723573207,-0.9901123,-0.0020141600000000005
118.0,0.004540942928039703,0.009245657568238218,-0.10486848635235732,-0.06017866004962784,-0.8100000000000005,-9.76999999999999,0.014081885856079406,-0.018207196029776676,-0.005179900744416872,195.375,-0.375,175.25,0.04156494000000005,0.1340352597468983,-0.9901123,-0.0020141600000000005
119.0,0.005770960222573129,0.009759380404541699,-0.1060327844198812,-0.06000000000000005,-0.8100000000000005,-9.76999999999999,0.006800323332581397,-0.027226671178284083,0.005113166403488984,195.375,-0.375,175.25,0.04156494000000005,0.13403320000000005,-0.9901123,-0.0020141600000000005
120.0,0.0050641401609143565,0.008875968117903605,-0.10548537484021354,-0.06000000000000005,-0.8100000000000005,-9.76999999999999,0.015489181517407323,-0.017219104819911273,-0.012835786525302654,195.375,-0.375,175.25,0.04156494000000005,0.13403320000000005,-0.9901123,-0.0020141600000000005
121.0,0.005095345514700355,0.010323840138356272,-0.10652680652680652,-0.06000000000000005,-0.8100000000000005,-9.76999999999999,-0.02424982611474547,-0.0026542174223625845,-0.007270870930145124,195.375,-0.375,175.25,0.04156494000000005,0.13403320000000005,-0.9901123,-0.0020141600000000005
122.0,0.005659636062861871,0.009871447101285815,-0.10791458004361229,-0.06000000000000005,-0.8100000000000005,-9.76999999999999,0.0011726093127302807,-0.0060440987104293555,-0.00684714311226408,195.375,-0.375,175.25,0.04156494000000005,0.13403320000000005,-0.9901123,-0.0020141600000000005
123.0,0.005465053763440862,0.009543663997293034,-0.10788036694488307,-0.06000000000000005,-0.8100000000000005,-9.76999999999999,-0.014565680455297391,0.00439110200954959,-0.0007870951293330328,195.375,-0.375,175.25,0.04156494000000005,0.13403320000000005,-0.9901123,-0.0020141600000000005
124.0,0.005982771260997069,0.010236152624257467,-0.10851740732385895,-0.06000000000000005,-0.8100000000000005,-9.76999999999999,0.013749051267952476,0.01548367417193022,0.0038067212525377844,195.375,-0.375,175.25,0.04156494000000005,0.13403320000000002,-0.9901123,-0.00201416
125.0,0.005382359575907964,0.010150838408902931,-0.10727483269418753,-0.06000000000000005,-0.8100000000000005,-9.76999999999999,0.007969584179261597,0.006859538311151214,0.005337807353936385,195.375,-0.375,175.25,0.04156494000000005,0.13403320000000005,-0.9901123,-0.0020141600000000005
126.0,0.005502744567260697,0.010126325287615614,-0.1060182720505301,-0.06000000000000005,-0.8100000000000005,-9.76999999999999,-0.007226107226107226,0.02572655838784871,-0.018301188059252575,195.375,-0.375,175.25,0.04156494000000006,0.13403320000000002,-0.9901123,-0.00201416
127.0,0.005701030152643057,0.010463944657493049,-0.1057535153019024,-0.06000000000000005,-0.8100000000000005,-9.76999999999999,-0.0416751259493195,0.02474622152041507,-0.011991503120535377,195.375,-0.375,175.25,0.04156494000000006,0.13403320000000002,-0.9901123,-0.00201416
128.0,0.005545304158207386,0.010244379276637346,-0.1058494623655914,-0.06000000000000005,-0.8100000000000005,-9.76999999999999,-0.023846247838183322,-0.007198849537559213,-0.0016067937438905182,195.375,-0.375,175.25,0.04156494000000005,0.13403320000000005,-0.9901123,-0.0020141600000000005
129.0,0.006655838784871044,0.010498533724340182,-0.10543695014662757,-0.06000000000000005,-0.8100000000000005,-9.76999999999999,-0.0052485149259342825,0.011643732611474548,-0.003384652981427175,195.375,-0.375,175.25,0.04156494000000006,0.13403320000000002,-0.9901123,-0.00201416
130.0,0.00661365516204226,0.011265884652981433,-0.10621896383186707,-0.06000000000000005,-0.8100000000000005,-9.76999999999999,-0.013912230242875405,0.002431573802541545,0.004079724039401459,195.375,-0.375,175.25,0.04156494000000006,0.13403320000000002,-0.9901123,-0.00201416
131.0,0.00650086472667118,0.010708699902248296,-0.10858357771260999,-0.06000000000000005,-0.8100000000000005,-9.76999999999999,0.0007571057974283769,0.015175953079178885,0.009050492518234454,195.375,-0.375,175.25,0.04156494000000006,0.13403320000000002,-0.9901123,-0.00201416
132.0,0.007065192871644487,0.01260997067448681,-0.10779863147605083,-0.06000000000000005,-0.8100000000000005,-9.76999999999999,-0.0008891645988420185,0.020906647116324534,0.005594405594405594,195.375,-0.375,175.25,0.04156494000000006,0.13403320000000002,-0.9901123,-0.00201416
133.0,0.006383713061132418,0.014242950597789317,-0.10689931573802541,-0.06000000000000005,-0.8100000000000005,-9.76999999999999,0.009589536807278743,-0.0038301752011429425,0.00017623505526731314,195.375,-0.375,175.25,0.04156494000000005,0.13403320000000005,-0.9901123,-0.0020141600000000005
134.0,0.00592578389352583,0.01385615459809009,-0.10638393864200313,-0.06000000000000005,-0.8100000000000005,-9.76999999999999,-0.0023822279870666964,0.01744727047146402,0.006616098954808632,195.375,-0.375,175.25,0.04156494000000005,0.13403320000000005,-0.9901123,-0.0020141600000000005
135.0,0.006767877284006319,0.014867959996992263,-0.10620760959470635,-0.06000000000000005,-0.8100000000000005,-9.76999999999999,-0.027232780660200018,0.017139446574930446,-0.0012740619595458299,195.375,-0.375,175.25,0.04156494000000005,0.13403320000000005,-0.9901123,-0.0020141600000000005
136.0,0.006439700886499156,0.013201878044920902,-0.1063197996033817,-0.06000000000000005,-0.8100000000000006,-9.76999999999999,-0.021548914293858926,0.016777857834670548,-0.003724371039007533,195.375,-0.375,175.25,0.04156494000000006,0.13403320000000002,-0.9901123000000001,-0.00201416
137.0,0.006487164897371929,0.012377445055345881,-0.105974784323364,-0.06000000000000005,-0.8100000000000007,-9.76999999999999,0.003264357212359136,-0.004075326054141654,-0.003337123877566824,195.375,-0.375,175.25,0.04156494000000006,0.13403320000000002,-0.9901123000000001,-0.00201416
138.0,0.005967020301156075,0.012582737115235918,-0.10836471376481005,-0.06000000000000005,-0.8100000000000006,-9.76999999999999,0.02136110559317107,-0.002549919587714484,0.01600428940342277,195.375,-0.375,175.25,0.04156494000000006,0.13403320000000002,-0.9901123000000001,-0.00201416
139.0,0.006882449920485551,0.013191812199997089,-0.10760712566201251,-0.06000000000000005,-0.8100000000000006,-9.76999999999999,-0.0008325308939175109,0.013744966516391649,0.011221841671408354,195.375,-0.375,175.25,0.04156494000000006,0.13403320000000002,-0.9901123000000001,-0.00201416
140.0,0.005508673640594682,0.012363257028639798,-0.1068338658613093,-0.06000000000000005,-0.8100000000000005,-9.76999999999999,0.009694927123911236,0.007101588830043332,0.007214659838636728,195.375,-0.375,175.25,0.04156494000000006,0.13403320000000002,-0.9901123,-0.00201416
141.0,0.0077398929108125104,0.012390102274551004,-0.1077789935950745,-0.06000000000000005,-0.8100000000000006,-9.76999999999999,0.037827723552326345,-0.02271906596051998,0.030659568725288515,195.375,-0.375,175.25,0.04156494000000006,0.13403320000000002,-0.9901123000000001,-0.00201416
142.0,0.006344669613807797,0.012654396638508345,-0.1080990939729505,-0.06000000000000005,-0.8100000000000006,-9.76999999999999,0.032651533388774606,0.0012355743277746162,-0.015905625829795305,195.375,-0.375,175.25,0.04156494000000006,0.13403320000000002,-0.9901123000000001,-0.00201416
143.0,0.0061342116397484735,0.01229738404750442,-0.10692833486526312,-0.06000000000000005,-0.8100000000000005,-9.76999999999999,0.0025030638595876908,-0.014014422024773493,-0.01241273471352913,195.375,-0.375,175.25,0.04156494000000006,0.13403320000000002,-0.9901123,-0.00201416
144.0,0.006640113216906671,0.011241665572431107,-0.10697480340234311,-0.06000000000000005,-0.8100000000000006,-9.76999999999999,-0.00752970849564494,-0.00027401482324448164,-0.010164992486249106,195.375,-0.375,175.25,0.04156494000000006,0.13403320000000002,-0.9901123000000001,-0.00201416
145.0,0.006848893363096544,0.012861790752979975,-0.10706511431114224,-0.06000000000000005,-0.8100000000000006,-9.76999999999999,0.016961563151982023,-0.0006410396696867569,0.02566347149881093,195.375,-0.375,175.25,0.04156494000000006,0.13403320000000002,-0.9901123000000001,-0.00201416
146.0,0.007566638946032305,0.01459863439401235,-0.10644278606965174,-0.06000000000000005,-0.8100000000000005,-9.76999999999999,0.04313704570986708,-0.03127735588917582,0.014432967129163567,195.375,-0.375,175.25,0.04156494000000006,0.13403320000000002,-0.9901123,-0.00201416
147.0,0.007477349323762423,0.01464094483593762,-0.10732386454822662,-0.06000000000000005,-0.8100000000000006,-9.76999999999999,0.017755339869567118,-0.0035024656774777143,0.008194000671131149,195.375,-0.375,175.25,0.04156494000000006,0.13403320000000002,-0.9901123000000001,-0.00201416
148.0,0.008022643381333804,0.014556542799200486,-0.10708568593980244,-0.06000000000000005,-0.8100000000000006,-9.76999999999999,0.01515516260340526,0.01630228622284472,0.008618016953356386,195.375,-0.375,175.25,0.04156494000000006,0.13403320000000002,-0.9901123000000001,-0.00201416
149.0,0.0076704454268248234,0.013506003705811127,-0.10635699800119637,-0.06000000000000005,-0.8100000000000006,-9.76999999999999,0.011715159539545671,-0.007962843407595453,0.009244010883996439,195.375,-0.375,175.25,0.04156494000000006,0.13403320000000002,-0.9901123000000001,-0.00201416
150.0,0.007931244970724994,0.013032007793201829,-0.10639862833363074,-0.06000000000000005,-0.8100000000000006,-9.76999999999999,-0.00522102576447786,-0.020343319214888786,0.007629985365300723,195.375,-0.375,175.25,0.04156494000000005,0.13403320000000005,-0.9901123000000001,-0.0020141600000000005
151.0,0.0072977521595720945,0.012725389519804547,-0.10649351034136784,-0.06000000000000005,-0.8100000000000007,-9.76999999999999,0.010236952503442632,0.009116749884684404,0.007590333354656898,195.375,-0.375,175.25,0.04156494000000006,0.13403320000000002,-0.9901123000000001,-0.00201416
152.0,0.008144798228572905,0.012930296633233569,-0.10561679645983929,-0.06000000000000005,-0.8100000000000006,-9.76999999999999,0.009622623404520369,0.027627596284312703,0.008682752210075272,195.375,-0.375,175.25,0.04156494000000006,0.13403320000000002,-0.9901123000000001,-0.00201416
153.0,0.008158420619662798,0.013740319382110434,-0.10645209324458241,-0.06000000000000005,-0.8100000000000006,-9.76999999999999,0.01586947397009987,0.00788760068370083,0.011046532507774685,195.375,-0.375,175.25,0.04156494000000006,0.13403320000000002,-0.9901123000000001,-0.00201416
154.0,0.007245709193711121,0.012457253547287255,-0.10759204653475236,-0.06000000000000005,-0.8100000000000005,-9.76999999999999,0.013190715158697824,0.018614307775357365,-0.014177533267566971,195.375,-0.375,175.25,0.04156494000000006,0.13403320000000002,-0.9901123,-0.00201416
155.0,0.008255608939287324,0.013092150346844626,-0.10710619696464664,-0.06000000000000005,-0.8100000000000005,-9.76999999999999,0.008906151624013925,0.004359883416214663,-0.01813095025661227,195.375,-0.375,175.25,0.04156494000000005,0.13403320000000005,-0.9901123,-0.0020141600000000005
156.0,0.008148507406571925,0.013728475825250025,-0.10709978193849161,-0.06000000000000005,-0.8100000000000005,-9.76999999999999,0.027341811414392056,-0.0008731859538311155,-0.009185841040679751,195.375,-0.375,175.25,0.04156494000000005,0.13403320000000005,-0.9901123,-0.0020141600000000005
157.0,0.007979697721633209,0.011892322731032414,-0.10839476652379876,-0.06000000000000005,-0.8100000000000005,-9.76999999999999,0.01303716444845477,0.0008153808557034364,-0.0027605459057071964,195.375,-0.375,175.25,0.04156494000000005,0.13403320000000007,-0.9901123,-0.0020141600000000005
158.0,0.005842995713963458,0.011111060982028728,-0.10828851793367923,-0.06000000000000005,-0.8100000000000005,-9.76999999999999,0.008648676592224978,0.0015682570118053989,-0.014001052710730131,195.375,-0.375,175.25,0.04156494000000005,0.13403320000000007,-0.9901123,-0.0020141600000000005
159.0,0.006074441687344915,0.01164764267990075,-0.10591066997518611,-0.06000000000000005,-0.8100000000000005,-9.76999999999999,0.038399503722084366,-0.005614143920595533,-0.012344913151364763,195.375,-0.375,175.25,0.04156494000000005,0.13403320000000007,-0.9901123,-0.0020141600000000005
160.0,0.006461538461538463,0.01314640198511167,-0.10713647642679905,-0.06000000000000005,-0.8100000000000005,-9.76999999999999,0.03154466501240695,0.0008374689826302728,-0.011290322580645162,195.375,-0.375,175.25,0.04156494000000005,0.13403320000000007,-0.9901123,-0.0020141600000000005
161.0,0.0069925558312655105,0.012615384615384622,-0.10790074441687347,-0.06000000000000005,-0.8100000000000005,-9.76999999999999,0.019509925558312654,0.017866004962779153,0.006761786600496278,195.375,-0.375,175.25,0.04156494000000005,0.13403320000000007,-0.9901123,-0.0020141600000000005
162.0,0.0072015941048199136,0.014511467027596066,-0.10739378900669225,-0.06000000000000005,-0.8100000000000005,-9.76999999999999,0.023944469508985638,-0.01067937438905181,0.007228926986991503,195.375,-0.375,175.25,0.04156494000000005,0.13403320000000005,-0.9901123,-0.0020141600000000005
163.0,0.007527032107677272,0.013264907135874884,-0.10802285886156855,-0.06000000000000005,-0.8100000000000005,-9.76999999999999,0.016782276862922024,-0.017589668396120008,0.009867283254380028,195.375,-0.375,175.25,0.04156494000000006,0.13403320000000002,-0.9901123,-0.00201416
164.0,0.006758553274682309,0.012709376644860522,-0.1065722234754493,-0.06000000000000005,-0.8100000000000005,-9.76999999999999,0.0038470937664486045,-0.011586397473494247,0.005616023761185051,195.375,-0.375,175.25,0.04156494000000005,0.13403320000000005,-0.9901123,-0.0020141600000000005
165.0,0.006761410632378378,0.013424167230618851,-0.10664591322655839,-0.06000000000000005,-0.8100000000000005,-9.76999999999999,-0.006404616888487856,0.013453079178885628,0.005956274907887811,195.375,-0.375,175.25,0.04156494000000005,0.13403320000000005,-0.9901123,-0.0020141600000000005
166.0,0.005482442288893904,0.013424242424242432,-0.10659839085645537,-0.06000000000000005,-0.8100000000000005,-9.76999999999999,-0.014260000751936236,0.0007246785472591914,0.004079254079254079,195.375,-0.375,175.25,0.04156494000000005,0.13403320000000007,-0.9901123,-0.0020141600000000005
167.0,0.006140536882472368,0.013097751710654942,-0.10568922475374087,-0.06000000000000005,-0.8100000000000005,-9.76999999999999,-0.00561790360177457,0.0078159072110685,-3.759681179036018e-05,195.375,-0.375,175.25,0.04156494000000005,0.13403320000000005,-0.9901123,-0.0020141600000000005
168.0,0.006332731784344689,0.013855816226783977,-0.10738273554402583,-0.06000000000000005,-0.8100000000000005,-9.76999999999999,0.0015746014737950216,-0.005286816677945711,0.0008059816527558462,195.375,-0.375,175.25,0.04156494000000005,0.13403320000000005,-0.9901123,-0.0020141600000000005
169.0,0.006041243702534027,0.01384820287239643,-0.10853616813294231,-0.06000000000000005,-0.8100000000000005,-9.76999999999999,0.0028508957440409053,0.017977503007744942,-0.012808998796902024,195.375,-0.375,175.25,0.04156494000000005,0.13403320000000002,-0.9901123,-0.00201416
170.0,0.00670176329047297,0.014115168433716829,-0.10851374163470937,-0.06000000000000005,-0.8100000000000005,-9.76999999999999,0.006713909410481991,0.021488751503872472,-0.023130616023761184,195.375,-0.375,175.25,0.04156494000000005,0.13403320000000005,-0.9901123,-0.0020141600000000005
171.0,0.006378176930596287,0.014702745507180998,-0.1081203943905557,-0.06000000000000005,-0.8100000000000005,-9.76999999999999,-0.006723690456049328,0.02084052959809008,-0.037418285679374386,195.375,-0.375,175.25,0.04156494000000005,0.13403320000000005,-0.9901123,-0.0020141600000000005
172.0,0.0061436339198436,0.01303074714264231,-0.10898199582675391,-0.06000000000000005,-0.8100000000000005,-9.76999999999999,-0.023080198111700128,0.023311271641664785,-0.024192402859237537,195.375,-0.375,175.25,0.04156494000000005,0.13403320000000007,-0.9901123,-0.0020141600000000005
173.0,0.005869195992179865,0.01378099857132116,-0.10724805436498985,-0.06000000000000005,-0.8100000000000005,-9.76999999999999,-0.018234277483269418,-0.003166062767877285,-0.010111574413489735,195.375,-0.375,175.25,0.04156494000000005,0.13403320000000007,-0.9901123,-0.0020141600000000005
174.0,0.005744959677419356,0.013603598014888345,-0.10621200372208435,-0.06000000000000005,-0.8100000000000005,-9.76999999999999,-0.0031298464640198507,0.008864182692307692,0.0014049899193548385,195.375,-0.375,175.25,0.04156494000000005,0.13403320000000007,-0.9901123,-0.0020141600000000005
175.0,0.005254032258064516,0.012779621588089336,-0.10579249379652605,-0.06000000000000005,-0.8100000000000005,-9.76999999999999,-0.009786949441687346,0.009566919975186106,0.003238407258064516,195.375,-0.375,175.25,0.04156494000000005,0.13403320000000007,-0.9901123,-0.0020141600000000005
176.0,0.0077721774193548416,0.01211189516129033,-0.1068850806451613,-0.06000000000000005,-0.8100000000000005,-9.76999999999999,-0.005071824596774193,-0.010647681451612902,-9.450604838709669e-05,195.375,-0.375,175.25,0.04156494000000005,0.13403320000000007,-0.9901123,-0.0020141600000000005
177.0,0.007231182795698927,0.011279041858678961,-0.10533442140296981,-0.06000000000000005,-0.8100000000000005,-9.76999999999999,-0.011138212845622119,0.008603550627240142,-0.0014100902457757293,195.375,-0.375,175.25,0.04156494000000005,0.13403320000000007,-0.9901123,-0.0020141600000000005
178.0,0.007129576292882747,0.01171338965693805,-0.10659082181259602,-0.06000000000000005,-0.8100000000000005,-9.76999999999999,-0.010484671018945213,0.010918698796722987,0.0017921146953405018,195.375,-0.375,175.25,0.04156494000000005,0.13403320000000007,-0.9901123,-0.0020141600000000005
179.0,0.00781610023041475,0.012931307603686644,-0.10583133320532515,-0.06000000000000005,-0.8100000000000005,-9.76999999999999,-0.01772013408858167,0.0040887616807475675,-0.0039012496799795187,195.375,-0.375,175.25,0.04156494000000005,0.13403320000000007,-0.9901123,-0.0020141600000000005
180.0,0.008346054147465441,0.012319988479262679,-0.10452100934459804,-0.06000000000000005,-0.8100000000000005,-9.76999999999999,-0.012640308979774705,-0.007201460893497183,-0.003525725646441372,195.375,-0.375,175.25,0.04156494000000005,0.13403320000000007,-0.9901123,-0.0020141600000000005
181.0,0.007941628264208913,0.012609447004608303,-0.10352470558115717,-0.06000000000000005,-0.8100000000000005,-9.76999999999999,-0.007840501792114695,-0.0021041346646185352,-0.008340533794162826,195.375,-0.375,175.25,0.04156494000000005,0.13403320000000007,-0.9901123,-0.0020141600000000005
182.0,0.008056835637480803,0.01113575268817205,-0.10282738095238095,-0.06000000000000005,-0.8100000000000005,-9.76999999999999,-0.005144329237071172,0.014628936251920122,-0.004626296082949307,195.375,-0.375,175.25,0.04156494000000005,0.13403320000000007,-0.9901123,-0.0020141600000000005
183.0,0.0077060931899641605,0.011015905017921154,-0.10467533922171018,-0.06000000000000005,-0.8100000000000005,-9.76999999999999,-0.010476670506912443,0.015691004224270354,0.001135072644649258,195.375,-0.375,175.25,0.04156494000000005,0.13403320000000007,-0.9901123,-0.0020141600000000005
184.0,0.00831413210445469,0.012780097926267288,-0.10588477662570403,-0.06000000000000005,-0.8100000000000005,-9.76999999999999,-0.006366407450076805,0.014933955773169482,-0.004328777041730671,195.375,-0.375,175.25,0.04156494000000005,0.13403320000000007,-0.9901123,-0.0020141600000000005
185.0,0.007866423451100875,0.014803187403993862,-0.10551107270865334,-0.06000000000000005,-0.8100000000000005,-9.76999999999999,0.002575164810547874,-0.0024901593701996926,0.0004430283538146441,195.375,-0.375,175.25,0.04156494000000005,0.13403320000000007,-0.9901123,-0.0020141600000000005
186.0,0.0074150345622119845,0.014239791346646193,-0.10590709805427548,-0.06000000000000005,-0.8100000000000005,-9.76999999999999,-0.007368971614183307,-0.010493671594982079,-0.0026426691308243724,195.375,-0.375,175.25,0.04156494000000005,0.13403320000000007,-0.9901123,-0.0020141600000000005
187.0,0.007426955325140811,0.013681515616999495,-0.1058675755248336,-0.06000000000000005,-0.8100000000000005,-9.76999999999999,-0.02309447804659498,-0.0016546058947772661,-0.00949810787890425,195.375,-0.375,175.25,0.04156494000000005,0.13403320000000007,-0.9901123,-0.0020141600000000005
188.0,0.007363591269841272,0.014529169866871488,-0.10618687596006145,-0.06000000000000005,-0.8100000000000005,-9.76999999999999,-0.028192304307475678,0.00197712653609831,-0.003835245455709165,195.375,-0.375,175.25,0.04156494000000005,0.13403320000000007,-0.9901123,-0.0020141600000000005
189.0,0.008376856118791605,0.014126984126984134,-0.10556067588325652,-0.06000000000000005,-0.8100000000000005,-9.76999999999999,-0.015560995903737839,-0.01233678955453149,-0.004280273937532002,195.375,-0.375,175.25,0.04156494000000005,0.13403320000000007,-0.9901123,-0.0020141600000000005
190.0,0.008573988735279061,0.013348694316436259,-0.10622119815668202,-0.06000000000000005,-0.8100000000000005,-9.76999999999999,-0.008980574756784434,-0.002264144905273938,-0.0017081093189964154,195.375,-0.375,175.25,0.04156494000000005,0.13403320000000007,-0.9901123,-0.0020141600000000005
191.0,0.009013056835637485,0.013873527905785978,-0.10744623655913978,-0.06000000000000005,-0.8100000000000005,-9.76999999999999,-0.015811011904761904,0.01427691372247824,-0.0007580485151049668,195.375,-0.375,175.25,0.04156494000000005,0.13403320000000007,-0.9901123,-0.0020141600000000005
192.0,0.007773297491039429,0.014630056323604718,-0.10758256528417817,-0.06000000000000005,-0.8100000000000005,-9.76999999999999,0.016896081349206348,-0.01012664810547875,0.011973766321044547,195.375,-0.375,175.25,0.04156494000000005,0.13403320000000007,-0.9901123,-0.0020141600000000005
193.0,0.00818095196802273,0.014394954825495937,-0.10585072799497877,-0.06000000000000005,-0.8100000000000005,-9.76999999999999,0.01886161036887006,-0.01712603154989016,0.00803604656504468,195.375,-0.375,175.25,0.04156494000000004,0.13403320000000007,-0.9901123,-0.0020141600000000005
194.0,0.009665072758204917,0.015120864509522167,-0.10469955754587648,-0.06000000000000005,-0.8100000000000005,-9.76999999999999,0.021574832402176964,-0.030834941178170885,0.011153229935748146,195.375,-0.375,175.25,0.04156494000000004,0.13403320000000007,-0.9901123,-0.0020141600000000005
195.0,0.008624139041672864,0.013172311415027343,-0.10641787913136118,-0.06000000000000005,-0.8100000000000005,-9.76999999999999,-0.0019814010032125923,-0.016553543297738796,0.009144843334489535,195.375,-0.375,175.25,0.04156494000000004,0.13403320000000007,-0.9901123,-0.0020141600000000005
196.0,0.007144730811159013,0.012805913772029803,-0.10492516940439028,-0.06000000000000005,-0.8100000000000005,-9.76999999999999,0.0028997984903291877,-0.01429365672951456,0.006084518441438315,195.375,-0.375,175.25,0.04156494000000004,0.13403320000000007,-0.9901123,-0.0020141600000000005
197.0,0.006531034760418218,0.013817271402143939,-0.10677458066993707,-0.06000000000000005,-0.8100000000000005,-9.76999999999999,0.010774496019358142,-0.015683874735725023,0.01324891244652561,195.375,-0.375,175.25,0.04156494000000005,0.13403320000000007,-0.9901123,-0.0020141600000000005
198.0,0.0076437692012288816,0.013615191372247832,-0.10541642665130568,-0.06000000000000005,-0.8100000000000005,-9.76999999999999,0.007094454045058884,0.0005965381784434204,0.008071516577060931,195.375,-0.375,175.25,0.04156494000000005,0.13403320000000007,-0.9901123,-0.0020141600000000005
199.0,0.008804243471582186,0.014536930363543274,-0.10595670122887867,-0.06000000000000005,-0.8100000000000005,-9.76999999999999,0.0203062996031746,0.016632064452124937,0.010367663530465948,195.375,-0.375,175.25,0.04156494000000005,0.13403320000000007,-0.9901123,-0.0020141600000000005
200.0,0.008249457196029781,0.01447130893300249,-0.10681800558312654,-0.06000000000000005,-0.8100000000000005,-9.76999999999999,0.0011238950062034715,0.02323637174317618,0.009042047921836228,195.375,-0.375,175.25,0.04156494000000005,0.13403320000000007,-0.9901123,-0.0020141600000000005
201.0,0.007741160049627795,0.015340493176178667,-0.10827039392059552,-0.06000000000000005,-0.8100000000000005,-9.76999999999999,0.003979916253101736,0.003222898573200992,0.003969738678660049,195.375,-0.375,175.25,0.04156494000000005,0.13403320000000007,-0.9901123,-0.0020141600000000005
202.0,0.008777295285359806,0.014259615384615391,-0.10764919354838709,-0.06000000000000005,-0.8100000000000005,-9.76999999999999,-0.002295285359801489,-0.012000814205955335,0.0006615423387096775,195.375,-0.375,175.25,0.04156494000000005,0.13403320000000007,-0.9901123,-0.0020141600000000005
203.0,0.008763647642679905,0.014251783498759312,-0.10738810483870968,-0.06000000000000005,-0.8100000000000005,-9.76999999999999,0.010886127481389578,-0.01734113290942928,0.0012915826612903225,195.375,-0.375,175.25,0.04156494000000005,0.13403320000000007,-0.9901123,-0.0020141600000000005
204.0,0.009223014888337471,0.012672921836228293,-0.10946665632754342,-0.06000000000000005,-0.8100000000000005,-9.76999999999999,0.019299589019851116,-0.009655125620347395,0.0029224178039702234,195.375,-0.375,175.25,0.04156494000000005,0.13403320000000007,-0.9901123,-0.0020141600000000005
205.0,0.007632599255583129,0.012315369106699758,-0.108480226426799,-0.06000000000000005,-0.8100000000000005,-9.76999999999999,0.03010574984491315,-0.006804920130272953,0.014946010390818859,195.375,-0.375,175.25,0.04156494000000005,0.13403320000000007,-0.9901123,-0.0020141600000000005
206.0,0.008700372208436728,0.013559398263027302,-0.10957025434243176,-0.06000000000000005,-0.8100000000000005,-9.76999999999999,0.028551488833746898,-0.01119920905707196,0.004968594913151365,195.375,-0.375,175.25,0.04156494000000005,0.13403320000000007,-0.9901123,-0.0020141600000000005
207.0,0.009355148883374693,0.014146944789081893,-0.10959033808933002,-0.06000000000000005,-0.8100000000000005,-9.76999999999999,0.012383684863523573,-0.00919761941687345,0.0030193470843672457,195.375,-0.375,175.25,0.04156494000000005,0.13403320000000007,-0.9901123,-0.0020141600000000005
208.0,0.009052574441687349,0.013618331265508692,-0.10710111662531019,-0.06000000000000005,-0.8100000000000005,-9.76999999999999,-0.006282955955334987,-0.0017321262406947888,0.002486236042183623,195.375,-0.375,175.25,0.04156494000000005,0.13403320000000007,-0.9901123,-0.0020141600000000005
209.0,0.008302371351766518,0.014083221326164883,-0.10770897337429597,-0.06000000000000005,-0.8100000000000005,-9.76999999999999,-0.008199524769585253,-0.005458849366359447,0.007822000608038913,195.375,-0.375,175.25,0.04156494000000005,0.13403320000000007,-0.9901123,-0.0020141600000000005
210.0,0.008972254224270358,0.013944332437275993,-0.10663674475166413,-0.06000000000000005,-0.8100000000000005,-9.76999999999999,0.004846810195852535,-0.0062103974654377885,0.0009655617959549406,195.375,-0.375,175.25,0.04156494000000005,0.13403320000000007,-0.9901123,-0.0020141600000000005
211.0,0.008835765488991298,0.013942172299027146,-0.10707941308243729,-0.06000000000000005,-0.8100000000000005,-9.76999999999999,-0.014898953533026114,-0.009509608614951356,-0.005070824532770097,195.375,-0.375,175.25,0.04156494000000005,0.13403320000000007,-0.9901123,-0.0020141600000000005
212.0,0.00982750896057348,0.014762864823348702,-0.10740031362007169,-0.06000000000000005,-0.8100000000000005,-9.76999999999999,-0.007898505504352279,-0.006676927323348694,-0.0056233598950332815,195.375,-0.375,175.25,0.04156494000000005,0.13403320000000007,-0.9901123,-0.0020141600000000005
213.0,0.010095206093189969,0.014589093701996935,-0.10717293906810038,-0.06000000000000005,-0.8100000000000005,-9.76999999999999,-0.00256316404249872,0.005151329685099846,-0.008891569060419866,195.375,-0.375,175.25,0.04156494000000005,0.13403320000000007,-0.9901123,-0.0020141600000000005
214.0,0.00877520161290323,0.01279633896569381,-0.10640008960573477,-0.06000000000000005,-0.8100000000000005,-9.76999999999999,0.019855770769329237,0.008352034530209933,0.005074824788786482,195.375,-0.375,175.25,0.04156494000000005,0.13403320000000007,-0.9901123,-0.0020141600000000005
215.0,0.008991935483870972,0.011821556579621102,-0.10601254480286738,-0.06000000000000005,-0.8100000000000005,-9.76999999999999,0.011140713005632361,-0.001258080517153098,0.008664554531490015,195.375,-0.375,175.25,0.04156494000000005,0.13403320000000007,-0.9901123,-0.0020141600000000005
216.0,0.009762224782386078,0.014615335381464423,-0.10648809523809524,-0.06000000000000005,-0.8100000000000005,-9.76999999999999,0.007634488607270866,0.0006030385944700454,0.010140649001536097,195.375,-0.375,175.25,0.04156494000000005,0.13403320000000007,-0.9901123,-0.0020141600000000005
217.0,0.009540610599078346,0.01615047363031235,-0.10606790834613417,-0.06000000000000005,-0.8100000000000005,-9.76999999999999,-0.021768393177163337,0.009582113255248336,-0.006610423067076293,195.375,-0.375,175.25,0.04156494000000005,0.13403320000000007,-0.9901123,-0.0020141600000000005
218.0,0.00878216205837174,0.014725102406554027,-0.10480734767025088,-0.06000000000000005,-0.8100000000000005,-9.76999999999999,-0.03139700940860215,0.01322784658218126,-0.007212461597542243,195.375,-0.375,175.25,0.04156494000000005,0.13403320000000007,-0.9901123,-0.0020141600000000005
219.0,0.009432043650793656,0.014441404249871998,-0.10561795954941117,-0.06000000000000005,-0.8100000000000005,-9.76999999999999,-0.023915030561955965,0.013494363639272913,-0.004918314772145417,195.375,-0.375,175.25,0.04156494000000005,0.13403320000000007,-0.9901123,-0.0020141600000000005
220.0,0.00784434203789043,0.014007936507936514,-0.10681451612903226,-0.06000000000000005,-0.8100000000000005,-9.76999999999999,0.00694044418842806,0.011016705069124423,-0.0026481694828469023,195.375,-0.375,175.25,0.04156494000000005,0.13403320000000007,-0.9901123,-0.0020141600000000005
221.0,0.007326401197368942,0.014030121312379384,-0.10655019398164561,-0.06000000000000005,-0.8100000000000005,-9.76999999999999,-0.008488450953168695,0.01788329837724999,-0.0005075401748788845,195.375,-0.375,175.25,0.04156494000000005,0.13403320000000007,-0.9901123,-0.0020141600000000005
222.0,0.007772263578715194,0.01377645338532436,-0.10752496898263025,-0.06000000000000005,-0.8100000000000005,-9.76999999999999,-0.009076534744377486,-0.002611090186695024,0.0011383190062625548,195.375,-0.375,175.25,0.04156494000000005,0.13403320000000007,-0.9901123,-0.0020141600000000005
223.0,0.00899749891685376,0.013931237445350356,-0.1061229555614636,-0.06000000000000005,-0.8100000000000005,-9.76999999999999,-0.012466774796663908,-0.009642078631493953,-0.019464122626925047,195.375,-0.375,175.25,0.04156494000000005,0.13403320000000007,-0.9901123,-0.0020141600000000005
224.0,0.00853100752294301,0.014722675174288085,-0.10610331245815113,-0.06000000000000005,-0.8100000000000005,-9.76999999999999,-0.018597928728977114,-0.018650424396392137,-0.01121265607152704,195.375,-0.375,175.25,0.04156494000000005,0.13403320000000007,-0.9901123,-0.0020141600000000005
225.0,0.008679226239710115,0.014401788175981731,-0.10606880932687382,-0.06000000000000005,-0.8100000000000005,-9.76999999999999,-0.02702809902910709,0.005667747351215094,-0.007118424809957068,195.375,-0.375,175.25,0.04156494000000005,0.13403320000000007,-0.9901123,-0.0020141600000000005
226.0,0.009230431978415853,0.016183524360943724,-0.10610884635078185,-0.06000000000000005,-0.8100000000000005,-9.76999999999999,0.005220441800582929,0.013860548613572807,-0.011034398509196897,195.375,-0.375,175.25,0.04156494000000005,0.13403320000000007,-0.9901123,-0.0020141600000000005
227.0,0.00956397332506204,0.015891439205955343,-0.10649193548387097,-0.06000000000000005,-0.8100000000000005,-9.76999999999999,0.02511873836848635,0.009267408498759306,-0.0035640896401985117,195.375,-0.375,175.25,0.04156494000000005,0.13403320000000007,-0.9901123,-0.0020141600000000005
228.0,0.00890601736972705,0.015738756203473953,-0.10610832816377172,-0.06000000000000005,-0.8100000000000005,-9.76999999999999,0.01580480381513648,-0.012484006668734489,-0.0001594486662531017,195.375,-0.375,175.25,0.04156494000000005,0.13403320000000007,-0.9901123,-0.0020141600000000005
229.0,0.010991935483870972,0.01595735111662532,-0.10589384305210917,-0.06000000000000005,-0.8100000000000005,-9.76999999999999,-0.017510274503722084,-0.014749728598014888,-0.005987806296526055,195.375,-0.375,175.25,0.04156494000000005,0.13403320000000007,-0.9901123,-0.0020141600000000005
230.0,0.010435483870967745,0.016864764267990082,-0.10768734491315135,-0.06000000000000005,-0.8100000000000005,-9.76999999999999,-0.039469602977667495,0.003241315136476429,-0.012523263027295286,195.375,-0.375,175.25,0.04156494000000005,0.13403320000000007,-0.9901123,-0.0020141600000000005
231.0,0.011096153846153851,0.017196650124069485,-0.10779404466501238,-0.06000000000000005,-0.8100000000000005,-9.76999999999999,-0.027752791563275436,-0.008165322580645161,-0.005532723325062035,195.375,-0.375,175.25,0.04156494000000005,0.13403320000000007,-0.9901123,-0.0020141600000000005
232.0,0.010873138957816383,0.01786383374689827,-0.10709181141439206,-0.06000000000000005,-0.8100000000000005,-9.76999999999999,-0.008525899503722085,-0.024810018610421834,0.010276442307692306,195.375,-0.375,175.25,0.04156494000000005,0.13403320000000007,-0.9901123,-0.0020141600000000005
233.0,0.011337313895781645,0.016542338709677425,-0.10647146401985111,-0.06000000000000005,-0.8100000000000005,-9.76999999999999,-0.0028671681141439207,-0.014839872828784118,0.005107203784119106,195.375,-0.375,175.25,0.04156494000000005,0.13403320000000007,-0.9901123,-0.0020141600000000005
234.0,0.010944091191067002,0.01607513957816378,-0.10645037220843673,-0.06000000000000005,-0.8100000000000005,-9.76999999999999,0.002397061104218362,0.00394792959057072,-0.00683690679280397,195.375,-0.375,175.25,0.04156494000000005,0.13403320000000007,-0.9901123,-0.0020141600000000005
235.0,0.010552767125347775,0.015260122941574562,-0.10557642021956537,-0.06000000000000005,-0.8100000000000005,-9.76999999999999,0.0016863344988344987,0.010913855130084969,0.004212194055944056,195.375,-0.375,175.25,0.04156494000000005,0.13403320000000005,-0.9901123,-0.0020141600000000005
236.0,0.007910378599894732,0.01436331209113468,-0.1054035947251673,-0.06000000000000005,-0.8100000000000005,-9.76999999999999,0.03887821687720881,0.01784836677099782,-0.003957798753665689,195.375,-0.375,175.25,0.04156494000000005,0.13403320000000005,-0.9901123,-0.0020141600000000005
237.0,0.0037838183322054307,0.012771373787502826,-0.1064694384916159,-0.06000000000000005,-0.8100000000000005,-9.76999999999999,0.03033880601924957,0.029227232780660202,-0.025573909457478006,195.375,-0.375,175.25,0.04156494000000005,0.13403320000000005,-0.9901123,-0.0020141600000000005
238.0,0.005355929017219342,0.015033329573652162,-0.10599898723588236,-0.06000000000000005,-0.8100000000000005,-9.76999999999999,0.011648931545604934,0.03306895137792315,-0.029660403860252652,195.375,-0.375,175.25,0.04156494000000005,0.13403320000000007,-0.9901123,-0.0020141600000000005
239.0,0.005571109669899994,0.013232390593277694,-0.1060413282953605,-0.06000000000000005,-0.8100000000000005,-9.76999999999999,-0.00989504027558463,0.04441375996315512,-0.005962384389803746,195.375,-0.375,175.25,0.04156494000000005,0.13403320000000007,-0.9901123,-0.0020141600000000005
240.0,0.006308456664303441,0.013181386377958964,-0.10507251910276103,-0.06000000000000005,-0.8100000000000005,-9.76999999999999,0.008380605589526958,0.023964810670959864,-0.014987051478986962,195.375,-0.375,175.25,0.04156494000000005,0.13403320000000007,-0.9901123,-0.0020141600000000005
241.0,0.005807958170861399,0.013306923027689162,-0.10519250955138051,-0.06000000000000005,-0.8100000000000005,-9.76999999999999,0.011577525577021543,1.163920644767398e-05,-0.0078085459007838035,195.375,-0.375,175.25,0.04156494000000005,0.13403320000000007,-0.9901123,-0.0020141600000000005
242.0,0.006794797943991495,0.0136158917247627,-0.10382516296427584,-0.06000000000000005,-0.8100000000000005,-9.76999999999999,-0.00894981894225846,-0.0016010255425578006,-0.013601562807712003,195.375,-0.375,175.25,0.04156494000000005,0.13403320000000007,-0.9901123,-0.0020141600000000005
243.0,0.006105835696561505,0.013949385068336689,-0.10593615468313046,-0.06000000000000005,-0.8100000000000005,-9.76999999999999,-0.007390542225471661,-0.01750336636929379,0.004311191300858639,195.375,-0.375,175.25,0.04156494000000005,0.13403320000000007,-0.9901123,-0.0020141600000000005
244.0,0.006479937177517825,0.014653023947378795,-0.10516369786127852,-0.06000000000000005,-0.8100000000000005,-9.76999999999999,0.03877969728524164,-0.006049510245578794,-0.001696400877348458,195.375,-0.375,175.25,0.04156494000000005,0.13403320000000007,-0.9901123,-0.0020141600000000005
245.0,0.006729471916971919,0.01481499123636221,-0.105464593426287,-0.06000000000000005,-0.8100000000000005,-9.76999999999999,0.022558051407597778,-0.010257218000413564,0.015392838987849067,195.375,-0.375,175.25,0.04156494000000005,0.13403320000000007,-0.9901123,-0.0020141600000000005
246.0,0.0065560602032376245,0.014891734609476553,-0.10551399474181736,-0.06000000000000005,-0.8100000000000005,-9.76999999999999,0.011011258566702115,0.004450254047028241,-0.007648812600929535,195.375,-0.375,175.25,0.04156494000000005,0.13403320000000007,-0.9901123,-0.0020141600000000005
247.0,0.006059667818740401,0.014803187403993862,-0.10448900729646698,-0.06000000000000005,-0.8100000000000005,-9.76999999999999,-0.00815752208141321,0.003768241167434716,-0.0019866271441372238,195.375,-0.375,175.25,0.04156494000000005,0.13403320000000007,-0.9901123,-0.0020141600000000005
248.0,0.005972862263184845,0.014051459293394785,-0.1053110599078341,-0.06000000000000005,-0.8100000000000005,-9.76999999999999,-0.006032386072708653,0.0274777585765489,0.0012360791090629804,195.375,-0.375,175.25,0.04156494000000005,0.13403320000000007,-0.9901123,-0.0020141600000000005
249.0,0.006071428571428573,0.01415322580645162,-0.10348502304147467,-0.06000000000000005,-0.8100000000000005,-9.76999999999999,-0.004840309779825909,0.005946380568356377,0.0038022433435739886,195.375,-0.375,175.25,0.04156494000000005,0.13403320000000007,-0.9901123,-0.0020141600000000005
250.0,0.00679403481822837,0.01377144137224783,-0.10358582949308756,-0.06000000000000005,-0.8100000000000005,-9.76999999999999,-0.008580549155145929,-0.002347150217613927,-0.003131200396825396,195.375,-0.375,175.25,0.04156494000000005,0.13403320000000007,-0.9901123,-0.0020141600000000005
251.0,0.006080069124423965,0.01508336533538147,-0.10383336533538148,-0.06000000000000005,-0.8100000000000005,-9.76999999999999,-0.004802307347670251,-0.0029976918522785457,0.0014745943740399389,195.375,-0.375,175.25,0.04156494000000005,0.13403320000000007,-0.9901123,-0.0020141600000000005
252.0,0.0057347670250896075,0.015005760368663601,-0.10309011776753714,-0.06000000000000005,-0.8100000000000005,-9.76999999999999,-0.05623559907834102,0.011254720302099334,-0.01825516833077317,195.375,-0.375,175.25,0.04156494000000005,0.13403320000000007,-0.9901123,-0.0020141600000000005
253.0,0.005272657450076806,0.014707181259600622,-0.10491295442908344,-0.06000000000000005,-0.8100000000000005,-9.76999999999999,-0.039646537378392216,0.013915890616999486,-0.009207589285714286,195.375,-0.375,175.25,0.04156494000000005,0.13403320000000007,-0.9901123,-0.0020141600000000005
254.0,0.005731566820276499,0.015889176907322076,-0.1049679979518689,-0.06000000000000005,-0.8100000000000005,-9.76999999999999,0.024739583333333332,0.01743861607142857,0.011685247855862776,195.375,-0.375,175.25,0.04156494000000005,0.13403320000000007,-0.9901123,-0.0020141600000000005
255.0,0.006535138248847928,0.01635688684075782,-0.1056493215565796,-0.06000000000000005,-0.8100000000000005,-9.76999999999999,0.01759912634408602,-0.008748559907834099,-0.005608358934971839,195.375,-0.375,175.25,0.04156494000000005,0.13403320000000007,-0.9901123,-0.0020141600000000005
256.0,0.007358710957501282,0.01790962621607784,-0.10488815284178186,-0.06000000000000005,-0.8100000000000005,-9.76999999999999,-0.01832217261904762,0.013594870071684587,-0.014148905529953916,195.375,-0.375,175.25,0.04156494000000005,0.13403320000000007,-0.9901123,-0.0020141600000000005
257.0,0.007688572068612394,0.018135560675883265,-0.10478150601638506,-0.06000000000000005,-0.8100000000000005,-9.76999999999999,-0.00336871559779826,0.0007650489631336414,-0.0013620871735791082,195.375,-0.375,175.25,0.04156494000000005,0.13403320000000007,-0.9901123,-0.0020141600000000005
258.0,0.008846806195596522,0.01730366743471583,-0.10518561187916027,-0.06000000000000005,-0.8100000000000005,-9.76999999999999,0.034464205709165384,-0.01401389688940092,0.01847218221966206,195.375,-0.375,175.25,0.04156494000000005,0.13403320000000007,-0.9901123,-0.0020141600000000005
259.0,0.008337893625192015,0.018127000128008202,-0.10447964669738861,-0.06000000000000005,-0.8100000000000005,-9.76999999999999,0.023520505312339988,-0.008351034466205836,-0.0015165970622119818,195.375,-0.375,175.25,0.04156494000000005,0.13403320000000007,-0.9901123,-0.0020141600000000005
260.0,0.009856950844854075,0.019922875064004107,-0.1070583717357911,-0.06000000000000005,-0.8100000000000005,-9.76999999999999,0.0030341941884280584,-0.01168874807987711,0.0056523617511520735,195.375,-0.375,175.25,0.04156494000000005,0.13403320000000007,-0.9901123,-0.0020141600000000005
261.0,0.010532674091141838,0.020135528673835133,-0.10649385560675884,-0.06000000000000005,-0.8100000000000005,-9.76999999999999,0.011069708461341525,0.0023001472094214027,0.009322596646185354,195.375,-0.375,175.25,0.04156494000000005,0.13403320000000007,-0.9901123,-0.0020141600000000005
262.0,0.010218974014336923,0.018563668074756796,-0.10535010240655401,-0.06000000000000005,-0.8100000000000005,-9.76999999999999,-0.00013750880056323696,-0.021355366743471584,0.012565804211469533,195.375,-0.375,175.25,0.04156494000000005,0.13403320000000007,-0.9901123,-0.0020141600000000005
263.0,0.009866231438812087,0.017209741423451108,-0.10422283026113671,-0.06000000000000005,-0.8100000000000005,-9.76999999999999,-0.012963829685099846,-0.02508560547875064,-0.02298947132616487,195.375,-0.375,175.25,0.04156494000000005,0.13403320000000007,-0.9901123,-0.0020141600000000005
264.0,0.00916250640040963,0.018622791858678964,-0.10430803571428571,-0.06000000000000005,-0.8100000000000005,-9.76999999999999,0.0013425859254992322,-0.0175511232718894,-0.015711005504352275,195.375,-0.375,175.25,0.04156494000000005,0.13403320000000007,-0.9901123,-0.0020141600000000005
265.0,0.00931915642601127,0.01767329109062981,-0.10385512672811062,-0.06000000000000005,-0.8100000000000005,-9.76999999999999,-0.009645617319508448,-0.00348322292626728,-0.017117095494111622,195.375,-0.375,175.25,0.04156494000000005,0.13403320000000007,-0.9901123,-0.0020141600000000005
266.0,0.009722302227342555,0.01802507360471071,-0.10280057923707117,-0.06000000000000005,-0.8100000000000005,-9.76999999999999,-0.014671438972094214,-0.004029757904505889,-0.002198140681003583,195.375,-0.375,175.25,0.04156494000000005,0.13403320000000007,-0.9901123,-0.0020141600000000005
267.0,0.009783026113671277,0.019786226318484396,-0.10391289042498719,-0.06000000000000005,-0.8100000000000005,-9.76999999999999,-0.013210845494111622,-0.007354470686123911,-0.0038712477598566307,195.375,-0.375,175.25,0.04156494000000005,0.13403320000000007,-0.9901123,-0.0020141600000000005
268.0,0.009979838709677422,0.020685483870967754,-0.10464717741935485,-0.06000000000000005,-0.8100000000000005,-9.76999999999999,0.02551663306451613,-0.030934979838709676,0.029202368951612906,195.375,-0.375,175.25,0.04156494000000005,0.13403320000000007,-0.9901123,-0.0020141600000000005
269.0,0.008482862903225809,0.0204233870967742,-0.10588205645161292,-0.06000000000000005,-0.8100000000000005,-9.76999999999999,0.018050655241935484,-0.0077494959677419355,0.02734375,195.375,-0.375,175.25,0.04156494000000005,0.13403320000000007,-0.9901123,-0.0020141600000000005
270.0,0.00820060483870968,0.017439516129032266,-0.10441532258064515,-0.06000000000000005,-0.8100000000000005,-9.76999999999999,-0.013325352822580645,-0.0030241935483870967,-0.004189768145161289,195.375,-0.375,175.25,0.04156494000000005,0.13403320000000007,-0.9901123,-0.0020141600000000005
271.0,0.006113911290322582,0.016003024193548397,-0.10451612903225807,-0.06000000000000005,-0.8100000000000005,-9.76999999999999,0.004221270161290321,-0.01657006048387097,-0.0012915826612903214,195.375,-0.375,175.25,0.04156494000000005,0.13403320000000007,-0.9901123,-0.0020141600000000005
272.0,0.004208989375320021,0.01560299859190989,-0.10635560675883257,-0.06000000000000005,-0.8100000000000005,-9.76999999999999,0.007419974878392217,-0.004511788754480288,0.013769881272401432,195.375,-0.375,175.25,0.04156494000000005,0.13403320000000007,-0.9901123,-0.0020141600000000005
273.0,0.005166490655401946,0.017456237199180755,-0.1055921178955453,-0.06000000000000005,-0.8100000000000005,-9.76999999999999,0.022878964253712237,-0.00995813732078853,0.010476170474910392,195.375,-0.375,175.25,0.04156494000000005,0.13403320000000007,-0.9901123,-0.0020141600000000005
274.0,0.006260160650281619,0.01735463069636458,-0.10566652265745008,-0.06000000000000005,-0.8100000000000005,-9.76999999999999,0.04856460813492064,-0.023864527329749106,-0.04152665770609319,195.375,-0.375,175.25,0.04156494000000005,0.13402827790322588,-0.9901127922580645,-0.0020141600000000005
275.0,0.0011247192547595775,0.017436097728436448,-0.10427120426616394,-0.06000000000000005,-0.8100000000000005,-9.76999999999999,0.09048474556917097,-0.005121145935158032,-0.20054819872108176,195.20588954056694,-0.375,175.21823069403717,0.04153391790811341,0.13249095854105578,-0.9903063337341156,-0.002071436637341154
276.0,-0.00015084601778150137,0.015497282735185969,-0.1040786464879207,-0.06000000000000005,-0.8100000000000005,-9.76999999999999,0.06960918226039194,-0.032834010467579014,-0.25252334331215376,195.08328751221893,-0.36794354838709675,175.20185728250243,0.04151792959921799,0.13137786483504404,-0.9904480453347999,-0.002115646947702835
277.0,-0.003826063049853373,0.011855144183773224,-0.1039248839198436,-0.05499999999999999,-0.8100000000000005,-9.76999999999999,0.026076032502443787,-0.032154012402248286,-0.30513711968475077,194.78761149804495,-0.3392137096774194,175.1936705767351,0.04150993544477029,0.1287722107239737,-0.9908009419415944,-0.0022455478286901283
278.0,-0.0058848057184750745,0.010292491446725324,-0.1057552847018573,-0.052338709677419326,-0.8100000000000005,-9.76999999999999,0.026016846896383186,-0.029418110031769307,-0.1365812866568915,194.62969284579668,-0.3248487903225806,175.18957722385142,0.04150593836754643,0.12737044729747077,-0.9909921564546691,-0.002318865527248291
279.0,-0.007566738816738819,0.010519349602010897,-0.10499637795000699,-0.05100806451612899,-0.8100000000000005,-9.76999999999999,-0.0065903308720849044,-0.015662366027789414,-0.05455276410417539,194.55073351967252,-0.31766633064516125,175.1875305474096,0.04150393982893451,0.12666971939974353,-0.9910877483281418,-0.002355524376527372
280.0,-0.00642825140809012,0.012515761008704563,-0.10499143945212494,-0.050342741935483826,-0.8100000000000005,-9.76999999999999,0.001826616903481822,-0.004972818260368663,-0.017032090053763438,194.51653855846774,-0.3140751008064516,175.1875,0.04150390999999999,0.1263673197731856,-0.9911295037852839,-0.002372063906250001
281.0,-0.004564932155657963,0.01378056195596519,-0.10533594150025602,-0.05001008064516124,-0.8100000000000005,-9.76999999999999,0.00669392841141833,-0.004045758928571429,0.0017851142473118277,194.50063004032256,-0.3125,175.1875,0.04150390999999999,0.12622688352318562,-0.9911489771118969,-0.002379847046370969
282.0,-0.002731054787506401,0.015221934203789051,-0.104863031233999,-0.04999999999999995,-0.8100000000000005,-9.76999999999999,-0.0009215589797747052,0.012578305011520737,0.01352486559139785,194.5,-0.3125,175.1875,0.04150390999999999,0.12622070000000013,-0.9911499000000017,-0.0023803700000000014
283.0,-0.0026961725550435234,0.014480926779313882,-0.10472990271377369,-0.04999999999999995,-0.8100000000000005,-9.76999999999999,0.0021381368407578085,-0.015967021889400922,0.02037130376344086,194.5,-0.3125,175.1875,0.04150390999999999,0.12622070000000013,-0.9911499000000017,-0.0023803700000000014
284.0,-0.002739535330261137,0.013354134664618543,-0.10519905273937531,-0.04999999999999995,-0.8100000000000005,-9.76999999999999,0.013237847222222222,-0.0003750240015360992,0.0007290466589861752,194.5,-0.3125,175.1875,0.04150390999999999,0.12622070000000013,-0.9911499000000017,-0.0023803700000000014
285.0,-0.0031401209677419358,0.012893145161290328,-0.10558467741935484,-0.04999999999999995,-0.8100000000000005,-9.76999999999999,0.0048828125,0.012821320564516127,0.002236643145161291,194.5,-0.3125,175.1875,0.04150390999999999,0.12622070000000013,-0.9911499000000017,-0.0023803700000000014
286.0,-0.003301411290322581,0.011043346774193554,-0.10479838709677419,-0.04999999999999995,-0.8100000000000005,-9.76999999999999,0.010805191532258063,-0.004599294354838711,0.016066028225806453,194.5,-0.3125,175.1875,0.04150390999999999,0.12622070000000013,-0.9911499000000017,-0.0023803700000000014
287.0,-0.003407258064516129,0.011386088709677425,-0.10547379032258064,-0.04999999999999995,-0.8100000000000005,-9.76999999999999,0.005544354838709678,-0.010805191532258064,-0.0012600806451612892,194.5,-0.3125,175.1875,0.04150390999999999,0.12622070000000013,-0.9911499000000017,-0.0023803700000000014
288.0,-0.0027699286600496274,0.010396867245657575,-0.10480521091811412,-0.04999999999999995,-0.8100000000000005,-9.76999999999999,0.0006925597084367244,0.019127539547146404,0.0014103210297766759,194.5,-0.3125,175.1875,0.04150390999999999,0.12622070000000013,-0.9911499000000016,-0.0023803700000000014
289.0,-0.00367579094292804,0.011534119106699757,-0.10577962158808932,-0.04999999999999995,-0.8100000000000005,-9.76999999999999,0.016113038926799005,0.03200895626550869,-0.03328551488833747,194.5,-0.3125,175.1875,0.04150390999999999,0.12622070000000013,-0.9911499000000017,-0.0023803700000000014
290.0,-0.004118641439205956,0.01250093052109182,-0.10561662531017367,-0.04999999999999995,-0.8100000000000005,-9.76999999999999,0.007095707971464019,-0.0015421448511166239,-0.008641245347394539,194.5,-0.3125,175.1875,0.04150390999999999,0.12622070000000013,-0.9911499000000017,-0.0023803700000000014
291.0,-0.0035919665012406955,0.010863523573200997,-0.10377504652605457,-0.04999999999999995,-0.8100000000000005,-9.76999999999999,0.010227977667493796,-0.032186336848635234,-0.010748487903225806,194.5,-0.3125,175.1875,0.04150390999999999,0.12622070000000013,-0.9911499000000016,-0.0023803700000000014
292.0,-0.004401830024813896,0.00951442307692308,-0.10412794665012408,-0.04999999999999995,-0.8100000000000005,-9.76999999999999,0.008138182382133995,-0.025417765198511168,0.0024697580645161293,194.5,-0.3125,175.1875,0.04150390999999999,0.12622070000000013,-0.9911499000000017,-0.0023803700000000014
293.0,-0.003913073821339951,0.007858948511166256,-0.10557017679900743,-0.04999999999999995,-0.8100000000000005,-9.76999999999999,0.009590183002481389,-0.010971909894540943,-0.023160282258064515,194.5,-0.3125,175.1875,0.04150390999999999,0.12622070000000013,-0.9911499000000016,-0.0023803700000000014
294.0,-0.004662608560794045,0.006425093052109183,-0.10474123759305211,-0.04999999999999995,-0.8100000000000005,-9.76999999999999,0.005283615074441687,0.011174976736972701,-0.010509072580645162,194.5,-0.3125,175.1875,0.04150390999999999,0.12622070000000013,-0.9911499000000015,-0.0023803700000000014
295.0,-0.004447857921648245,0.006749478344236412,-0.10650528705165802,-0.04999999999999994,-0.8100000000000005,-9.76999999999999,0.013914756278667569,-0.01733738791450485,-0.0015964839931573802,194.5,-0.3125,175.1875,0.04150390999999999,0.1262207000000001,-0.9911499000000015,-0.0023803700000000014
296.0,-0.003921199432288143,0.007354888055492897,-0.10774644005188361,-0.04999999999999995,-0.8100000000000005,-9.76999999999999,0.012695591538837507,-0.015120306860478232,0.003854363462478382,194.5,-0.3125,175.1875,0.04150390999999999,0.12622070000000013,-0.9911499000000015,-0.0023803700000000014
297.0,-0.0038324686066621553,0.006280923377697573,-0.10771020377471992,-0.04999999999999994,-0.8100000000000005,-9.76999999999999,-0.0030331227911873076,0.002025528235205655,-0.013949357094518385,194.5,-0.3125,175.1875,0.04150390999999999,0.1262207000000001,-0.9911499000000015,-0.002380370000000001
298.0,-0.0034497330626362885,0.00827941950522596,-0.10644319121738477,-0.04999999999999995,-0.8100000000000005,-9.76999999999999,-0.0116127152417475,0.009868223174674787,-0.009688698398375818,194.5,-0.3125,175.1875,0.04150390999999999,0.1262207000000001,-0.9911499000000015,-0.0023803700000000014
299.0,-0.00374945484622904,0.007418001353485227,-0.10487750958718703,-0.04999999999999994,-0.8100000000000005,-9.76999999999999,-0.00876992631024889,0.006346341830212798,0.0044420633130310555,194.5,-0.3125,175.1875,0.04150390999999999,0.1262207000000001,-0.9911499000000015,-0.002380370000000001
300.0,-0.004267839687194526,0.006847281750507559,-0.10524475524475528,-0.04999999999999995,-0.8100000000000005,-9.76999999999999,-0.010195315437250921,-0.011974584555229716,0.0020988420181968573,194.5,-0.3125,175.1875,0.04150390999999999,0.1262207000000001,-0.9911499000000015,-0.0023803700000000014
301.0,-0.004779081133919845,0.006153169411233929,-0.10621294834198061,-0.04999999999999995,-0.8100000000000005,-9.76999999999999,-0.010742819008948041,-0.0017844386795999694,0.0038875103391232423,194.5,-0.3125,175.1875,0.04150390999999999,0.12622070000000013,-0.9911499000000015,-0.0023803700000000014
302.0,-0.0047526881720430115,0.007683134070230848,-0.10665974885329724,-0.04999999999999994,-0.8100000000000005,-9.76999999999999,-0.0021486577938190842,-0.0050924881570042855,0.0034100308293856683,194.5,-0.3125,175.1875,0.04150390999999999,0.1262207000000001,-0.9911499000000015,-0.002380370000000001
303.0,-0.0038354011579818043,0.00748920971501617,-0.10642168584104067,-0.04999999999999995,-0.8100000000000005,-9.76999999999999,0.009161403113016017,-0.0008402887435145501,0.0013172982931047446,194.5,-0.3125,175.1875,0.04150390999999999,0.12622070000000013,-0.9911499000000015,-0.0023803700000000014
304.0,-0.0041544477028348,0.007768554026618546,-0.10474516880968494,-0.04999999999999995,-0.8100000000000005,-9.76999999999999,-0.006245770358673584,-0.02678396871945259,-0.004098052485149259,194.5,-0.3125,175.1875,0.04150390999999999,0.12622070000000013,-0.9911499000000015,-0.0023803700000000014
305.0,-0.021673045047519105,0.02353008562265225,-0.10669405022280198,-0.041547452080411384,-0.8096259934548858,-9.76999999999999,-0.055313205961873564,0.21852084334552777,0.07508982368729913,194.50233754090698,-0.2568665264142122,175.19030504908835,0.04142857849929874,0.1262576810191679,-0.9911453348761117,-0.0028802932538569423
306.0,0.010500216638406557,0.006514422463931583,-0.10444482105359919,-0.025659874047795826,-0.8046517064048617,-9.76999999999999,0.039402038093358946,-0.044089454257757205,0.8367877231120775,194.92526744218023,-0.15612538844429774,175.22116058906033,0.04109423954376702,0.1299744975304568,-0.9906509983868226,-0.0038454765225641456
307.0,-0.01873485516765774,0.010548913836761379,-0.10218345359505326,-0.01718477573357534,-0.8011019442840243,-9.76999999999999,0.01676307700769379,0.007014843913614642,0.2442646424197039,195.43654263949617,-0.10053660314055494,175.24655040838212,0.04085572790281329,0.13439244498913724,-0.9900610148860107,-0.004417941249896874
308.0,-0.025487264104044897,0.004016830294530156,-0.10213099113849874,-0.01742540494458654,-0.8003896818194309,-9.76999999999999,-0.04885463139835716,-0.05205745908245702,0.09463359839566424,195.58307207876138,-0.08982000935016363,175.2777462668097,0.04073600824931936,0.1357920942402991,-0.989880447120424,-0.004451694524379175
309.0,-0.023070153727690237,-0.006469763220856367,-0.1033688089541567,-0.021568489948574115,-0.7871303247806833,-9.77022770398481,-0.37702730110276933,-0.07122194950911641,-0.08821724692682123,195.63451516651543,-0.11956607678134368,175.35691155845228,0.04012996018727827,0.13624638877100342,-0.9898485353818438,-0.0041317768542199484
310.0,-0.01417262353461048,-0.03665800213147568,-0.09786995399131812,-0.062066946531153355,-0.7188950118270901,-9.775275142314978,-0.22664758844324298,-0.19131821696862572,-0.5732536358555795,194.9898535585246,-0.35873490746276415,175.7436161329313,0.036987261063398405,0.1306688062982506,-0.9907043400770708,-0.0014362057701905332
311.0,-0.02344937312087893,-0.054153373825594486,-0.09703322704836831,-0.10469070497546501,-0.7144295847665916,-9.774071262913754,-0.16380114241896493,-0.1795804794520548,0.6216376639402263,194.66043713663106,-0.6102442063141357,175.76383315607137,0.03707700680779028,0.12780561792300257,-0.991065586265607,0.0008646727764058933
312.0,0.012975598069541561,-0.08477150032203187,-0.09576155343563258,-0.133663632057625,-0.7176092895369961,-9.772035631456873,-0.3368653877812724,-0.32252248988415516,-0.3452459608825118,194.76705878020672,-0.7825418533151955,175.74273429625202,0.03746291325161811,0.1287090877696923,-0.9909378237817914,0.0022970452691643637
313.0,0.012656099688365554,-0.08579103162844162,-0.09497781445764339,-0.1583585396214753,-0.7125680856287129,-9.771662977018753,-0.3006143299859345,-0.23927588493786084,-0.11441549045601451,194.92256059398278,-0.9261677482894763,175.77683968660375,0.03734289074609159,0.1300232096098619,-0.9907803768864153,0.0035273306938273866
314.0,0.010979378117427559,-0.09963650253148834,-0.09468292999922015,-0.1716555506456522,-0.6999130750724207,-9.775985663082423,-0.21280716499296728,-0.21687169484084692,-0.25078578128113815,194.93136450002743,-0.9980696426456868,175.83359892299828,0.036808164936613166,0.13004984863320418,-0.9908094678122775,0.004208387023858665
315.0,0.0015855464927103892,-0.10579835956208833,-0.09429795519555917,-0.17295162360241795,-0.6946637350880007,-9.777992831541205,-0.25585888552179015,-0.14905357187811732,-0.22111347024365835,194.79561449060043,-1.0057184271558084,175.85691288576095,0.03658400858840207,0.12894278893486083,-0.9909648162386652,0.004427697457227147
316.0,0.0008923578015849105,-0.11449212536592523,-0.09360995837327651,-0.1728488160371164,-0.6830495280197258,-9.77911290322579,-0.23052291783420886,-0.11427660265460118,-0.2086355576210146,194.75365020106756,-1.0054913820366855,175.925366063278,0.03604159870035938,0.1285197449904022,-0.9910382427545973,0.004561403036612925
317.0,-6.760409040989075e-05,-0.12137411742392054,-0.09462316100482004,-0.17162010694328936,-0.6756666994937344,-9.779717741935468,-0.11071233868250033,-0.06846650269582454,-0.09293214831197356,194.71705359515744,-1.0039284867172675,175.9674007735745,0.03571159873727646,0.12813013289305067,-0.9911002011170844,0.004619055838736573
318.0,0.00010203210272597663,-0.12368925812545004,-0.09372572191655143,-0.17068236529960162,-0.6721814680264375,-9.779999999999985,-0.023799422436720997,-0.032229850402979064,-0.0257752954006919,194.69566837463964,-1.001334203036053,175.9870045982568,0.03555637970017944,0.12790916760915988,-0.9911339924828261,0.0046315700788664965
319.0,0.00022862228447206772,-0.12536146248230984,-0.09358559110605327,-0.17017989232722014,-0.6707681533680581,-9.779999999999985,-0.025242190805503273,-0.012542675187114282,-0.09028355290993711,194.68079780715192,-1.0,175.9955036036825,0.0354941383984768,0.12783198933703932,-0.9911474619624765,0.004635438497687521
320.0,8.308895405669597e-05,-0.12494623655913978,-0.09305962854349947,-0.1700586510263929,-0.6700879765395904,-9.779999999999985,-0.05727639296187683,-0.0048570381231671554,-0.05092253176930596,194.6524926686217,-1.0,175.99957233626589,0.03546444296187681,0.12772620730694056,-0.9911489454203338,0.004638699833822098
321.0,0.00021016617790811345,-0.12542033235581623,-0.09210654936461385,-0.16999999999999993,-0.670000000000001,-9.779999999999985,-0.01903103616813294,-0.006964809384164223,-0.031127810361681326,194.63752443792765,-1.0,176.0,0.03546142999999999,0.12766919839687213,-0.9911499000000015,0.004638670000000006
322.0,0.0007233626588465298,-0.12414956011730208,-0.09432551319648094,-0.16999999999999993,-0.670000000000001,-9.779999999999985,-0.0025659824046920807,0.0010080645161290322,-0.04020039100684262,194.6302541544477,-1.0,176.0,0.03546142999999999,0.12764294620723382,-0.991150377341155,0.004638670000000006
323.0,-0.0006348111091944108,-0.12564228624000923,-0.09538008165142889,-0.16999999999999993,-0.670000000000001,-9.779999999999985,0.0011823644413777234,0.015699571617503304,-0.15600202691047094,194.51845961991836,-1.0,176.0,0.03546142999999998,0.12652542724023935,-0.9913104283859474,0.004611339677419356
324.0,-0.0020476108331895808,-0.12529670519234087,-0.09521447875337817,-0.16999999999999993,-0.670000000000001,-9.779999999999985,0.014765180265654649,0.023474785808751654,-0.0827205882352941,194.4418880455408,-1.0,176.0,0.03546142999999998,0.12574851632051076,-0.9914191758058766,0.004593505483870965
325.0,-0.002713669877282554,-0.1254326349964856,-0.09587816480818265,-0.16999999999999993,-0.670000000000001,-9.779999999999985,0.01036962526508393,0.020885202244770626,-0.020848620447872755,194.40441176470586,-1.0,176.0,0.03546142999999998,0.12536343186993287,-0.9914735495158412,0.00458458838709677
326.0,-0.004333374528084094,-0.12426568211212355,-0.0943271566953914,-0.16999999999999993,-0.670000000000001,-9.779999999999985,-0.0033226409353954737,0.018446022432258236,-0.0023597940949041194,194.38567362428842,-1.0,176.0,0.03546142999999999,0.1251708896446439,-0.9915007363708235,0.004580129838709673
327.0,-0.0048824340433420285,-0.12447202490222686,-0.09598723863861648,-0.16999999999999993,-0.670000000000001,-9.779999999999985,-0.014874670871105916,-0.004380160608034521,-0.0013638654021594617,194.3763045540797,-1.0,176.0,0.03546142999999999,0.12507464836337773,-0.9915143148814036,0.004577900564516124
328.0,-0.004336236705037861,-0.12497242526371077,-0.09666630192147767,-0.16999999999999993,-0.670000000000001,-9.779999999999985,-0.01476306152521848,0.0050389547861863695,-0.0012715929151894479,194.375,-1.0,176.0,0.03546142999999999,0.12506104000000012,-0.9915161099999994,0.004577639999999996
329.0,-0.006197166659371766,-0.12487066135597673,-0.09571759968486016,-0.16999999999999993,-0.670000000000001,-9.779999999999985,-0.04584482280678718,0.01551170102566347,0.061702119899038524,194.375,-1.0,176.0,0.03546142999999999,0.12508172776119414,-0.9915109384641303,0.004577639999999996
330.0,-0.0048442538042923235,-0.12320647495659533,-0.09713456179512989,-0.16999999999999993,-0.670000000000001,-9.779999999999985,-0.03420899534585139,0.010402532790592493,0.12992588377759295,194.4097018572825,-1.0,176.0,0.03546142999999999,0.12550047744853443,-0.9914490901362687,0.004587662521994133
331.0,-0.003033075093739514,-0.1238979588859223,-0.09704235421134796,-0.16999999999999993,-0.670000000000001,-9.779999999999985,0.022255839570476065,-0.013615937905779023,-0.03205563093622796,194.48912512218965,-1.0,176.0,0.03546142999999999,0.12631888986796214,-0.9913565923261989,0.004614150615835779
332.0,-0.0011940680087045039,-0.12433589103882797,-0.09665398700160377,-0.16999999999999993,-0.670000000000001,-9.779999999999985,0.005578819751905934,0.01941976335332137,-0.0135163344118568,194.5288367546432,-1.0,176.0,0.03546142999999999,0.1267610307404326,-0.9913103434211639,0.004627394662756602
333.0,-0.0022572811556923257,-0.12270448569244913,-0.09578968006796607,-0.16999999999999993,-0.670000000000001,-9.779999999999985,0.0025263374083788147,0.011912942618286864,-0.018337915094053754,194.54869257087,-1.0,176.0,0.03546142999999999,0.12698210117666783,-0.9912872189686464,0.004634016686217013
334.0,-0.0027479509737574253,-0.12310151139183398,-0.09670862470862471,-0.16999999999999993,-0.670000000000001,-9.779999999999985,-0.0025109970674486804,0.029356530566207985,0.01767426122264832,194.57450137228363,-1.0,176.0,0.03546142999999999,0.12722526855237226,-0.9912457705116933,0.004637327697947219
335.0,-0.0014741709903000224,-0.12300969997744192,-0.09704932701706895,-0.16999999999999993,-0.670000000000001,-9.779999999999985,-0.018988269794721405,0.03609199939845101,-0.13846247838183323,194.56897417099032,-1.0,176.0,0.03546142999999999,0.12717599104549215,-0.9912450148966087,0.004638670000000006
336.0,-0.0012709226257613354,-0.12452831039927814,-0.09635265809459355,-0.16999999999999993,-0.670000000000001,-9.779999999999985,-0.015182532521242197,0.02458173546883224,-0.06422193397999851,194.53347902097903,-1.0,176.0,0.03546142999999999,0.1268736197309573,-0.9912899969644327,0.004638670000000006
337.0,-0.0008017144146176404,-0.12321949018723213,-0.09450387247161438,-0.16999999999999993,-0.670000000000001,-9.779999999999985,0.008972009173622076,0.03034297691555756,-0.03268478832994962,194.5157314459734,-1.0,176.0,0.03546142999999999,0.1267214048654787,-0.9913124879983447,0.004638670000000006
338.0,0.00012933303255883912,-0.12206662155049253,-0.09367997593804045,-0.16999999999999993,-0.670000000000001,-9.779999999999985,0.004501278291600872,0.020057899090157157,-0.00803537859989473,194.50685765847055,-1.0,176.0,0.03546142999999999,0.1266452974327394,-0.9913237335153007,0.004638670000000006
339.0,3.985262049778187e-05,-0.12192909241296339,-0.09545040980524849,-0.16999999999999993,-0.670000000000001,-9.779999999999985,0.0033982818257011806,0.007795698924731183,-0.009879972178359276,194.50192448680355,-1.0,176.0,0.03546142999999999,0.12660307875855337,-0.9913302952688159,0.004638670000000006
340.0,2.4813895781637676e-05,-0.12258560794044668,-0.09419354838709676,-0.16999999999999993,-0.670000000000001,-9.779999999999985,-0.015601736972704715,0.005707196029776675,-0.028225806451612902,194.5,-1.0,176.0,0.03546142999999999,0.1265869100000001,-0.9913330099999987,0.004638670000000006
341.0,0.0005136476426799007,-0.1241799007444169,-0.09474689826302729,-0.16999999999999993,-0.670000000000001,-9.779999999999985,-0.023286290322580644,-0.0008607320099255581,-0.005102357320099256,194.5,-1.0,176.0,0.03546142999999999,0.1265869100000001,-0.9913330099999986,0.004638670000000006
342.0,-6.0794044665012385e-05,-0.12278349875930522,-0.09402233250620347,-0.16999999999999993,-0.670000000000001,-9.779999999999985,-0.02122751240694789,-0.02218905086848635,0.009057071960297767,194.5,-1.0,176.0,0.03546142999999999,0.1265869100000001,-0.9913330099999985,0.004638670000000006
343.0,-0.0005291563275434244,-0.12282847394540944,-0.09575434243176179,-0.17411290322580636,-0.670000000000001,-9.779999999999985,0.011563663151364766,0.02453667803970223,0.1353287841191067,194.61189516129033,-1.0,176.0,0.03546142999999999,0.12750194733870965,-0.9911981400806444,0.004663775161290326
344.0,-0.0005040322580645162,-0.12307800868486352,-0.0971153846153846,-0.17721774193548373,-0.670000000000001,-9.779999999999985,-0.0738862825682382,0.036508413461538464,0.04362593052109181,194.6849798387097,-1.0,176.0,0.03538562653225806,0.12811549963709667,-0.9911080627822577,0.004682727096774196
345.0,-0.0004133064516129033,-0.1231804435483871,-0.09528225806451615,-0.17877016129032242,-0.670000000000001,-9.779999999999985,-0.008663054435483871,0.030777469758064512,0.02419354838709677,194.72152217741933,-1.0,176.0,0.03532901987903225,0.12842227578629017,-0.9910630241330645,0.004692203064516131
346.0,0.000907258064516129,-0.12270665322580647,-0.09400705645161292,-0.1795463709677418,-0.670000000000001,-9.779999999999985,-0.001323084677419355,-0.005166330645161291,0.07330519153225806,194.7397933467742,-1.0,176.0,0.035300716552419356,0.12857566386088692,-0.9910405048084677,0.004696941048387098
347.0,0.0010282258064516128,-0.12286290322580645,-0.09622479838709674,-0.17993447580645144,-0.670000000000001,-9.779999999999985,0.008694556451612902,0.012191280241935484,0.024697580645161293,194.7489289314516,-1.0,176.0,0.0352865648891129,0.12865235789818533,-0.9910292451461694,0.004699310040322582
348.0,0.0015281932882414153,-0.1238834872528616,-0.09590758324661808,-0.17999999999999983,-0.670000000000001,-9.779999999999985,-0.016116837929240374,0.02006576808012487,-0.04169444263787721,194.75,-1.0,176.0,0.03527948905745967,0.1285345759313214,-0.9910537450052025,0.004699710000000001
349.0,0.0015909095601473332,-0.12516582996795667,-0.09765129226335001,-0.17999999999999983,-0.670000000000001,-9.779999999999985,0.01695968219385395,0.021565622135300527,-0.006266288139215103,194.75,-1.0,176.0,0.03527832,0.12844083070759613,-0.9910722920187298,0.004699710000000001
350.0,0.0023570747237500623,-0.12449619743405513,-0.09762068901441948,-0.17999999999999983,-0.670000000000001,-9.779999999999985,0.017854191055324313,0.012949199716523793,-0.002668364323703814,194.75,-1.0,176.0,0.03527832,0.1283939580957335,-0.9910815655254934,0.004699710000000001
351.0,0.001975721284871909,-0.12562340764002444,-0.09592939367474355,-0.17999999999999983,-0.670000000000001,-9.779999999999985,0.02029475047693375,0.007120391188907057,-0.013141341045826933,194.75,-1.0,176.0,0.035278319999999995,0.12837052178980218,-0.9910862022788753,0.004699710000000001
352.0,0.0019691789306773696,-0.1264266719521662,-0.09557826668648728,-0.17999999999999983,-0.670000000000001,-9.779999999999985,-0.012508671522719388,0.012484411905587764,0.014603257189105264,194.75,-1.0,176.0,0.035278319999999995,0.1283588036368365,-0.9910885206555662,0.004699710000000001
353.0,0.002428026361429067,-0.12698577870274017,-0.09556546586723483,-0.17999999999999983,-0.670000000000001,-9.779999999999985,0.019453115967163835,0.019083543927456516,-0.012642873660043272,194.75,-1.0,176.0,0.03527832,0.12835692999999987,-0.9910888699999991,0.004699710000000001
354.0,0.0017618882447186296,-0.12715904398526662,-0.09582676775184579,-0.17999999999999983,-0.670000000000001,-9.779999999999985,-0.009922699568901442,-0.005691202946666007,-0.0021451695489156453,194.75,-1.0,176.0,0.03527832,0.1283569299999999,-0.9910888699999991,0.004699710000000001
355.0,0.0029967130799596984,-0.12817988867416544,-0.09529045471813422,-0.17999999999999983,-0.670000000000001,-9.779999999999985,0.02073319789240705,-0.016453182035908363,-0.02762344531985531,194.75,-1.0,176.0,0.035278319999999995,0.12835692999999987,-0.9910888699999991,0.004699710000000001
356.0,0.002127743917546207,-0.12996382736237055,-0.0948714962918917,-0.17999999999999983,-0.670000000000001,-9.779999999999985,-0.0017678550782088756,-0.0261477379713592,-0.021695323984605983,194.75,-1.0,176.0,0.03527832,0.12835692999999987,-0.9910888699999991,0.004699710000000001
357.0,0.0016880564227078276,-0.1285540855259898,-0.0959546107725088,-0.1756579621095749,-0.670000000000001,-9.779999999999985,0.020808557554135076,-0.012854500107361708,-0.13182572716911947,194.6542498719918,-1.0,176.0,0.03527832,0.12762338505376344,-0.9911808753251398,0.004676206630824377
358.0,-0.00043093338618832827,-0.1268602480881357,-0.0976393637579902,-0.17266769073220678,-0.670000000000001,-9.779999999999985,0.023957146160580083,-0.004795145598995755,-0.06524082057380705,194.5730926779314,-1.0,176.0,0.03527832,0.12698209559139795,-0.9912608804045047,0.004656453799283158
359.0,-0.0005610888129098324,-0.1273266934245082,-0.09544026559635299,-0.17117255504352272,-0.670000000000001,-9.779999999999985,-0.00023020828171712616,0.0026747518292783642,-0.041981009365244536,194.5325140809012,-1.0,176.0,0.03527832,0.12666145086021519,-0.9913008829441871,0.0046465773835125505
360.0,-0.001638504864311316,-0.12819508448540706,-0.0959485407066052,-0.1704249871991807,-0.670000000000001,-9.779999999999985,-0.02058531746031746,0.003776241679467486,0.016633064516129035,194.51222478238606,-1.0,176.0,0.03527832,0.12650112849462383,-0.9913208842140282,0.004641639175627246
361.0,-0.0012429595494111623,-0.12762032770097284,-0.09661226318484381,-0.17005120327700968,-0.670000000000001,-9.779999999999985,-0.018997215821812595,0.017065092165898618,0.014116903481822839,194.50208013312852,-1.0,176.0,0.03527832,0.12642096731182814,-0.9913308848489488,0.004639170071684594
362.0,-0.0004000256016385049,-0.12659818228366615,-0.09472574244751664,-0.16999999999999993,-0.670000000000001,-9.779999999999985,-0.013682875704045059,-0.0187011968766001,0.014850950460829494,194.5,-1.0,176.0,0.03527832,0.12640381000000017,-0.9913330099999985,0.004638670000000006
363.0,-0.0005586326755681595,-0.1271054245933278,-0.09483472911497104,-0.16999999999999993,-0.670000000000001,-9.779999999999985,0.017028151340147308,-0.0049481012938674225,0.01834358937433534,194.5,-1.0,176.0,0.03527832,0.12640381000000017,-0.9913330099999986,0.004638670000000006
364.0,-0.0010510893676216257,-0.12765013816828333,-0.09541345448905933,-0.16999999999999993,-0.670000000000001,-9.779999999999985,0.007447825611888111,0.01253345528799158,0.0035947104810512068,194.5,-1.0,176.0,0.03527832,0.12640381000000017,-0.9913330099999987,0.004638670000000006
365.0,-0.0009616489021730958,-0.12876078558538237,-0.09585898375817731,-0.16999999999999993,-0.670000000000001,-9.779999999999985,-0.007076189939093166,0.012655336514963532,0.0075954224706744865,194.5,-1.0,176.0,0.03527832,0.12640381000000017,-0.9913330099999987,0.004638670000000006
366.0,-0.001563042803970223,-0.12786172832543802,-0.09547241098954806,-0.16999999999999993,-0.670000000000001,-9.779999999999985,-0.01742857486935108,0.014179784429280397,0.00655700146627566,194.5,-1.0,176.0,0.03527832,0.12640381000000014,-0.9913330099999988,0.004638670000000006
367.0,-0.0017274983081434691,-0.1269681930972254,-0.09534716896007217,-0.16999999999999993,-0.670000000000001,-9.779999999999985,0.014856380178960824,0.00598541243702534,0.0031524926686217008,194.5,-1.0,176.0,0.03527832000000001,0.12640381000000014,-0.9913330099999988,0.004638670000000006
368.0,-0.0018836002706970447,-0.1255858335213174,-0.09410038348748026,-0.16999999999999993,-0.670000000000001,-9.779999999999985,0.01262359951876081,-0.008561264004812393,-0.02407511842995714,194.5,-1.0,176.0,0.03527832,0.12640381000000017,-0.9913330099999988,0.004638670000000006
369.0,-0.0013865704188284833,-0.12461598616437326,-0.09531754267238136,-0.16999999999999993,-0.670000000000001,-9.779999999999985,0.015155274832694188,-0.0023103240845176337,-0.01136551620422588,194.5,-1.0,176.0,0.03527832000000001,0.12640381000000014,-0.9913330099999988,0.004638670000000006
370.0,-0.0012258064516129032,-0.12488623204752242,-0.09654530415820736,-0.16999999999999993,-0.670000000000001,-9.779999999999985,0.004024268742010676,-0.005266843371682082,-0.0063886382434769524,194.5,-1.0,176.0,0.03527832000000001,0.12640381000000012,-0.9913330099999988,0.004638670000000006
371.0,-0.0013607038123167154,-0.12452033987517863,-0.09788164523648392,-0.16999999999999993,-0.670000000000001,-9.779999999999985,0.001966313256635837,-0.0038705917738175804,-0.009639822543048349,194.5,-1.0,176.0,0.03527832000000001,0.12640381000000012,-0.9913330099999988,0.004638670000000006
372.0,-0.0021368523949169107,-0.12638529212722763,-0.09589096924580795,-0.16999999999999993,-0.670000000000001,-9.779999999999985,0.0036713286713286712,-0.0008966839612000903,-0.019971426423039326,194.5,-1.0,176.0,0.03527832000000001,0.12640381000000012,-0.9913330099999988,0.004638670000000006
373.0,-0.0015053763440860215,-0.12625122189638316,-0.0936021505376344,-0.16999999999999993,-0.670000000000001,-9.779999999999985,-0.0003054740957966766,0.010661045943304007,-0.002352150537634409,194.5,-1.0,176.0,0.03527832000000001,0.12640381000000012,-0.991333009999999,0.004638670000000006
374.0,-0.0018328445747800583,-0.1276001955034213,-0.09490224828934506,-0.16999999999999993,-0.670000000000001,-9.779999999999985,-0.008247800586510264,-0.00012218963831867047,-0.0011913489736070384,194.5,-1.0,176.0,0.03527832000000001,0.12640381000000012,-0.991333009999999,0.004638670000000006
375.0,-0.0043658540143855515,-0.12725813746516684,-0.0946375162311609,-0.16999999999999993,-0.670000000000001,-9.779999999999985,0.008997807881414044,0.008727440510059673,0.011456190455347895,194.5,-1.0,176.0,0.03527832000000001,0.12640381000000012,-0.991333009999999,0.004638670000000006
376.0,-0.004700617148859809,-0.12656497570797037,-0.09525349790636259,-0.16999999999999993,-0.670000000000001,-9.779999999999985,0.020402478078814137,-0.03219696969696969,-0.07977387622007265,194.40563312469908,-1.0,176.0,0.03527832000000001,0.12559275066441983,-0.9914477316177179,0.004613282460279249
377.0,-0.004768970397280462,-0.12530748019433624,-0.0964919537211304,-0.16999999999999993,-0.670000000000001,-9.779999999999985,-0.0033866590799667366,-0.04597977852672123,-0.0008963613019944278,194.32378430428503,-1.0,176.0,0.03527832000000001,0.12489571000962921,-0.9915478779056336,0.004594476875300913
378.0,-0.0053741556148874416,-0.12509811645584396,-0.09622831589851329,-0.16999999999999993,-0.670000000000001,-9.779999999999985,-0.0570005544126873,-0.03343664740812069,0.006078478574867597,194.282859894078,-1.0,176.0,0.03527832000000001,0.12454718968223391,-0.9915979510495915,0.004585074082811745
379.0,-0.005117958594126145,-0.12340876263842081,-0.09493981704381317,-0.16999999999999993,-0.670000000000001,-9.779999999999985,-0.0571437168993741,-0.03195714973519499,0.020853394318728936,194.2623976889745,-1.0,176.0,0.03527832000000001,0.12437292951853625,-0.9916229876215704,0.00458037268656716
380.0,-0.0041454020221473285,-0.12298025999037071,-0.09509388541165142,-0.16999999999999993,-0.670000000000001,-9.779999999999985,-0.024163456909003372,-0.02491574386133847,0.005717380837746751,194.2521665864227,-1.0,176.0,0.03527832000000001,0.12428579943668742,-0.9916355059075599,0.0045780219884448674
381.0,-0.0051995156183889946,-0.12436789658744397,-0.09417108008345368,-0.16999999999999993,-0.670000000000001,-9.779999999999985,-0.011111962183218803,-0.02695466946790972,0.008958141842109102,194.25,-1.0,176.0,0.03527832000000001,0.12426757999999989,-0.9916381800000009,0.004577639999999996
382.0,-0.00580718110328125,-0.12430618170146335,-0.09602923797435112,-0.16999999999999993,-0.670000000000001,-9.779999999999985,0.005617987773741263,-0.012055740359784656,0.005230446010417123,194.25,-1.0,176.0,0.03527832000000001,0.12426757999999989,-0.9916381800000009,0.004577639999999996
383.0,-0.007123619439459597,-0.12407653813046206,-0.09684947695539896,-0.16999999999999993,-0.670000000000001,-9.779999999999985,0.005983644825724748,-0.0008972731649669555,0.009145073751477217,194.25,-1.0,176.0,0.03527832000000001,0.12426757999999989,-0.9916381800000009,0.004577639999999996
384.0,-0.005439809748909414,-0.12497862593192398,-0.09477218015494375,-0.16999999999999993,-0.670000000000001,-9.779999999999985,0.027843735866123924,0.009807998132504632,-0.07858435097241068,194.24755620723363,-1.0,176.0,0.03527832000000001,0.12424085085043977,-0.9916400892864135,0.004573821270772233
385.0,-0.007520097459914507,-0.1274532031922499,-0.09368844924935438,-0.16892152142513236,-0.6678430428502649,-9.779999999999985,-0.009338844633139286,0.010470922513532047,-0.1267831480427773,194.08267314454122,-0.9706307173808377,176.01925854597977,0.035175349792970656,0.12277785066835906,-0.9918022879604911,0.004524949316175717
386.0,-0.007049357318976964,-0.12840985687398784,-0.0935622474139566,-0.16815117958594125,-0.6670727010110735,-9.779999999999985,0.07713357698311961,0.028834474985774933,-0.227196130783035,193.97519550342133,-0.9530572941742899,176.02744342802117,0.0351445522965816,0.12182066460716943,-0.9919083076249253,0.004492049901227001
387.0,0.0008790359055164043,-0.11639456675566451,-0.09360908069622559,-0.16391429947039002,-0.665799302607198,-9.779999999999985,-0.06245349498840109,0.03786237434528238,-0.20114694124684496,193.75678152492668,-0.9442705825710159,176.04940108839963,0.03497708072307083,0.1199325804854029,-0.9921498382210653,0.004455611636830508
388.0,0.002321226037643946,-0.10519176506369571,-0.0942227100455314,-0.16465442020665905,-0.662738360981018,-9.779999999999985,0.06550230883704644,0.026224898516665488,-0.26108187771945596,193.54234857884052,-0.9398772267693789,176.05695860871595,0.03478117649056767,0.11813761116081559,-0.9923791432445278,0.004561212299804834
389.0,0.0017691174176489525,-0.10452647881728283,-0.09433520644016549,-0.1621659197807489,-0.6612078901679279,-9.779999999999985,0.025648881691250493,0.012806975162536068,-0.24428421842962045,193.1533376569667,-0.9376805488685604,176.0607373688741,0.03468322437431609,0.11476031313417127,-0.9927689471379039,0.0045203828654449395
390.0,0.0002297681455120064,-0.10509063469029764,-0.09478556181420891,-0.1609553720232585,-0.6605100596723121,-9.779999999999985,0.010522442771479845,0.02337508122594786,-0.09823442986960079,192.93266606006736,-0.9375,176.06202491939132,0.03463746613515997,0.11285015264315693,-0.9929860159955284,0.004487594477980052
391.0,0.0002208060756447851,-0.10485263929618768,-0.0941637153169411,-0.16035732009925568,-0.6601515151515144,-9.779999999999985,0.006177391157229867,0.03131273967967516,-0.05740116738100609,192.82311264004812,-0.9375,176.06271383186706,0.03461394052785924,0.11190212508421693,-0.9930937716641095,0.004471464766674186
392.0,0.00029361230167681765,-0.1054424486803519,-0.09289421197082484,-0.16017866004962789,-0.6599999999999993,-9.779999999999985,0.009212746259117227,-0.002942772952853598,-0.0021452505827505852,192.77348202872395,-0.9375,176.0625,0.034606929999999994,0.11147215790134604,-0.9931417582245274,0.004464024553425069
393.0,-6.41871569290924e-05,-0.10538375535754566,-0.09441755489134522,-0.1600000000000001,-0.6599999999999993,-9.779999999999985,0.0015821795811715167,-0.006102843728851793,-0.010237318125422964,192.7519550342131,-0.9375,176.0625,0.034606929999999994,0.11128376578690133,-0.9931623596383179,0.004456435078201369
394.0,-0.00028380423340100774,-0.10519920905707195,-0.09417114303707044,-0.1600000000000001,-0.6599999999999991,-9.779999999999985,0.013208611784720655,-0.0006076290980524851,-0.003927310089104444,192.75,-0.9375,176.0625,0.034606929999999994,0.11126709000000007,-0.9931640599999992,0.004455570000000001
395.0,-0.00035491390330100013,-0.1061488833746898,-0.09382870892548312,-0.1600000000000001,-0.6599999999999991,-9.779999999999985,0.01315042484397323,-0.017216520039100684,-0.013047033611549741,192.75,-0.9375,176.0625,0.034606929999999994,0.11126709000000007,-0.9931640599999992,0.00445557
396.0,-0.00148703807827544,-0.1073785415354987,-0.09501568404312746,-0.1600000000000001,-0.6599999999999991,-9.779999999999985,-0.030124585733637244,-0.014540216243393904,0.040115728037008726,192.75,-0.9375,176.0625,0.034606929999999994,0.11126709000000007,-0.9931640599999992,0.004455570000000001
397.0,-0.0009098473344982734,-0.10742436363187448,-0.09396637273815894,-0.1600000000000001,-0.6599999999999991,-9.779999999999985,-0.017110379189098496,0.00843971968490505,-0.043247647674104106,192.75,-0.9375,176.0625,0.034606929999999994,0.11126709000000007,-0.9931640599999992,0.004455570000000001
398.0,-0.0018162599906347962,-0.10560497118975128,-0.09287459571874307,-0.15817836812144223,-0.659999999999999,-9.779999999999985,-0.029428054869691564,0.05132127005463123,-0.2806685524323025,192.676944971537,-0.9251660341555976,176.0625,0.034614806129032276,0.11059674601518027,-0.9932446688045538,0.004435186015180265
399.0,-0.0024414822954005604,-0.10333811390493819,-0.09206706690271785,-0.1539278937381406,-0.659999999999999,-9.779999999999985,-0.04302076172527049,0.058323794668989945,-0.1465169351356301,192.5199240986717,-0.8990749525616698,176.0625,0.034642372580645196,0.10913630510436426,-0.9934248805313088,0.004382374136622388
400.0,-0.0027539806573480714,-0.10371187018160871,-0.09228604261768605,-0.15180265654648972,-0.659999999999999,-9.779999999999985,-0.03519297595170602,0.021007338244090915,-0.07534010343315337,192.44141366223909,-0.8860294117647058,176.0625,0.03465615580645166,0.10840608464895626,-0.9935149863946864,0.00435596819734345
401.0,-0.0037649084232108396,-0.10384395514234929,-0.09271415048270804,-0.15074003795066432,-0.659999999999999,-9.779999999999985,-0.0064909624724402825,-0.004511093403089778,-0.054769091621416806,192.40215844402275,-0.8795066413662238,176.0625,0.03466304741935489,0.10804097442125227,-0.9935600393263753,0.004342765227703981
402.0,-0.0038804554079696395,-0.10311181285224727,-0.09500828400691039,-0.15020872865275162,-0.659999999999999,-9.779999999999985,0.005963422923333993,0.02856610566711037,-0.02591097524710414,192.3825308349146,-0.8762452561669829,176.0625,0.034666493225806505,0.10785841930740028,-0.9935825657922196,0.004336163742884246
403.0,-0.004250474383301708,-0.10422668441473845,-0.09406723498258232,-0.1500000000000002,-0.659999999999999,-9.779999999999985,0.006954671613469653,0.01518734600243564,0.07911934634229234,192.42101518026564,-0.875,176.0625,0.03464387831119547,0.10822911519924082,-0.9935213553130924,0.004358050967741935
404.0,-0.002624500406369052,-0.10498753429677557,-0.09529640910506978,-0.1500000000000002,-0.659999999999999,-9.779999999999985,-0.010801526480071611,0.007059321299316768,0.016783615774843226,192.46252371916506,-0.875,176.0625,0.0346244196394687,0.10860713679316869,-0.9934618242694488,0.0043772748387096785
405.0,-0.003189958436212933,-0.10604696888165695,-0.09522644239557775,-0.1500000000000002,-0.659999999999999,-9.779999999999985,-0.0069053371447060025,0.010059511395927041,-0.00019930910824521482,192.48327798861482,-0.875,176.0625,0.03461469030360531,0.10879614759013265,-0.9934320587476272,0.00438688677419355
406.0,-0.0035041895523642394,-0.10478337350811792,-0.09510198196264069,-0.1500000000000002,-0.6599999999999991,-9.779999999999985,-0.01617093050491759,-0.004421419312983787,0.00386349863519282,192.49365512333966,-0.875,176.0625,0.03460982563567362,0.10889065298861461,-0.9934171759867163,0.004391692741935486
407.0,-0.0030971291351789246,-0.1050096088736662,-0.09540709170935172,-0.1500000000000002,-0.6599999999999991,-9.779999999999985,-0.026455400765509375,0.011474073903712946,0.010744449015587392,192.49884369070207,-0.875,176.0625,0.03460739330170777,0.1089379056878556,-0.9934097346062609,0.004394095725806454
408.0,-0.003586472105971384,-0.1057820742890555,-0.09523438076928686,-0.1500000000000002,-0.6599999999999991,-9.779999999999985,-0.009910161857080489,0.017393119839557006,0.009102153062793408,192.5,-0.875,176.0625,0.034606929999999994,0.10894774999999982,-0.9934081999999991,0.004394530000000002
