time,linaccel_x,linaccel_y,linaccel_z,gravity_x,gravity_y,gravity_z,gyro_x,gyro_y,gyro_z,euler_x,euler_y,euler_z,quaternion_w,quaternion_y,quaternion_x,quaternion_z
0.0,-0.00027777777777777745,0.044722222222222247,-0.07055555555555554,-4.728611111111112,-8.330833333333336,2.0613888888888887,0.09375,-0.10590277777777778,-0.08333333333333333,213.95486111111111,-28.835069444444443,76.05208333333333,-0.22741360138888891,0.4317677841666667,0.4563479947222222,-0.744040593888889
1.0,0.08675425425425426,0.2567092092092092,-0.139014014014014,-4.834762262262263,-8.14198948948949,2.363165665665665,-1.8471283783783783,-33.932823448448445,19.36524024024024,209.61107982982983,-29.549752877877875,73.62997372372372,-0.19866115469719725,0.427808653460961,0.4400336771596597,-0.7582531413863866
2.0,-0.2930126555126554,0.31357035607035616,0.23432217932217933,-4.396828614328614,-3.53174066924067,5.974793007293007,10.440999034749034,-27.81001313813814,44.0783462033462,148.21845506220507,-26.70182459244959,31.878096846846848,0.26107730497533244,0.26476133704311455,0.28842241021128273,-0.7513614751115402
3.0,-0.17570220220220212,0.21759209209209215,0.13379479479479478,-4.529038538538539,-1.1545160160160162,7.363495995995998,4.917836586586586,-12.820598723723725,20.85878378378378,131.4843531031031,-27.541407032032033,11.587556306306306,0.39124163802552553,0.16938591091641644,0.2590853336541542,-0.7891688839409411
4.0,-0.12561004552940036,0.14811125641770806,0.06669233749878911,-4.5543647679938015,-0.05729414898769736,8.006434418289256,2.3700081129516617,-6.8260089726823585,10.024084568439408,134.59094679356775,-27.68917253947496,2.2816859197907573,0.37020270924513227,0.10228057604063741,0.2509045141918531,-0.8479537822033324
5.0,-0.09739513707255643,0.09607187832994286,0.03490264458006394,-4.551672963285866,0.6383105686331494,8.416211372662985,1.3151397365107045,-3.1209737963770214,4.884354112176694,138.17850309987406,-27.667211566405115,-3.615010171461785,0.3431377093093093,0.055568952983628794,0.24456644047660564,-0.8878065268584716
6.0,-0.09968759081662307,0.06197084180955151,0.016231231231231234,-4.609760244115082,0.9807110336142597,8.580316284025963,0.814125617553037,-0.576407052213504,1.8529194517097747,141.1780459895379,-28.04926196357648,-6.523939261842488,0.3197847373467015,0.03091728059042914,0.24529828958345445,-0.9093620861958734
7.0,-0.09213673350770125,0.04273103748910202,-0.006918289256998932,-4.609010219897316,1.0148474280732347,8.586803981400756,-0.08023800009687107,-1.1314631163421487,-0.1954373728567277,144.61309848154605,-28.03611323016565,-6.741499564080209,0.2936073997350576,0.022460737629322866,0.2473504631429817,-0.9216513331899641
8.0,-0.09985081856049598,0.03399690012593239,-0.015915915915915915,-4.451595466434177,0.9948144919112661,8.670747844618816,-0.05369684200329362,-0.6105964835803546,-0.026246004068584725,146.0837268720333,-27.004885934321422,-6.545916884626562,0.28280276915722175,0.01796592253608447,0.2392077506771288,-0.928514209835319
9.0,-0.1030596725758016,0.0364448319287029,-0.01248280538603119,-4.449149956408021,0.9833619102973941,8.674702605831637,-0.9803412283250993,0.8301093432141818,2.070110433013659,145.05423266007944,-26.9873492444057,-6.464599680325486,0.29118455831880263,0.020703573765862633,0.23869695482853825,-0.9259781909943814
10.0,-0.09087886273370144,0.032708999321902556,-0.005394265232974909,-4.56975176789693,0.9963278601181829,8.610449239562143,-0.36435629177564666,0.5735448149762665,0.9620265426717041,143.64056142836387,-27.78105474426039,-6.595130412670736,0.3020979667947786,0.025096607932044945,0.24506631912355914,-0.9206863924675482
11.0,-0.09552455681487938,0.03623801220575416,-0.008306451612903224,-4.648903661726243,1.004557299234719,8.56574881332946,-0.043177249830475634,0.4026158214666279,0.47132465126416745,142.88320074106366,-28.3120383488327,-6.681301765475152,0.3077094388857407,0.027610506291291283,0.24934288461106274,-0.9176795674927346
12.0,-0.10631527379914477,0.043673793609277506,-0.01500256016385049,-4.686231272747403,1.0123772159256033,8.545038513167544,-0.0033650586069940893,0.11125174713884389,0.250222457480522,142.51555870386517,-28.547253013382043,-6.7483289741354255,0.3105665552717234,0.028754401327161255,0.25130552395325284,-0.9162174868752715
13.0,-0.143087889733051,0.04634430744108165,-0.03182560440624957,-4.588446935414678,0.9776053472827666,8.596616902616901,-0.5985112128257288,-4.893426000885677,-1.4039864172928687,142.36937481836674,-27.901487230317876,-6.486304853240337,0.312161828237431,0.02906812880656231,0.2453938943175157,-0.9171494707654474
14.0,-0.09927716195458129,0.046097175516530364,-0.00810111955273246,-4.136577434577435,0.9796309212438243,8.811059105188136,1.8709165819044853,-0.9759196264236585,-2.1837663123953446,145.57205663324615,-24.98959496651029,-6.3511515547805875,0.2878137249120895,0.015524675131267205,0.22210693362780753,-0.9305212321438397
15.0,-0.10528882799850542,0.012530085384924094,0.0019208148240406273,-3.9007097673710582,1.0619122348154606,8.913651464828881,-0.7434058049985468,-2.6745387812928136,1.6088685027193093,146.38216149617358,-23.45807805213047,-6.788924004649811,0.282122856185944,0.005871994692558917,0.2110337022619324,-0.935151415814727
16.0,-0.1004125046705692,-0.004419230290198031,-0.007648524100137006,-3.7259100759745927,1.031020052310375,8.997177979823139,0.7258500435919791,0.2230305766596088,-2.332024536056794,146.98039450741064,-22.34596618507909,-6.536344812554489,0.2778868934873583,0.0035206453291817155,0.20157627942010214,-0.9387657396084194
17.0,-0.08545868449094256,0.005290128838515935,-0.02312021699118473,-3.5458316380897035,1.0080189867286642,9.072604862927442,0.5775755594303982,-1.4785672769543736,-1.1179707933740193,148.6584992250315,-21.211875181633246,-6.333920614162549,0.26467269690496953,-0.0007828026339242471,0.19185025869417804,-0.944678776544609
18.0,-0.08227162646517484,0.042039135910103644,0.0007894991765959539,-3.407710936743195,0.9302867383512545,9.135944977235297,-1.41704809648358,0.22622420807904675,3.0963927637314734,147.50827642158288,-20.35002542865446,-5.808443524169331,0.2746689229380994,0.0029098983386612425,0.1835621954412477,-0.9434713823481546
19.0,-0.09629274435726048,0.012471180858277628,-0.006401239949627043,-3.4853637508476214,0.9187135522619393,9.110003874842587,0.4259844521941296,0.5595212147631502,-0.9271469049694858,146.5444880364235,-20.830390874745714,-5.754183619102973,0.2823855745161291,0.006196827421292262,0.1873506855061513,-0.9405396493432141
20.0,-0.09597355419936066,-0.0009057444541315518,0.0033502857696406096,-3.638182214472536,0.9515073137653781,9.046517000871841,0.3423907778746489,0.7179992492492492,-0.45739489489489493,146.5135528673835,-21.790283226775163,-6.008990845684394,0.2821966742235784,0.0068827298304756385,0.19579157266346991,-0.9389724624624624
21.0,-0.08968686428363849,-0.007253220962898384,0.002647244018211761,-3.7417632955536178,0.973652523491233,9.00256974716652,0.18470890245083793,0.4269486220091058,-0.13502918240821468,146.5452463552262,-22.438978797345733,-6.167066259808195,0.28157439369417797,0.0072947474086990215,0.20147792735178727,-0.9380240175128352
22.0,-0.09500920275113825,-0.009191126610481451,0.003227743872905164,-3.817490070715878,0.9831793083405986,8.970393296522328,0.16896735445122543,0.3000278504310762,-0.06544245858761989,146.5140826310181,-22.914577884335948,-6.250423810907682,0.2816170142574832,0.00799798757531725,0.20558836539184344,-0.9371714279947687
23.0,-0.10367044463818659,-0.011442410152087572,-0.006346507798120701,-3.8589814007555945,0.9990831153734381,8.951864283638477,0.2064746197810714,0.23309902644580063,-0.15890184539378088,146.57586215247505,-23.174909788821076,-6.362107066744163,0.2809714021408505,0.007797108265523588,0.20797636407052214,-0.9368648212786979
24.0,-0.13208999321902548,-0.00863121185701831,-0.01845224256514579,-3.847003051438535,1.0401416739319966,8.951528867577252,0.2144392376247215,-1.2366847694468661,2.862190315315315,146.0619793180277,-23.098107684297197,-6.622010619490458,0.285180149377119,0.006410945837692531,0.20796477554247797,-0.9355318539644482
25.0,-0.14665697956020537,-0.02040346798411315,-0.003019955439310275,-3.460450934805774,1.3727477477477477,9.048705318221446,-1.056478857890148,-1.1041878572120507,3.2338467499757826,141.16852235299814,-20.678503099874067,-8.585261672963286,0.32552847758839476,-0.00819678582582583,0.1945477896832316,-0.9240401370347766
26.0,-0.13098324130582195,0.008015354063741164,-0.033615470309018694,-3.4121522328780394,1.1563084859052601,9.102107672188318,-0.3187527244986922,0.09464757095805487,0.9248189721980044,141.35134378329943,-20.368730625787077,-7.2237555095418005,0.32457413192846074,0.001503298800251864,0.18784325521650683,-0.9262690312811197
27.0,-0.1448912622299719,-0.008012932287125832,-0.03032476024411508,-3.330121815363751,1.141214278794924,9.140413155090574,-0.6494357260486292,-0.5846486607575319,-0.7160179332558365,140.38380921243825,-19.85971253511576,-7.103001186670541,0.33274338149738447,0.0025620856366850723,0.18314709608495588,-0.9246313403896638
28.0,-0.1228199166908844,-0.008435047951176982,-0.02036520391359101,-3.320182117601472,1.033200862152475,9.158758839484644,-0.05221653104717616,0.18205554344667246,-1.3410239876973749,141.28121367335078,-19.79785127869805,-6.43023315654364,0.32566582555991475,0.006307974336675384,0.18068376792841226,-0.9277910812348638
29.0,-0.10976266589169814,-0.01039620265426717,-0.01179114598469437,-3.4331395912041067,0.9586031192482807,9.126273370144336,0.1104814491911266,0.5199312215441247,-1.4286786786786787,142.71147558849174,-20.498819383900027,-5.987879008040299,0.31379727100745913,0.009567880743001064,0.1852109074009493,-0.930983096980529
30.0,-0.11215683425360844,-0.010128354160612228,-0.008049016758694178,-3.56821757241112,0.8997941489876973,9.08109222125351,0.25020585101230264,0.5494163518357067,-0.9878517630533761,143.95120422842197,-21.34062590816623,-5.652450837934708,0.3033766779492396,0.012620465920759466,0.19115570645984692,-0.9332802572784074
31.0,-0.10326673447641191,-0.011074542284219705,-0.014204688559527268,-3.764739901191514,0.9151397365107039,8.996845151603214,0.24216555264942363,2.22481352320062,0.04473172769543743,144.20367898140074,-22.594384202751137,-5.807604984016274,0.3006558833391456,0.014678931474377606,0.20162720043955246,-0.9318880718301367
32.0,-0.37454228421970337,0.23728470405889762,0.08050276082534136,-3.3359236656010847,0.061583841906422465,9.058849171752398,-4.252524702121477,-7.146868642836384,-22.85885885885886,155.66212583551294,-19.95781265136104,-0.5369381478252446,0.20421967693596824,0.040717668289257,0.17813521044657565,-0.9482455868090671
33.0,-0.4801210888307661,0.6145568148793955,-0.0420158868545967,-2.3388704833866125,-0.14517678969291872,9.179948658335755,11.245979850818559,7.6777644580063935,9.185532306500047,160.3608870967742,-14.00375980819529,0.701976169718105,0.16518801155478058,0.04103037678969293,0.13098639463237433,-0.9551099226833286
34.0,-0.3034737963770221,0.2945015983725661,-0.042285188414220756,-3.455045529400368,0.45889809164002693,8.890588976072847,4.194862200910587,6.606210040685847,4.172512229971907,150.299504141238,-20.904043156059284,-3.162225733798315,0.24720369370677137,0.03500827116729633,0.18832732697616972,-0.9331268223922309
35.0,-0.22282233846749974,0.14016710258645743,-0.049538409377119105,-4.012300445606897,0.6508221931609027,8.7506257870774,0.7071194178049016,-0.2930970284800929,1.9125693233556138,148.03461475588492,-24.342878160418483,-4.3899075486777095,0.26607578113411795,0.03160453433691757,0.21570453504431852,-0.9297303973382252
36.0,-0.15967838806548484,0.08029739416836192,-0.015073622009105905,-3.9939562142787945,0.7304150925118666,8.83545238787174,1.898954397946333,0.40913796861377516,0.19819214375665983,147.76199687590818,-24.133031216700573,-4.793679768478156,0.26967789009977716,0.02435486938632181,0.21352523298847234,-0.933990419953986
37.0,-0.11325341470502759,0.025834059866317927,-0.011121524750557018,-4.144172721108204,0.8416761115954665,8.803063305240723,1.3885997893054345,1.724936125641771,0.9138513513513512,148.10168585924634,-25.048600515838416,-5.493281083502858,0.26713178042574837,0.01824579781289354,0.22169628298314442,-0.9357453464828537
38.0,-0.09702993315896541,-0.010604475443185124,-0.004991765959507897,-4.357973457328294,0.9249375181633246,8.723982369466235,0.4222064806742225,0.7702581613871937,-0.38346410927056085,148.55507120023248,-26.3929998546934,-6.059000532790855,0.2631008949888598,0.014940298633149277,0.23352992712777293,-0.9357088139717135
39.0,-0.10841906422551584,-0.010488230165649523,-0.010861183764409572,-4.408135232006198,0.9380277051244792,8.69971810520197,0.06294197423229683,-0.24025840356485506,-0.07221132422745324,149.39446502954567,-26.716397849462364,-6.154351932577739,0.25611447084762184,0.013294672880945463,0.2364522703845781,-0.9370887768226289
40.0,-0.10870386515547804,-0.009481255448997385,-0.012910975491620656,-4.395920275113823,0.9429414898769737,8.706245277535597,0.3310841083018502,0.18117310859246347,-0.12113726629855662,149.58367540928026,-26.633128087765183,-6.180189261842488,0.2546356615572025,0.012487023515450935,0.23589260404582002,-0.9377102741959702
41.0,-0.11561597542242705,-0.007413936978453108,-0.013236033268291335,-4.446996630270824,0.9457184719281495,8.680399385560673,0.22035351884142207,0.15240309433857824,-0.16272877139812625,149.80256755891835,-26.967668633495244,-6.212331989247312,0.2526927850139979,0.01263102199187667,0.23870773970232217,-0.937536664690213
42.0,-0.1508836440126763,-0.014097964323770777,-0.02877073386750806,-4.383070508296314,0.9518695769502221,8.711480570432181,0.437270233943621,-1.8681944617428488,-0.7932501626050013,149.90261954062356,-26.552378919818437,-6.233051196357648,0.25207029007371884,0.011238265198931651,0.23536682814732016,-0.9385585049207871
43.0,-0.0994191057416864,-0.013912297089716445,-0.015020114584630715,-4.2832297712458995,1.0054827638698605,8.752472945295526,0.8723097089024509,0.8685930602261247,-0.752278113366823,151.24291816297864,-25.91178397579607,-6.553539729245374,0.2413064064942846,0.00449492219309171,0.23086478668300328,-0.9424170778406125
44.0,-0.10082066398195433,-0.017820843885360017,-0.010812028618480232,-4.472246606053057,1.0447664715406644,8.651966759386116,0.5631429816913688,0.8937779369230981,-0.4950346660024079,151.92732265675812,-27.149412373202697,-6.885276809067131,0.2350435325616585,0.0034608081843594757,0.24168654012017549,-0.9412907847312383
45.0,-0.11974724955370117,-0.021960891767343386,-0.02234876351005384,-4.580679149195278,1.0684381616639675,8.59352818256044,0.298651070425264,0.040439171890784775,0.3413376510150704,152.2148752439075,-27.86190164819197,-7.079399157221737,0.2323276427939553,0.003046887604240185,0.24787752721014106,-0.9404160805860977
46.0,-0.11217378668991572,-0.007279860505666959,-0.01627240143369176,-4.242256127094837,1.4103574542284216,8.695488714520973,-1.0736038457812653,-2.4626985856824564,10.34633827375763,147.02472028480094,-25.657076431269978,-9.156150101714617,0.2752089749375182,-0.00906682164874552,0.23598501472924538,-0.9298762759071977
47.0,-0.423353676256902,0.11498256320836968,0.22383851593529008,-3.578682553521263,1.3100871839581516,8.834300590913493,-6.293613169621234,14.42364743776034,-24.258037271142108,147.20419209532113,-21.670490046498113,-7.949070037779715,0.2747911380267364,-0.015058357271626466,0.2050795383715974,-0.9311580525089604
48.0,-0.06399157221737864,0.1409917175239756,-0.14375205851012307,-3.823343020439795,-1.1027419354838712,8.259203477671221,30.996529291388164,4.745471277729342,-34.4019316695728,196.22197399011915,-23.271518998837546,8.89283638477187,-0.11902397761697175,0.019228671037246913,0.24515405221980047,-0.8632882017427105
49.0,0.03550324518066453,0.05870483386612422,-0.12491136297587913,-1.704768720333237,0.4186900610287706,8.906138235009202,22.041127821369756,2.439983834641093,-20.81635970648067,227.64388683037876,-10.383456541218637,-1.3216997239174653,-0.3778275437273564,-0.026283269395524566,0.08176758931730119,-0.8208540814128644
50.0,0.008217572411120795,-0.18528916012786975,-0.010305143853530943,-1.8490196648261166,1.1688656398333812,9.151877361232199,10.38716337305047,5.041648503342052,-11.428285139978689,240.58230407827182,-11.047267025089605,-6.432971277729342,-0.48677963604378566,-0.08624559105976946,0.05307830155381188,-0.8123693861455002
51.0,-0.013445703768284425,-0.3176227840743969,0.03937227550130776,-2.012779230843747,1.4169785914947202,9.277494914269107,4.546431512157319,-1.0825704736995059,-6.044215586554296,244.6149314637218,-11.936858229196938,-8.232260486292745,-0.5241157510820498,-0.1124135551593529,0.04905630783880655,-0.8211168241625496
52.0,0.09201491814395042,-0.005518744551002597,-0.22108979947689622,-1.750923181245762,0.8677419354838706,9.39019277341858,-20.92893296522329,1.9606037489102004,0.07304078271820202,244.2291848299913,-10.355474426038942,-4.967318124576189,-0.5257325470444637,-0.0836414234834835,0.0524313988443282,-0.8367668461658431
53.0,-0.03139881817301167,0.5044899738448123,0.11659110723626855,-2.5679724886176496,-0.12159982563208355,8.876094643030125,-18.63235009202751,-26.99321599825632,42.25600600600601,195.41772013949432,-15.34564806742226,2.044457764215829,-0.1209686878857889,0.012052790851981028,0.12585335714230364,-0.86181641798266
54.0,-0.0936418676741257,0.3199999999999999,0.039171752397558844,-3.398375956601762,0.43242153443766346,8.850954906519425,-8.995038385159353,-12.481704991281605,20.64388683037877,163.03569093286836,-20.421298314443476,-2.172273079531144,0.14352236697253706,0.024324783124334014,0.17662394681439508,-0.8826155381456456
55.0,-0.10036036036036033,0.200268817204301,0.010947883367238205,-3.894214860021312,0.7284733120216992,8.782005231037488,-4.334380751719461,-5.9647268235977915,10.155220744938488,150.21901034098613,-23.50343589557299,-4.4460155720236365,0.24864298022910009,0.026576314335464504,0.20764554827278892,-0.9012780587368014
56.0,-0.10272595175820978,0.13701322290031964,0.0004608640898963478,-4.171627918240821,0.88528286350867,8.731503923278115,-2.3149126949530174,-3.582243533856437,5.154713685459654,145.32800996561076,-25.225562760340985,-5.645686513126029,0.2889218123769738,0.02495765869345152,0.22483186277632472,-0.9137780520275115
57.0,-0.1042662016855565,0.08195195195195194,0.00021699118473311914,-4.210303206432238,0.9768439407149085,8.75941683619103,-0.31029012883851587,-2.134535745422842,2.3606509735541996,143.70793979463335,-25.43527801995544,-6.283892763731474,0.30292367658723246,0.01992145418095515,0.22738705131647774,-0.9229902587736123
58.0,-0.10175724111207982,0.04382446963092125,-0.01648890826310181,-4.2226813910684875,1.0542904194517098,8.780215538118764,0.1554477864961736,-0.20149484161580933,-0.14325716845878136,144.66690581710742,-25.503835488714518,-6.841606727695438,0.2951342685304659,0.014297714693887437,0.22770850968468465,-0.9275878023273276
59.0,-0.10277051244793181,0.05049549549549549,-0.012337740966773224,-4.055368594400852,1.0312210597694471,8.855181875423812,-0.0537876586263683,-2.216238920371985,-0.41216367577254676,145.51618503584228,-24.440616523781845,-6.641297043010753,0.28884090599147527,0.011183244151651651,0.21865294832970072,-0.9318148577678487
60.0,-0.09916303400174369,0.041547030901869605,-0.006666182311343602,-3.897684297200426,1.0120531822144727,8.929593625883951,0.08421728179792697,-0.7002173544512253,-0.2886031192482805,146.12925627240142,-23.430461711711708,-6.459005376344086,0.2845252049670638,0.008577997349123316,0.21019084341664251,-0.9351833918274729
61.0,-0.0940932868352223,0.03141867674125739,-0.00238278601181827,-3.808384432819917,1.0704555361813428,8.962333866124188,0.013392424682747268,-0.9502612491523782,2.3232224159643513,145.40053157996707,-22.855978458297002,-6.805352731764022,0.29070917531701057,0.005478865461832801,0.2064616724232297,-0.9341016465588978
62.0,-0.23240094933643324,0.33862321999418776,0.16015305628208856,-4.218057008621525,0.0013934902644581193,8.270033904872616,-1.3090625908166231,35.053170105589466,-41.413513816235586,155.06320231521846,-25.703626005037293,2.376863254383416,0.21513253644604283,0.043048956931609025,0.2469854671914657,-0.9147754454068584
63.0,-0.041460331299041,0.17230892182505086,0.17271093674319477,-5.037697859149473,-3.8794735057638277,5.2837624721495695,4.804166061222512,24.410433619102974,-22.31974413930059,205.9110814443476,-31.183858253414705,38.186331492783104,-0.14094908954131552,0.10535227288336721,0.4226752565572024,-0.7700265280528915
64.0,0.010538360941586732,0.06678218541121766,0.07408868545965319,-5.383186331492783,-5.85221713649133,3.8472168943136684,1.7762111910297391,9.413314019664828,-10.012640160321611,220.8527181415286,-33.45485959750073,55.754210864089885,-0.2581882741298556,0.1920531620694081,0.4870461467398044,-0.7371829491964546
65.0,0.021601278698052888,0.0236423520294488,0.05255061513126028,-5.476663760534727,-6.765692143756659,3.4657027995737675,1.4677540443669472,2.7083454422164115,-4.827436307275017,221.14530054247797,-34.02217741935484,62.11639058413252,-0.27466558790564755,0.2614100147922116,0.4877892084093772,-0.7506114508214666
66.0,-0.08986631793083409,0.48253172527366084,-0.16932190254770899,-4.197385934321417,-5.175526978591495,5.130654364041462,19.4402577981207,-33.81294802867384,31.097588515935293,191.97642097742903,-25.9669245858762,46.50735614646904,-0.05790982553957186,0.22763538030805003,0.3490923681279667,-0.7988721228998352
67.0,-0.21873341083018505,0.26843286835222324,-0.10976750944492879,-3.6675833091155665,-1.9872355419936065,7.180979608640899,11.624931887532695,-12.9259874794149,16.062207873195778,152.93886679017726,-22.336511915140946,19.444756248183666,0.23967178043664628,0.1321589762423714,0.25858556050009684,-0.8143318772902741
68.0,-0.18237527850431076,0.13968420032936166,-0.07311343601666183,-3.9116574639155273,-0.2778136200716844,8.078567276954374,5.680155962414028,-6.137562966192,7.714490700377799,139.85839266686037,-23.698525138041266,4.709150682941004,0.3366463130504698,0.08240115025864575,0.23636497782136973,-0.8534345163770221
69.0,-0.14693306209435242,0.06985953695631117,-0.0649045820013562,-4.064599438147825,0.5737479414898765,8.51268817204301,3.0907863508669964,-2.8792381090768195,3.431160999709388,137.93679768478154,-24.57741208950886,-2.634390438825922,0.3494894157492977,0.04801698355129323,0.22847458622977818,-0.8856330950062965
70.0,-0.12812215441247704,0.03335367625690207,-0.0588859827569505,-4.150397171364913,0.9937430979366457,8.716164390196647,1.7717899350963868,-2.276327739029352,1.328356582388841,139.39871827472632,-25.075595757047367,-6.209268744551002,0.33703823216797446,0.025927551807614066,0.2261307251138235,-0.9069358339969001
71.0,-0.12182916787755499,0.00056088346410927,-0.04620846653104719,-4.159470599631891,1.1485236849752973,8.795026397365108,0.4155647583066938,0.016342451322290015,-0.5354184829991282,141.89862897171366,-25.108008209822724,-7.428631756756757,0.31717627907003787,0.013676029879395524,0.22562733432238688,-0.9193906104727307
72.0,-0.10877748716458394,-2.421776615325064e-05,-0.04641964545190354,-4.1925399593141535,1.1495485808389028,8.78262520585101,0.19434151893829313,-0.2207994284607188,-0.2627809260873777,144.0125145306597,-25.312796667635375,-7.439534292356873,0.30042394462462463,0.010423803747941489,0.2276230381826988,-0.9258156251467596
73.0,-0.09963382737576287,-0.0007599535018889859,-0.046816332461493776,-4.189700668410348,1.1497263392424677,8.784423617165553,0.14435907681875423,-0.24109088927637312,-0.13873752785043109,144.8331698634118,-25.2949118473312,-7.437836021505376,0.2938773155158385,0.008754442896444833,0.22758477754916207,-0.9282478934844522
74.0,-0.10401772740482418,0.0033650586069940906,-0.04903346895282382,-4.175770124963673,1.1499459943814774,8.791028528528528,0.06137538748425845,-0.3091624891020052,-0.0016074542284219631,145.0941647292454,-25.206798532403372,-7.445487321999418,0.2918615327719657,0.007935084828053858,0.22689931024459942,-0.9291080096638573
75.0,-0.11511818269882784,0.007475540056185217,-0.054530175336626976,-4.14077932771481,1.1501656495204875,8.805751719461394,-0.0316162937130679,-0.31825171946139685,0.05682396105783203,145.13892824275888,-24.986743800251865,-7.44191368788143,0.29161320660999723,0.007257561965998258,0.22514426498789109,-0.9296297818570183
76.0,-0.12017025089605735,0.01267025089605735,-0.058091397849462385,-4.111012544802866,1.1499999999999995,8.820331541218636,-0.06328405017921146,-0.3194444444444444,0.03937051971326165,145.125728046595,-24.78858646953405,-7.439516129032258,0.29183084841397844,0.0067967804032258074,0.2235302118458781,-0.9299530801792113
77.0,-0.13482974910394266,0.015770609318996417,-0.06299283154121865,-4.082213261648745,1.1499999999999995,8.83423835125448,-0.06888440860215053,-0.29642697132616486,-0.005656362007168455,145.13004032258064,-24.603382616487455,-7.415210573476703,0.2919127205107527,0.006357885681003584,0.22201166161290323,-0.930298727625448
78.0,-0.12743727598566307,0.01621863799283154,-0.060277777777777805,-4.078655913978495,1.1438351254480286,8.835698924731183,-0.13093637992831542,-0.18587589605734767,-0.10618279569892472,145.17221102150535,-24.584789426523297,-7.369903673835125,0.2915770274820788,0.006541208440860214,0.22174668431003586,-0.930465041917563
79.0,-0.113584229390681,0.031218637992831547,-0.055403225806451614,-3.987634408602151,1.1340143369175628,8.876836917562725,-0.44797267025089604,-0.9150985663082438,-0.096046146953405,145.3523745519713,-23.99355958781362,-7.274417562724015,0.2903938971863799,0.005267892195340501,0.21675941221326167,-0.9319537310573478
80.0,-0.1148890826310181,0.009710839872130204,-0.06705221350382642,-3.9109788821079152,1.1189906035067327,8.911222270657756,0.23630939407149085,-1.9101445195195195,3.264411084471568,144.15324699699698,-23.501743679163035,-7.151076479705512,0.300406340025913,0.006927679351690398,0.2124590865542962,-0.9296305872863994
81.0,-0.09518429720042625,0.042938583745035355,-0.06713503826407052,-3.7916434176111595,1.163091640027124,8.956751428848206,-0.9153467984113144,0.8092563329458491,1.0164907851399785,141.42057178145888,-22.752517134069553,-7.387575075075075,0.3228272355524072,0.007703354330378766,0.2069580042986535,-0.9230933706856048
82.0,-0.08705245568148792,0.04251622590332268,-0.06359052600988085,-4.013878475249444,1.1525004843553233,8.857684297200429,-0.07991862830572499,2.7027783832219314,-1.2843165746391554,141.07906949287997,-24.184232115179697,-7.401931669572798,0.3247634210038264,0.012860027287368011,0.21832483563910682,-0.9198088846030708
83.0,-0.06810810810810809,0.05154751525719267,-0.05068051922890633,-3.900771578029643,1.1644158674803837,8.88601932577739,0.4320585706674417,-6.376180616099971,-0.4340277777777778,142.34559357744843,-23.486285176305337,-7.447635135135135,0.3147960056177952,0.008065435466191996,0.21278846437324425,-0.9241010769146567
84.0,-0.12763828344473505,0.07723433110529883,-0.06352126319868256,-3.5788714520972587,1.1491523781846364,9.020809842100164,-1.1447738060641286,2.4327654267170398,-0.3877688172043011,143.0855432044948,-21.47771360069747,-7.2422987503632665,0.3099001383958152,0.0023555091533468946,0.1961366670163712,-0.9294469365397657
85.0,-0.11564564564564564,0.07171655526494236,-0.057004746682166034,-3.8480451419161095,1.0523704349510803,8.929742322968128,0.11424125738641866,-0.0702073040782718,-0.8815751235106073,143.8270730407827,-23.15061028770706,-6.7072435338564365,0.30316998153443764,0.009992678286350865,0.20835303401821173,-0.9292305141983919
86.0,-0.11907391262229974,0.05753656882689142,-0.05936549452678484,-3.810251864767994,1.0327763247118087,8.958223384674994,0.25162259033226775,0.4086082049791728,-0.45642618424876485,144.4336433207401,-22.89390802092415,-6.5742516710258645,0.298517285222319,0.009227507089993219,0.2059965137876586,-0.9315574302770513
87.0,-0.13202169911847333,0.06436985372469242,-0.06107333139591205,-3.7485217475540056,1.0803550324518065,8.98365833575511,0.2483047563692725,-0.0347706577545287,0.10158747457134551,144.6063704833866,-22.4868679163034,-6.852786253995931,0.29729901454664337,0.005524598152668798,0.20348971492347184,-0.9326811912849947
88.0,-0.11306790661629373,0.054025961445316295,-0.05930834059866318,-3.8263561949045823,1.1324065194226485,8.948088976072842,0.3496379443960089,0.5610590429138816,0.0766492298750363,144.52368800251864,-22.9735390632568,-7.211530078465563,0.29771724790492105,0.004322260495495496,0.2083473518378863,-0.931560262478204
89.0,-0.09900707158771675,0.0493248086796474,-0.05237818463624916,-3.906484549065194,1.182184442507023,8.908287319577639,0.1944202266782912,0.07790855371500534,0.1709411023927153,144.3865639833382,-23.476296861377506,-7.561186186186186,0.2985213941092705,0.00337967373341083,0.21332717765281412,-0.9302193863421486
90.0,-0.08479124285575898,0.04609222125351159,-0.05256223965901386,-3.9761803739223094,1.210442700765281,8.873555168071299,-0.22024847428073235,0.06837886273370145,0.21880751719461397,144.30694807710938,-23.924531386224935,-7.764300590913494,0.2989253393606509,0.003270392328780394,0.21743284605831636,-0.9291469224430882
91.0,-0.06940327424198392,0.058316865252349144,-0.04091010365203915,-3.8894386321805676,1.2604674028867575,8.904155284316573,0.5756684103458297,-1.743939504020149,0.1875544899738448,144.10933110529885,-23.36714133488327,-8.051859318996415,0.3007518448033517,-0.0002863824992734667,0.21370773879347088,-0.929400041225419
92.0,-0.05443572604862928,0.05899278310568634,-0.050271965513901,-3.7371866221059777,1.2920689237624723,8.963633875811293,-0.11915140947399006,-0.2799906761600309,-0.27136006974716653,144.25156507313767,-22.405017921146957,-8.194112963770221,0.30006461679138813,-0.0045201618163324625,0.2063429834507895,-0.9312422992482805
93.0,-0.05998668022861571,0.05387363169621236,-0.041421825050857314,-3.7682572895476114,1.270949336433207,8.954124285575897,-0.11546728179792691,-0.10303297248861762,-0.5524587087087087,144.6369832534147,-22.602206541218635,-8.06908269156253,0.2968248397801027,-0.0036799967146178445,0.207617630072169,-0.9320341206725272
94.0,-0.06298169136878815,0.05084810617068684,-0.038600697471665224,-3.7823365300784646,1.256514094739901,8.95137217863024,-0.08926365882011042,0.017451927734185815,-0.13862854790274143,144.90605323065,-22.68806003584229,-7.983550082340405,0.29459826419112656,-0.0032267160902838326,0.20807605889809166,-0.9326647647762277
95.0,-0.0604664341761116,0.04439092318124578,-0.04746512641673932,-3.8443635571054915,1.2297260970648065,8.928345200038748,-0.41638967596628884,0.8669975418967354,0.06484004165455778,144.84241196842004,-23.084984682262906,-7.840619853724693,0.2949524606526688,-0.0008081681236074785,0.21087325910902838,-0.9319117734953501
96.0,-0.07061852174755401,0.04630388452969099,-0.03198973166715102,-4.020147728373535,1.1967402886757723,8.853083890341953,-0.5201068003487358,0.0360693354644967,0.08915165165165165,144.772516468081,-24.211427152959413,-7.692655356969873,0.294954668789596,0.003778465060060059,0.21953280297297295,-0.9298655145568149
97.0,-0.07395790952242566,0.04017896929187252,-0.04767315702799574,-4.046141867674127,1.0819490458200134,8.85671195388937,-0.44973299912816034,0.7547118691271918,0.040897752591300976,144.2742813377894,-24.371515668894702,-6.9583318197229485,0.29901735731981977,0.010835193192628108,0.21890542919354838,-0.9286565089305433
98.0,-0.07789596047660563,0.04274048241790178,-0.03208708708708709,-4.183327036714134,1.0943102780199552,8.791305579773319,-0.00975370531822145,-1.0129686137750653,0.041288264070522135,144.22208902450836,-25.252750230068777,-7.08967384723433,0.29887464949045817,0.012519398150489199,0.22630075362225127,-0.9269123687418868
99.0,-0.0688404533565824,0.03496754819335464,-0.043499467209144625,-4.0584544221640995,1.0852450837934708,8.850484355323061,-0.305525283347864,-0.7623177613096968,-0.11368424876489394,144.35673072265814,-24.456423157028,-6.987639857599535,0.2982614464617843,0.010707067446963096,0.21964629382253223,-0.928733434832413
100.0,-0.07519907003777973,0.04181536375084763,-0.0439254577157803,-4.0758270367141325,1.0889414414414413,8.842931802770511,0.332261697181052,0.26049083357551095,-0.41329736995059574,144.54062984355323,-24.567653843359487,-7.020989235202944,0.29670684889009974,0.010433382057783592,0.22068059560108494,-0.9290211421720913
101.0,-0.0674164487067713,0.034626562045916895,-0.0437295359876005,-4.146826503923277,1.1151341664244887,8.807375762859634,0.05314588782330715,-0.12849946720914462,-0.2834750072653298,144.80252228034487,-25.01941053957183,-7.215810568633149,0.2943235142158287,0.009750028371597408,0.22483226618231134,-0.9287942985178725
102.0,-0.07321127579192097,0.04785818076140658,-0.038002518647679936,-4.067890148212728,1.0948861764990798,8.846713164777682,-0.19988738738738737,-0.2343129419742323,0.1420735251380413,144.77073040782716,-24.508778940230552,-7.05485929477865,0.2949136094488036,0.00957615756853628,0.2203431580083309,-0.9296905220575414
103.0,-0.08776663760534728,0.04498885982756952,-0.05069795602053666,-4.008534825147728,1.0882321030708129,8.875051341664243,-0.060023733410830185,-0.506550905744454,-0.014333890341954841,144.8096241402693,-24.12217863024315,-6.987664075365688,0.2948089312641674,0.008870135748328973,0.21709005759420713,-0.9305018796134843
104.0,-0.09173859343214182,0.05273418579870194,-0.044001985856824556,-4.037488859827569,1.0956722851884146,8.8608473796377,-0.21936452581613872,0.5140251138235009,0.25931627191707834,144.90658299428458,-24.31547575801608,-7.042246379443959,0.2939121212249346,0.008794532037198488,0.21876935950329363,-0.9303978167640219
105.0,-0.07888113920371984,0.053067906616293736,-0.047504601375569125,-4.161291291291292,1.0833914559721014,8.804570376828442,0.22514046304368884,0.23089218250508572,-0.9395464012399495,145.3090671316478,-25.11337547224644,-7.011200716845877,0.2901935747583066,0.01054574364816429,0.22512347077109368,-0.9300044599883756
106.0,-0.0807623752785043,0.056474861958732955,-0.04542913881623561,-4.206898672866416,1.0623418579870194,8.785816623074687,0.18090065872323935,-0.0650943281991669,-0.8437742177661531,146.05243449094257,-25.406722246439987,-6.887786980528916,0.2839813775564273,0.010858791332945848,0.22728258837014437,-0.9313896137251767
107.0,-0.09301511188607964,0.06425457715780297,-0.050995592366560136,-4.207965949820789,1.0399082146662795,8.788376683134747,0.026040153056282087,-0.2600488593432142,-0.49973814540346795,146.57929047999613,-25.412847827666376,-6.7335440278988665,0.27972273574372764,0.010998497281313569,0.22700071151966483,-0.932762190023491
108.0,-0.1096706383803158,0.0642778262133101,-0.057043495108011266,-4.197383512544802,1.0305231037489104,8.795187445510027,0.005291581904485133,-0.17653540637411605,-0.3099329167877555,146.85693354644968,-25.342148600213115,-6.6653831250605435,0.27748736082437286,0.010792763560011624,0.22628331617649905,-0.933622881315509
109.0,-0.10807662501210889,0.05153831250605445,-0.05486486486486489,-4.200771578029642,1.0368352223190933,8.792938099389712,-0.0386333914559721,-0.3028583018502373,-0.1470381671994575,146.95733132325873,-25.367610554102487,-6.71742105008234,0.27662412229148503,0.010265542510897993,0.22658134614598477,-0.9338206302499275
110.0,-0.11619175627240143,0.04655913978494626,-0.05356630824372763,-4.192374551971325,1.0422043010752688,8.797688172043012,-0.12701612903225806,-0.45771729390681004,-0.184923835125448,146.98560707885304,-25.297883064516128,-6.755040322580644,0.27645950586917556,0.009755452078853043,0.2261441668189964,-0.9339824403942651
111.0,-0.1068100358422939,0.047419354838709696,-0.05418458781362008,-4.036362007168458,1.01665770609319,8.86905017921147,0.12443996415770611,-2.6396169354838714,-0.5995183691756272,147.1143593189964,-24.303539426523297,-6.54317876344086,0.2759783891308244,0.0085007314516129,0.21752158500000002,-0.9360899574731182
112.0,-0.14490264458006397,0.05784582970066842,-0.06385522619393588,-3.944056233653008,0.9035384578126515,8.921389131066551,-2.060212934708902,1.323015051341664,3.1252391504407635,145.24150561852173,-23.72593056766444,-5.786944202266783,0.2916173809624141,0.016276374416351835,0.21065571230335173,-0.9324527289295745
113.0,-0.13584907488133297,0.06486292744357261,-0.06717911459846945,-3.935650731376538,0.8278053860311927,8.92896614356292,0.07819765329845985,-2.306973808485905,-0.5478876053472823,143.19646662791823,-23.674930979366465,-5.30738551051051,0.3082271593173012,0.02364464731400755,0.20856121442482806,-0.9273121187934708
114.0,-0.12968298944105397,0.04797660563789597,-0.052136975685362796,-3.8048830281894794,0.9368909231812459,8.975920517291485,0.7258488327036714,0.39999273467015417,-1.1419282185411215,144.87166702993315,-22.83899574978204,-5.9575977186864275,0.295005656021021,0.013141257181052017,0.20384566205269783,-0.9329281024137847
115.0,-0.12150368110045531,0.03822217378668992,-0.051892860602538046,-3.851254238109077,0.9745476121282572,8.954900222803447,0.4322568536278214,0.1826912598081953,-1.1909797902741448,146.6172851278698,-23.13054738205948,-6.204269289450741,0.2806201209316575,0.008781785794827085,0.2070771075854887,-0.9367983128332363
116.0,-0.12656398333817687,0.4062607769059381,-0.5148328974135427,-3.7478407439697765,0.07412089508863706,8.892569989344182,-0.5875411702024604,1.3037452775356002,-3.9358592463431172,149.10750266395428,-22.48977404824179,-0.5054550518260195,0.25971919361425944,0.0495217429565049,0.1922290448416158,-0.940674892530272
117.0,-0.1557841712680422,0.22364913300397166,0.11621040395233928,-4.830276082534146,0.8918512060447544,8.12810713939746,9.275676886563982,11.355038506248183,-12.08535551680713,159.8602574348542,-30.252270415576866,-6.774986680228616,0.16865627213406953,-0.010819351895766733,0.26316803736413835,-0.9356336653889372
118.0,-0.10423471858955728,0.04500629661919982,0.023683037876586197,-6.142492492492492,1.1563828344473506,7.188512544802867,4.510916158093577,5.204034679841131,-5.794763513513513,167.09585391843456,-39.7837232393684,-9.744211953889373,0.10637413452242564,-0.034183113724208083,0.3434181053913591,-0.9203971131623558
119.0,-0.16982006199748143,0.34701927734185795,-0.034143659788821085,-6.160526978591495,0.09094643030126909,6.852503874842583,-27.549740264458006,-11.70353518841422,-16.393376743679163,165.7123777002809,-40.026124915237816,-2.2641340937711907,0.11520698105807418,0.03383004208297005,0.33789187272183463,-0.9115662279412476
120.0,-0.4194216797442605,0.8896028286350864,-0.1422600019374214,-6.160765281410443,-0.7549568923762469,6.286095127385449,-2.8531071393974603,19.537961348445222,28.96799016758694,144.7981691368788,-41.75981424973361,2.0321914656592073,0.2578896173525138,0.1632249591911266,0.3158762619567955,-0.8399759599786883
121.0,-0.3088782330717815,0.7341257386418676,-0.07340114307856253,-6.3200992928412285,-2.3863406955342437,5.508819141722368,6.851209071975202,1.0246476315024715,-29.947293059188226,147.37203029642546,-43.0010110917369,16.14477380606413,0.2313587675254286,0.2661463145345345,0.32734546428702893,-0.8185176716414801
122.0,-0.2945786108689335,0.4323680131744647,-0.06842681391068492,-3.654801172139882,-5.351269737479413,5.464614453162842,-1.4145218807517188,-10.344340308049986,-15.351316538312508,165.67062173060157,-24.34120410733314,36.943109440085244,0.10006178041920953,0.37126240221059775,0.19907964149835317,-0.8494814722810714
123.0,-0.046384771868642885,0.42747747747747744,0.02827521069456554,-2.7561212825728956,-6.714122348154605,5.371787271142111,-0.44979959798508157,-4.807480867964738,14.698779424585872,169.01311694759275,-17.71418797830088,47.26028346895282,0.07945498733217088,0.4267204892473118,0.14005760015208757,-0.860160191613872
124.0,-0.2465489683231619,0.2724920081371694,0.05841833769253125,-5.4897389324808685,-3.9621352804417316,5.143295553618135,0.18971441199263794,2.537001719461397,31.98994659982563,135.29486492540929,-37.5899024024024,29.288680313377892,0.3132483515649522,0.3968060892792793,0.23939217940036808,-0.76585452496997
125.0,-0.07998256320836974,0.35782911944202256,-0.22380122057541416,-5.631394943330428,-1.764481255448997,6.178282476024411,14.859851787271142,-22.66701176983435,-2.484034437663471,125.31004795117698,-38.11312118570183,12.88350043591979,0.3976017386922407,0.2845764955972101,0.2535041205928509,-0.7735121044376636
126.0,-0.16170105589460432,0.13608931512157316,-0.15851981013271338,-4.56623559042914,-0.4103303303303303,7.695489683231618,8.251773951370726,-8.310459653201589,-1.7400464981110162,133.24921897704155,-29.455493800251865,3.393066453550324,0.3622844076876877,0.14768946865930446,0.2196605850498886,-0.8512907001966481
127.0,-0.16621234137363172,0.05566017630533757,-0.08825728954761212,-4.325877167490071,0.3474329167877555,8.358023830281892,4.941792599050664,-2.9067010558946045,-1.1797442603894224,142.55641528625398,-27.026324711808584,-1.9184951080112367,0.2997941752649424,0.07000053054150926,0.21849865239852756,-0.901568603773128
128.0,-0.1561183764409571,0.015432529303497037,-0.0738060641286448,-4.351661338758113,0.7443398236946622,8.615603022377215,2.507404582001356,-1.3438801704930738,-1.3790504213891313,149.10808994478347,-26.75487987987988,-4.751477283735348,0.2524538165339533,0.02857853673544512,0.22663863614259422,-0.9281941104698249
129.0,-0.12486922406277245,0.000544899738448121,-0.0643344957861087,-4.262473602634893,0.8299607672188318,8.751554780587039,1.1255660902838323,-1.4306948077109367,-1.167662622299719,153.64959616874938,-25.873507580160805,-5.4125375375375375,0.21986029772788918,0.009571756369272497,0.22647161543301364,-0.9449440095466435
130.0,-0.11507192676547515,0.013711857018308635,-0.05008355129322872,-4.258294342729826,0.826902789886661,8.785053763440859,-0.29115657996706384,0.6861347234331105,0.25030120846653103,155.24074729971906,-25.742142848493657,-5.376114017243049,0.20846462403395327,0.005077218777487165,0.2273823254671607,-0.9508342963382738
131.0,-0.10395621427879491,0.013921340695534246,-0.04435629177564662,-4.193515450934806,0.7836171655526496,8.820322580645158,0.02946091252542865,-1.062790613193839,-0.4403455875230068,155.85841688462656,-25.31985614646905,-5.078962026542671,0.20355034826697666,0.0055178197471665216,0.22339586766637604,-0.9531546565562334
132.0,-0.09848978010268333,0.017892569989344187,-0.042092414995640814,-4.175715392812167,0.7853124091833767,8.829462365591397,0.05460198101327133,-0.3092427104523879,-0.15426414317543347,156.15380097839773,-25.209507894991766,-5.088016443863218,0.20117681470309018,0.004657513041267073,0.2224903324469631,-0.9539149444928801
133.0,-0.09594982078853045,0.018018260195679557,-0.04469485614646907,-4.185462559333527,0.7916492298750364,8.825668410345825,0.012470635958539178,-0.16286145015983722,-0.12988139349026445,156.2083666327618,-25.26541763537731,-5.124565593819626,0.200617550917369,0.00440024558824954,0.22305638445413156,-0.9539203196067035
134.0,-0.11924585876198779,0.02925312409183377,-0.041200716845878144,-4.021947592754044,0.7750794342729826,8.896537343795409,-0.02151445800639349,-2.9531295408311538,-0.5453144676934999,156.37974668216603,-24.230086941780492,-4.979523878717427,0.19953430765281413,0.003203004695340502,0.2140523774338855,-0.956046345151119
135.0,-0.13700644192579675,0.02285721205076044,-0.06323040782718203,-3.792484500629662,0.7833684490942556,8.996470744938488,0.20010080645161293,-0.6707004383415673,-0.32840653153153154,156.99561658432626,-22.766122977816526,-4.976387678000582,0.19496893321176015,-0.0007556186394458977,0.20194878719122347,-0.9596171618674321
136.0,-0.11505618521747553,0.03383851593529013,-0.07100043591979076,-3.8066947592754046,0.7896912234815462,8.992222948755208,0.21383984791242855,1.04678569698731,-0.16648200619974815,157.22568233556137,-22.85677915819045,-5.016021565920759,0.19303970670517295,-0.0013707266070909618,0.202838851274581,-0.9599014100414124
137.0,-0.1098936840065872,0.022752591300978398,-0.06196527172333625,-3.9381592075946914,0.8161135328877267,8.933445703768287,0.17311616051535406,0.27182474813523194,-0.15486958732926476,157.40758803157996,-23.68628608447157,-5.222308498014143,0.19124225986244306,-0.0017851178734379545,0.21008623186040876,-0.9587133694606702
138.0,-0.09657318608931509,0.01984403758597307,-0.04985808389034196,-4.061503438922793,0.8406015693112467,8.876436113532892,-0.01606848784268139,0.4209986195873293,0.06767049307371888,157.421815969195,-24.472007289547612,-5.409401336820691,0.19085019437566597,-0.0017721545325971135,0.21696307959507893,-0.9572748370376827
139.0,-0.08873074687590815,0.017466337305046986,-0.04696672478930544,-4.152383512544803,0.8553327521069458,8.834042913881627,-0.01777886757725467,0.33578992298750365,-0.010565000484355318,157.34721465417027,-25.051346205076044,-5.527805022764699,0.191314042752107,-0.001404113080499855,0.22201505712922598,-0.9560504994701151
140.0,-0.09795408311537346,0.005874745713455393,-0.056104330136588214,-4.2071684587813625,0.8622004262326843,8.808822532209632,-0.09037464884239078,0.07842923568730022,0.06068972198004456,157.2857545045045,-25.405517412573865,-5.580490773031095,0.19168615942264844,-0.001054102472149569,0.22503161871694272,-0.9552951497708997
141.0,-0.10826164874551972,-0.0017831541218637998,-0.0452956989247312,-4.227616487455199,0.8971415770609318,8.795421146953407,0.19746863799283154,0.1075268817204301,0.05521953405017921,157.19270833333334,-25.538698476702507,-5.819948476702509,0.192318769390681,-0.0025565310394265236,0.2265350450268817,-0.9548174677508959
142.0,-0.10838346410927056,0.0005897026058316374,-0.05109488520778845,-4.299705269785915,0.914869466240434,8.75816235590429,0.09224698488811392,0.25405647583066937,-0.046927976363460244,157.17030235881043,-26.005739610578317,-5.951612903225806,0.19227123434708898,-0.0026855887912912916,0.23065550625399595,-0.9538345153402595
143.0,-0.1059307233500782,0.0003164846874524291,-0.04926544055576316,-4.3631960808735,0.9230720859107955,8.725237603963409,0.024458905910518816,0.16697159429014266,-0.025179297961556033,157.1469135321958,-26.42401515859177,-6.041513056835637,0.19224071284225935,-0.002397433562440321,0.23422787727164723,-0.952970786412705
144.0,-0.12073417887934018,-0.001960933283513929,-0.055035946084333195,-4.408685854056822,0.9275575483317418,8.701449447142998,0.0053970156792737456,0.15766254445689928,-0.059128627475401666,157.13394063706562,-26.723628323023483,-6.09137704813108,0.19218252721414042,-0.0021040980312201597,0.23678304398976624,-0.9523581854778578
145.0,-0.11682318262963423,-0.001329929007348362,-0.05355291927872575,-4.449490776490776,0.9283665877859424,8.68115931138512,-0.1410066892929796,-0.31344583350631733,-0.025308041336267146,157.15369186871203,-26.98793423319633,-6.104800307219662,0.19203035366083365,-0.0016811318919541657,0.23896365669470387,-0.9518465485588214
146.0,-0.11400298916427946,0.006485573130734424,-0.052148323438646046,-4.416653990395925,0.8903660895918961,8.702058150316214,-0.20185975145652563,-0.31697717302556006,-0.0026573808831873366,157.0813542228865,-26.772108917673435,-5.844066820276497,0.19281070089403687,1.9149282517540492e-05,0.23676604927925157,-0.9522366840374754
147.0,-0.10715309779825909,0.017670762928827445,-0.054836149513568896,-4.380115719406041,0.881943676395289,8.72169022017409,-0.04434203789042499,-0.7227534562211981,0.2788466461853558,156.93056195596517,-26.52725614439324,-5.772279825908858,0.19417653703328214,0.00037921172350230403,0.23462772554633898,-0.9524825562534563
148.0,-0.10998207885304659,0.030331541218638,-0.0642204301075269,-4.3580645161290334,0.8725806451612902,8.733557347670253,-0.07426075268817205,-0.16935483870967744,-0.07840501792114699,156.93268369175627,-26.38524865591398,-5.702396953405017,0.19415299707885308,0.0006057580645161291,0.2333348315591398,-0.9528122228046594
149.0,-0.10458781362007168,0.035295698924731195,-0.05823476702508963,-4.379417562724013,0.868888888888889,8.723387096774193,0.005208333333333336,-0.07806899641577061,-0.0932459677419355,156.89980958781362,-26.526321684587813,-5.690580197132617,0.19436246264336926,0.0010430663978494622,0.23448405365591396,-0.952487849784946
150.0,-0.10165770609318996,0.03701612903225808,-0.059668458781362024,-4.386801075268817,0.8746863799283153,8.71913978494624,0.09050179211469535,-0.20861335125448027,0.06518817204301075,156.86911962365593,-26.57801299283154,-5.73521505376344,0.19460315737455205,0.0008487498745519712,0.23497156954301074,-0.9523225193279568
151.0,-0.1048299912816042,0.04325801608059674,-0.0641758694178049,-4.381042574832898,0.8869575220381671,8.72060520197617,-0.02150386273370143,-0.19966791388162355,0.027027027027027025,156.77656083502856,-26.539458309115567,-5.808715974038554,0.19535119290734282,0.00039015264530659684,0.23479728584326262,-0.9522114843824465
152.0,-0.1124418773612322,0.040531337789402315,-0.07001356194904582,-4.258375230068778,0.9238416642448901,8.774303497045434,-0.5797203453453453,-3.154073428266977,3.0415713092124377,156.14880909134942,-25.73733108108108,-6.0084686501017135,0.2008838314581517,-0.0016876887803932963,0.22852353642521556,-0.9524653659546641
153.0,-0.07686501017146179,0.036332945849074885,-0.06382422745325972,-3.543987697374794,1.2183919403274244,9.01864089896348,-0.23589769204688557,-2.973669233749879,5.184957134553908,150.63289801898674,-21.244587329264746,-7.645489743776034,0.24814939908020922,-0.016327541347476507,0.19581712220502762,-0.9467231479848396
154.0,-0.055228373534825154,0.03344158674803836,-0.055197859149472055,-3.212550857308922,1.401067276954374,9.12764990797249,0.0385380340017437,-0.47839623898091643,1.6439095345345343,148.07391413591012,-19.165862939552454,-8.687335016468081,0.2699967046638574,-0.025200497263150247,0.1813712022999613,-0.9440675972038167
155.0,-0.10929284122832511,0.029925893635571056,-0.05953840937711906,-3.532497336045723,1.339142206722852,9.01627772934225,-0.22919391165358907,3.6653528528528527,-1.4291478978978982,147.84889627530757,-21.170568754238108,-8.414187372856727,0.2710424749757822,-0.01670085204204204,0.1968953818298944,-0.9411369248203041
156.0,-0.08596289838225324,0.03636224934612032,-0.058940957086118385,-3.830080402983629,1.2072084180955147,8.918600939649329,-0.44804835077012495,0.3362455197132619,-0.5818908626368307,148.75021644628498,-23.029677358810424,-7.683417792792794,0.26295506108858857,-0.007372719442991378,0.2101448729899254,-0.940988122628112
157.0,-0.059692918725176805,-0.0009183376925312389,-0.0632383996900126,-3.643929090380704,1.2519509832413056,8.97072072072072,3.571478736801317,-10.043234767025089,-0.21828078078078084,149.6295045045045,-21.841367577254672,-7.905804998546934,0.25602482565630147,-0.013461719345151602,0.2004094050343892,-0.9444195532316186
158.0,-0.1067034776712196,0.04198198198198199,-0.06904291388162358,-3.0375704736995064,1.35210016468081,9.167047369950595,-1.1034280247989923,1.6303823985275603,1.696357647970551,149.37229366463237,-18.138289499176594,-8.339454373728568,0.25949557604959794,-0.025950601058800732,0.17092172661919985,-0.94874066845975
159.0,-0.11917562724014337,0.03765184539378088,-0.06822241596435145,-3.2598663179308334,1.297562724014337,9.120424295263005,-0.9315363750847621,1.9135728470405893,0.13594037585973062,149.56705899447834,-19.472234331105298,-8.06540613193839,0.25757099619393586,-0.02065285287900804,0.18139644862346216,-0.9480555350188898
160.0,-0.08193160902838321,0.04119006102877071,-0.051577060931899656,-3.389601375569117,1.232824760244115,9.096394458975105,-0.4231388646711227,0.7686385982756953,-0.557132737576286,150.081541218638,-20.255733556136782,-7.694695703768285,0.253144445631115,-0.016591742242565145,0.18701941676402206,-0.9486021051133391
161.0,-0.07801462753075655,0.032316913687881435,-0.04827763247118087,-3.476958490748813,1.1733173496076725,9.078615712486682,-0.20020827278891792,0.2681466749007072,-0.7386797079337402,150.97396590138527,-20.780547684781553,-7.3477837716749,0.245627387628112,-0.014001034730698442,0.19053964292429523,-0.9501041518199651
162.0,-0.0801453065969195,0.030643223869030324,-0.05071587716749009,-3.4879550518260185,1.133656882689141,9.08377022183474,-0.15722779230843748,0.14524605250411704,-0.48479124285575903,151.54343456359584,-20.848887193645254,-7.1038034001743675,0.24090991305240733,-0.012843102123413736,0.19050577591107232,-0.9514679221331008
163.0,-0.09528334786399303,0.03032306500048436,-0.059284607187833016,-3.4979448803642343,1.110266395427686,9.08611886079628,-0.02242867867867868,0.0023067422260970583,-0.3704894410539572,151.92222767121962,-20.902665770609318,-6.959483677225613,0.23780008703913597,-0.01212635533808001,0.19060892914365973,-0.9523305054683717
164.0,-0.09899302528334787,0.029272256127094845,-0.05716191998450065,-3.4377431463721786,1.0870425263973653,9.111821418192385,-0.0648869635764797,-0.3436591833769253,-0.34863290710064904,151.98609748861765,-20.525493739707446,-6.800415334689529,0.23748334355880077,-0.011799684090138523,0.1871410898682553,-0.9530932985798704
165.0,-0.09344812554489973,0.03098469437179115,-0.05667683812845105,-3.504512254189673,1.0659943814782524,9.088809454615905,-0.00217354451225419,0.25407766637605345,-0.5925512205754142,152.5027093625884,-20.939298169136876,-6.686722004262327,0.23305772983047568,-0.010787631718008329,0.19031096692337493,-0.9535714800067812
166.0,-0.09170662598081952,0.02528746488423908,-0.05578392909038073,-3.593136685072169,1.0542003293616193,9.055263489295745,0.09391649714230359,0.16090435193257774,-0.6185565605928509,153.14553515208758,-21.497329991281603,-6.636762266298557,0.22752699025089612,-0.010198911900852464,0.19475903093771188,-0.9540037694279762
167.0,-0.08354596532015884,0.016796958248571154,-0.06243945558461689,-3.6146955826794542,1.0330858277632469,9.049172963285866,-0.04992795214569409,-0.08814661435629177,-0.3121064613000097,153.60303751331975,-21.629097343311052,-6.505517109851787,0.223672142437276,-0.009593196653831251,0.1955551382107914,-0.9547660001261742
168.0,-0.08441635183570667,0.025235396687009595,-0.05535503245180666,-3.644637217863024,1.030297394168362,9.038219994187733,0.06749794148987698,-0.21947653298459746,-0.2865415819044851,153.8529860505667,-21.811328465562333,-6.503850624818367,0.2215526701612903,-0.009604402327811679,0.19704982862152476,-0.9549667181589656
169.0,-0.08283250992928412,0.030797975394749596,-0.056604669185314344,-3.6315974038554675,1.051586748038361,9.040864332074008,0.03579234476411895,-0.49701970115276567,0.3885452993315897,153.67779775743486,-21.732743328005427,-6.632549888598275,0.22301303369296716,-0.010518046372662983,0.1966206375922697,-0.9547042175261553
170.0,-0.12510994865833575,0.03592947786496174,-0.06576721883173496,-3.622699312215441,1.0615523588104234,9.043502857696405,-0.05283105686331492,-0.38032488133294584,-0.1677413300397171,153.57001658916982,-21.674661556718007,-6.6928672624237135,0.22387549805434465,-0.010940680484355321,0.19630101466192001,-0.9545655762370435
171.0,-0.11630921243824469,0.03356049597985082,-0.060533517388356106,-3.6988266492298747,1.0550031483095998,9.012926474861962,-0.0921092463431173,0.21306033856437084,-0.15220714666279184,153.5949775380219,-22.159339278794924,-6.673679223578416,0.2234554251222997,-0.009761674209047758,0.20026135739973847,-0.9538484833539185
172.0,-0.10281410442700764,0.03326770318705803,-0.05109561174077304,-3.60144289450741,1.0335723626852662,9.052341373631696,0.05189564564564566,-1.4452451443378862,-0.5839720769156254,153.89429096435146,-21.551695849074882,-6.507062506054442,0.22120219524484164,-0.010241128977283735,0.19485480697495883,-0.9554252915022281
173.0,-0.10539741354257481,0.0325520681972295,-0.05628499467209144,-3.625704736995059,1.031511672963286,9.043690545384095,-0.04316816816816816,0.5852541049113629,-0.08034395282379153,154.1835858035455,-21.706828804611064,-6.498948040782718,0.21873430945413153,-0.01035184412307469,0.19611071060617066,-0.9557561539191611
174.0,-0.09754964642061414,0.01806500048435533,-0.05455148697084182,-3.6907899835319187,1.0307633439891504,9.017609706480677,0.05252228034486099,0.17599958829797535,-0.47247650876683134,154.27931257870773,-22.1134481255449,-6.510123026252058,0.2177917312142788,-0.009737185182601957,0.19948897113871936,-0.955300093166715
175.0,-0.07945485808389033,0.012001114017243053,-0.04365325002421777,-3.7354473021408503,1.0001506345054731,9.003586893344961,0.14526724304950112,-0.11928006635667926,-1.2584974086990217,155.25844443233555,-22.39085658238884,-6.329304102489586,0.20954214640923183,-0.009427551523297491,0.20139962964520974,-0.9567221979783008
176.0,-0.06724983047563693,0.014248764893926187,-0.040146517485227164,-3.7919754431851205,0.958292163130873,8.98456674416352,-0.9137575075075075,0.5576594739901192,0.5999179623171558,156.13081831831832,-22.74896771771772,-6.071686101424004,0.2021773300370532,-0.008204538539426523,0.20386607400271237,-0.9577860719640608
177.0,-0.07808485905260099,0.022925506151312603,-0.049239562142787956,-3.581411411411411,0.898739707449385,9.072710452387874,-0.948077109367432,-2.0587280829216312,2.8450426232684296,154.5401530562821,-21.427734185798702,-5.655435677613096,0.21597686457618911,-0.005030200231521844,0.19209020143466046,-0.956986770628693
178.0,-0.04362007168458783,0.029012883851593535,-0.09689625108979948,-3.0383493170589952,1.4680344860990024,9.128982853821562,0.23322919693887434,-0.22867020246052494,1.2753560011624527,151.6739562142788,-18.10493558074203,-9.038427540443669,0.24017934708902447,-0.036197400855371493,0.17266817970648068,-0.9524499420420419
179.0,-0.0905327908553715,0.03284558752300688,-0.07200523103748911,-3.4103342051729153,1.2237469727792307,9.056230746875908,0.6687887484258452,1.2436640269301562,-2.0293610142400462,152.89416533468952,-20.40460924634312,-7.631871791145985,0.22954577021844425,-0.021046107428557587,0.18825423337983144,-0.953265695423811
180.0,-0.07923762472149569,0.031932819916690884,-0.05763295553618136,-3.81258209822726,1.03684733120217,8.931445800639349,0.47634075607865933,1.2456877240143371,-1.7164568802673639,154.50394295505183,-22.930508633633636,-6.568251719461396,0.21548206353555166,-0.009569452676789693,0.20680716807178146,-0.9532388763692725
181.0,-0.07712777293422456,0.03418773612322,-0.050725079918628325,-4.071067034776712,0.9533250992928413,8.839387774871643,0.2520312651361038,0.6918682795698926,-0.8840180906713165,155.6891074542284,-24.572193160902838,-6.124515644676935,0.20511636144967543,-0.004505036262229972,0.21931716624915232,-0.9531563435430594
182.0,-0.08988956698634118,0.03149423617165553,-0.05181318415189386,-4.231561803739224,0.9193841422067228,8.778640414608155,0.1905559793664632,0.5181739198876296,-0.6240933473796377,156.41463691514093,-25.58591555264942,-5.95838176886564,0.1987233118272304,-0.002281146783154122,0.22731429412234816,-0.9529657577886758
183.0,-0.09217572411120797,0.02913203526106753,-0.04858665116729635,-4.3333653007846555,0.8837653782815075,8.743286835222321,0.06452218347379637,0.03052649423617168,-0.2814952048823016,156.93337692531242,-26.233616681197326,-5.76962849946721,0.19428997253995933,-0.00021726352416933064,0.23218200932480867,-0.9530325332277438
184.0,-0.09708514966579482,0.03219848881139205,-0.05521505376344088,-4.322754044366947,0.8829763634602343,8.750184539378086,-0.07377639736510705,-0.38009481255448996,-0.018466046691853144,157.10988811392036,-26.162903831250603,-5.744826479705512,0.19289103642448896,-0.0005220483483483485,0.23154195881332945,-0.9535013656785818
185.0,-0.10938390002906129,0.03539596047660565,-0.05372445025670834,-4.282148115857792,0.8670006296619203,8.771737624721498,-0.10685029787852368,-0.3885483265523588,0.033420517291485034,157.16151433691755,-25.896301038942166,-5.6345493679163035,0.19256088620071682,-0.0002730682645548775,0.22915023289789785,-0.9541511552242565
186.0,-0.11155574929768478,0.04134941393005911,-0.05583623946527175,-4.280948609900223,0.8631732538990604,8.77341809551487,-0.03049168119732636,-0.18360548048048048,0.0001892012980722682,157.17954749103941,-25.88444644241015,-5.618937990409765,0.19246468603942654,-0.00016623114840647103,0.2290277928916013,-0.9542066179974329
187.0,-0.11678145887823307,0.04300445606897222,-0.05774338854984018,-4.249645451903515,0.8654979172721109,8.788241305821952,-0.07054938002518647,-0.49628862733701445,-0.024462971035551683,157.1863799283154,-25.68491475346314,-5.630285527462947,0.1924233938709677,-0.0006560583788627334,0.22739283961784368,-0.9546069046483582
188.0,-0.11075341470502761,0.034457764215828746,-0.05292138913106657,-4.230498401627433,0.8740741547999613,8.796343843843847,-0.035874079724886175,-0.266234984984985,-0.05140977671219607,157.18693996415772,-25.558728082921633,-5.676438535309503,0.19243343479511765,-0.0013003874937033808,0.22643543044100553,-0.954828386535164
189.0,-0.10303351738835609,0.029563111498595383,-0.049126465174852293,-4.247113000096872,0.8821132422745328,8.786993606509736,0.024261660854402796,0.061606969873098924,-0.008091761115954665,157.18721998207883,-25.66758088733895,-5.738532887726436,0.19240869660902832,-0.0015740616455972099,0.22745682345975005,-0.95458953323622
190.0,-0.10549525331783396,0.02749660951273855,-0.050678823985275616,-4.286849510801124,0.8918451516032159,8.766928702896445,0.01775919064225516,0.044468359488520785,-0.03243969776227841,157.1875,-25.92322816768381,-5.808838576479705,0.19235156462171843,-0.001634494330863121,0.22968960300227645,-0.9540628511476801
191.0,-0.10699045820013561,0.026181100455294003,-0.056526687978300905,-4.261045723142498,0.8879700668410344,8.779145355032451,-0.1271251089799477,-0.8760353095030514,-0.02736456214278795,157.20094086021504,-25.754764845490648,-5.77636709289935,0.1922769478843359,-0.0017729176269010946,0.2282359534052601,-0.954410900605202
192.0,-0.11751816332461493,0.0334418289256999,-0.055621912234815475,-4.172823307178145,0.8699447834931704,8.822619393587136,-0.2066078174949143,-1.7463098178823984,0.1101151554780587,157.17591179889567,-25.18687941974232,-5.631472198004456,0.19266734154412474,-0.0016977619427492006,0.22325764746924345,-0.9554934110234427
193.0,-0.10209435241693307,0.04397268235977915,-0.04897050276082535,-3.91761527656689,0.8720614162549644,8.935293519325779,-0.20901143078562434,-1.283682371888017,0.41288718153637505,157.1046449675482,-23.553662028964446,-5.57286520391359,0.19377120748377408,-0.0043115870597210115,0.20959117473142497,-0.95826947612879
194.0,-0.09986341179889567,0.041391310665504236,-0.046762569020633554,-3.8454533565823894,0.8863314927831054,8.967334108301852,0.013704228421970346,-0.33459114356291775,-0.028669294294294295,156.8295947156834,-23.093321648261163,-5.637980722658142,0.19621529240361324,-0.0052434223997384465,0.20589728537658625,-0.9586192656618713
195.0,-0.09148188511091737,0.031031676838128457,-0.04891891891891893,-3.812986534922019,0.8937392230940615,8.981561319383903,-0.01834949869224063,-0.29837196067034777,-0.175652971519907,156.80424628257288,-22.88276633488327,-5.684917780683909,0.19649413075825825,-0.005972957485711517,0.20422606567664436,-0.9589520842332655
196.0,-0.08834834834834836,0.030727017339920573,-0.046472440182117616,-3.8240012593238397,0.8940695534243919,8.977414995640803,0.058697810713939744,0.39500084762181537,-0.19382689140753656,157.01288990603507,-22.954446381865736,-5.681881478252446,0.19471115546255932,-0.006196189346604668,0.20482198464206142,-0.9591992669669669
197.0,-0.092578223384675,0.022877312796667642,-0.051598614743776056,-3.9421076721883166,0.9068342536084475,8.924806984403762,0.057169064225515834,0.5129701273854499,-0.11240373437954082,157.1007670977429,-23.706931730117212,-5.784625351157609,0.1937079319040007,-0.005741975425506151,0.2112742820057154,-0.9579912930281895
198.0,-0.1009396493267461,0.024480771093674327,-0.054074396977622806,-4.075144337886273,0.9150121088830772,8.863259226968903,0.11342996222028479,0.6886927249830475,-0.12290213600697472,157.12951661338758,-24.56174319480771,-5.882120023249056,0.19316566578174937,-0.0048602085595272695,0.21854608183619104,-0.9564633916574639
199.0,-0.12436258839484646,0.010086941780490173,-0.07053763440860217,-4.434215586554295,0.9374929768478156,8.675221592560302,0.24304344667247893,1.7364834592657172,0.14291357890148212,156.93038603119248,-26.92644156253027,-6.168119732635862,0.19382216017945358,-0.0018175971350382642,0.2385274095275114,-0.9512830244381478
200.0,-0.10326552358810424,0.035675191320352614,-0.06053763440860215,-4.33392230940618,0.9234597500726534,8.732713842875134,-0.6008125060544416,-0.8696054925893636,0.6706111353288773,156.20690448513028,-26.249903128935387,-6.03544875520682,0.2001980144580064,-0.0007769931642933257,0.23274156871984888,-0.9514993728373534
201.0,-0.09784510316768383,0.046166569795602075,-0.05564273951370727,-4.277806839097161,0.9121125157415477,8.765374648842394,-0.2647607284704059,-0.41777765668894706,0.39149683958151704,155.88124515644677,-25.87681935968226,-5.93774823210307,0.2031179160476605,-0.00015337466167780682,0.22951674379952536,-0.9517663196754818
202.0,-0.08877530756563015,0.04640245083793472,-0.06331541218637994,-4.378824469630921,0.9163755691175045,8.7147091446285,-0.007563511091736891,2.013580112370435,0.1411865494526785,155.6171973384675,-26.536833708708706,-5.993558074203236,0.2049410864133488,0.0013128007592269687,0.23509770593383705,-0.9499968892531239
203.0,-0.08866899157221739,0.033228712583551305,-0.06437082243533858,-4.6901743679163035,0.936853143466047,8.544477864961735,-0.13536217669282186,1.3441647292453744,0.2711088104233266,155.36887895960476,-28.59775501307759,-6.258890947399012,0.20606590615325,0.004250200305143854,0.2524730528819142,-0.9451781226780003
204.0,-0.08355323065000485,0.023687397074493854,-0.06306160999709388,-4.842619393587134,0.9432957957957958,8.460255497432914,-0.10050221592560302,0.5306021747554006,0.0406873607478446,155.18795711033613,-29.617380485324034,-6.380562518163324,0.20711305502228028,0.005967999233265523,0.26098475905405405,-0.942698117584762
205.0,-0.0977981207013465,0.01546377022183474,-0.06971180858277633,-4.918549840162742,0.9473065000484353,8.418429720042617,-0.03482212050760437,0.2677652450837935,-0.02510322822822823,155.11778007846556,-30.134183074203236,-6.449997880945461,0.20743106390002902,0.006696917457134553,0.26528012712559346,-0.941505903286109
206.0,-0.1008883076625012,0.012852852852852852,-0.08551002615518744,-4.772590332267752,0.9375510994865833,8.496616293713066,-0.1512036229778165,-4.823246633730505,-0.5330209241499564,155.08224353385646,-29.14350842778262,-6.321745132229003,0.208179609082631,0.005649172617456164,0.2569353156998935,-0.9434774021582875
207.0,-0.12517388356098033,0.033449094255545875,-0.08597646033129905,-4.350030998740676,0.9036578513997868,8.716237527850431,-0.15275961445316283,-1.8719273709193065,-0.6021959459459458,156.02839835803545,-26.375099898285384,-5.941332461493751,0.2015428883163809,0.0008868399268623457,0.2335185002823792,-0.9507649302726922
208.0,-0.11080838903419549,0.04178557589847913,-0.06579119442022668,-4.172661532500243,0.8943659788821077,8.811078659304469,0.251104935580742,-0.32529454858083895,-0.35090180906713164,156.92884063498983,-25.20839236413833,-5.807305289160128,0.19458237277632467,-0.0023240745352610674,0.22369292331032647,-0.9547368054676452
209.0,-0.09611207982175723,0.037017339920565745,-0.06271190545384095,-4.166456214278794,0.9022546740288677,8.819338612806359,0.13445703768284412,-0.1712438244696309,-0.23898697084180953,157.42759796086406,-25.154739416836186,-5.842720744938487,0.1904373963523201,-0.0038412946914656593,0.22334519569190162,-0.9558081437866899
210.0,-0.09314564564564562,0.031125157415480005,-0.05207279860505668,-4.200625060544416,0.9060556524266202,8.80553400174368,-0.007816284025961448,0.26546455729923474,-0.07564267896929186,157.67246833527074,-25.369652414511286,-5.879245677128742,0.18832432785357942,-0.00427509564322387,0.2252077504489974,-0.9558722947965708
211.0,-0.08948948948948948,0.024836772256127106,-0.04908747457134555,-4.259734573282961,0.9129158190448519,8.777896929187254,0.008300639349026438,0.3171800833091155,-0.0368412767606316,157.78681100455293,-25.75273055313378,-5.927722076915625,0.18724269119829506,-0.004167075805482903,0.22845007915819043,-0.9553514431957767
212.0,-0.09453986244308824,0.05939746197810715,-0.03933885498401628,-4.245569117504601,0.8328484936549456,8.792331202169915,-1.5375890002906132,-0.1420583890341955,2.244956650198586,155.493993993994,-25.650776784849363,-5.4083630000968705,0.2063891446052504,0.004247196639542768,0.22658435023733411,-0.95156081604427
213.0,-0.09774944299137847,0.06322096289838225,-0.043893490264458004,-4.151938874358229,0.8003693209338374,8.83740361329071,-0.06486577303109553,-1.9248053497045432,-0.5405011866705416,155.02832873195777,-25.048143405502277,-5.174593444250702,0.2105197064089896,0.005857464958829796,0.22119695708030612,-0.9519434389985952
214.0,-0.11494551002615518,0.06851908359972875,-0.041198537246924335,-3.9511038457812644,0.755520681972295,8.93045359876005,0.20835452387871742,-0.02386660854402789,-0.5970315073137655,155.9764739537925,-23.775051765475155,-4.840740942555458,0.20314441123316862,0.0042005168163324605,0.21010735931972296,-0.9560661919320933
215.0,-0.11668773612321999,0.07319819819819819,-0.059809164002712384,-4.1897028480093,0.7553230650004845,8.818274241983918,-1.1436885474183862,2.052996040395234,1.7332700644192576,154.78525501307757,-25.32069922745326,-4.898330790467887,0.2123636824757822,0.009315206022958444,0.22285931663251962,-0.9509922540240241
216.0,-0.11673544512254191,0.06311343601666183,-0.05235977913397269,-4.394219703574542,0.7787368013174465,8.717837837837838,0.1859682262908069,0.5614162549646421,0.007792066259808106,153.74242589363558,-26.640160321611937,-5.1053593916497135,0.22038332158287316,0.012540900762375282,0.23408024267557884,-0.9465176360621912
217.0,-0.11783590041654557,0.051264651748522724,-0.060966288869514676,-4.224210985178727,0.8264782524459945,8.796551874455101,0.9058382979753947,-2.3669869466240434,-1.541657585004359,155.28936900610287,-25.531419524363073,-5.364498571151797,0.20801510530320638,0.005074916850237336,0.22547008720526984,-0.9513994257250799
218.0,-0.12152136006974718,0.03688971229293811,-0.06067058994478349,-4.072041557686719,0.8564208563402113,8.867049549549549,0.5524693039814007,-0.5921198416158093,-0.8666675748328974,156.50586826746098,-24.54715653153153,-5.514362648939262,0.19824564949215348,-0.0005491951101908353,0.21765630140608355,-0.9553978631671993
219.0,-0.11082582582582584,0.032619877942458596,-0.05481255448997385,-4.032714811585779,0.8804654654654656,8.885125932383996,0.38378499467209143,-0.1675748328974135,-0.37510595272692043,157.11550360844717,-24.289369006102877,-5.657633439891504,0.1933347660970648,-0.0034450162443088244,0.2158139000106558,-0.9569352247200424
220.0,-0.09710089121379445,0.024112903225806455,-0.05024556814879397,-4.0569904582001355,0.907401191514095,8.873001307759372,0.17361413833188027,-0.30367565145790953,-0.32814921776615325,157.45732678242757,-24.442211869127192,-5.841579482708514,0.19049068601714617,-0.005295504285575899,0.21741092614985957,-0.9572302987941974
221.0,-0.09215731860893152,0.01819335464496755,-0.048529497239174664,-4.083142012980724,0.9180528916012787,8.860863605541025,-0.0205790467887242,-0.5157112757919209,-0.19301862346217183,157.6842881187639,-24.60974280732345,-5.914977477477477,0.18852257759711316,-0.006041544718589555,0.21893337749636738,-0.9573202427860117
222.0,-0.0873234524847428,0.010584616874939458,-0.04380703283929091,-4.01996682166037,0.9159532112757918,8.88932214472537,0.11187397074493848,-0.42035987600503727,-0.21618140317737095,157.90838570425262,-24.20253317833963,-5.879689164971422,0.18681873157100642,-0.006995542712874163,0.21549858807735156,-0.9584266801051051
223.0,-0.08452194129613484,0.01365252349123317,-0.04430495011140174,-4.071134844521942,0.9230214085052793,8.865552649423616,0.039583938777487164,0.05986934515160322,-0.024617359294778637,157.95483689334498,-24.52722985081856,-5.939340550227647,0.1863117932810229,-0.0069409803438922795,0.21831765218831733,-0.9578955537711906
224.0,-0.09196454519035165,0.014716409958345446,-0.04842972004262328,-4.05741136297588,0.9211576092221256,8.872065775452873,0.0048617165552649385,-0.11536284268139108,-0.017294512254189674,157.99444656349897,-24.439072641189576,-5.9185859246343115,0.1859508859430397,-0.0070251092565145785,0.21755377823888408,-0.9581409079492397
225.0,-0.09565969195001453,0.019979172721108208,-0.05113242274532599,-4.093889373244211,0.920435435435436,8.855486292744356,0.015871718492686232,0.07798726145500337,-0.04028928121670058,158.00251562045918,-24.67924174174174,-5.948652281313572,0.18577283660951274,-0.006769842056572703,0.2195395637251768,-0.9577194438491718
226.0,-0.12024387290516325,0.02081105298847235,-0.059937518163324634,-4.118344473505763,0.920856098033518,8.842842439213406,-0.0055776542671703965,0.07769967548193354,0.006688644289450742,158.00165134892956,-24.838052770512448,-5.974843795408312,0.18573342413106655,-0.006614341797926958,0.22088393969848885,-0.9574240371624041
227.0,-0.12457982175724114,0.01736341179889567,-0.06172503148309601,-4.162756466143563,0.9272873680131748,8.821981255449,-0.010937348638961541,0.1011818269882786,-0.07480867964738933,157.96713951855082,-25.120023249055507,-6.017831843940715,0.18584436655478065,-0.006402189510074589,0.22334374617092898,-0.9568329109871159
228.0,-0.11507012081205631,0.011652648039744815,-0.058740523934072336,-4.196593030818837,0.9338273757628599,8.805108011237044,-0.0511595985386308,-0.036710673807448,-0.06198831319799062,157.98373777002809,-25.337690195956327,-6.041369999031289,0.18581572443330427,-0.006277696610772062,0.22526045001749212,-0.9563884575012382
229.0,-0.11643266769073221,0.00828878648233487,-0.0574851510496672,-4.232387864823348,0.9372580645161293,8.787652329749104,-0.024329557091653867,0.07115655401945725,-0.04432603686635945,157.99148745519713,-25.56749071940604,-6.080645161290322,0.1857499453315412,-0.006085653241935485,0.22721443931950844,-0.9559432582260623
230.0,-0.12128084997439836,0.00947593445980543,-0.06357680491551461,-4.269522785458269,0.938951612903226,8.768817204301076,-0.015216973886328724,0.025217613927291344,-0.04798067076292883,157.99574372759855,-25.821015745007678,-6.105174731182796,0.18564608317204292,-0.00584557464516129,0.22928262399667176,-0.955463575676651
231.0,-0.1334585253456221,0.00797721454173067,-0.06710650281618025,-4.289743471582181,0.9397759856630827,8.758109318996416,-0.024129544290834616,0.06642825140809011,-0.02119015616999488,157.99798387096774,-25.94915034562212,-6.117103494623656,0.18559303092293894,-0.00571085174014337,0.23043175820353307,-0.9552037451994365
232.0,-0.13621402969790067,0.006779825908858167,-0.07225396825396826,-4.314128008192524,0.9400000000000002,8.747437275985664,-0.0361463133640553,0.06197196620583717,0.02695532514080901,158.0,-26.107779697900664,-6.135640681003585,0.18553385508960568,-0.005527845892473118,0.2317574232908346,-0.954895672532514
233.0,-0.12089605734767025,0.0070161290322580646,-0.061326164874551996,-4.353261648745521,0.9448745519713262,8.728575268817206,-0.052475358422939065,0.08002912186379928,0.031193996415770607,158.0,-26.361615143369175,-6.163586469534049,0.18541654277777778,-0.005260616810035842,0.2338908199551972,-0.954403402329749
234.0,-0.09353942652329748,0.0310931899641577,-0.0720519713261649,-3.8152867383512543,0.9490322580645162,8.927580645161292,-0.6176635304659497,-5.414258512544802,1.2794578853046594,157.41935483870967,-22.987679211469533,-6.058467741935484,0.19127236397849462,-0.0101038878046595,0.20543821016129032,-0.9585232751523297
235.0,0.3027312796667635,0.8507989441053956,0.04753075656301466,-4.118584471568342,-1.677837837837838,8.018937324421197,-0.10212177903710157,-8.358197411120798,-18.576519059381962,185.57802964254574,-24.97273533614259,12.743488448125543,-0.030934661859924467,0.0639738504790274,0.2639371808066938,-0.9085297501675869
236.0,-0.47223651070425254,0.5749648842390778,0.42590695534243916,-3.968212486680228,-0.5148687397074495,8.47006006006006,9.485313438438437,5.494820425263973,5.371126671025866,170.4664341761116,-24.024198089218253,4.190964654170299,0.08854795109512736,0.03719725463915528,0.23413742245979852,-0.9311837138561949
237.0,-0.2567596628886951,0.29882689140753654,0.19940811779521456,-4.207626658916981,0.23376876876876862,8.572824760244114,4.515862636830378,2.038524411508282,1.588568911653589,162.0326939843069,-25.493877445994382,-1.1331190061028775,0.15501641155139007,0.020036465648793952,0.2367832132836869,-0.938250877603652
238.0,-0.14397461978107137,0.17384796086408988,0.07917683812845103,-4.336382107914366,0.5566012786980528,8.625613678194323,3.2198186089315115,1.5958357551099485,0.24274980625787113,158.764385353095,-26.29466361522813,-3.4632737576285963,0.1804060516349414,0.01216232363678194,0.2380721188833188,-0.943553359319723
239.0,-0.0991378475249443,0.08993025283347864,0.030874261358132322,-4.467810229584423,0.768883076625012,8.613810423326552,1.604196938874358,0.7747323936840065,-0.03280296425457703,157.55356364428945,-27.126274459943815,-4.988581323258742,0.1893644815746392,0.005447020093480576,0.24290195934757333,-0.9460007012414026
240.0,-0.08679211469534051,0.01718395815170009,-0.0034599922503148403,-4.520378523684975,0.9559193064031773,8.637219073912627,0.8061034825147727,0.802852247408699,0.4925893635571056,156.08200741063644,-27.447890935290125,-6.331093189964157,0.20067189149350967,-0.0002293246786302432,0.2432410735491136,-0.9488483080139011
241.0,-0.05627752176139274,0.005241748661103501,-0.03048255628900791,-4.564743665324311,0.968446852382336,8.615727432501629,0.060817038236393076,-0.008771328932619255,-0.155593439061181,156.2758827375763,-27.73551500809565,-6.416890681003584,0.19893607295348806,-0.0009272016121005801,0.24575034113438782,-0.9486938205439448
242.0,-0.05588069636456734,0.00282139743430066,-0.02858914213752924,-4.590475581572356,0.9719740800708541,8.602148807793972,-0.011303555860007475,1.2731862622991654,0.1552296536167504,156.37584459459458,-27.910995298293685,-6.437493945558462,0.19803486501205353,-0.0009545161111941436,0.24723930376684522,-0.9484934391560175
243.0,-0.057507334523463564,-0.004661179612792517,-0.03154876074230913,-4.784835775868034,1.009258375887408,8.488825057776673,0.12830274110516046,0.36852970482002734,0.056303192593515176,156.18761957522037,-29.208697421499842,-6.773851472440182,0.19896857967787612,-0.00031771140297670933,0.25844756508888617,-0.9452427605767494
244.0,-0.043075933075933076,0.003267710106419784,-0.03233957459763913,-4.5625142746433065,0.9777458933587965,8.610939095777807,-0.22105596379789927,-1.781787893884668,0.10148299220879865,156.17083817688655,-27.739912954429084,-6.474819577642158,0.19982918573233147,-0.001030731441220022,0.24575816278855817,-0.9483617010813853
245.0,-0.03396603977249139,0.029724526369687664,-0.027935262451391486,-4.375319909771523,0.9461266519976197,8.7100074729107,-0.4186142940175198,-1.8329711047452983,0.24976612557257716,156.10157536568823,-26.51577164722326,-6.198204252639736,0.20093942950958335,-0.0012634857947163751,0.2351655703655084,-0.9507939560986698
246.0,-0.03773031095611741,0.019842584520003877,-0.023643805095418004,-4.099133488327037,1.154039039039039,8.806285963382738,2.585449360650973,-4.047379032258064,5.802289184345636,153.94782887726436,-24.733368449094257,-7.437294148987697,0.2193764103957183,-0.011144943884529692,0.22340612230892182,-0.9489571767737088
247.0,-0.0077927927927927965,0.012833236462268723,-0.03998668022861572,-3.7823479124285573,1.3995042623268432,8.892018308631211,-2.3570137678000584,0.44100098081952943,1.3570077133585197,150.22306984403758,-22.743373413736315,-8.8612200910588,0.2506050249450256,-0.020578952391262232,0.2108166782817495,-0.9431367431427393
248.0,-0.004908456843940717,0.010627724498692245,-0.028500435919790762,-3.755117698343504,1.262554489973845,8.941979075850043,-0.6230383609415867,1.2980601569311248,-1.1537707061900608,148.39946599825632,-22.55007628596338,-7.993134263295554,0.26590277156059283,-0.010550195762859635,0.20705482275501308,-0.9404543782911942
249.0,0.0174106364428945,0.021176983435047956,-0.005911072362685268,-3.970723626852659,1.1516564952048824,8.870313862249345,-0.7010135135135134,-0.018199651264167227,-0.7917938099389711,149.01405841325197,-23.910745422842197,-7.36323016564952,0.2603911428247602,-0.002947354132519617,0.21654246427201396,-0.9403272521272885
250.0,-0.008875326939843073,0.021150828247602442,-0.028796861377506547,-3.8695640802092415,1.052763731473409,8.933173496076723,0.013077593722755021,-0.5195619006102876,-0.40987358326067996,149.5429380993897,-23.252397558849168,-6.709622929380994,0.2564989407846556,-0.0002575497994768963,0.20960473093286835,-0.9432342180470792
251.0,-0.01666085440278989,0.027049307371888022,-0.025836481642933264,-3.790873777002809,1.0221747554005618,8.9743301365882,-0.1882810229584423,-0.15556282088540146,-0.3761382350092028,149.90327424198392,-22.749061561561557,-6.490191804707933,0.25381986170105586,-0.0003902630611256417,0.20495306305531336,-0.9451307065455776
252.0,-0.024132519616390586,0.022608737770028094,-0.021343601666182314,-3.7956659885692146,1.0011653589072944,8.97839969001259,0.03250629661919985,0.22927564661435626,-0.29861111111111116,150.17517315702798,-22.77447205269786,-6.359809406180373,0.25163044758306696,0.00024363220478543053,0.20483739557299235,-0.9458456157647972
253.0,-0.031255448997384486,0.015362782136975688,-0.021687493945558467,-3.849846943717912,0.9934379540831151,8.956157124866802,-0.03875448028673834,0.32096410927056085,-0.1635001937421292,150.38567398043205,-23.117619635764797,-6.323077109367431,0.24981649922309407,0.0010135048948948953,0.20758017077690594,-0.945756335842294
254.0,-0.029358076970980203,0.007622479622479623,-0.0222952353274934,-3.875238081399373,0.9909473990119149,8.94523200619975,-0.035497709691258074,0.1058395088637024,-0.05021752743526937,150.4535987600504,-23.276947194890745,-6.311277002809261,0.2492268604746682,0.0014114509006794814,0.20887305236864973,-0.9456382325174852
255.0,-0.032250965250965255,0.006522660909757684,-0.025393476425734498,-3.914075012800819,0.9903777971519903,8.928976072847043,-0.03316951744371099,0.3147713237430979,0.10242502006614909,150.40658904872615,-23.524616797096634,-6.323930785624334,0.24946241288772641,0.002000075663940438,0.21088551039531,-0.9451307067426133
256.0,-0.03192297366490916,0.010483552677101063,-0.025662688033655782,-3.983117255504352,0.9951440957086116,8.897059721011338,0.014553234109685724,0.42959108301850235,0.03399140788253691,150.32902257095805,-23.965797421845807,-6.372370858761988,0.24981466725927537,0.002871864077489932,0.2145866311519561,-0.9442033111759659
257.0,-0.033828870344999394,0.011693389241776337,-0.024726505307150475,-4.022884792626727,0.9975675675675675,8.879143659788824,-0.039710390113615913,0.10687663469921536,0.026432307883920786,150.29891988762958,-24.217329714507137,-6.3946587716749,0.2499520989566986,0.0033830127152682634,0.216712424137806,-0.943683446183861
258.0,-0.03430364927139122,0.013531586886425593,-0.02528204702398252,-4.039308506663344,0.9989450741063644,8.872783936009746,-0.05555002006614909,0.12797359571553119,0.037570058537800474,150.30301269010948,-24.3205569048311,-6.385837450353579,0.24996130698052882,0.003601711823196468,0.21757712623816441,-0.9434817998581528
259.0,-0.03652663262340683,0.013633688988527695,-0.02490728055244185,-4.064838073096138,0.9946159062288091,8.861391968004874,-0.02777821023788766,0.2133595577143964,0.005462576631931469,150.28322677516226,-24.494594248626505,-6.408308510123026,0.24993821331105298,0.003964980055991475,0.21897032093065408,-0.9431694765885745
260.0,-0.04335970302099336,0.013459293394777265,-0.02703661034306197,-4.096203789042499,0.9974910394265232,8.846616743471584,0.004168266769073219,0.4359415002560164,-0.013791282642089096,150.264896953405,-24.69775665642601,-6.424675179211469,0.24994180593189957,0.004403285437275985,0.2206639582770097,-0.9427688872480798
261.0,-0.0525714285714286,0.013799539170506912,-0.033316692268305186,-4.152519457245264,0.9987455197132615,8.820320020481311,-0.027457757296466972,0.3868775601638505,0.0008048515104966706,150.25739247311827,-25.060235855094724,-6.4313956093189955,0.24993644506272392,0.0052081711326164865,0.22368293292882746,-0.9420520196410651
262.0,-0.05739682539682542,0.015864823348694317,-0.03634920634920637,-4.175601126472096,0.9993727598566308,8.809971838197644,-0.0346742191500256,0.1041410650281618,0.07194700460829492,150.25336021505376,-25.2115975422427,-6.434811827956988,0.2499351319534049,0.005535084974910395,0.2249105979339478,-0.9417622237183824
263.0,-0.056379928315412206,0.02087813620071685,-0.036684587813620086,-4.16396953405018,0.9945250896057345,8.814775985663083,-0.2321348566308244,-0.6216397849462366,0.2324148745519713,150.22289426523298,-25.137096774193548,-6.405801971326165,0.2502039394534049,0.005635796845878137,0.2242239682168459,-0.9418539522043012
264.0,-0.055815412186379955,0.024130824372759867,-0.031998207885304664,-4.172231182795699,0.9860931899641576,8.811272401433689,-0.0022401433691756345,0.3879928315412186,0.016241039426523274,150.10707885304657,-25.18469982078853,-6.371639784946236,0.25103934652329746,0.006262665403225807,0.2245670443189964,-0.9415415557795701
265.0,-0.04947132616487457,0.03336021505376345,-0.03058243727598567,-4.223073476702509,0.9845878136200715,8.787159498207883,-0.018705197132616494,0.4092741935483871,0.012992831541218629,150.04502688172045,-25.51299283154122,-6.385752688172043,0.25137383627240145,0.007068264175627241,0.22728261628136198,-0.9407948052060933
266.0,-0.04649205657270174,0.027890148212728866,-0.02595853918434564,-4.2799702121476315,0.9913174464787368,8.759182892569987,-0.018918616196842007,0.47110669136878813,0.10914947205269784,149.9478621766928,-25.881435871355222,-6.454346483580354,0.25204419140559914,0.007700506453792504,0.23042325459653204,-0.93984140810496
267.0,-0.05266564952048823,0.024120410733313967,-0.03160224740869902,-4.33493533856437,0.9844991765959508,8.732833962995254,-0.16307486922406278,0.577583127482321,-0.5073864186767412,149.9132292574833,-26.23743400658723,-6.4302301293228705,0.2521375704717621,0.008887330701588687,0.23327064578974138,-0.9390986960001938
268.0,-0.04846677322483774,0.022807565630146277,-0.026787755497432918,-4.18654388259227,0.985854644967548,8.801926523297489,-0.33982823549355806,-1.8872708393877748,1.4288996657948272,149.35275295456748,-25.274540165165163,-6.387765789983533,0.25721113339363555,0.007775642560060062,0.22529469783250994,-0.9395806725261552
269.0,-0.04455390874745714,0.03049840162743389,-0.03583188026736414,-3.9658405986631795,1.0105785624334012,8.898461445316283,-0.5361556112564176,-0.7232454228421972,0.5257813256805194,148.177684236656,-23.86442743146372,-6.47784528480093,0.26751895669863407,0.0056077003886951474,0.21395798063741162,-0.9392983811658433
270.0,-0.007814588782330724,0.05371694274920083,-0.04611934515160321,-3.173847718686428,1.2905715392812165,9.114736995059575,-0.24693645258161384,-5.880327908553715,3.4787004746682166,144.48324736026348,-18.97738060641286,-8.01381623559043,0.2993319148726145,-0.015060718949917656,0.17865854648358037,-0.934900415681488
271.0,-0.014495786108689339,0.032080790467887255,-0.033587135522619396,-3.25709386806161,1.2019509832413058,9.128767800058123,-0.5015196648261164,1.465459411023927,-1.1819117504601373,145.07033444735058,-19.45719509832413,-7.472797394168362,0.2945813779114599,-0.009623487548193354,0.18087548887823307,-0.9370654229235688
272.0,-0.018852077884335947,0.03273176402208661,-0.023166715102198972,-3.5156437082243532,1.0840269301559624,9.060979366463235,-0.11952073040782718,1.4945812748232101,-1.4766904000774967,147.4323173980432,-21.050960234427976,-6.800451661338759,0.27470790995834543,-0.003620041917078368,0.19205646420807904,-0.9412203841819237
273.0,-0.012752106945655331,0.035825341470502765,-0.019870192773418578,-3.721718977041558,1.0265949820788531,8.993397268235977,-0.0732738787174271,1.5465495737673156,-0.47289729245374396,148.91888864671122,-22.33351193935871,-6.498389518550809,0.2620272546696697,-0.0002048283953308143,0.20172901712147628,-0.9431364432548677
274.0,-0.012021699118473311,0.028915286253995937,-0.015815170008718394,-4.0016698149762675,1.0187784558752304,8.87472246439988,0.010539269107817488,1.859786702024605,-0.10411066308243724,149.44624261358132,-24.112338649133,-6.54480892182505,0.2569071302787465,0.0032610024099099097,0.21627961198561466,-0.941480077700281
275.0,-0.00873486389615422,0.020546352804417325,-0.01188607962801511,-4.228993509638672,1.019120410733314,8.77589169814976,-0.005231037489102008,1.2625266395427683,-0.19198028673835124,149.81418313474765,-25.56045359876005,-6.623546934030806,0.2531666565058607,0.005838207607284705,0.22819472789692918,-0.939974328420033
276.0,-0.009318996415770612,0.011245761890923182,-0.01105105105105105,-4.348005424779618,1.0275753172527364,8.718967354451225,-0.047242807323452485,0.6429635280441732,0.0005751719461396876,149.92124987891117,-26.328253656882687,-6.716307032839291,0.2519073330272207,0.006897977187832995,0.2346243371965514,-0.9388065191213795
277.0,-0.025485808389034196,0.00437421292260002,-0.024232296812941978,-4.318126029255062,1.032392715295941,8.732854790274146,-0.398539668700959,-2.164126828441345,0.2803055071200232,149.84382265329847,-26.132044342729827,-6.749315848106171,0.252734785220866,0.006365302031386225,0.23299909880703285,-0.9389712860205366
278.0,-0.02949530175336627,0.007426862346217186,-0.03360699409086507,-3.995008960573477,1.0119417804901674,8.88174125738642,0.025474062772449874,-0.7587743993993994,0.06656404388259225,149.70256193693695,-24.064877881914175,-6.507422745325971,0.2548879024752979,0.0032398286573670446,0.21559603201903516,-0.9423954791175047
279.0,-0.06788385159352901,0.029873825438341575,-0.03924973360457232,-3.910358422939068,1.0221268042235785,8.921462026542674,0.016993303787658624,0.34448712825728944,0.15746996996996995,149.50100655090574,-23.515273842390776,-6.539889688075172,0.2568091959374697,0.0019426735311924828,0.21124992636346024,-0.9429462008759566
280.0,-0.060513658820110436,0.015963867092899355,-0.036072362685265924,-4.002261455003391,0.99541557686719,8.885549258936354,-0.1716661217669282,-0.23468680373922307,-0.002857696406083521,149.5097839775259,-24.095560278019956,-6.394110844715684,0.2564738849203235,0.004547162270415577,0.2156845253223385,-0.9420750691378474
281.0,-0.49016274338854976,0.11618981885110916,0.23403371113048535,-4.319741838612806,0.4294909425554588,8.592864235202942,-2.8376531773709193,20.29106273612322,-30.419159582970064,153.7037047127773,-26.273754601375572,-2.0316208345442215,0.2211067730022764,0.02845271290492105,0.23526299578392912,-0.9376572379739416
282.0,0.4198537246924342,0.8808548871452099,-0.21927056088346408,-4.141242855758985,-3.286237527850431,7.090196648261163,12.987709483677223,-14.78016322774387,-9.506899036132907,196.0125357212051,-25.124688196260777,24.828217330233457,-0.10416281136781944,0.13007068610868938,0.31044759770657754,-0.8553766117276955
283.0,-0.31771771771771795,0.5950830669379057,0.46036375084762166,-3.3084708902450837,-1.2371640995834543,8.233618618618618,20.478788264070523,-4.338173859343213,9.10696230504698,176.1733371476315,-19.88682281071394,9.928215513900996,0.049438588748425855,0.05761228477864963,0.22296380000799185,-0.9114509261568827
284.0,-0.20350431076237538,0.299642061416255,0.198666569795602,-3.354959314152863,-0.11197859149472078,8.683794923956212,10.293280175336628,-0.723726750944492,3.456190061028771,168.79863230165648,-20.096423035939164,1.8050833091155671,0.10391472725079921,0.01689176480771095,0.2030231476508767,-0.9406977944972392
285.0,-0.11877482321030713,0.15285067325389906,0.0846471471471471,-3.489585149665795,0.4601048629274436,8.864765814201295,5.116534377119055,-0.39812645306596883,2.2049640366172625,167.21247003051437,-20.89160733313959,-2.349501719461397,0.11317022407875618,-0.006604791131454027,0.1985377570425264,-0.9569303956836674
286.0,-0.07263004940424297,0.07429816913687882,0.015061997481352295,-3.536117407730311,0.7802920662598082,8.967752591300979,2.615545989537925,-0.5231098033517388,2.046056136781943,167.40442155865543,-21.15247202848009,-4.663709071975201,0.1094618579870193,-0.021875279448803634,0.19488302228034488,-0.9663974391489877
287.0,-0.07298750363266493,0.014162549646420611,0.002574590719751994,-3.5749549549549537,1.042112515741548,9.059829022570959,0.856138900997772,0.4902069408117795,0.8015626513610384,167.29632101859923,-21.387519071490846,-6.561699300106557,0.10824661658190449,-0.0337567674750557,0.190931066320837,-0.9745151424147535
288.0,-0.036762569020633545,0.007117117117117116,-0.03155768671897705,-3.6376925312409183,1.0416342148600215,9.039063256805191,0.04727307953114405,0.27304925893635573,-0.21329797539474957,169.45531216700573,-21.78171316477768,-6.568288046110626,0.08979986084471567,-0.03685681458878233,0.19359997393102782,-0.9760280602799574
289.0,-0.03600213116342149,0.013789596047660564,-0.030829216313087292,-3.672724014336918,1.0327811682650394,9.027066744163516,0.01925917853337208,0.07986413833188026,-0.12624721495689237,170.7708272788918,-21.997438971229293,-6.521717281797926,0.07858945950305143,-0.038498686377022175,0.19502790012302623,-0.9767794318386127
290.0,-0.033500435919790766,0.019128644773806068,-0.027986050566695737,-3.6880596725758013,1.0266550421389133,9.020925603022372,-0.0035902838322193157,0.08446854112176692,-0.08063305240724596,171.55546776615324,-22.097216167780687,-6.510913130872808,0.0718262548503342,-0.03955644268332849,0.19558226841034582,-0.9772048569592173
291.0,0.07171146953405017,0.07920250896057347,0.022885304659498198,-3.6632795698924734,1.0044265232974912,9.033503584229388,-2.1415770609319,-0.5231294802867382,2.242159498207885,171.86273521505376,-21.934475806451612,-6.362511200716845,0.06929344215053763,-0.03895951630824372,0.19397371913978495,-0.9777275272222221
292.0,-0.0652956989247312,0.0425268817204301,-0.10778673835125455,-3.524569892473119,0.9722670250896059,9.089023297491039,-1.7320228494623655,-0.9075940860215054,5.760416666666667,164.7791778673835,-21.056339605734767,-6.113631272401434,0.1295823396594982,-0.026479741577060928,0.18792002670250896,-0.9710929622491039
293.0,-0.0279388259226969,0.0459411023927153,-0.06430349704543256,-3.474776954373729,0.9516853143466049,9.111974958829798,-0.8459795480964837,0.03405623365300786,2.842272716264652,158.14293779666764,-20.750457110336143,-5.9663781725273655,0.18567235186428366,-0.014838131240433983,0.18621298804998546,-0.9620517629678873
294.0,-0.04649181439504019,0.037988472343311055,-0.04498328974135428,-3.4209592657173302,0.967433158965417,9.129952533178342,-0.5886763779908941,-2.09195485808389,1.7337483653007848,152.33280962414028,-20.419303375956602,-6.04818124576189,0.23436322196260778,-0.006760121354984015,0.18424374146226874,-0.952206787285915
295.0,0.01087401918047079,0.03953308146856535,-0.033522474086990224,-3.1497859149472047,0.9512968613775067,9.225562336530082,-0.368868364332074,-0.7892569989344183,0.8068012569020634,148.67196733023343,-18.74548035939165,-5.880890971616778,0.26560209643756655,-0.003951794284849366,0.17048367145500337,-0.9475591692451322
296.0,0.01517267267267267,0.04067155865542964,-0.028073961057832032,-3.1365775452872215,0.9601242371403662,9.231607333139593,-0.031516395427685764,0.5644888840453357,0.7397861571248668,146.10631296619198,-18.658750484355323,-5.931372905163228,0.2869128765252349,-0.0005085917705608837,0.1701055051002615,-0.9423073477363655
297.0,0.014633827375762857,0.04260728470405892,-0.02004504504504505,-3.2180737188801687,0.9809716167780684,9.202125351157612,0.027308558558558554,0.5963685459653202,0.15685544415383124,144.8479033468953,-19.161756514579096,-6.0929265959507894,0.2970876411837645,0.001678183303787658,0.17458971335658235,-0.9386001145088639
298.0,0.012060689721980045,0.04561731085924636,-0.018858132325874265,-3.283137411605152,0.9915450934805774,9.178079531144046,-0.0013637629565048937,0.35002240143369173,0.09681506102877072,144.29477713600699,-19.564885449966095,-6.178056584810617,0.30133961714036633,0.0030106596403661717,0.17806920224886175,-0.9366868704196938
299.0,0.013516904000774967,0.04483822532209632,-0.019478349317059,-3.3258742613581314,0.9960234427976363,9.162848009299623,-0.001773951370725565,0.3394937275985663,0.026146105783202554,144.09398915044073,-19.83015777874649,-6.215792405308534,0.3028317940182118,0.0037605953622977823,0.1803120214918144,-0.9358055983415674
300.0,0.010295698924731183,0.045994623655914,-0.0178405017921147,-3.3778136200716844,0.9990143369175627,9.144354838709678,-0.01556899641577061,0.2091733870967742,0.01674507168458781,144.02150537634407,-20.1514896953405,-6.241151433691756,0.3033081397849463,0.004575120546594981,0.18299034394265234,-0.9351436377777778
301.0,0.010206093189964155,0.04650537634408604,-0.015770609318996417,-3.4141845878136197,1.0,9.130663082437277,-0.011368727598566308,0.2696012544802867,-0.013328853046594983,143.9787186379928,-20.379424283154123,-6.2497759856630815,0.30355255354838706,0.005201168530465948,0.18487723841397846,-0.9346911796415769
302.0,0.004408602150537634,0.049507168458781385,-0.019193548387096776,-3.4518189964157706,0.9961290322580643,9.117329749103945,-0.03595430107526881,0.1677307347670251,-0.05202732974910394,144.01377688172045,-20.615983422939067,-6.226702508960573,0.3031346575985663,0.0059279575358422935,0.18672546646953403,-0.93445119547491
303.0,0.0031989247311827963,0.05106630824372761,-0.02493727598566308,-3.374659498207885,0.9812903225806451,9.1472311827957,-0.19674059139784947,-0.9316756272401434,-0.17260304659498207,144.09464605734766,-20.131720430107528,-6.114695340501791,0.3027175841756273,0.005321324946236558,0.1824843975,-0.9354000842652326
304.0,-0.007948270851496658,0.046730359391649726,-0.024835561367819434,-3.328546449675482,0.9545161290322581,9.167348154606223,-0.08945588733895185,0.10039323597791333,-0.17919633343020439,144.3437484863896,-19.84633221931609,-5.937360747844618,0.300865158705076,0.005534327165552648,0.17970547250145305,-0.9365366684117987
305.0,-0.00607042526397365,0.04911193451516033,-0.020104620749782042,-3.3212334108301853,0.9474062772449867,9.170687300203433,-0.0285027971519907,-0.5746527777777778,-0.3730020342923569,144.44462002324906,-19.795988024314635,-5.894029109754916,0.300099058139349,0.005601059286060254,0.17919424170226678,-0.9368842805838904
306.0,-0.1240656785818076,0.12315363750847622,0.07590647098711614,-3.285979608640899,0.9361404146081567,9.184044366947596,-1.973004758791049,0.5318660394265232,-0.5204503899060351,144.30821950983238,-19.579137605347285,-5.807677637314734,0.3012838721297103,0.005962981811488908,0.17716044717281798,-0.9368620255921243
307.0,-0.4585973069844038,0.5789559721011334,-0.35603434079240537,-0.1569856146469053,-0.8739709871161484,8.31249031289354,-3.1983071781458876,-20.604607127288578,-47.51244641819238,167.76361341179887,0.02045341712680404,6.048026857502664,0.10730612104572314,0.10574526328949917,0.010446050432771484,-0.9250726133035456
308.0,-0.4172914850334205,0.46554877458103266,-0.24706286932093385,4.0568700959023545,-0.8983250992928413,6.938704833866125,-5.173302334592657,-9.727622784074397,-19.712232393684005,188.22583672382058,28.151663760534728,7.528661726242372,-0.05702897251477284,0.13221086951661337,-0.22002981691175047,-0.8936289552852853
309.0,-0.7077433885498402,0.2332059478833672,-0.22510510510510498,2.9299651264167403,-3.518530465949821,6.468737770028092,-15.297472876101908,33.48021105783202,8.245316889470118,198.27540746391554,20.050712002324904,25.93333151700087,-0.13914286190690692,0.24176488066501983,-0.12038335506877844,-0.8838616898963481
310.0,-0.4058420517291485,0.7379194517097744,0.0351414317543349,0.20081952920662616,-3.4020812748232108,7.246980044560689,9.308924852271625,4.894720829700669,40.432297721108206,184.8902920057154,2.5429290177274053,23.85024792938099,-0.03076770474595561,0.21663574534558755,0.022942488969534075,-0.9005248768139107
311.0,-0.11168119732635862,0.3931957764215829,0.02786447738060637,-1.9143693693693697,-1.2041911266104814,8.06273370144338,4.781934151893828,2.2707425167102593,19.551789692918724,159.99000108979948,-10.858537973457329,8.735193863218056,0.17093976308534345,0.12436819513126031,0.11881973983435051,-0.9014104501017146
312.0,0.009281458878233055,0.19505037295359878,0.04090259614453161,-3.108230892182505,-0.0282071587716749,8.477277923084376,2.584787912912912,2.238275573961058,10.963994236171656,148.6503787053182,-18.419324566501984,0.6602898261164385,0.26305813379201787,0.07138888537295361,0.1748037774803836,-0.9074839004824179
313.0,0.03574736026348929,0.102175724111208,0.027068681584810607,-3.8565930446575605,0.534592657173302,8.681972294875521,1.447271868642836,1.7079034679841132,5.295729196938875,143.60288312506054,-23.214478591494718,-3.2780260098808487,0.30378868160031003,0.04501988712196067,0.21119212391940323,-0.9131362889150441
314.0,-0.1537217863024315,0.34608350285769635,0.22540443669475926,-5.01894604281701,-0.866339242468275,7.197673157027997,14.746821418192386,44.70135256223966,-34.13393030126901,162.01054683715972,-31.494635764797053,12.441822871258353,0.16848688408699025,0.06929998921921923,0.3147300445403468,-0.8680547693616196
315.0,-0.10806645355032454,0.1080083309115567,-0.03212050760437858,-4.500697471665212,-4.037933740191804,5.538496561077206,0.08540395233943698,-29.09664705027608,-15.92985929477865,191.73384069553424,-28.373601424004647,38.11135328877265,-0.05316944335948856,0.17128491692531236,0.3443838125021796,-0.8181287449307373
316.0,-0.11381962607769064,0.6610660660660658,0.09429284122832507,-3.399904097646033,-2.66463818657367,7.145364235202946,25.830518018018015,-13.255031240918337,24.521720309018693,170.5683970260583,-21.00720175820982,23.274208684490944,0.1024127083638477,0.14110487030223773,0.23474469338709675,-0.8700704106519421
317.0,-0.015453840937711925,0.3744345151603215,0.035250169524363065,-3.523160418482999,-0.7169093286835221,8.065227889179502,10.27927927927928,-1.8325341470502758,12.247210416061222,152.69347270657755,-21.450418664632373,7.7608783178339635,0.23909536700668413,0.07740979111886079,0.21777243819747164,-0.8869429874489005
318.0,-0.020930446575607872,0.17629758791049108,0.013580354548096477,-3.9436578513997866,0.18406664729245398,8.385265911072363,5.716325196163906,0.4475412912912915,5.863929453647195,145.17790068294102,-23.945942918725173,0.3306512157318604,0.29482893923035947,0.05339814305918821,0.22618139531289355,-0.8965595470648068
319.0,0.014635038264070515,0.07627869805289157,-0.0113092124382447,-4.288071297103555,0.7136680228615714,8.506216216216213,2.598000217959895,-0.5544551608059677,4.280809539378087,141.22651028044174,-26.05623213939746,-4.185535333720818,0.32311087210864087,0.04110147951564467,0.236596108013901,-0.902081774517582
320.0,0.0119277341857987,0.04286157124866801,0.0027414511285479004,-4.318946042817011,1.0749433304272016,8.682050760437853,1.446569553424392,-0.6274459943814783,1.5954058897607286,139.07055240724594,-26.173417368981887,-7.045220623849657,0.339214200485324,0.02701261803739223,0.23365597573186084,-0.9091574800455293
321.0,0.0021670057153928115,0.00996609512738545,-0.006275307565630148,-4.22538409377119,1.129075850043592,8.76404630436888,-0.031210646130000956,-0.2624479318027706,-0.50193742129226,139.78563038845297,-25.538839242468278,-7.328653250024217,0.33423490800639344,0.020417835975975976,0.22859346885110915,-0.9139006441945174
322.0,0.0008834641092705601,0.011195388937324422,-0.009948658335755109,-4.162333623946527,1.1103777971519908,8.799465271723335,0.10517775840356486,-0.08616681197326367,-0.3470345345345346,140.57824760244114,-25.124612515741546,-7.189485856824566,0.32825224415092513,0.018618425410248954,0.225045004603313,-0.9170996182476026
323.0,-0.006424004649811105,0.0027206238496561065,-0.0091765959507895,-4.149022086602731,1.099596047660564,8.807077884335948,-0.11368727598566307,-1.6172442603894217,-0.32576225418967353,141.0271360069747,-25.034325656301462,-7.1151221786302425,0.32474952789935096,0.01798176546885595,0.2241901517523976,-0.9185966853138623
324.0,-0.0014421679744260375,0.006046449675481933,-0.016780974522910004,-4.005483144434757,1.0875966288869514,8.874467451322289,0.1751201806645355,0.30858580354548093,-0.18448640172430494,141.18139712292938,-24.114481921437566,-6.983536459846944,0.32410781795577837,0.015759053588830764,0.21658662513949434,-0.9206968525174368
325.0,0.0028945074106364434,0.01152232878039329,-0.01167005715392812,-4.044905550712002,1.1098735832606799,8.854944299137847,0.07073101327133587,0.0473820594788337,0.5910285285285285,141.11388404533568,-24.358792260001938,-7.139981715586554,0.3244986767780684,0.015450867300687782,0.21898669394071496,-0.9200245877864963
326.0,0.004132519616390585,0.015429865349220188,-0.01449239562142788,-3.966960185992443,1.151257628596338,8.884664826116436,0.045963806548483976,-0.5362751864767994,0.20241814395040197,140.68670989537924,-23.85820497917272,-7.366143865639833,0.3282008406906908,0.012922521544851302,0.2156185844681779,-0.9195420470275113
327.0,0.008625399593141531,0.016939843068875325,-0.04085730892182504,-3.756867189770415,1.1489218250508573,8.972018792986534,-0.37338346410927054,-1.9202993315896542,0.26373147340889275,140.43828102295845,-22.531925070231523,-7.288554683715974,0.3309672286786788,0.009708238196260776,0.20473309297781653,-0.9209766186302433
328.0,0.008863702412089515,0.030331299040976464,-0.013458297006684097,-3.729662888695146,1.1571461784365007,8.985006780974523,-0.06087438244696311,0.5488956698634119,0.046207497820401025,140.74123619587328,-22.359848760050376,-7.332785406374116,0.32862606371161485,0.008293293339629953,0.20354389184636248,-0.9221476148643806
329.0,0.013285382156349895,0.027297297297297303,-0.010242662016855558,-3.772769543737286,1.1593490264458004,8.967699554393104,-0.2026255085730892,1.1996875908166231,0.2537325632083697,141.36176347718686,-22.629657379153347,-7.358497105976944,0.32348143849922506,0.00782828541436598,0.20582786768429717,-0.9234672649997577
330.0,-0.001359101036520394,0.01983144434757338,-0.014915237818463621,-3.9049690012593237,1.1054809648358033,8.915314830959993,-0.5854917417417418,-0.5633506490361329,0.14181923859343215,141.4864652959411,-23.46914656592076,-7.0604929526300495,0.3220441973365301,0.012539159405211664,0.21172063976508765,-0.9225485154882299
331.0,-0.003482030417514292,0.014480771093674318,-0.016501985856824566,-3.8562590816623077,1.0473820594788332,8.944737237237238,-0.31911296377022186,-0.14419409328683522,0.06424065194226485,141.51746555022766,-23.16099365494527,-6.671466325196164,0.3220237478506731,0.014479124655139012,0.20817713931730114,-0.9233817823212729
332.0,-0.011711711711711715,0.014058897607284706,-0.015423810907681879,-3.850355516807129,1.0153540637411602,8.952829603797346,-0.10100019374212924,0.3341809551486971,-0.1079991281604185,141.51367698343503,-23.121664002712393,-6.46710016468081,0.3221230338244696,0.015986835720236365,0.20726427606412864,-0.923562717951177
333.0,-0.016456940811779522,0.009646904969485615,-0.01996851690400078,-3.8834466724789296,0.9937222706577543,8.942132616487456,-0.2128893005909135,0.1608544027898867,0.1092281797926959,141.51492722561272,-23.33058461687494,-6.338749031289354,0.3220020824895863,0.0176286387987988,0.20858103136781944,-0.9232880764244891
334.0,-0.024421437566598855,0.011608301850237333,-0.01000557008621525,-3.8580620943524164,0.9806778552746294,8.954242710452387,-0.17477205027608253,-1.4038978494623655,-0.11207679453647197,141.50901354984018,-23.163993630727504,-6.244080269785915,0.3221908572653298,0.017832128973166717,0.206990419514676,-0.9235771715150635
335.0,-0.015978639930252836,0.01449142691078175,-0.018600455294003684,-3.704891262229972,0.9560602538021893,9.020351641964545,-0.05073167925990507,-0.21471774193548393,-0.14407603167683813,141.61951013513516,-22.19602011285479,-6.052119659982564,0.32184401005739605,0.016203667103070814,0.19873414491862834,-0.9255113619313668
336.0,-0.028262617456165852,0.016555749297684785,-0.02707352513804127,-3.691634699215344,0.9640516322774388,9.025677613096967,0.05429925893635572,0.25179211469534046,0.1782700038748426,141.63577993315897,-22.11086287900804,-6.1006006006006,0.3217531152392715,0.015538688775549743,0.1981859709270561,-0.92569342247554
337.0,0.002913155090574439,0.010147970551196362,-0.07368061609997094,-3.5514843068875326,0.9794233749878911,9.076892860602538,0.44941968177855274,-2.0961778310568637,-0.175168616196842,141.6198189116536,-21.227183837062867,-6.16590077981207,0.32234498337377704,0.012326839658045142,0.1911936264007556,-0.9269237171662792
338.0,-0.09355686331492782,0.07765911072362687,-0.0011951467596628823,-3.247726920468856,1.047269931221544,9.179019907003775,-0.01674961251574153,-2.0672421413348836,1.0731739804320448,141.52762338951857,-19.340294427492005,-6.504601375569117,0.32398070818778457,0.003968560286011817,0.17701563326310182,-0.92914820562167
339.0,0.3599263779908941,0.0227031870580257,-0.5181170686815849,-3.8192112273563885,0.6485418482999128,8.9052310374891,-3.9589993219025477,7.540160624334011,6.047238266492299,138.33044536471954,-23.116177165068294,-4.131578150731376,0.3462304302688172,0.041832224876247215,0.19842878903758598,-0.9120660139264263
340.0,0.20003632664922988,0.017211566405114755,-0.2481618715489684,-4.632475297878524,0.7333880654848397,8.509555603991087,-2.2539293325583647,3.278227320061997,3.7011391431754332,120.55325638138137,-28.4120501549937,-4.942036290322581,0.4709054755596725,0.09373543984718588,0.2265076099084568,-0.8278776638494139
341.0,0.1137668313474765,0.01347137460040684,-0.1198895669863412,-5.003067422260971,0.7468889857599537,8.337916787755498,-1.6725848832703671,1.4220187929865349,1.7538294342729825,98.31282693984306,-30.811113532887724,-5.1319959071975205,0.6138430772866414,0.14669116028770704,0.21865756076576576,-0.7104547882892571
342.0,0.04813014627530757,-0.01048750363266493,0.02005957570473698,-5.13574905550712,0.5699920081371694,8.2999653685944,-1.4946947956020535,0.9065194226484549,-0.030125387484258415,81.48022013949434,-31.646266225903318,-3.931898127966676,0.7149173464506442,0.18591808839581514,0.19475934800712003,-0.6142017969257968
343.0,0.057868836578513994,0.1602266782911944,-0.18562433401143089,-4.310585101230262,0.46363847718686424,8.699673544512255,0.3472706577545286,-4.711166811973263,-1.4672636346023442,78.17122566114502,-26.254528722270656,-3.061967209144628,0.7484514701608059,0.1596396243233556,0.15973755918725174,-0.6072781413213213
344.0,-0.1263227743872905,0.04476024411508286,-0.07468662210597699,-4.313736316962124,0.6693432141819237,8.725882979753946,2.7217499757822337,0.4284728276663756,-2.287549646420614,74.83395088637025,-26.195049888598277,-4.389663857405793,0.7695750795224254,0.15805544180858278,0.16509349277148117,-0.5888764705124478
345.0,-0.07731570279957377,0.04548387096774196,-0.052596144531628426,-4.523546449675482,0.7415722173786689,8.634166424489006,1.5525162259033225,1.2082425167102584,-1.622578223384675,92.43539305434467,-27.53219146565921,-4.917151021989731,0.6612437795127385,0.13261483182408215,0.19709621880073622,-0.6897228732597113
346.0,-0.05655865542962317,0.04637992831541221,-0.038741160515354076,-4.690218928606025,0.7846512641673931,8.552676063159934,0.7609736752881914,0.8363575268817205,-0.7663954276857503,111.28473130388453,-28.608831613871935,-5.240597452291,0.5348368901855081,0.10048142756998935,0.22469167729923473,-0.7837480072101135
347.0,-0.04035188414220672,0.04422793761503441,-0.030700619974813534,-4.783501404630437,0.8030298847234332,8.50694686622106,0.28595278746488423,0.23232859876005033,-0.16910660660660665,124.63166442652329,-29.214912997675093,-5.394365131260292,0.4419358070902354,0.07635362335730893,0.24150551476072846,-0.8447784628291195
348.0,-0.035646614356291774,0.040167586941780506,-0.02461493751816332,-4.835948852077884,0.861423035939165,8.477399011915143,-0.2074675481933546,-0.7737636830378767,2.984101036520391,131.72957231424974,-29.55331541218638,-5.796370967741936,0.39154050972198007,0.061559586982466344,0.25078537415189384,-0.8759578792143756
349.0,0.20159256030223774,0.1103409861474378,-0.07765184539378087,-5.827307468759081,1.1697524944299138,7.096859924440571,-12.730504698246634,29.32947059963189,16.033926063159935,123.44840102198974,-38.914517339920565,-13.865437009590234,0.4250477282698828,0.11567637015208758,0.3150024968667054,-0.8123125281250607
350.0,0.22924779618328006,0.29544609125254284,-0.15663905841325193,-7.456478010268333,2.011746343117311,4.803967596628887,-3.487461251574155,7.061558534340792,2.594886721398818,104.1029966458394,-53.15873534825148,-30.770371682166036,0.5054953046338274,0.21068926372905164,0.4224968264731667,-0.6730447801901095
351.0,0.18324372759856628,-0.04189600891213796,0.01343456359585389,-8.114463334302044,-0.01543277148115818,4.187584277826213,27.708890341954856,6.038108168652523,-25.675973856921438,129.28130600358423,-58.79469691465659,-2.881428303303304,0.3377882201029255,0.23182259022038165,0.462697053233314,-0.7302080884495785
352.0,0.011239949627046386,-0.07264361135328876,0.0740918337692531,-8.431483095999225,-1.2438448125544896,3.992351060738157,19.84582364622687,4.878269398430689,-17.75659934127676,167.45006902063352,-60.8245422842197,14.618636781943234,0.07532253844425071,0.13274210572798603,0.5076313517756467,-0.7735433348764894
353.0,-0.01638525622396591,-0.010406374116051515,-0.041009880848590544,-6.829991765959509,-3.0698256320836967,5.2872435338564365,8.964187978300881,-13.903743461203138,-14.835933715974038,184.925094449288,-46.73771251089799,25.726439140753655,-0.05165306588685459,0.17212361347863991,0.42196468418337696,-0.8375048025472247
354.0,-0.054623413736316954,-0.017307710936743187,-0.044271287416448715,-4.641761358132326,-4.301665213600698,6.569966337305046,2.2712662259033225,-17.114669609125254,-6.069079664341761,190.82135764797056,-30.49831837886273,30.903212183958154,-0.09356704525283349,0.22075170719025475,0.2943301967681391,-0.8918412331422552
355.0,0.06145112854790274,0.10405889760728469,-0.05456843940714909,-3.4766085440278993,-5.08001743679163,7.094839678388065,-1.4322447447447448,3.1222028480093,9.430028819141723,189.1687251767897,-22.038385159352902,35.19666642448901,-0.07470638102392715,0.26063167619974814,0.21677054076237529,-0.9208542652194129
356.0,-0.07351157609222123,0.04440085246536859,0.021612903225806453,-6.0506015693112465,-2.4811682650392335,5.532480867964738,-21.59463697568536,9.591506829410054,39.66600067809745,150.07825971132422,-42.23720696502954,13.999406664729246,0.19198377485420903,0.28361228456456455,0.3332315489208563,-0.797326374824179
357.0,0.08490797248861767,0.1941184733120217,-0.24362007168458774,-5.916249636733507,-0.36293616196842005,6.19139397461978,-1.9073761261261257,-23.757689140753655,3.4067767364138355,123.2982296812942,-40.69132943427297,-2.1839853966870084,0.3952666896764506,0.22737337528576967,0.31295415686767414,-0.7475706107270174
358.0,0.0032604378572120493,0.09357623752785042,-0.1496260776905938,-4.282462220284801,0.602228518841422,7.782724014336917,-1.432573198198198,-11.578087159740384,0.35391692095321137,120.99477198973166,-28.183257350092024,-5.992276046207497,0.44994179875278495,0.11428118142666861,0.2327611523135232,-0.8031482069546159
359.0,-0.02419064225515839,-0.010392327811682638,-0.08893248086796474,-3.977509444928799,0.9682524459943811,8.425542962317152,-0.510268332848978,-4.547648454906518,-0.8383766831347476,121.37674367916304,-25.089835803545476,-7.216046691853143,0.4641103527462946,0.07190917534437663,0.21427703823694663,-0.8331701532655233
360.0,-0.03162501210888308,-0.03088927637314734,-0.05222609706480674,-3.861675385062482,1.159346604669185,8.737657657657657,-0.05852828635086689,-2.4970060786593042,-0.6465871113048531,121.65796946139687,-23.768024072459554,-7.906888743582292,0.4702255151327133,0.05099814250314832,0.20715950146420614,-0.8476158879027414
361.0,-0.02566816816816817,-0.03480674222609707,-0.036189092318124574,-3.7249082146662795,1.1723672866414796,8.941191029739416,0.62668616196842,-1.3818369781071393,-1.4061970236365395,122.93402323694662,-22.465229342245472,-7.62729463334302,0.46552679179768497,0.04058418490167587,0.19988155003317837,-0.8587227275753173
362.0,-0.28551777584035654,0.02458587619877942,0.09373341083018502,-3.71356969873099,1.099449772352998,8.996554296231714,-2.618164535503245,0.9818245665019858,-6.030859488520779,124.0929356776131,-22.255576140656785,-6.96250484355323,0.45863301626174563,0.03999345897413542,0.1980827085963383,-0.8651286714220672
363.0,0.06438147825244603,0.3468831734960767,0.04572023636539766,-4.372909522425651,-2.1979690981303874,7.599515160321612,2.3807608011237043,36.0354305918822,-45.02681814879396,166.7927625205851,-26.5909528480093,17.330539208563405,0.11847722247699316,0.13094424894216797,0.28000891688317353,-0.8592379123282959
364.0,0.11505909134941393,0.5804686137750654,0.2866918531434661,-4.798246391552842,-3.576578271820206,6.284862200910588,6.63373807275017,-19.89872432916788,18.247161980528915,187.31235772062385,-29.86124582243534,32.53051589896348,-0.02581201644676931,0.14070516502034291,0.34596064866826504,-0.8240448980778358
365.0,-0.14682529303497047,0.27830330330330333,0.12900004843553234,-4.553805095417998,-1.2788312506054433,7.511673931996514,4.2755103894216795,-6.58169863411799,11.91975594546159,155.19202115421874,-27.964701092221254,12.93301668604088,0.21864701834471562,0.10058374373777003,0.28511350087087084,-0.8393308902530756
366.0,-0.059752978785236846,0.15092947786496175,0.03714448319287031,-3.6362636830378765,-0.12077133585198052,8.4081635667926,1.437531785818076,-9.276292925990507,6.618648890826309,145.43470890245084,-22.052635801123706,3.284539075365688,0.2953118754296231,0.052224486288385163,0.21767482478664146,-0.8769162306739804
367.0,-0.11744357260486292,0.055433498014143184,-0.014667247893054345,-3.3255206819722947,0.3447253705318224,8.847102586457424,1.0866027317640221,-1.4873522716264653,1.6079628015111884,143.75181027801995,-19.986958732926475,-0.8445703768284412,0.30782883897897895,0.031326336411895764,0.18960338619877942,-0.905190490432045
368.0,-0.08831202169911848,0.0023374987891116913,-0.022194129613484454,-3.3819538893732446,0.7326547515257193,9.02500726532985,0.40320764312699797,-1.584837862055604,2.5551256902063355,144.22412331686525,-20.247511624527753,-4.042272110820498,0.30252547379637695,0.015252178637508475,0.18574639054925896,-0.924498187495883
369.0,-0.048296280151118864,-0.01851981013271336,-0.02377167490070716,-3.4258757144241017,0.9380947883367238,9.124056960185994,-0.10123934418289254,0.7589227332170881,0.1642297539474959,145.1659764603313,-20.466061827956988,-5.870870870870871,0.2933906869664825,0.006481519466482612,0.18440188580790468,-0.9365737976629855
370.0,-0.037275016952436305,-0.01723529981594498,-0.02816816816816817,-3.55620265426717,0.95096871064613,9.07615809357745,0.14336917562724016,0.785860457231425,0.22387508476218157,147.1154218734864,-21.27048823016565,-5.982871984888114,0.27741641562917757,0.004394910123994963,0.19157766637605345,-0.9409953756911751
371.0,-0.03397752591300978,-0.01566211372662986,-0.020335173883560983,-3.776209435241693,0.9974241983919403,8.983249055507121,0.5451479705511963,1.2616366366366367,-0.21813547418386126,148.0457776324712,-22.65769398430689,-6.339054780587038,0.2691545445626271,0.003823746879783009,0.20376076980528915,-0.9411026354916205
372.0,-0.024742322968129418,-0.014706480674222611,-0.018836094158674804,-3.8390986147437753,1.0353463140559915,8.954620265426716,0.12119175627240139,0.14987164583938783,0.0062602925506151305,148.60054611062674,-23.049979414898772,-6.592057783590041,0.26441151307178146,0.0019222029482708512,0.20759043174706965,-0.9417506941044271
