time,linaccel_x,linaccel_y,linaccel_z,gravity_x,gravity_y,gravity_z,gyro_x,gyro_y,gyro_z,euler_x,euler_y,euler_z,quaternion_w,quaternion_y,quaternion_x,quaternion_z
0.0,0.03384615384615386,-0.0013846153846153852,-0.06846153846153845,-0.1813846153846152,-0.13400000000000004,-9.799999999999999,-0.075,-0.18557692307692308,-0.2605769230769231,121.82019230769231,-1.0701923076923077,179.15,0.0015737649230769225,-0.48586238046153835,-0.8739614633846157,0.011716872153846154
1.0,0.03763621794871795,-0.00712820512820513,-0.0693830128205128,-0.1930657051282053,-0.1282083333333333,-9.799999999999999,-0.051041666666666666,-0.20313501602564102,-0.20404647435897436,121.6470953525641,-1.126262019230769,179.19388020833333,0.000989346120192307,-0.4872136523413457,-0.8731921563365383,0.012108494467948717
2.0,0.03836195054945056,-0.011715659340659346,-0.07071771978021976,-0.1990817307692307,-0.1235178571428572,-9.799999999999997,-0.06428571428571428,-0.18862036401098903,-0.165573489010989,121.51337568681319,-1.161255151098901,179.22594866071427,0.0005635140515109888,-0.48824223421772006,-0.8726208558406591,0.012304309057692302
3.0,0.037034518722018725,-0.011562545787545793,-0.07177408933658933,-0.1995714743589742,-0.12164166666666673,-9.799999999999997,-0.037936507936507935,-0.10230855082417584,-0.13705598799348798,121.41523669617419,-1.1752524038461538,179.23877604166665,0.0004190182610754985,-0.4889109845608618,-0.8722497287468043,0.012382634893589735
4.0,0.03889807617662716,-0.011588536723422263,-0.0712746634146868,-0.19979264888337453,-0.12079435483870976,-9.8,-0.02199841435013131,-0.0448215152270986,-0.09493343851922156,121.36221130460041,-1.181573743796526,179.24456905241937,0.00036026302955266055,-0.489247503497191,-0.8720626222968403,0.012418007851736962
5.0,0.04034233833645253,-0.010695012778584584,-0.07137678580163619,-0.20019657258064497,-0.12017137096774202,-9.8,-0.017729976405834888,-0.007010633544070393,-0.0680777614432336,121.32916706669226,-1.186428931451613,179.2488974294355,0.0003122604676299283,-0.48946493399921565,-0.8719414604486677,0.012446432439516118
6.0,0.037311346139552434,-0.012313712226465875,-0.07060898781889283,-0.20011592741935463,-0.1200000000000001,-9.8,-0.006186816799947653,0.055724223918569,-0.03581199420087948,121.31683277729775,-1.1875,179.25,0.00030239835125448026,-0.48954095718861973,-0.8718994917918736,0.012451169999999987
7.0,0.03740414444735423,-0.012935139759451871,-0.07078444003583456,-0.1999999999999998,-0.1200000000000001,-9.8,-0.02727972681615574,0.048179879509522475,0.007038435408814624,121.31304403481822,-1.1875,179.25,0.0003047736917562724,-0.48956083358422897,-0.8718884287916016,0.012451169999999989
8.0,0.035976463030590405,-0.012544475522998583,-0.07085636513304072,-0.1999999999999998,-0.1200000000000001,-9.8,0.0014071323865382304,0.03456956127021035,-0.004191439712093573,121.3125,-1.1875,179.25,0.00030517999999999995,-0.4895629899999996,-0.871887209999999,0.012451169999999989
9.0,0.03539718052674161,-0.011810739322373386,-0.07025388495986061,-0.1999999999999998,-0.1200000000000001,-9.8,0.009889960574122392,0.02117070675373161,0.00031062769858380664,121.3125,-1.1875,179.25,0.00030517999999999995,-0.4895629899999996,-0.8718872099999989,0.012451169999999987
10.0,0.03505342897304822,-0.012262689760442279,-0.06970758764122062,-0.1999999999999998,-0.1200000000000001,-9.8,0.04588790832676343,-0.009653480370032459,0.05353620714954004,121.3323511166253,-1.1875,179.25,0.00030517999999999995,-0.48952615617369716,-0.8719090177220841,0.012451169999999987
11.0,0.03616470731806533,-0.013247320302648179,-0.07106603140381564,-0.1999999999999998,-0.1200000000000001,-9.8,0.022375917809055037,-0.017155529227514947,0.04656937085587601,121.35468362282877,-1.1875,179.25,0.00030517999999999995,-0.48945006469975205,-0.8719611177320099,0.012451169999999987
12.0,0.03593237689509504,-0.015319155560198666,-0.07106456065968228,-0.19999999999999976,-0.1200000000000001,-9.799999999999999,0.06476711375285212,-0.02916221167559745,-0.00821770628399892,121.36584987593051,-1.1875,179.25,0.00030517999999999995,-0.48941201896277947,-0.8719871677369728,0.012451169999999987
13.0,0.03708570193247612,-0.016254236690728632,-0.07108093183698021,-0.1999999999999998,-0.1200000000000001,-9.799999999999999,0.05157809680239116,-0.010358802823520566,-0.051190423739566886,121.37143300248138,-1.1875,179.25,0.00030517999999999995,-0.48939890319106727,-0.8719942856426801,0.012451169999999987
14.0,0.03616976794138349,-0.016493929886876747,-0.07206850994281586,-0.1999999999999998,-0.1200000000000001,-9.8,0.04930246309580161,0.006328646578720944,-0.017710153947387883,121.37422456575682,-1.1875,179.25,0.00030517999999999995,-0.48941794272456585,-0.8719722471761795,0.012451169999999989
15.0,0.03610225369773891,-0.017677899600179486,-0.0713907479408041,-0.1999999999999998,-0.1200000000000001,-9.8,0.017465540894468216,0.004322305092503566,-0.0029721158487973354,121.375,-1.1875,179.25,0.00030518,-0.48942861354838707,-0.8719605464516139,0.012451169999999989
16.0,0.036402941364998484,-0.018448324800089747,-0.07130273284136979,-0.1999999999999998,-0.1200000000000001,-9.8,0.007740456939169592,-0.01010888273600628,-0.014701153690527699,121.375,-1.1875,179.25,0.00030518,-0.4894357512903225,-0.8719534087096785,0.012451169999999987
17.0,0.03601183236382867,-0.019268150669839598,-0.07273103406486867,-0.1999999999999998,-0.1200000000000001,-9.8,-0.0018115897122333862,0.006660490205799402,0.030910053653269876,121.375,-1.1875,179.25,0.00030517999999999995,-0.4894393201612902,-0.8719498398387109,0.012451169999999987
18.0,0.03490553939714438,-0.016551339679182098,-0.07219398907103823,-0.1999999999999998,-0.1200000000000001,-9.8,0.08837943989071038,0.012707259166225983,0.010060952097655562,121.375,-1.1875,179.25,0.00030517999999999995,-0.48944091999999995,-0.8719482400000013,0.012451169999999989
19.0,0.03630057005615573,-0.0161192144493969,-0.07326138223665984,-0.1999999999999998,-0.1200000000000001,-9.8,0.09669747388423022,-0.02165970425385913,-0.12783389612345022,121.33096518177163,-1.1875,179.25,0.00030517999999999995,-0.4897364380337945,-0.8717792298617524,0.012451169999999987
20.0,0.03660189793130368,-0.018484338407494156,-0.07089413197854497,-0.1999999999999998,-0.1200000000000001,-9.8,0.045509355221685005,0.0022581855074790356,-0.07221667924452083,121.28846646185356,-1.1875,179.25,0.00030517999999999995,-0.4900297061136718,-0.8716117194470057,0.012451169999999987
21.0,0.03762806590113571,-0.018531483719876115,-0.07091077566669184,-0.1999999999999998,-0.1200000000000001,-9.8,0.016233760272132823,0.0025309324714814533,-0.043779080549679765,121.26721710189452,-1.1875,179.25,0.00030517999999999995,-0.4901763401536105,-0.8715279642396323,0.012451169999999987
22.0,0.037513629724761424,-0.018862516053486447,-0.06877696041399106,-0.20040322580645142,-0.1200000000000001,-9.8,0.03798079142638899,-0.039403636586839916,-0.09210753422645278,121.24701580901177,-1.185483870967742,179.25,0.0003253604838709677,-0.49032053668970865,-0.8714472015553,0.012439849354838706
23.0,0.03877984538836572,-0.017135447973018105,-0.06883843000734655,-0.19982760635811112,-0.12112201963534369,-9.799999999999997,0.0030908065072686366,0.026751538185400388,0.28702689146018384,121.18571571189253,-1.1710641654978962,179.23924731182797,0.0004294055201028518,-0.49073173812512555,-0.8712183433489449,0.012319045871902759
24.0,0.04665413160355306,-0.012148369147799374,-0.06817036707740598,-0.2016833884325119,-0.129925065117211,-9.799999999999997,0.03859097417017297,0.0073273819959260005,0.016321305433112943,121.46191827581313,-1.179282082748948,179.18517665130565,0.000810568852217324,-0.4886356509534998,-0.8723918764670993,0.012565120691711746
25.0,0.045999076810481085,-0.008032909932322627,-0.06558507953204656,-0.20600298453883675,-0.13528511320376677,-9.799999999999997,0.004029010030554999,-0.008522588923952001,-0.012068641958302727,121.44607690544368,-1.215649105890603,179.1530721966206,0.0009043931357860818,-0.48870298129088174,-0.8723499464158337,0.012917673087791352
26.0,0.04572978199328919,-0.0049011142073035665,-0.06676208299711792,-0.2081627825919992,-0.13796513724704462,-9.799999999999999,-0.03849992807237454,-0.013282748884239352,0.048686230316459425,121.44481264627022,-1.2338326174614305,179.13701996927801,0.0009513052775704607,-0.4886486408067309,-0.8723774848208206,0.013093949285831154
27.0,0.04471008908932253,-0.0032056054267444608,-0.06687486510326966,-0.2092300808121288,-0.1393051492686836,-9.8,-0.015058945811020857,-0.012037719808223105,0.030597265423846713,121.44447978583672,-1.2429873772791025,179.12899385560678,0.0009741307083416823,-0.4886192555797765,-0.8723924691820842,0.013182441155012345
28.0,0.04540723545800224,0.001225621784056475,-0.06790638575831595,-0.20947521295908417,-0.14001829353442252,-9.799999999999999,-0.024715711164679962,0.09173816334379528,-0.15883753967109338,121.4664411976912,-1.245051319648094,179.12482806172324,0.0009983584996508875,-0.48847034487794966,-0.8724750600232745,0.013213102283061015
29.0,0.041304790749528975,0.007145138779194836,-0.06648761544583859,-0.18982404692082122,-0.15012707722385146,-9.799999999999997,0.027488185473378494,0.1325953594264012,-0.12321284538365448,121.30511916399013,-1.1224340175953078,179.06170576735093,0.0020125483479960893,-0.48979872813433856,-0.8717374057496627,0.01263511289345063
30.0,0.038875718085328415,0.0154304841170355,-0.06858499732024757,-0.18673917801024204,-0.15538611925708706,-9.799999999999997,-0.053662251120063856,0.05559203932833537,-0.2468113504340684,121.23574484615048,-1.0985906245896615,179.02883675464324,0.002307026085408734,-0.4903407815987509,-0.8714349752199415,0.012533165389912603
31.0,0.03465416250683463,0.017458566683410216,-0.07263669781243204,-0.18912548693482728,-0.15801564027370485,-9.799999999999997,0.02932820536335221,0.04589111070815452,0.013553714113415632,121.13537061758655,-1.0987055193242001,179.01240224828933,0.0023226144582074977,-0.49109837169971227,-0.8710194142180587,0.012637351503333765
32.0,0.02936753184225501,0.016504500955632405,-0.07168957266453654,-0.1851272595964458,-0.1557013685239493,-9.799999999999997,-0.03438703659123736,0.042810826731445414,-0.0210729253293649,121.12665708298682,-1.077578566113713,179.0268664467253,0.002280123035555362,-0.49115022367243677,-0.8709847167864491,0.012407424703279789
33.0,0.023100424704591706,0.015747047564184574,-0.07269331847996793,-0.18208953400154637,-0.15300953079178903,-9.8,-0.0025957981177736327,0.02923096991981724,-0.01946763836549915,121.08788865879546,-1.0671067317372083,179.04369043255133,0.0023107349546962956,-0.49135179918959115,-0.8708588851356489,0.012286964154843632
34.0,0.018302892511903566,0.013342090998412017,-0.07210175114261683,-0.1811865069812228,-0.15135080645161308,-9.8,-0.03801187915599753,0.03623779278164796,0.0012817770225610672,121.0735905903948,-1.065719788155994,179.05405745967744,0.0023045666953344637,-0.49141098696527485,-0.8708190588703661,0.012249040518282035
35.0,0.013005896091143075,0.00916128660138741,-0.07159948488207468,-0.1782183044146512,-0.15043470843672474,-9.8,-0.020854713697475824,0.20853939007624303,0.17121281177338193,121.0860909231371,-1.0489356875671272,179.05978307227045,0.0023644397840584777,-0.4913177803849005,-0.8708732926982103,0.012105755761381676
36.0,0.014555427583366434,0.0018892615000196565,-0.06969478336544754,-0.15079668229880372,-0.13503439803155454,-9.799999999999999,-0.2071353491453195,0.14897058574587307,0.28396942947840975,121.25556652560323,-0.8937655086848635,179.15555354865327,0.0023380386281871596,-0.4901111553537408,-0.8715768431305209,0.010435125263935897
37.0,0.01076919637700346,-0.0010177348413880208,-0.07080972805486027,-0.13604346591564778,-0.12070213502559496,-9.799999999999997,-0.08988461407417915,0.10940162534430167,-0.6416277081949933,121.28934774423277,-0.7953370554177006,179.24069584245134,0.0020197302735080265,-0.4899192129574849,-0.8716993976740584,0.00941811282390197
38.0,0.005397643174853507,-0.006430499476674348,-0.0727412738662152,-0.12593197138699647,-0.11702474680218514,-9.799999999999997,-0.14215549642314576,0.08147484598587898,-0.10345106209339464,121.19415669119071,-0.7292925342539649,179.26566991748558,0.0021114122342822516,-0.4906716223646705,-0.8712864453237052,0.00878469858288555
39.0,0.001346764934632051,-0.019923493976873645,-0.07164868934000831,-0.12282105815726636,-0.10157221444831088,-9.799999999999997,-0.09334593887827021,-0.11991055484257426,0.2406371288449327,121.1119655592466,-0.7159056172906102,179.35482829675124,0.0015090900395347674,-0.4913199319396985,-0.8709256550204314,0.008287071023560588
40.0,-0.0020098733954037173,-0.03258628828085634,-0.07037080956358399,-0.12385868201610907,-0.08442557180319293,-9.799999999999997,-0.14105139882437956,0.16127436469942724,-0.11290846524936113,121.14295046039777,-0.7183822899999341,179.4439962089774,0.0007832638999617009,-0.49107951334422445,-0.8710619558036488,0.007935126126920267
41.0,-0.005964231134608236,-0.03506504708902827,-0.07123331770982047,-0.10737301705596741,-0.0763918903792084,-9.799999999999997,-0.13139209689690695,0.03279082031822882,-0.10677675855806351,120.91231729917949,-0.6178666093205927,179.48395581957897,0.0008106584059706958,-0.49284916312109894,-0.8700686483470326,0.0070283256315580595
42.0,-0.02150478971410168,-0.042911205171442604,-0.06998786035093643,-0.09456074882718887,-0.07258584701288612,-9.799999999999997,-0.08010114428763067,0.15460251628347155,-0.5113418622149831,120.72523882724286,-0.5527680405181739,179.5098893169891,0.0009460426064449083,-0.4942552226124428,-0.8692728100991824,0.006352996782585947
43.0,-0.037099505931494636,-0.054750435245292835,-0.06961552355335232,-0.08446913771695228,-0.06321286960549974,-9.799999999999997,-0.10581195734305632,0.002924487798254785,-0.03806649802991266,120.5792578922948,-0.5074207196513263,179.5677342729378,0.0007413415526518197,-0.4953512437213135,-0.8686631969801248,0.005735480986238382
44.0,-0.049563076948917026,-0.07355216946930371,-0.07068550838724183,-0.0843862752633382,-0.05066908089905657,-9.799999999999997,-0.11769969068648842,-0.01219045596062016,0.03986547702524934,120.47915237999499,-0.5002624869878884,179.64685802005937,0.00015204689367046342,-0.49616239806682766,-0.8682094097722031,0.0053949068149985735
45.0,-0.05807837324653181,-0.08639444002770044,-0.07070047038323168,-0.08660476870845234,-0.044852941176470595,-9.8,-0.07148804010320181,0.008311102475543319,0.013619320369356468,120.44648498145591,-0.49641134344851034,179.70216310816687,-0.0002096179411702201,-0.49646465412655316,-0.868043425667564,0.0053136050749231865
46.0,-0.05485781960318921,-0.09819139250802275,-0.06936561228763809,-0.09184381604081918,-0.0357490512333966,-9.8,-0.1592098351504805,-0.010274340107442267,0.031013077734869977,120.43470763848343,-0.5221261732657245,179.75220193907478,-0.0007083992542530551,-0.4965452416726834,-0.8679977976689199,0.005290078688112019
47.0,-0.05180011129762077,-0.11492849832804765,-0.06672985446716469,-0.10135669062910531,-0.016745493358633783,-9.799999999999999,-0.17887337352321936,-0.02904118212393236,0.017875955332223123,120.50398016332774,-0.5756668734491315,2.552319678364796,-0.0018334654261405116,-0.4959394838787575,-0.8683367273201585,0.005072191584270212
48.0,-0.04806087158808932,-0.12730533075795175,-0.06942280199639067,-0.10623100186104228,-0.007473790322580649,-9.799999999999999,-0.13718633097413338,-0.07371473242819009,0.08307519303613053,120.55918291847601,-0.6320874689826302,-94.49182225284797,-0.0025264323335636154,-0.4955340239697392,-0.8685647928038172,0.005117322091945351
49.0,-0.04567154082476663,-0.13445155650800816,-0.07066678214258856,-0.10851116625310184,-0.0030967741935483883,-9.8,-0.10136376280529505,0.004176009921977662,0.0685970783249009,120.59572994210092,-0.6628179280397022,-143.01553688247236,-0.0028634647504511635,-0.49526669206047447,-0.8687161185012026,0.005153363644258963
50.0,-0.04445404998227578,-0.14033061696368154,-0.07008070289925127,-0.10957816377171227,-0.0009032258064516133,-9.8,-0.10664626312307762,0.01754499420830066,-0.007116111375183955,120.61590932588916,-0.6781831575682382,-167.27792973155877,-0.003029473665548164,-0.4951136760302372,-0.8688067937667301,0.005168707951161738
51.0,-0.04431883640552996,-0.14229930351906164,-0.06982819264069264,-0.11000000000000011,0.0,-9.8,-0.10937927300074476,0.023381678245589534,0.11468015771191174,120.65280577956989,-0.6851058467741935,-179.40982404692085,-0.0031029215350073334,-0.4947200812955159,-0.869034102863514,0.00517660731304985
52.0,-0.04477769777265744,-0.1429600134408603,-0.06820050883256527,-0.1100000000000001,0.0,-9.8,-0.05963831685227854,-0.002751976126472093,0.10881246399769584,120.67630208333334,-0.6873109879032259,-179.9375,-0.003112390085685486,-0.4944955676717073,-0.8691621179038977,0.005187220907258061
53.0,-0.04306498377186462,-0.14510245404092964,-0.06890099908329617,-0.11000000000000011,0.0,-9.8,-0.13231808126042646,-0.020266019605899938,0.18038228640181359,120.77785415040756,-0.6875,-179.9375,-0.0031417538293444323,-0.49372641173590914,-0.8696145950795185,0.0051879899999999965
54.0,-0.04292266085674644,-0.14545445282691644,-0.07062945499479706,-0.11000000000000011,0.0,-9.8,-0.08926451938085328,-0.014421284252514741,0.10540811708723552,120.8304593332683,-0.6875,-179.9375,-0.0031587764308012465,-0.49332021506150314,-0.8698550612494375,0.0051879899999999965
55.0,-0.04284993929934096,-0.1452322667360389,-0.07024164281997916,-0.11000000000000011,0.0,-9.8,-0.0514366951742976,-0.038964674384321885,0.054011392212972596,120.85668316965834,-0.6875,-179.9375,-0.003167287731529654,-0.49311783966280825,-0.8699747559775421,0.0051879899999999965
56.0,-0.04152362776706869,-0.14332723199308556,-0.06978993662680608,-0.1100000000000001,0.0,-9.8,0.009471728348202861,-0.057469637231822496,0.019586713094852243,120.86896028442594,-0.6875,-179.9375,-0.0031715433818938574,-0.49302657322858173,-0.8700289120008685,0.0051879899999999965
57.0,-0.0438391638661913,-0.14186228058204403,-0.06745402138312206,-0.11000000000000011,0.0,-9.8,0.03984740163507958,-0.03710934168216168,-0.009492651950666143,120.87486992715921,-0.6875,-179.9375,-0.003173671207075959,-0.49298242076482873,-0.8700551973257038,0.0051879899999999965
58.0,-0.044845477577513664,-0.14737329710518718,-0.06430825047155211,-0.11000000000000011,0.0,-9.8,0.013958931975559705,-0.03070512588955878,-0.024635340807766217,120.875,-0.6875,-179.9375,-0.003173829999999997,-0.4929809600000004,-0.8700561500000015,0.0051879899999999965
59.0,-0.04452129648106452,-0.14248426021512461,-0.06529002008689266,-0.11452605459057077,-0.0047642679900744426,-9.8,0.007239236459243873,-0.04255334225619378,-0.019769593480806185,120.88740694789081,-0.6969292803970224,-62.80151985111662,-0.0029232676178660025,-0.4929208630471467,-0.8700706901488839,0.005511733205955333
60.0,-0.03834431759537098,-0.11850019462369132,-0.06466365923699471,-0.12258560794044665,-0.021978908188585618,-9.8,0.07495593375381547,-0.05911059249906463,-0.15706221609524182,120.9053970223325,-0.7244727047146402,64.2524658808933,-0.002182734292803968,-0.4928923353138958,-0.8700732667679902,0.006338728054590568
61.0,-0.03236335152880419,-0.10271603644938712,-0.06296312939575165,-0.1266153846153846,-0.0321038235957591,-9.799999999999999,0.05158836621668307,-0.052331144365808775,-0.10040956341034385,120.77827280246635,-0.7382444168734491,127.77038616625309,-0.0016387156947890815,-0.49381154259340937,-0.8695411079147873,0.0068029254789081905
62.0,-0.03028629435081049,-0.09570257117434534,-0.06401866547431062,-0.12863027295285356,-0.03669707308820214,-9.799999999999999,0.06291822257044032,-0.03333333613071516,-0.06851053292585552,120.69760414316866,-0.7451302729528536,159.529346308933,-0.001366706395781638,-0.494341309361221,-0.8692315941186843,0.007035024191067002
63.0,-0.02882466279240474,-0.09208579659587723,-0.06378864661324338,-0.12963771712158803,-0.03899369783442366,-9.799999999999999,0.03993965403995646,-0.019850871854400078,-0.07676998740506805,120.6572698135198,-0.7485732009925559,175.40882638027296,-0.0012307017462779165,-0.49460619274512685,-0.8690768372206328,0.007151073547146407
64.0,-0.027999485120320675,-0.09103268799000225,-0.06483611234782902,-0.12999999999999992,-0.03999312683284459,-9.8,0.011524204028480041,-0.010130099719251457,-0.03552376846558166,120.6367149315738,-0.75,179.6880670362903,-0.001170529495967743,-0.4947405124668564,-0.8689990043919544,0.007198981250000005
65.0,-0.03057232320532164,-0.09114386415629144,-0.06614033439972095,-0.12999999999999995,-0.040029325513196504,-9.8,-0.027204757864792237,-0.014436899658012824,0.004982571412370459,120.62606915933529,-0.75,179.6875,-0.001159670000000001,-0.49480762480449697,-0.8689602346480945,0.007202150000000006
66.0,-0.030734503583260873,-0.09218201554306787,-0.06693654813075751,-0.12999999999999995,-0.04000000000000002,-9.8,-0.052785541200235805,0.00891457709031083,0.00020093492793122475,120.625,-0.75,179.6875,-0.001159670000000001,-0.4948120100000004,-0.8689575200000006,0.007202150000000006
67.0,-0.029822586779223496,-0.09261830305689372,-0.06870896885446062,-0.12999999999999995,-0.04000000000000002,-9.8,-0.043715971592673736,0.008722176882624399,-0.012919073478962427,120.625,-0.75,179.6875,-0.001159670000000001,-0.4948120100000004,-0.8689575200000006,0.007202150000000006
68.0,-0.027241042493554406,-0.0913014710368954,-0.06806672201043565,-0.12999999999999995,-0.04000000000000002,-9.8,-0.010337248469147926,-0.01959244458480147,0.015365860085915612,120.625,-0.75,179.6875,-0.001159670000000001,-0.4948120100000004,-0.8689575200000006,0.007202150000000006
69.0,-0.027942898499350128,-0.08991229838709677,-0.06981410379495055,-0.12999999999999995,-0.04000000000000002,-9.8,-0.02326649674809957,0.004132610640927174,-0.01969498355587065,120.625,-0.75,179.6875,-0.001159670000000001,-0.4948120100000004,-0.8689575200000006,0.007202150000000006
70.0,-0.029001691185158943,-0.09194959677419354,-0.0704337656071527,-0.12999999999999995,-0.04000000000000002,-9.8,-0.03284985623695301,-0.004155342865020284,0.13827498806077435,120.63608870967741,-0.75,179.6875,-0.001159670000000001,-0.4947485137903229,-0.8689949288709682,0.007202150000000006
71.0,-0.02864232547705249,-0.09270200824756944,-0.06881819265184548,-0.12999999999999992,-0.04000000000000002,-9.8,-0.02684930675411902,0.03763193479943877,0.033799557244803644,120.7273185483871,-0.75,179.6875,-0.001159670000000001,-0.4942101282515863,-0.8693227483064523,0.007202150000000006
72.0,-0.02778222424646276,-0.09212237349142424,-0.06866672881440197,-0.12999999999999995,-0.04000000000000002,-9.8,0.001928329213826305,0.04480363061016485,-0.0016201566534558391,120.77293346774192,-0.75,179.6875,-0.001159670000000001,-0.4939605339491418,-0.8694701556586019,0.007202150000000006
73.0,-0.029293215396302405,-0.09177582694422329,-0.06961510059216297,-0.12999999999999995,-0.04000000000000002,-9.8,-0.017269863909373427,0.010250637629711205,0.03924466979253633,120.79574092741936,-0.75,179.6875,-0.001159670000000001,-0.4938507364907,-0.8695288571841393,0.007202150000000006
74.0,-0.029830230526935328,-0.09349089113960542,-0.06897876617697479,-0.12999999999999995,-0.04000000000000002,-9.8,-0.07711352996957505,0.02283623692899952,-0.01430291324268965,120.78547127016128,-0.75,179.6875,-0.001159670000000001,-0.4939139721163177,-0.8694907753662628,0.007202150000000006
75.0,-0.031266376170395224,-0.09320544523928974,-0.06879737158663651,-0.12999999999999992,-0.04000000000000002,-9.8,-0.10766805695993295,0.03489099367933318,0.017815956866888916,120.73714717741936,-0.75,179.6875,-0.001159670000000001,-0.49420746821793693,-0.8693174870430098,0.007202150000000006
76.0,-0.03418241457995558,-0.09162912168623433,-0.06911593458248666,-0.12983614951356875,-0.041228878648233484,-9.8,0.0054133043329401,0.05100777597307211,-0.06269345651740879,120.68470582117254,-0.7494879672299027,179.6875,-0.0011601694162826433,-0.49457606085445427,-0.8690961731451605,0.007213150430107531
77.0,-0.03375756826543844,-0.09125116430812699,-0.07081355570860351,-0.12290796402014509,-0.03976706330100649,-9.799999999999999,0.004168477066547237,0.059353218522794855,0.46033823211607305,120.74812144693678,-0.714115673552361,179.69761073663938,-0.001154746092349314,-0.49406991674345696,-0.8693842143249475,0.0068827557711442795
78.0,-0.03349097839007477,-0.08890739711329779,-0.07076799728003731,-0.11192863638795267,-0.04821532888552631,-9.799999999999997,0.06900199819296876,-0.010473160323856028,0.07912781864577134,121.47570242853752,-0.6417352561310192,179.6437074420524,-0.0004848631982483897,-0.48852407039476986,-0.8724858356371281,0.0065685729224384945
79.0,-0.04611265730918129,-0.07730357448716997,-0.06977396452091196,-0.10548044722623434,-0.05443024508792446,-9.799999999999997,0.032192385960628296,-0.03955051471527789,0.1155886941398832,121.45892242821107,-0.5990934345171225,179.60108759199395,-5.846121947158944e-05,-0.48866949259805204,-0.8724305584986203,0.006475833798688228
80.0,-0.050639333169906105,-0.07129650107021315,-0.07244907801768657,-0.10225635264537519,-0.06269899351170416,-9.799999999999997,0.061950035066308536,-0.017524718367279757,0.06183168994916708,121.39579185926682,-0.6006013078292809,179.54851215827983,0.0003641044944825673,-0.48906800113773596,-0.8722346832815688,0.006575828901825507
81.0,-0.05408054728131763,-0.06741988391964318,-0.07091219901908394,-0.10064942568264656,-0.06679496526583671,-9.799999999999999,-0.010683648621479629,-0.016906880432999837,0.05435734523059993,121.36502662599797,-0.610800525906448,179.52123188559153,0.0005787954346452772,-0.48926081752739364,-0.872140652232183,0.006636630203600929
82.0,-0.05386888022371894,-0.06345740281224152,-0.07099105912009138,-0.10005990783410126,-0.06890783410138247,-9.8,0.029928253869786134,-0.009536733427862461,0.07583611504982472,121.35093913702784,-0.6169975186104217,179.50727578872738,0.0006859636224742993,-0.4893652820579784,-0.8720841939366666,0.006677527569301671
83.0,-0.05528645438270828,-0.06154756568440231,-0.06940180278733868,-0.0999999999999999,-0.06967741935483868,-9.8,-0.03549670255819449,0.018871443008084528,-0.014633692883887994,121.35031115837566,-0.621805210918114,179.50214019851114,0.0007186986153846148,-0.4895013857997639,-0.8719920585028955,0.006702632049627797
84.0,-0.056804517513934796,-0.05947601609282149,-0.06773564084776362,-0.0999999999999999,-0.0707940446650124,-9.8,0.01861951472586553,0.012475423737292884,0.1297954364364679,121.35744466107369,-0.6229218362282878,179.50303970223325,0.0007394779255583125,-0.48952515835893906,-0.8719846150008274,0.006718019255583131
85.0,-0.03998467633938498,-0.04739912112687866,-0.06878841595738056,-0.10597235023041472,-0.08462743707904993,-9.799999999999997,0.12822149079079523,-0.17265718355850704,-0.3582988432847791,121.35294468076725,-0.6380804679191776,179.4346685572492,0.00124278780716058,-0.4895228381748611,-0.8719601284405061,0.007228875181141436
86.0,-0.03964075628383641,-0.03790691168006465,-0.07043654668836768,-0.1133087557603687,-0.09279758950726685,-9.799999999999997,0.18247666312182442,-0.23399889652491107,-0.47807399127638456,121.03644442475087,-0.6637982984757178,179.3859447004608,0.0014761274172279326,-0.4919215431122445,-0.8706010527066051,0.007695435002481391
87.0,-0.04318364569873415,-0.028618231924163254,-0.06885047626670934,-0.1169769585253457,-0.10085288904643744,-9.799999999999999,0.18790101028004252,-0.22072153262970118,-0.3879353866736801,120.56690003544841,-0.6766572137539879,179.34619815668202,0.0017071764976958512,-0.49542968710836943,-0.8685886438652962,0.007976210138957813
88.0,-0.03961384851707433,-0.025212729922407348,-0.06814825318051122,-0.1188110599078342,-0.10607160581354136,-9.799999999999999,0.051427783685848195,-0.13102918586789555,-0.1850107329946039,120.32578872740163,-0.6830866713931231,179.3263248847926,0.0018498421198156667,-0.4972236240276501,-0.8675582858036162,0.008132591037220839
89.0,-0.04042735169790321,-0.025161796002586858,-0.06955239442024039,-0.11972811059907842,-0.10865615030131168,-9.8,0.004290394684515392,-0.09263177855789717,-0.05159795834873877,120.1996494465472,-0.6863479262672811,179.31629519673874,0.001920947744771356,-0.4981389406868417,-0.867041943775817,0.008210630049627785
90.0,-0.04233088518641477,-0.02637956839488715,-0.0702838651107019,-0.1200000000000001,-0.10952853598014897,-9.8,-0.029112121158913262,-0.05342002918980452,0.006458613180393782,120.14260986152244,-0.6875,179.31346153846152,0.00194089234243176,-0.4985453994977984,-0.8668176164754657,0.008233782799007439
91.0,-0.04407114978923716,-0.02610045417262969,-0.06849677126502837,-0.1200000000000001,-0.1099255583126552,-9.8,-0.0035991747233772246,-0.03418520069912062,0.001461316515755198,120.09921280917314,-0.6875,179.3125,0.0019514336823821324,-0.4989148180404623,-0.8666057840814057,0.008238750416873442
92.0,-0.044423912363601215,-0.02602417249574413,-0.0687260531263107,-0.1200000000000001,-0.11000000000000011,-9.8,-0.0013265724733511441,-0.009819027148567756,0.02548251930006122,120.11193580905307,-0.6875,179.3125,0.0019531299999999982,-0.4988807090673776,-0.8666202705593136,0.008239749999999994
93.0,-0.04615784019378721,-0.02846317872434795,-0.0668656496818546,-0.1200000000000001,-0.1100000000000001,-9.8,-0.036833469980894214,0.0189826384742669,0.020449556259702156,120.11846790452654,-0.6875,179.3125,0.0019531299999999982,-0.4988624884046565,-0.8666282407635282,0.008239749999999994
94.0,-0.04474253040719196,-0.02802485457429933,-0.0674044817556848,-0.1200000000000001,-0.1100000000000001,-9.8,-0.02465729937863564,0.0013468402961396096,0.0008779250396615552,120.12191280241936,-0.6875,179.3125,0.0019531299999999982,-0.4988527587600807,-0.866632273568549,0.008239749999999994
95.0,-0.04489374008461131,-0.03025647805393973,-0.06836379561078793,-0.1200000000000001,-0.11000000000000011,-9.8,-0.04019915471311475,-0.004978351401374933,0.002868232747223691,120.12345640120968,-0.6875,179.3125,0.0019531299999999982,-0.49884949760584685,-0.8666332579133071,0.008239749999999994
96.0,-0.04784513553129695,-0.030193763220518262,-0.06849497384226032,-0.1200000000000001,-0.11000000000000011,-9.8,0.009653576845311544,0.0014730778835419238,-0.057615162780254,120.125,-0.6875,179.3125,0.0019531299999999982,-0.49884033000000005,-0.8666381800000007,0.008239749999999994
97.0,-0.04642508792693879,-0.030914145528053105,-0.06668448288887209,-0.1200000000000001,-0.11000000000000011,-9.8,-0.05719814085023705,0.011016358140522263,0.009584230524545215,120.125,-0.6875,179.3125,0.0019531299999999982,-0.49884033000000005,-0.8666381800000007,0.008239749999999994
98.0,-0.047687689389170076,-0.03238198022039885,-0.06826027423132129,-0.1200000000000001,-0.11000000000000011,-9.8,-0.041538652656742,0.0012528247603721837,0.013616811190352986,120.125,-0.6875,179.3125,0.0019531299999999982,-0.49884033000000005,-0.8666381800000007,0.008239749999999994
99.0,-0.047364163614163596,-0.031071842731929894,-0.06884424849344203,-0.1200000000000001,-0.11000000000000011,-9.8,-0.039909331616578295,0.009840350874267368,0.012019069468584945,120.125,-0.6875,179.3125,0.0019531299999999982,-0.49884033000000005,-0.8666381800000007,0.008239749999999994
100.0,-0.04734753446056776,-0.03058136556471626,-0.06776727252975952,-0.1200000000000001,-0.11000000000000011,-9.8,-0.007610448359017556,0.024359967970952624,-0.010214003572159139,120.125,-0.6875,179.3125,0.0019531299999999982,-0.49884033000000005,-0.8666381800000007,0.008239749999999994
101.0,-0.04663285497255512,-0.031729075167339624,-0.06408383268400797,-0.1200000000000001,-0.1100000000000001,-9.8,-0.002105180950512615,0.014712080465880566,-0.020701967076972944,120.125,-0.6875,179.3125,0.0019531299999999982,-0.49884033000000005,-0.8666381800000007,0.008239749999999994
102.0,-0.046898633521657365,-0.03134060418096431,-0.06362620354283643,-0.1200000000000001,-0.11000000000000011,-9.8,-0.014206206500230292,-0.00025322095332402494,-0.013651581873554109,120.125,-0.6875,179.3125,0.0019531299999999982,-0.49884033000000005,-0.8666381800000007,0.008239749999999994
103.0,-0.046164228361324965,-0.03180088521703303,-0.06586528849598396,-0.1200000000000001,-0.11000000000000011,-9.8,-0.017580189168229288,0.0059389815673826524,-0.009590698660102117,120.125,-0.6875,179.3125,0.0019531299999999982,-0.49884033000000005,-0.8666381800000007,0.008239749999999994
104.0,-0.04821238713351608,-0.03034088925864059,-0.06810386012888528,-0.11516129032258064,-0.11000000000000011,-9.8,-0.021290094584114645,0.09543226994001887,0.037388273498733055,120.125,-0.670866935483871,179.3125,0.002026469274193548,-0.49884033000000005,-0.8666381800000007,0.00810684991935484
105.0,-0.052427428061249545,-0.03033169365893562,-0.06951358541683679,-0.10725806451612897,-0.11000000000000011,-9.8,-0.022267468546372435,0.06759585888524323,-0.0038433056469468346,120.125,-0.6469254032258065,179.3125,0.0021473067338709678,-0.49884033000000005,-0.8666381800000007,0.007889779959677426
106.0,-0.0545836241311007,-0.030040251906146825,-0.06934299048737133,-0.10330645161290314,-0.11000000000000011,-9.8,-0.008192168963826092,0.04833223668746561,0.0006398225863626476,120.125,-0.6349546370967742,179.3125,0.0022077254637096777,-0.49884033000000005,-0.8666381800000007,0.0077812449798387185
107.0,-0.05638826607979833,-0.03071915741068969,-0.06970135196344873,-0.10133064516129023,-0.11000000000000011,-9.8,0.0028270424691795664,0.0492076415967545,0.0033626152073732716,120.125,-0.628969254032258,179.3125,0.0022379348286290326,-0.49884033000000005,-0.8666381800000007,0.007726977489919365
108.0,-0.056625028309504104,-0.030322357861672398,-0.07151895752097363,-0.10034274193548376,-0.11000000000000011,-9.8,0.00329081061187916,0.018785356108944818,0.005855113188782544,120.125,-0.6259765625,179.3125,0.00225303951108871,-0.49884033000000005,-0.8666381800000007,0.007699843744959688
109.0,-0.056914704694946625,-0.032718502599551,-0.07050866270825945,-0.0999999999999999,-0.11000000000000011,-9.8,0.004103062596006145,0.015199049662255307,0.023109848261057938,120.125,-0.6111751152073732,179.3125,0.0022723020071684598,-0.49884033000000005,-0.8666381800000007,0.007662928269329242
110.0,-0.06121598797707667,-0.03238638903659066,-0.07047974393438101,-0.0999999999999999,-0.11000000000000011,-9.8,-0.0005741136663515696,0.012914818856099098,0.03758514391074874,120.125,-0.5858294930875576,179.3125,0.002296805519713263,-0.49884033000000005,-0.8666381800000007,0.007613675263696877
111.0,-0.06296868722675172,-0.03318082634211668,-0.0689870416322029,-0.0999999999999999,-0.11000000000000011,-9.8,0.006070050021662925,4.529520658552895e-05,0.023196069163811096,120.125,-0.5731566820276497,179.3125,0.0023090572759856647,-0.49884033000000005,-0.8666381800000007,0.0075890487608806945
112.0,-0.06184678404033241,-0.03304273504273506,-0.06777557209815274,-0.0999999999999999,-0.11000000000000011,-9.8,0.005393575958092088,0.011535999842451454,0.005360589231556973,120.125,-0.5668202764976957,179.3125,0.0023151831541218656,-0.49884033000000005,-0.8666381800000007,0.007576735509472604
113.0,-0.06315713497971562,-0.03119878687620625,-0.06819142148174404,-0.0999999999999999,-0.11000000000000011,-9.8,0.010713301035881681,-0.006152763007601718,0.0020482541651896486,120.125,-0.5636520737327189,179.3125,0.002318246093189966,-0.49884033000000005,-0.8666381800000007,0.007570578883768558
114.0,-0.06416815353105673,-0.0313934774902517,-0.06926220016542595,-0.0999999999999999,-0.11000000000000011,-9.8,-0.008106857300405688,-0.0038446768285477963,0.009781364468864469,120.125,-0.5625,179.3125,0.002319340000000002,-0.49884033000000005,-0.8666381800000007,0.007568359999999997
115.0,-0.06363821438418212,-0.030336779707747466,-0.06872247823860725,-0.0999999999999999,-0.11000000000000011,-9.8,-0.005496474851313562,-0.011325032494387334,0.004611772076489819,120.125,-0.5625,179.3125,0.002319340000000002,-0.49884033000000005,-0.8666381800000007,0.007568359999999997
116.0,-0.06289410029934223,-0.02986057938477295,-0.068499763677183,-0.0999999999999999,-0.11000000000000011,-9.8,0.02265178817598172,0.004252210603017054,-0.0060262164470833825,120.125,-0.5625,179.3125,0.002319340000000002,-0.49884033000000005,-0.8666381800000007,0.007568359999999997
117.0,-0.06386105191851159,-0.029727804006029833,-0.06985105485911935,-0.09999999999999988,-0.11000000000000011,-9.799999999999999,0.001959476455444196,0.005652149150133021,0.024060624495352317,120.125,-0.5625,179.3125,0.002319340000000002,-0.49884033000000005,-0.8666381800000007,0.007568359999999997
118.0,-0.06400640219995057,-0.028524106717655123,-0.0685164083228599,-0.0999999999999999,-0.11000000000000011,-9.799999999999999,-0.004235057057637703,0.01263337916563723,0.014031174918271692,120.125,-0.5625,179.3125,0.002319340000000002,-0.49884033000000005,-0.8666381800000007,0.007568359999999997
119.0,-0.06350548237749068,-0.029318004691573907,-0.0681710353468938,-0.0999999999999999,-0.11000000000000011,-9.8,0.004024410957293371,-0.005634503085075404,-4.2865274394930826e-05,120.125,-0.5625,179.3125,0.002319340000000002,-0.49884033000000005,-0.8666381800000007,0.007568359999999997
120.0,-0.06328322365575226,-0.031167682127099416,-0.06786498020421015,-0.0999999999999999,-0.11000000000000011,-9.8,-0.009906492801914238,-0.015016225825278895,0.015571307233638138,120.125,-0.5625,179.3125,0.002319340000000002,-0.49884033000000005,-0.8666381800000007,0.007568359999999997
121.0,-0.0635114767299991,-0.030432712622098696,-0.06697554024192941,-0.0999999999999999,-0.11000000000000011,-9.8,0.0006983152989916783,-0.00086424155102615,0.02293000747085034,120.125,-0.5625,179.3125,0.002319340000000002,-0.49884033000000005,-0.8666381800000007,0.007568359999999997
122.0,-0.062394620987753134,-0.02958600816457218,-0.06910589930361,-0.0999999999999999,-0.11000000000000011,-9.8,0.01056491635315777,0.004408468742495798,0.004173337068758504,120.125,-0.5625,179.3125,0.002319340000000002,-0.49884033000000005,-0.8666381800000007,0.007568359999999997
123.0,-0.06201740974945968,-0.028706155447050366,-0.06588793724485711,-0.0999999999999999,-0.11000000000000011,-9.8,0.0029173837348915395,-0.0001065596734171133,0.044867375730409026,120.12953629032258,-0.5625,179.3125,0.002319340000000002,-0.4988093204032259,-0.8666593454838716,0.007568359999999997
124.0,-0.0636590290562715,-0.029191667333706893,-0.06678672056351555,-0.0999999999999999,-0.11000000000000011,-9.8,0.01616817918034099,-0.0016644320819659008,0.024133889978387897,120.15952620967741,-0.5625,179.3125,0.002319340000000002,-0.49863581358871,-0.8667747704838714,0.007568359999999997
125.0,-0.06320936724565755,-0.02931079404466503,-0.06668548387096773,-0.0999999999999999,-0.11000000000000011,-9.8,0.00399154776674938,-0.007389888337468982,0.012571727667493796,120.17452116935483,-0.5625,179.3125,0.002319340000000002,-0.49854906018145206,-0.8668324829838714,0.007568359999999997
126.0,-0.06318363513726415,-0.029824210287919983,-0.06701204754027332,-0.0999999999999999,-0.11000000000000011,-9.8,-0.02892780522568829,0.009912819035802906,0.03244630733290007,120.18201864919354,-0.5625,179.3125,0.002319340000000002,-0.49850568347782315,-0.8668613392338713,0.007568359999999997
127.0,-0.0619727108688802,-0.03049647238961757,-0.06929262426641458,-0.0999999999999999,-0.11000000000000011,-9.8,-0.009229721471404937,0.011353742024104926,0.0048320246341919705,120.1857673891129,-0.5625,179.3125,0.002319340000000002,-0.4984839951260087,-0.8668757673588714,0.007568359999999997
128.0,-0.06453183465280238,-0.030918754184883233,-0.07127092441608571,-0.0999999999999999,-0.11000000000000011,-9.8,-0.016446775670565992,0.011198932116270825,0.0010771766316121142,120.1875,-0.5625,179.3125,0.002319340000000002,-0.4984741200000006,-0.8668823200000004,0.007568359999999997
129.0,-0.06476219524203394,-0.03167401729095279,-0.07099526369687659,-0.0999999999999999,-0.11000000000000011,-9.8,-0.03187413225215645,-0.022564305654023398,0.01712512677734452,120.1875,-0.5625,179.3125,0.002319340000000002,-0.49847412000000063,-0.8668823200000004,0.007568359999999997
130.0,-0.06405686271613689,-0.03190948097601325,-0.07006067095986451,-0.0999999999999999,-0.11000000000000011,-9.8,-0.028598307214738668,-0.023353817721257233,0.03259708621351766,120.1875,-0.5630120327700973,179.3125,0.002319340000000002,-0.4984681197132623,-0.8668853202662573,0.007569359979518686
131.0,-0.05856283602150536,-0.03253770949033047,-0.06999445379888927,-0.0999999999999999,-0.10507692307692307,-9.8,-0.10068400531480168,-0.06769206306126668,0.11472207298190162,120.21975806451613,-0.5950140809011777,179.34227667493798,0.002108516933002482,-0.49808340237772314,-0.8671004591802758,0.00748113679372957
132.0,-0.048866832092638535,-0.03180704488164167,-0.06957500295403518,-0.10508188585607942,-0.09729528535980145,-9.8,-0.11602394860963408,-0.1660607201937847,-0.14178041240793257,120.15846774193548,-0.6110151049667178,179.35964640198512,0.0017452739354838717,-0.4984818278687623,-0.8668615069102377,0.007464167473787865
133.0,-0.0475475599669148,-0.035803026162905205,-0.07030487120406471,-0.10770223325062041,-0.09332506203473939,-9.8,-0.06167202393260861,-0.14066063304974594,-0.20949907717170824,120.04395161290321,-0.619015616999488,179.3683312655087,0.0015597753548387103,-0.4993762751440588,-0.8663383508744736,0.007484759220764898
134.0,-0.04541868525739494,-0.034993766985702474,-0.07047005592973332,-0.10901240694789091,-0.09158572610185506,-9.8,-0.01833471188309898,-0.10631461952026469,-0.10424525631178858,119.98669354838708,-0.623015873015873,179.3803541888219,0.0014595253988735279,-0.49987076078759557,-0.8660433005985275,0.0074915555755642235
135.0,-0.04433588732457292,-0.027379345224133392,-0.07009632058013134,-0.10966749379652617,-0.10063879468308937,-9.799999999999999,0.06393368073375294,-0.09321623174009427,-0.09765079568995974,119.92628791526238,-0.625,179.3180207390908,0.0018753271240877036,-0.5004134329870146,-0.8657475780142228,0.007773478969813581
136.0,-0.04493593373672814,-0.019930367401148584,-0.07093773845383738,-0.10999503722084379,-0.10547324349539089,-9.799999999999999,0.021591530193179203,-0.08670582058468734,-0.021181167075749102,119.86233750601829,-0.625,179.28207178393745,0.0021039217828875256,-0.5009620840356908,-0.8654295704885002,0.00792567631865369
137.0,-0.04530083327355097,-0.01579068598185181,-0.07006504308427881,-0.11000000000000013,-0.10805672100327864,-9.8,-0.0006846639436729456,-0.024659441950071997,-0.025167746749272937,119.83278165623494,-0.625,179.26401976293647,0.0022262763455380566,-0.5012238542486143,-0.8652779498844481,0.008000926797043968
138.0,-0.04528146502387226,-0.01451580670060333,-0.0702568158969781,-0.11000000000000011,-0.10935094114680066,-9.8,0.0023038373830022367,-0.0034776544427779334,0.02249362158504095,119.82062469908522,-0.625,179.25499375243595,0.0022875747856722552,-0.5013330132760205,-0.8652147545793203,0.008037643398521985
139.0,-0.045349959036762075,-0.015874536008821664,-0.06880858616646215,-0.11000000000000013,-0.10999037072701023,-9.799999999999999,0.008968777179399569,-0.002994071736142388,-0.006599346286905743,119.81358329321135,-0.625,179.25024073182476,0.002318458401540686,-0.5013875263479473,-0.8651837327181622,0.00805611105922003
140.0,-0.04697963490151498,-0.016902602621647236,-0.06885327645421732,-0.11000000000000013,-0.11000000000000013,-9.799999999999999,-0.0007651855001487395,-0.01164758584770158,-0.023240369784318024,119.77976047183438,-0.625,179.25,0.002319340000000002,-0.5015296691366784,-0.8651103163735252,0.008056640000000002
141.0,-0.04646108761204781,-0.016787994859210717,-0.06738278742065704,-0.11000000000000013,-0.11000000000000013,-9.799999999999999,-0.01963032460491308,0.0030440246164717914,-0.05794389960990095,119.76387217140106,-0.625,179.25,0.002319340000000002,-0.5015929318944479,-0.8650787166393838,0.008056640000000002
142.0,-0.04433316127180474,-0.015501497629717427,-0.06918082779341503,-0.11000000000000011,-0.11000000000000011,-9.8,0.0015256885740342948,0.025880653147105664,-0.07100148634541313,119.75592802118439,-0.625,179.25,0.002319340000000002,-0.5016243786891592,-0.8650596316546796,0.008056640000000002
143.0,-0.04533647827858227,-0.015464380948853756,-0.06855059534832043,-0.11000000000000011,-0.11000000000000011,-9.8,0.008128257981185882,0.0037868099792600276,0.023588073126921225,119.75195594607607,-0.625,179.25,0.002319340000000002,-0.5016371941361426,-0.8650248853906146,0.008056640000000002
144.0,-0.04471163200598684,-0.01588401965418095,-0.0686608201386427,-0.11000000000000011,-0.11000000000000011,-9.8,-0.02537751646874631,-0.018000644348930638,-0.046021006882902046,119.73822324628776,-0.625,179.25,0.002319340000000002,-0.5017619727878211,-0.8649536180808219,0.008052140092165901
145.0,-0.042301264819409976,-0.01543458535192407,-0.06910200406672179,-0.11000000000000011,-0.11000000000000011,-9.8,-0.040757508480542756,-0.025028671065717434,-0.005446548579109062,119.74411162314388,-0.625,179.25,0.002319340000000002,-0.50176798041128,-0.8649394401694429,0.008054390046082952
146.0,-0.04367521367521367,-0.016581669226830527,-0.06826413013509786,-0.11000000000000011,-0.11000000000000011,-9.8,-0.022742132419551774,-0.04798633266375201,0.16593997400449015,119.75698136988458,-0.625,179.25,0.002319340000000002,-0.5016803400741263,-0.8649900240276494,0.008055515023041478
147.0,-0.044420733388475325,-0.016797038087360678,-0.06919658119658118,-0.11000000000000011,-0.11000000000000011,-9.8,0.00714630351727126,-0.0485899405254244,0.05998611603450314,119.78773386112096,-0.625,179.25,0.002293651702233252,-0.5013423405705619,-0.8651835962743708,0.00805607751152074
148.0,-0.046614518098389054,-0.01871873646067195,-0.06864744574421994,-0.11000000000000011,-0.11000000000000011,-9.8,0.008972881956752924,-0.001998404820985466,0.05320611288353224,119.8011249950766,-0.625,179.25,0.0022749913349875937,-0.5011802168038914,-0.8652758390379298,0.00805635875576037
149.0,-0.04594422781519555,-0.020483280160699526,-0.06909842845326715,-0.11000000000000011,-0.11000000000000011,-9.8,0.012054925361376975,-0.023416637126314546,0.010506026231832687,119.80818858560794,-0.625,179.25,0.002265661151364765,-0.5010954544516129,-0.8653236450719604,0.008056640000000002
150.0,-0.04667923116310212,-0.020240359998424523,-0.06987947536334632,-0.11000000000000011,-0.11000000000000011,-9.8,0.0008591319075190035,-0.01573257611564063,0.008757237386269646,119.81135235732009,-0.625,179.25,0.0022609960595533505,-0.501054714,-0.8653469386650124,0.008056640000000002
151.0,-0.04808603357562774,-0.019741167752354027,-0.07123062057609401,-0.11000000000000011,-0.11000000000000011,-9.8,0.005205240331410987,-0.0202927468747578,-0.008131887190159823,119.81262406947891,-0.625,179.25,0.0022586635136476437,-0.5010371759305211,-0.8653567831861042,0.008056640000000002
152.0,-0.04629203623870637,-0.019420731959103456,-0.07094581537089338,-0.11000000000000011,-0.11000000000000011,-9.8,0.007736495135688684,-0.00992224792709314,-0.03660466527922303,119.81197970863684,-0.625,179.25,0.0022583000000000004,-0.5010462375026015,-0.8653528932049948,0.008056640000000002
153.0,-0.0471987574946732,-0.02067042742348415,-0.07026169416778155,-0.11000000000000011,-0.11000000000000011,-9.8,0.027381752432155657,-0.02329029703062286,-0.058400898947855245,119.77998178980229,-0.625,179.25,0.0022583000000000004,-0.5013963130254943,-0.8651622096670128,0.008056640000000002
154.0,-0.04613650112316865,-0.023333165580661692,-0.07144933146689127,-0.11000000000000011,-0.11000000000000011,-9.8,0.012458797363031234,0.0049479134406537496,0.026659125538873195,119.763982830385,-0.625,179.25,0.0022583000000000004,-0.5015319758675856,-0.8651018175754422,0.008056640000000002
155.0,-0.045274903787390776,-0.020636844887105044,-0.07011243455064994,-0.1100000000000001,-0.1100000000000001,-9.8,0.013945292498719918,-0.006524069153329039,0.03632183427481294,119.75598335067639,-0.625,179.25,0.0022583000000000004,-0.5015998072886313,-0.8650716215296569,0.008056640000000002
156.0,-0.04147123159721461,-0.01982376182704991,-0.06976336147279685,-0.1100000000000001,-0.1100000000000001,-9.8,0.0020669277355167973,-0.010771608790683385,0.032666704312650834,119.75198361082207,-0.625,179.25,0.0022583000000000004,-0.5015820803973561,-0.8650818262672082,0.008056640000000002
157.0,-0.041146645975506366,-0.017588779977000507,-0.06737127490913516,-0.11000000000000011,-0.11000000000000011,-9.8,-0.007209902417361268,-0.007889706580565418,0.03551909617297474,119.75,-0.625,179.25,0.0022583000000000004,-0.5015615857605923,-0.8650932363802222,0.008056640000000002
158.0,-0.04181324234259189,-0.017231889988500254,-0.06667706890618047,-0.11000000000000011,-0.11000000000000011,-9.8,-0.03307508729739031,-0.011962116395121418,0.05679054607035834,119.75,-0.625,179.25,0.0022583000000000004,-0.5015277357205177,-0.8651102595610787,0.008056640000000002
159.0,-0.0424632007923917,-0.016309237364961857,-0.06903489902042255,-0.11000000000000011,-0.11000000000000011,-9.8,0.003975769203327373,0.00017933606767226492,-0.012759360861390213,119.75,-0.625,179.25,0.0022583000000000004,-0.5014618351183231,-0.8651437686515064,0.008056640000000002
160.0,-0.043659019751034554,-0.016654618682480936,-0.0686491699403188,-0.11000000000000011,-0.11000000000000011,-9.8,0.020401863096287345,0.0013833508295350572,-0.03431986860273812,119.75,-0.625,179.25,0.0022583000000000004,-0.5014288848172258,-0.8651605231967204,0.008056640000000002
161.0,-0.04363543266769072,-0.017214141705069137,-0.06731638824884792,-0.11000000000000011,-0.11000000000000011,-9.8,-0.012331789234511009,0.010012140777009727,0.035317260304659495,119.75453629032258,-0.625,179.25,0.0022583000000000004,-0.5014140234979834,-0.8651681097580635,0.008056640000000002
162.0,-0.044763991452830026,-0.018257098946135843,-0.06831326254060585,-0.1100000000000001,-0.1100000000000001,-9.8,0.0014896117285932526,0.035756427755638656,-0.053241563197749565,119.7538546073506,-0.625,179.25,0.0022583000000000004,-0.5014069478780236,-0.8651717093951602,0.008056640000000002
163.0,-0.04225590636637339,-0.01692877384871829,-0.06855366235771188,-0.11000000000000011,-0.11000000000000011,-9.8,-0.02541253756052127,0.06497220369961954,-0.017916571303609435,119.77586070638083,-0.625,179.25,0.0022583000000000004,-0.5013138769302807,-0.8652190686992716,0.008056640000000002
164.0,-0.04067972757367077,-0.01488090588926521,-0.06845974503918914,-0.11000000000000011,-0.11000000000000011,-9.8,-0.028234647211864874,0.024337641886833676,0.010139798164021033,119.79518841770653,-0.625,179.25,0.0022583000000000004,-0.5012328357232048,-0.8652592082206041,0.008056640000000002
165.0,-0.0423917951104401,-0.013965550550879408,-0.06958529526665037,-0.11000000000000011,-0.11000000000000011,-9.8,-0.01265197982393039,0.016233581088066093,0.021281436620412972,119.80485227336939,-0.625,179.25,0.0022583000000000004,-0.5011923151196669,-0.8652792779812704,0.008056640000000002
166.0,-0.04243077658747811,-0.014953541404471967,-0.06830726456880906,-0.1100000000000001,-0.1100000000000001,-9.8,-0.01852042035551358,0.006220369173065306,-0.025421739687105344,119.80954244212825,-0.625,179.25,0.0022583000000000004,-0.501172054817898,-0.8652893128616035,0.008056640000000002
167.0,-0.04620348982731917,-0.01773192670435127,-0.06916685280264884,-0.11000000000000011,-0.11000000000000011,-9.8,-0.006971407956709726,-0.010953141695857616,0.044426557443596984,119.81197970863684,-0.625,179.25,0.0022583000000000004,-0.501100397408949,-0.8653263244953175,0.008056640000000002
168.0,-0.04572469376501635,-0.01917441608570642,-0.06952483358934972,-0.11000000000000011,-0.11000000000000011,-9.8,0.012744384871401001,-0.018850560282011895,0.06111031105990783,119.8125,-0.625,179.25,0.0022583000000000004,-0.5010028986290324,-0.8653744109677417,0.008056640000000002
169.0,-0.04566021209972823,-0.021012155854897803,-0.07109803458190553,-0.11000000000000011,-0.11000000000000011,-9.8,-0.013131825052187955,0.01744856286186931,-0.007381549342234832,119.8125,-0.625,179.25,0.0022583000000000004,-0.5009552765725809,-0.8653979143548383,0.008056640000000002
170.0,-0.04595862627515854,-0.020780015459450955,-0.06996529993304186,-0.11000000000000011,-0.11000000000000011,-9.8,-0.0066299166223561376,0.010132371548702192,-0.010315198634251056,119.8125,-0.625,179.25,0.0022583000000000004,-0.5009314655443551,-0.8654096660483865,0.008056640000000002
171.0,-0.04571814688447752,-0.019104647928236646,-0.06947520579778643,-0.11000000000000011,-0.11000000000000011,-9.8,-0.03219212952705896,-0.006297803059395804,0.01725761987228721,119.83334367245656,-0.625,179.25,0.0022583000000000004,-0.5009195600302421,-0.8654358986594297,0.008056640000000002
172.0,-0.045323254100620575,-0.0202216540143563,-0.06973760289889322,-0.1100000000000001,-0.1100000000000001,-9.8,-0.0415582148329372,-0.000624092400930054,-0.0026068230787955815,119.85517990074442,-0.625,179.25,0.0022583000000000004,-0.5009155300000002,-0.865459162898264,0.008056640000000002
173.0,-0.04627866592541367,-0.018813060257798504,-0.06746268068848713,-0.1100000000000001,-0.1100000000000001,-9.8,-0.024485683098850734,0.035006398795399324,-0.007904941729637658,119.86609801488834,-0.625,179.25,0.0022583000000000004,-0.5009155300000002,-0.8654698259652617,0.008056640000000002
174.0,-0.0461654466339818,-0.018955941291213647,-0.06918192918192917,-0.11000000000000011,-0.11000000000000011,-9.8,0.009886574733216719,-0.002274066347308021,-0.019169444751147555,119.8715570719603,-0.625,179.25,0.0022583000000000004,-0.5009155300000002,-0.8654751574987606,0.008056640000000002
175.0,-0.0456864099529356,-0.020619803722923775,-0.0678884556303911,-0.11000000000000011,-0.11000000000000011,-9.8,0.004943287366608359,-0.0011850362458506302,-0.004272382385814432,119.87428660049628,-0.625,179.25,0.0022583000000000004,-0.5009155300000002,-0.86547782326551,0.008056640000000002
176.0,-0.047671870934166014,-0.021499038889308597,-0.06863389656938043,-0.11000000000000011,-0.11000000000000011,-9.8,-0.00019757330042893253,0.01870939412253532,0.026382803253506587,119.875,-0.625,179.25,0.0022583000000000004,-0.5009155300000002,-0.8654785200000015,0.008056640000000002
177.0,-0.047850230414746536,-0.022039170506912453,-0.07070967741935481,-0.11000000000000011,-0.11000000000000011,-9.8,0.007350870455709165,0.020553315412186378,0.009392601126472094,119.875,-0.625,179.25,0.0022583000000000004,-0.5009155300000002,-0.8654785200000015,0.008056640000000002
178.0,-0.047700342668084594,-0.021298121233605118,-0.07074772539288667,-0.11000000000000011,-0.11000000000000011,-9.8,-0.016571152861475442,0.005214364488558037,0.08724644531096143,119.875,-0.625,179.25,0.0022583000000000004,-0.5008811199156331,-0.8654940284863533,0.008056640000000002
179.0,-0.04766547615871237,-0.021494327617116393,-0.0703585017133404,-0.11000000000000011,-0.11000000000000011,-9.8,0.02173957098514851,0.011003590582154579,0.027485931804350116,119.875,-0.625,179.25,0.0022583000000000004,-0.5007723172158813,-0.8655492781141443,0.008056640000000002
180.0,-0.048565456973365395,-0.022775837643683648,-0.06894269171688525,-0.1100000000000001,-0.1100000000000001,-9.8,0.04097731237429468,0.010878139377098795,-0.005771883048157759,119.875,-0.625,179.25,0.0022583000000000004,-0.5007179158660056,-0.8655769029280397,0.008056640000000002
181.0,-0.04794053304771306,-0.020399222929920132,-0.07114908031037062,-0.11000000000000011,-0.11031761786600507,-9.8,0.04293316955908007,-0.01202641733338924,-0.04945556813402807,119.86805210918114,-0.6259925558312655,179.2544665012407,0.0022490920198511176,-0.5007488721339955,-0.8655582435136476,0.008058094292803972
182.0,-0.04955095823358048,-0.014293546204056094,-0.0712348296864426,-0.11000000000000011,-0.1251734716896008,-9.799999999999999,0.0740444952203537,-0.02053922924110229,-0.0524590134111466,119.82313895781638,-0.6411365516204226,179.18673960448155,0.002831232666817055,-0.5011147627092267,-0.8653446424019845,0.008445892659598463
183.0,-0.049576967950537135,-0.006975557221134747,-0.07211617414843219,-0.11000000000000011,-0.13823189713512307,-9.799999999999999,0.06991616820571035,0.006727903989870693,-0.06652106998100754,119.82425558312656,-0.6330682758102113,179.12159560869236,0.0033085677428378096,-0.5011005480221074,-0.8653471211761785,0.008739789922851342
184.0,-0.04482502443792766,3.6995262801714154e-05,-0.07113749154071733,-0.11000000000000011,-0.1447611098578842,-9.8,0.05335363561170012,-0.013753383713061134,0.11118035190615835,119.88933002481389,-0.6290341379051057,179.08902361079782,0.0035709848391608395,-0.5005704634626665,-0.865641056540942,0.008902245929167607
185.0,-0.04581036168132942,0.0013733363410782763,-0.06754455222197156,-0.11000000000000011,-0.1480257162192648,-9.8,0.06303434468757049,0.016140781261749004,0.08643695014662756,119.91643920595533,-0.6270170689525527,179.07273761185053,0.003702193387322354,-0.5003305178603654,-0.865768486657568,0.00898347393232574
186.0,-0.044560267689299944,0.0042052785923753664,-0.06896210241371531,-0.11459677419354848,-0.14521260997067453,-9.8,-0.0044629765395894395,-0.030716830212797953,-0.0884192420482743,119.97607785359801,-0.6552113880742912,179.0926808406647,0.0035756260559440564,-0.4999488344289422,-0.8659966344441683,0.009076710309835326
187.0,-0.04401640918914592,0.006237773152965661,-0.07070775634355236,-0.11745967741935492,-0.1493639438085329,-9.8,-0.05434931061394381,-0.07839102397342511,-0.01108095533498759,119.94630180401023,-0.671875,179.06724765868887,0.00372050759849516,-0.5000915634430682,-0.8659157588766109,0.009250626635856074
188.0,-0.043918874569759056,0.0066970503481949915,-0.06998911390378611,-0.11889112903225815,-0.14968197190426658,-9.8,-0.0038651019570959746,-0.04865580975346193,0.054198976426799,119.94368440076443,-0.680695564516129,179.06487382934444,0.00375308597294485,-0.5002488960391521,-0.8658251464110107,0.009299910181451605
189.0,-0.044777055150884496,0.006475076042583849,-0.07047594653005682,-0.11960685483870978,-0.14984098595213335,-9.8,0.013087610311774594,-0.05152238378491955,0.023106001861042183,119.94035957010925,-0.6851058467741935,179.06368691467222,0.003768632986472424,-0.5003439948260279,-0.865770647046697,0.009324067348790314
190.0,-0.045191272112382934,0.005871187865204516,-0.06991750630352997,-0.11996471774193557,-0.1499204929760668,-9.8,0.007979687374929961,-0.004633501010565918,0.0017629872728728083,119.93886678102237,-0.6873109879032259,179.0630934573361,0.0037764064932362114,-0.5003907599482964,-0.86574400791347,0.009336145932459669
191.0,-0.044704604578564,0.007663091331145445,-0.06911872648683262,-0.1200000000000001,-0.15009885535900125,-9.8,-0.007914869827103177,-4.758914992395824e-05,-0.00016315386616505296,119.93668704474504,-0.6875,179.06191467221646,0.0037863076014568145,-0.500422264172737,-0.8657255815348603,0.009340539354838698
192.0,-0.04372174917954054,0.008470943728487956,-0.06634416273112943,-0.1200000000000001,-0.1500000000000002,-9.8,-0.01032074836908669,0.006426317487793163,0.008339638947810774,119.9375,-0.6875,179.0625,0.0037841799999999985,-0.5004272500000004,-0.865722660000001,0.00933837999999999
193.0,-0.04252216491235092,0.00880122868806532,-0.06673039402065156,-0.1200000000000001,-0.1500000000000002,-9.8,-0.018521106194468902,0.0009721537811174254,0.02149302046646122,119.9375,-0.6875,179.0625,0.0037841799999999985,-0.5004272500000004,-0.865722660000001,0.00933837999999999
194.0,-0.043834167133594816,0.009299807892419758,-0.0675436244296806,-0.1200000000000001,-0.1500000000000002,-9.8,-0.009244802089169935,-0.0062081015368606425,0.02181946890258545,119.9375,-0.6875,179.0625,0.0037841799999999985,-0.5004272500000004,-0.865722660000001,0.00933837999999999
195.0,-0.0424711938685664,0.006905367005523095,-0.06918804530537098,-0.1200000000000001,-0.1500000000000002,-9.8,-0.008735954634595373,-0.015379675118066118,-0.0044388607620267344,119.9375,-0.6875,179.0625,0.0037841799999999985,-0.5004272500000004,-0.865722660000001,0.00933837999999999
196.0,-0.042458281637717116,0.007092121588089332,-0.06937810173697269,-0.1200000000000001,-0.1500000000000002,-9.8,-0.044788112593052105,-0.0077223557692307696,0.00046332196029776713,119.9375,-0.6875,179.0625,0.0037841799999999985,-0.5004272500000004,-0.865722660000001,0.00933837999999999
197.0,-0.041607532390269694,0.007035464040190378,-0.07071903093601267,-0.1200000000000001,-0.1500000000000002,-9.8,-0.025847662447117926,0.009748582925700685,0.001523458157059757,119.9375,-0.6875,179.0625,0.0037841799999999985,-0.5004272500000004,-0.865722660000001,0.00933837999999999
198.0,-0.0391993989995053,0.00478675517306085,-0.07007189189880758,-0.1200000000000001,-0.1500000000000002,-9.8,-0.002124228758678631,0.019521204671747325,-0.01232380194384265,119.9375,-0.6875,179.0625,0.0037841799999999985,-0.5004272500000004,-0.865722660000001,0.00933837999999999
199.0,-0.03935772524416953,0.004460452648565164,-0.06910829396429213,-0.1200000000000001,-0.1500000000000002,-9.8,0.011825360419047783,0.011485701203739668,0.0024245793320488984,119.9375,-0.6875,179.0625,0.0037841799999999985,-0.5003749083225811,-0.8657488286947899,0.00933837999999999
200.0,-0.03759418520272992,0.00247475951286819,-0.06842988364467707,-0.1200000000000001,-0.1500000000000002,-9.8,0.014971690755429598,0.03488924289405346,0.00021173716912618618,119.93253722084367,-0.6875,179.0625,0.0037841799999999985,-0.5003530988535985,-0.8657570661935488,0.00933837999999999
201.0,-0.03765682290279278,0.0031496037781157454,-0.06863022308886417,-0.1200000000000001,-0.1500000000000002,-9.8,0.021982195275255783,0.020617545825662373,0.027525791492416078,119.90276054590569,-0.6875,179.0625,0.0037841799999999985,-0.5004216737816378,-0.865708358580645,0.00933837999999999
202.0,-0.03623454577186175,0.0027930513218549927,-0.0676210940421718,-0.1200000000000001,-0.1500000000000002,-9.8,0.00018065854583484801,-0.021858667083074716,0.0366061387819802,119.88787220843672,-0.6875,179.0625,0.0037841799999999985,-0.5004559612456574,-0.8656840047741932,0.00933837999999999
203.0,-0.034480064620730944,0.003236581489016623,-0.06652704603831332,-0.1200000000000001,-0.1500000000000002,-9.8,-0.043757638287329016,-0.014968817874986311,0.04122272979764322,119.88042803970222,-0.6875,179.0625,0.0037841799999999985,-0.5004731049776673,-0.8656718278709671,0.00933837999999999
204.0,-0.0346233873066237,0.004580045835295662,-0.06935832785589698,-0.1200000000000001,-0.1500000000000002,-9.8,-0.04276335575400757,-0.0029226400612081494,-0.03855155998990972,119.87670595533498,-0.6875,179.0625,0.0037841799999999985,-0.5005103163920596,-0.865664921647642,0.00933837999999999
205.0,-0.0362940037469643,0.0031958101585027095,-0.07087935603552874,-0.1200000000000001,-0.1500000000000002,-9.8,-0.04195219736791869,0.021572578952826646,-0.003100221682299776,119.875,-0.6875,179.0625,0.0037841799999999985,-0.5005332864516131,-0.8656616199999994,0.00933837999999999
206.0,-0.04207219407947818,0.004075389519718344,-0.07014056887730145,-0.11356823821339951,-0.14984119106699767,-9.8,-0.001538123253784024,0.03599730928685143,-0.011342447008419953,119.85117866004963,-0.6587158808933002,179.06746277915636,0.003873355503722083,-0.5007472919702235,-0.8655356133697267,0.009134343473945405
207.0,-0.046121629786562146,0.00809577819567414,-0.06996591083791914,-0.10943319046544844,-0.15297044890593287,-9.799999999999999,0.023521548690643383,0.04880473180421151,-0.08116668277958601,119.79710692533274,-0.6276533949921046,179.04543104744718,0.004082217136025265,-0.5012015287026093,-0.8652721420807575,0.00897288897059929
208.0,-0.052333150258228295,0.008317829470795133,-0.07030437986109161,-0.10439401458756288,-0.15664651477554714,-9.8,0.036533972733244324,0.07290146984475808,-0.07874836459643952,119.6893312982543,-0.5930605684637942,179.02170745920745,0.004279722438980374,-0.5020399503450609,-0.8647880646407953,0.0088091106143319
209.0,-0.053791924689947576,0.0140691514520859,-0.06853081847046466,-0.0994922926535829,-0.15848454771035425,-9.8,0.13999883874363583,0.04176578277774947,-0.7611072655232384,119.27000684019414,-0.5628609293931874,179.0098456650876,0.004446324142567112,-0.5052107171377911,-0.8629319804643181,0.008656948086322275
210.0,-0.05487022793370347,0.01851960734374887,-0.06883196650730469,-0.09426227535904948,-0.1594035641777578,-9.8,0.20760622918531346,-0.03594443191217385,-0.5294447617938772,118.65637438783901,-0.5284062711482066,179.0039147680277,0.004587783684186783,-0.5098327549659178,-0.8601933010361292,0.008493633075419206
211.0,-0.06029739684526364,0.020228786302147396,-0.06765171526357788,-0.09184825926761403,-0.15986803519061593,-9.8,0.15812228332714806,-0.0429567072712234,-0.3279512890855242,118.30120983659941,-0.5120784457478006,179.00079423264907,0.004655726720505304,-0.512422708600825,-0.8586530315317117,0.008418351711406875
212.0,-0.06211723168148766,0.02196678806798475,-0.0676018665690882,-0.09066997518610415,-0.1600000000000001,-9.8,0.05015092777352143,0.0021675233368781723,-0.1252844410330102,118.12242493296245,-0.5044354838709677,179.0,0.0046845646799007455,-0.513714217501781,-0.8578832545488465,0.008382568411910676
213.0,-0.06347086828941666,0.023382680491551476,-0.06821965221158768,-0.09017369727047139,-0.1600000000000001,-9.8,0.04328901665091182,0.005204025365315687,-0.0875852362243491,118.03555559863523,-0.5012096774193548,179.0,0.0046960750818858575,-0.514340868724876,-0.8575093767385226,0.008367272109181147
214.0,-0.06053196019929888,0.025894814191185174,-0.0686755829296152,-0.08999999999999991,-0.1600000000000001,-9.8,0.00828377631553035,0.02208867521367521,0.006540818612391194,118.00354082661289,-0.5,179.0,0.004699710000000001,-0.5145681818413462,-0.8573728767538761,0.008361820000000006
215.0,-0.060995823732718876,0.02520409306195598,-0.06803939452124935,-0.08999999999999991,-0.1600000000000001,-9.8,-0.0047468037954429085,0.014844950076804916,-0.008477542562724014,118.00015751008064,-0.5,179.0,0.004699710000000001,-0.5145869385534275,-0.8573612091784264,0.008361820000000006
216.0,-0.0579201228878648,0.025934203789042515,-0.06941922683051714,-0.08999999999999991,-0.1600000000000001,-9.8,-0.028821444572452636,0.02430755568356375,0.028391017025089605,118.0,-0.5,179.0,0.004699710000000001,-0.5145874000000001,-0.8573608399999989,0.008361820000000008
217.0,-0.058570751366797125,0.026659436268437323,-0.06783334365657467,-0.08617065556711756,-0.1600000000000001,-9.8,-0.04995106138405761,-0.012547674018879143,0.07965673028880299,118.02601456815816,-0.5036420395421436,179.0,0.0047423895421436,-0.5144146494484909,-0.8574609349843905,0.0083054190842872
218.0,-0.05969500189947638,0.027131561452191023,-0.06990233491072459,-0.08292403746097815,-0.1600000000000001,-9.8,-0.01800708471148605,-0.04374823537093471,-0.009254776176643047,118.04526534859521,-0.5018210197710717,179.0,0.004784053642039541,-0.5142805137565034,-0.8575368952341305,0.008239111155046821
219.0,-0.06101685578844786,0.027225054919643908,-0.06964370777794296,-0.08130072840790845,-0.1600000000000001,-9.8,-0.013240563525097865,0.001201109129048774,0.001058725822968799,118.0624512226847,-0.5009105098855359,179.0,0.0048048856919875125,-0.5141848972008323,-0.857596533504162,0.008205957190426633
220.0,-0.059218776831965775,0.028786744511352602,-0.0680859788585433,-0.08048907388137361,-0.1600000000000001,-9.8,0.028425895619033,0.007940040685078725,-0.020640254239095206,118.0957417403746,-0.5004552549427679,179.0,0.004815301716961496,-0.5140396298907387,-0.8576992028811131,0.008189380208116536
221.0,-0.060178896864523594,0.029695599598226232,-0.06788528333608168,-0.08008324661810617,-0.1600000000000001,-9.8,0.055436386109567706,0.012170545176128712,-0.05889683602891781,118.10061024550733,-0.5002276274713839,179.0,0.00482050972944849,-0.5140029974645703,-0.8577285358901209,0.008181091716961488
222.0,-0.06137032572354491,0.02973321563197953,-0.06733498137827856,-0.08000000000000004,-0.1600000000000001,-9.8,0.060618117012200004,-0.0011072552275123672,-0.09604571249937045,118.04949216749871,-0.5,179.0,0.004821779999999999,-0.5143432476287071,-0.8575304138924305,0.008178709999999992
223.0,-0.06222662151512627,0.029087677964479277,-0.0683914730240087,-0.08000000000000004,-0.1600000000000001,-9.8,0.04236157986746713,-0.012188872269414145,-0.08793816082917831,118.02373801923324,-0.5,179.0,0.004821779999999999,-0.5146612263949983,-0.8573471808171822,0.008178709999999992
224.0,-0.06307594733404596,0.02858772230690146,-0.06895607730284721,-0.08000000000000004,-0.1600000000000001,-9.8,0.015599344011517122,-0.022443474408640474,-0.022841897629729636,118.01062467997951,-0.5,179.0,0.004821779999999999,-0.5148211079253214,-0.8572548874625219,0.00817870999999999
225.0,-0.06480344167336884,0.027839604146576068,-0.0676787261183723,-0.08000000000000004,-0.1600000000000001,-9.8,0.024854140540925135,-0.03413454788649898,-0.049049848867746895,118.0032962109575,-0.5,179.0,0.004821779999999999,-0.514904094285241,-0.8572064642151311,0.008178709999999992
226.0,-0.06629642827977894,0.02820830926502104,-0.06910980945866481,-0.08000000000000004,-0.1600000000000001,-9.799999999999999,0.0219156775413279,-0.010985430159792803,-0.04112089566694145,118.0,-0.5,179.0,0.004821779999999999,-0.5149291900123317,-0.8571829401439192,0.008178709999999992
227.0,-0.06835304884732565,0.02644522563227039,-0.06935727405615542,-0.08000000000000004,-0.1600000000000001,-9.8,0.025053732471136216,-0.010967781116877112,-0.032071894243460325,118.0,-0.5,179.0,0.004821779999999999,-0.5149144744379279,-0.8571777299999985,0.008178709999999992
228.0,-0.07066551571910573,0.024807354239586306,-0.06865405945511305,-0.08000000000000004,-0.1600000000000001,-9.8,-0.0012980185570586212,0.007281726441049411,0.006227877763062469,118.0,-0.5,179.0,0.004821779999999999,-0.5149025428641256,-0.8571777299999986,0.00817870999999999
229.0,-0.07075419386371519,0.023483281698357155,-0.06788322119477816,-0.08000000000000004,-0.1600000000000001,-9.8,0.015154840877558098,-0.016536686207154795,0.00849570266925236,118.0,-0.5,179.0,0.004821779999999999,-0.5148965770772244,-0.8571777299999985,0.008178709999999992
230.0,-0.0691267769113763,0.024001545483075155,-0.06744299468597073,-0.08000000000000004,-0.1600000000000001,-9.8,0.028515760492542487,-0.013191908211744319,0.01414948503918327,118.0,-0.5,179.0,0.004821779999999999,-0.5148935941837738,-0.8571777299999985,0.008178709999999992
231.0,-0.0664893298977586,0.02579388822820146,-0.06527330574963248,-0.08000000000000004,-0.1600000000000001,-9.8,-0.0014391243620236853,-0.004746381187750854,-0.034346817551161986,118.0,-0.5,179.0,0.004821779999999999,-0.5148925800000006,-0.8571777299999985,0.008178709999999992
232.0,-0.06719367639528928,0.02644793266769075,-0.06345090885816691,-0.08000000000000004,-0.1600000000000001,-9.8,0.02905085925499232,-0.032436275921658986,-0.03792002688172043,118.0,-0.5,179.0,0.004821779999999999,-0.5148925800000006,-0.8571777299999985,0.008178709999999992
233.0,-0.06650569636456732,0.025955661162314403,-0.06348070276497694,-0.08000000000000004,-0.1600000000000001,-9.8,0.003680735567076295,0.024358058915770607,-0.002206141193036356,118.0,-0.5,179.0,0.004821779999999999,-0.5148925800000006,-0.8571777299999985,0.008178709999999992
234.0,-0.06882549386386533,0.025354180086880413,-0.063039616470938,-0.08000000000000004,-0.1600000000000001,-9.8,0.002912960623028262,0.010223363972713609,0.000268791396197743,118.0,-0.5,179.0,0.004821779999999999,-0.5148925800000006,-0.8571777299999986,0.00817870999999999
235.0,-0.07038443403794023,0.024971962161157386,-0.06487622501335591,-0.08000000000000004,-0.1600000000000001,-9.8,-0.009791977294690698,0.020094673684710747,-0.008069932657604417,118.0,-0.5,179.0,0.004821779999999999,-0.5148925800000006,-0.8571777299999986,0.00817870999999999
236.0,-0.0677895032452886,0.024056641602852126,-0.07061015551743063,-0.08322580645161287,-0.1600000000000001,-9.8,-0.005928054699572692,-0.04697231241519711,0.006349698289733377,118.0,-0.5095766129032258,179.0,0.004773049596774191,-0.5148925800000006,-0.8571777299999985,0.008265341048387092
237.0,-0.06368681893033659,0.025329305602914902,-0.06837161001677983,-0.09193548387096767,-0.1600000000000001,-9.8,-0.015323479893210664,0.009220690876768689,0.11500264458531334,118.04813895781638,-0.5370463709677419,179.0,0.00463990254032258,-0.5145504202779158,-0.8573977614441685,0.008505545524193546
238.0,-0.06233840245619514,0.024439056199340496,-0.06768059654390064,-0.09629032258064507,-0.1600000000000001,-9.8,0.019131319071466903,-0.015178462028900115,0.06171667404238177,118.08858560794044,-0.55078125,179.0,0.004573329012096774,-0.5142804730421836,-0.8575712657220846,0.008625647762096771
239.0,-0.06066199973494394,0.023700665473107313,-0.06969469101760215,-0.09846774193548377,-0.1600000000000001,-9.8,-0.04783078803045916,0.030894522268340684,0.04770664111910476,118.10880893300248,-0.557648689516129,179.0,0.0045400422479838715,-0.5141454994243175,-0.8576580178610427,0.00866369572692652
240.0,-0.06070514053378609,0.023711781705353242,-0.06933571145274608,-0.09955645161290312,-0.1600000000000001,-9.8,-0.02005665525267009,0.02254502686658705,-0.006140730207237679,118.1189205955335,-0.5610824092741935,179.0,0.00452339886592742,-0.5140780126153844,-0.8577013939305217,0.008673218347334224
241.0,-0.06226732377885974,0.02330140659149036,-0.06990507606976533,-0.0999999999999999,-0.1600000000000001,-9.8,-0.044320304570924014,0.03542490596060882,0.011214274919794272,118.123976426799,-0.5625,179.0,0.004516600000000001,-0.514044269210918,-0.8577230819652613,0.008675272437275979
242.0,-0.06409753936573462,0.02332084119592011,-0.06925555231304237,-0.0999999999999999,-0.1600000000000001,-9.8,0.0019934803061663516,0.014075793500175869,-0.019019637140436425,118.125,-0.5625,179.0,0.004516600000000001,-0.5140380899999998,-0.8577270500000007,0.008670146702508954
243.0,-0.06243348676377688,0.022569992253168945,-0.06782317541617214,-0.0999999999999999,-0.1600000000000001,-9.8,0.013275296472490896,-0.01405709267349747,0.00848661188985582,118.125,-0.5625,179.0,0.004516600000000001,-0.5140380899999998,-0.8577270500000007,0.00866758383512544
244.0,-0.062418051034808984,0.022030397678437647,-0.06833271496792301,-0.0999999999999999,-0.1600000000000001,-9.8,-0.012910187440622485,-0.02063557103248311,0.013144552547787416,118.125,-0.5625,179.0,0.004516600000000001,-0.5140380899999998,-0.8577270500000007,0.008666989999999992
245.0,-0.061357877624584514,0.020288742023401966,-0.06760231286897711,-0.0999999999999999,-0.1600000000000001,-9.8,0.00592164193915806,-0.012635216089862782,-0.03254509820581493,118.125,-0.5625,179.0,0.004513551675338193,-0.5140380899999998,-0.8577270500000007,0.008673087148803323
246.0,-0.06239334150074859,0.01933604293814373,-0.06709852427195295,-0.09610787942887353,-0.1600000000000001,-9.8,-0.04408876450320376,0.03740419173671682,-0.049514689291577055,118.11971179270228,-0.5625,179.0,0.00447996121048771,-0.5140659767900579,-0.8577100080116346,0.00865867933590352
247.0,-0.06491554151472365,0.015721676433884953,-0.06809663226980878,-0.09289264939185607,-0.1600000000000001,-9.8,-0.02278803640284461,0.017792168276119874,0.04389375570811458,118.04592909734369,-0.5625,179.0,0.004466781250405145,-0.5144814277374608,-0.8574476123209542,0.008631335313113055
248.0,-0.06141291188639407,0.014177990822401535,-0.0687092575120756,-0.09128503437334737,-0.1600000000000001,-9.8,0.026409855092622364,0.01552871247242718,0.013439394913610639,118.05320648415571,-0.5625,179.0,0.004460191270363863,-0.5142912582235694,-0.8575558318056391,0.008617663301717822
249.0,-0.05944035645129109,0.013951022273227634,-0.06904429751022269,-0.09048122686409299,-0.1600000000000001,-9.8,0.026160587477777563,0.024025089230817552,0.02332211385760882,118.05684517756173,-0.5625,179.0,0.004456896280343221,-0.5142071743882827,-0.8576059409745045,0.008610827296020206
250.0,-0.06069807823060071,0.01560359365647574,-0.06883424924567176,-0.09007932310946581,-0.1600000000000001,-9.8,-0.024176284230488357,0.012589613805901484,0.08818182522571735,118.08631429385,-0.5625,179.0,0.004455344045478583,-0.514027126203358,-0.8577144988461869,0.008607218757271296
251.0,-0.05973768167316554,0.01854023395958881,-0.06748489503328209,-0.08999999999999991,-0.1600000000000001,-9.8,0.03259187049509629,-0.024373744535034856,-0.0461996336996337,118.10582240340305,-0.5625,179.0,0.004455569999999999,-0.5139900564409785,-0.857738269684982,0.00860596000000001
252.0,-0.06007231478199219,0.022456221198156698,-0.06537023907991647,-0.08999999999999991,-0.1600000000000001,-9.8,0.0036951287959352437,-0.028788919413919412,-0.012623700224506679,118.1177995391705,-0.5625,179.0,0.004455569999999999,-0.5140006546472882,-0.8577411259888934,0.00860596000000001
253.0,-0.05482647997164125,0.02206806097128679,-0.06761688132655871,-0.08999999999999991,-0.15596774193548402,-9.8,-0.01597966885265272,0.0695928231714522,0.03829112755524046,118.072508640553,-0.5519153225806451,179.02520161290323,0.00435614008064516,-0.5143107645010635,-0.8575529517041239,0.008477490241935488
254.0,-0.0499443110652788,0.020036497552626594,-0.06678544573705864,-0.09070381231671545,-0.15196236559139803,-9.799999999999999,-0.1633103203919736,-0.009199131401752367,0.2092333657605835,118.12762162232929,-0.5493875244379276,179.05023521505376,0.004193454649315736,-0.513841371570459,-0.8578396688171972,0.008325505140518082
255.0,-0.05087496240318821,0.013180051131664039,-0.06567871644484546,-0.09387096774193542,-0.14565860215053772,-9.799999999999997,-0.030649714029250305,-0.024654667409203697,0.10568584221558011,118.24620066593351,-0.5471461082600195,179.08963373655916,0.003954123194648092,-0.5129671054940691,-0.8583660781110614,0.00825094430046432
256.0,-0.05763227028347995,0.008825757575757577,-0.06451429618768327,-0.09193548387096767,-0.14250672043010754,-9.799999999999997,-0.1477224996945259,-0.016956676136363636,0.08644248686461388,118.33479388135385,-0.5225649896138808,179.1093329973118,0.003835188452162754,-0.5123580121887219,-0.8587326778421307,0.008038613198619256
257.0,-0.05980501391385235,0.006741670411187842,-0.06478234970674485,-0.09096774193548379,-0.14093077956989244,-9.8,-0.12081398869351684,0.020137178808769276,0.06311883139406553,118.39118726325756,-0.5102744302908113,179.1191826276882,0.0037358514841458923,-0.5119379685137159,-0.8589859103726776,0.007912758857374145
258.0,-0.06141619337131821,0.007710436632392929,-0.06747309948116398,-0.09048387096774185,-0.14026881720430104,-9.8,-0.014725920758048745,0.0044605035638139185,0.015284989518372713,118.4209433040078,-0.5044599217986314,179.12331989247312,0.0036892901851173,-0.5117188099095797,-0.8591182179081123,0.007853846366691104
259.0,-0.06242852679318597,0.007789724670057658,-0.0670796582449808,-0.09021994134897354,-0.13999999999999996,-9.799999999999999,-0.00789754004666856,0.008965955594223675,-0.009066938280891845,118.43339137341152,-0.501466275659824,179.125,0.0036695398628421288,-0.5116287338599708,-0.8591724754496566,0.00782713231579912
260.0,-0.06376069545915408,0.005642174162985818,-0.06733503928866831,-0.08999999999999991,-0.13999999999999996,-9.799999999999999,-0.029196204040929586,0.022750328725753086,0.03114590524860588,118.4367439516129,-0.5,179.125,0.0036646018497983853,-0.5116038171572581,-0.8591875523387082,0.007813730549395161
261.0,-0.06205807910438503,0.0039693205684360735,-0.06844566544566544,-0.09147465437788008,-0.13967229902713768,-9.799999999999999,0.013050667500784565,-0.05552786743115828,0.0688876147626798,118.44313236047105,-0.5102406554019457,179.125,0.00363060761392729,-0.5115496769482848,-0.8592193922222211,0.007871003881208396
262.0,-0.05631295854682951,0.002295834541802284,-0.07033573594863915,-0.09708968450903929,-0.13070463586592618,-9.8,-0.03814893383945804,-0.13137145392689747,-0.11259228282917799,118.48349235889557,-0.5487927842766553,179.18058312655086,0.003189336633266374,-0.5112760890448619,-0.8593806021036665,0.007957098044822558
263.0,-0.039533650489295656,-0.005192033101307298,-0.06770384812320294,-0.10902871322226163,-0.12129772736224356,-9.8,-0.09492744458722281,-0.10380607435798968,-0.0915628907942416,118.45205945488203,-0.6301035881681043,179.2401364764268,0.002500048517625742,-0.5114882411179644,-0.8592484463496,0.008323888173776044
264.0,-0.023682839017426162,-0.01197208343033151,-0.0679812772954323,-0.1220083383155122,-0.1096955656551227,-9.799999999999999,-0.10458988583076434,-0.14066035943866423,0.35224355059068213,118.54733148478334,-0.7056391797364354,179.31160049627792,0.0016728919887117636,-0.5107332816278314,-0.8596884691473565,0.008568464322805211
265.0,-0.0075626370099167416,-0.018138372300144093,-0.06957020051579509,-0.14868110704894527,-0.10166049346790795,-9.799999999999997,-0.03325902685556032,-0.17102590409643853,-0.17742793770718665,118.52274795230981,-0.867143133440678,179.3454066516055,0.0007059123954151019,-0.5109209571644212,-0.8595680704162396,0.009513566918263465
266.0,0.020967319953357495,-0.022558223993948606,-0.07120296554673056,-0.17591226138650312,-0.09503403577645267,-9.799999999999997,-0.06282010598934046,-0.2100052831937762,-0.11875807349447216,118.47506037935744,-1.0317363947238767,179.3769433062524,-0.00026882034490753983,-0.5112707871343216,-0.8593500064723758,0.010596670315483267
267.0,0.04259532250769611,-0.023791518944865128,-0.07129503116046206,-0.19985439372054697,-0.0919959260768119,-9.799999999999997,-0.03601613239913674,-0.16278024705594518,0.10295812206169691,118.43728980506333,-1.1838582718036257,179.41052500300214,-0.0010651867779128265,-0.5115439241440841,-0.8591783607051708,0.01159513285004932
268.0,0.05360535356154035,-0.02559799272305292,-0.071677292255169,-0.21154010008608004,-0.09174237991185502,-9.799999999999999,0.028486971021275304,-0.09458801434683115,-0.08139935087982153,118.51408534918178,-1.251529011832334,179.40746473475167,-0.0014021395874675787,-0.5109187715583945,-0.8595493087967541,0.012092971395247985
269.0,0.05648236184690064,-0.02343990944317704,-0.07094343527482738,-0.2063099973652524,-0.09390738469381296,-9.799999999999997,0.024572827887935224,-0.06682160636908807,-0.24477830978242968,118.44175301756295,-1.2110295941373006,179.39645058369462,-0.0011733731920175127,-0.5114331112925227,-0.8592461741011442,0.011873550374193707
270.0,0.04949987504589022,-0.01761495861033338,-0.07188414680670371,-0.21510918556459366,-0.10211501970515252,-9.799999999999999,0.04893551953264951,-0.04963612817250744,-0.05082976820183296,118.33396398702301,-1.2700834704511175,179.3237507353494,-0.0009692638034084826,-0.5122635441942411,-0.8587434763153408,0.01252103045097597
271.0,0.05192875905396125,-0.01177159961989515,-0.0726749227855931,-0.21788206101299096,-0.10638009049773761,-9.8,0.038051091096549264,-0.02562156111364022,-0.04039363111628433,118.28911053701103,-1.2935064224200845,179.2844621223179,-0.0008135403132389435,-0.5126228265619301,-0.8585275658825,0.012783954199095025
272.0,0.05313171823665804,-0.007753239326076607,-0.07171800574763526,-0.2189410305064956,-0.10851262589403016,-9.8,0.026775041516016566,-0.020481521484239467,-0.033695429469432485,118.26708236023939,-1.3030032112100423,179.26420686761054,-0.0007256067695226979,-0.5127996425324773,-0.8584214233444766,0.012901082099547516
273.0,0.05296288145083522,-0.007253790878919198,-0.07257612446190695,-0.2194705152532479,-0.10954415413808213,-9.8,0.007044468648827143,0.0006308273472102922,0.023071640103993436,118.25312864910232,-1.307953218508247,179.2546685702817,-0.0006830957793022923,-0.5129115135342289,-0.8583542857566062,0.012959373417019417
274.0,0.051864696525136034,-0.006365464332157158,-0.07111919707823267,-0.22007444168734513,-0.10999503722084378,-9.8,0.010539472801490146,0.006215077779622163,-0.015773738006398332,118.24950372208437,-1.312717121588089,179.25015508684862,-0.0006737829181141445,-0.5129424487642684,-0.8583354917468997,0.01300309496277916
275.0,0.04990585342545924,-0.007232279912816755,-0.0686835079283743,-0.22000000000000022,-0.11000000000000011,-9.8,-0.002136911321979653,-0.002531118758471957,-0.030590583083083902,118.25,-1.3125,179.25,-0.0006713900000000007,-0.5129394500000004,-0.8583374000000015,0.013000490000000003
276.0,0.050209404766669324,-0.006736182262066761,-0.07017332456175458,-0.22000000000000022,-0.11000000000000011,-9.8,0.01720064798787321,-0.00666118338769711,-0.03596887694608981,118.25,-1.3125,179.25,-0.0006713900000000007,-0.5129394500000004,-0.8583374000000015,0.013000490000000003
277.0,0.04898323060914111,-0.006845913711678543,-0.0705579324421676,-0.22000000000000022,-0.11000000000000011,-9.8,0.01390841371167854,0.005033193588409509,-0.03182957456175458,118.25,-1.3125,179.25,-0.0006713900000000007,-0.5129394500000004,-0.8583374000000015,0.013000490000000003
278.0,0.048859261186264304,-0.00821540062434964,-0.07022437565036418,-0.22000000000000022,-0.11000000000000011,-9.8,0.014393372788761707,-0.006133747398543183,-0.030558988033298647,118.25,-1.3125,179.25,-0.0006713900000000007,-0.5129394500000004,-0.8583374000000015,0.013000490000000003
279.0,0.04884950572320498,-0.00909209157127992,-0.07124642299687822,-0.22000000000000022,-0.11000000000000011,-9.8,0.006465026664932363,0.005339083636836628,-0.022303427419354836,118.25,-1.3125,179.25,-0.0006713900000000007,-0.5129394500000004,-0.8583374000000015,0.013000490000000003
280.0,0.05099343132154005,-0.00909079084287201,-0.07455141129032256,-0.22000000000000022,-0.11000000000000011,-9.8,0.013004235496878253,0.020505780111862642,-0.01906989789281998,118.25,-1.3125,179.25,-0.0006713900000000007,-0.5129512641935485,-0.858325587741936,0.013000490000000003
281.0,0.054337121446740314,-0.009442028805972618,-0.07118295570916539,-0.22000000000000022,-0.11000000000000011,-9.8,-0.000737095561212691,0.01708257715590572,0.014680100816774852,118.25,-1.3125,179.25,-0.0006713900000000007,-0.5129768616129031,-0.8582999945161289,0.013000490000000003
282.0,0.053978160472180306,-0.008502247877338505,-0.07125324742094968,-0.2200000000000002,-0.1100000000000001,-9.8,0.030658614187267792,0.009875734638238421,0.007781078634193878,118.25,-1.3125,179.25,-0.0006713900000000007,-0.5129896603225804,-0.8582871979032254,0.013000490000000003
283.0,0.053563870054896615,-0.008275825390529915,-0.07177357711549276,-0.22000000000000022,-0.11000000000000011,-9.8,-0.0028194673311550955,0.0005897180698253212,-0.011047707053251407,118.25,-1.3125,179.25,-0.0006713900000000007,-0.512996059677419,-0.8582807995967735,0.013000490000000003
284.0,0.05325118905970637,-0.007608174792039153,-0.07165795791258509,-0.22000000000000022,-0.11000000000000011,-9.8,-0.01449882136719045,0.0015391886720094346,0.01085719486047107,118.25,-1.3125,179.25,-0.0006713900000000007,-0.5129992593548385,-0.8582776004435476,0.013000490000000003
285.0,0.05182348719498375,-0.007672254958743591,-0.07070801121435707,-0.22000000000000022,-0.11000000000000011,-9.8,-0.003964450446140029,0.009434898915497805,-0.015296979006656428,118.25,-1.3125,179.25,-0.0006713900000000007,-0.5130004899999997,-0.8582763699999992,0.013000490000000003
286.0,0.05216238363845449,-0.008357376839330835,-0.07006470709207357,-0.22000000000000022,-0.11000000000000011,-9.8,0.008810465509136847,-0.012627660629296667,-0.007880504352278547,118.25,-1.3125,179.25,-0.0006713900000000007,-0.5130004899999997,-0.8582763699999992,0.013000490000000003
287.0,0.05102566564260111,-0.0097022209421403,-0.0708982974910394,-0.22000000000000022,-0.11000000000000011,-9.8,0.003430219534050179,-0.013923891129032258,-0.036198316692268306,118.22429435483872,-1.3125,179.25,-0.0006713900000000007,-0.5130772738709677,-0.858225671532258,0.013000490000000003
288.0,0.049317236303123395,-0.009554131464413727,-0.07049523169482846,-0.22000000000000022,-0.11000000000000011,-9.8,-0.0064294114823348686,-0.007842001888120839,-0.019155225934459803,118.20488911290323,-1.3125,179.25,-0.0006713900000000007,-0.5131333851612905,-0.8581880168951618,0.013000490000000003
289.0,0.05030142729134665,-0.008620647721454176,-0.07065252176139272,-0.2200000000000002,-0.1100000000000001,-9.8,-0.014095502112135175,-0.0002048131080389145,-0.008468741999487966,118.19518649193549,-1.3125,179.25,-0.0006713900000000007,-0.5131614408064519,-0.8581691895766135,0.013000490000000003
290.0,0.05119142025089605,-0.009184875832053256,-0.07105206733230926,-0.22000000000000022,-0.11000000000000011,-9.8,-0.008167822740655402,-0.005430747567844342,-0.006098490303379416,118.19033518145162,-1.3125,179.25,-0.0006713900000000007,-0.5131754686290326,-0.8581597759173395,0.013000490000000003
291.0,0.05094988971601874,-0.009448749950766083,-0.07101254111032336,-0.22000000000000022,-0.11000000000000011,-9.8,-0.0009407371302532592,-0.013594231569281974,-0.013486832388042066,118.18790952620968,-1.3125,179.25,-0.0006713900000000007,-0.513182482540323,-0.8581550690877024,0.013000490000000003
292.0,0.05153997301981171,-0.007579197684036397,-0.07097010024026153,-0.22000000000000022,-0.11000000000000011,-9.8,-0.00456663072590492,-0.0014405229627003826,-0.02570462971168616,118.1875,-1.3125,179.25,-0.0006713900000000007,-0.5131835900000004,-0.8581543000000008,0.013000490000000003
293.0,0.052137774693510885,-0.008466853024995587,-0.07131495613734165,-0.22000000000000022,-0.11000000000000011,-9.8,-0.02178236975404639,0.0034740714720878606,0.019974044095645946,118.1875,-1.3125,179.25,-0.0006713900000000007,-0.5131835900000004,-0.8581543000000008,0.013000490000000003
294.0,0.05209576906718555,-0.007174286727551558,-0.07104726301490735,-0.22000000000000022,-0.11000000000000011,-9.8,0.014159218348783253,-0.011989442758579726,-0.021817413436047997,118.1875,-1.3125,179.25,-0.0006713900000000007,-0.5131835900000004,-0.8581543000000008,0.013000490000000003
295.0,0.051670524382543104,-0.007117529308476242,-0.07148405297442753,-0.22000000000000022,-0.11000000000000011,-9.8,-0.006713773602106068,-0.0002048508275745535,0.004018998655119883,118.1875,-1.3125,179.25,-0.0006713900000000007,-0.5131835900000004,-0.8581543000000008,0.013000490000000003
296.0,0.05265428084171579,-0.006232822126422545,-0.07230882389376142,-0.22000000000000022,-0.11000000000000011,-9.8,-0.01699302303734536,0.021586220227771995,-0.009111228279900237,118.1875,-1.3125,179.25,-0.0006713900000000007,-0.5131835900000004,-0.8581543000000008,0.013000490000000003
297.0,0.05296135208732762,-0.006436077060296625,-0.07050381523176788,-0.22000000000000022,-0.11000000000000011,-9.8,-0.02821961995145853,0.019069824438987422,0.015919542423916123,118.1875,-1.3125,179.25,-0.0006713900000000007,-0.5131835900000004,-0.8581543000000008,0.013000490000000003
298.0,0.05039066563783655,-0.008147799196121259,-0.0711129898219193,-0.22000000000000022,-0.11000000000000011,-9.8,-0.05734277043358566,0.005876613572251254,0.053306415332665655,118.1875,-1.3125,179.25,-0.0006713900000000007,-0.5131835900000004,-0.8581543000000008,0.013000490000000003
299.0,0.049746337631613374,-0.006225792157894137,-0.07004441439587117,-0.22000000000000022,-0.11000000000000011,-9.8,-0.009151821448582634,-0.02525244097011787,-0.024383615141939805,118.1875,-1.3125,179.25,-0.0006713900000000007,-0.5132069643184182,-0.8581543000000008,0.013000490000000003
300.0,0.0493450196044211,-0.007059031910328803,-0.06982226259820251,-0.2200000000000002,-0.1100000000000001,-9.8,-0.07236175721518805,-0.0038122793436455565,0.016429302868622823,118.1875,-1.3125,179.25,-0.0006713900000000007,-0.5132267816753378,-0.8581543000000007,0.013000490000000003
301.0,0.05152098494829235,-0.007331885281987423,-0.07144979294962556,-0.22000000000000022,-0.11000000000000011,-9.8,-0.04816508976584264,-0.014979710871694706,0.0026170167588931773,118.1875,-1.3125,179.25,-0.0006772052655086851,-0.5132366903537976,-0.8581543000000008,0.013013090694789084
302.0,0.05316992175454319,-0.007132443881688502,-0.07304747711997407,-0.22000000000000022,-0.11000000000000011,-9.8,-0.02693614289780966,-0.011227448487956534,0.006643495972498698,118.1875,-1.3125,179.25,-0.0007057969875930519,-0.5132416446930275,-0.8581543000000008,0.013069794218362286
303.0,0.05336462123707307,-0.00690124830560852,-0.07141661231929225,-0.22000000000000022,-0.11000000000000011,-9.8,-0.051303689082279516,0.018317872762845553,0.074329230926696,118.20089950372208,-1.3125,179.25,-0.0007210622183622825,-0.513146707986712,-0.8582100336774199,0.013086998784119109
304.0,0.05834243422715128,-0.005257217663351985,-0.07213153953397211,-0.22000000000000022,-0.11000000000000011,-9.799999999999999,-0.034594845045664714,0.0036993259692889528,-0.07411269983321808,118.14190258666065,-1.3125,179.25,-0.0006981351609895482,-0.5135906518205879,-0.857949719996091,0.013019877334386039
305.0,0.05744266486201967,-0.006074892849086399,-0.0707534401082788,-0.22000000000000022,-0.11000000000000011,-9.799999999999999,-0.040475787653207,-0.012823332581397097,-0.038461538461538464,118.10018516429807,-1.3125,179.25,-0.0006847625804947744,-0.5138586680070685,-0.8577999945141752,0.01297867915106398
306.0,0.05530028394544522,-0.008404849630656087,-0.0713101951811629,-0.22000000000000022,-0.11000000000000011,-9.799999999999999,0.025720739833643064,-0.06593178327049294,-0.06307948324077356,118.07932645311678,-1.3125,179.25,-0.0006868943788684435,-0.5139926761003087,-0.8577251317732174,0.012966687578013385
307.0,0.05160547696031565,-0.00828431067140745,-0.0723573308412018,-0.2161290322580648,-0.11209677419354845,-9.8,0.04573102748505974,0.05030799173944335,-0.10229036196778131,118.05831242010677,-1.2827620967741935,179.25,-0.0005723290442729312,-0.5142004559533804,-0.8575956533059632,0.012785716853522828
308.0,0.049398271978917135,-0.008320815385331517,-0.07221340487469519,-0.21290322580645193,-0.11620967741935492,-9.8,0.054859930615979005,0.04872719686227751,-0.05787595021465989,118.02571328201367,-1.2653729838709677,179.25,-0.0004633326164292694,-0.5145761419990229,-0.8573691988465293,0.012639467421798643
309.0,0.046378254362125323,-0.0074606916381109965,-0.07114463941076843,-0.21129032258064545,-0.11826612903225815,-9.8,0.05073109294379456,0.021489959972822877,-0.037186503013115914,118.01146673387096,-1.256678427419355,179.25,-0.00040978939228110574,-0.5147486055645166,-0.8572649772580634,0.012568709072580658
310.0,0.04235262318326834,-0.008206496908109815,-0.0709918714797747,-0.21048387096774224,-0.11929435483870976,-9.8,0.008235342446531964,0.028091813260664067,-0.029330430993737444,118.00472530241936,-1.2523311491935485,179.25,-0.0003830774380760366,-0.5148168881586022,-0.8572134779838696,0.012533568568548401
311.0,0.04009036886053016,-0.007901940801134353,-0.07078283163968646,-0.21008064516129066,-0.11980846774193557,-9.8,0.010634026731556974,0.02882125225245185,-0.011304015764701247,118.00135458669354,-1.250157510080645,179.25,-0.0003694402167338706,-0.5148360273051074,-0.8571877283467728,0.01251571702620969
312.0,0.040733388475323956,-0.009800464768206708,-0.07082752373074953,-0.2100000000000003,-0.1200000000000001,-9.8,0.008901492772460514,0.008739513174997047,0.004233624798140927,118.0,-1.25,179.25,-0.00036620999999999973,-0.5148411976344083,-0.8571777299999985,0.012512210000000013
313.0,0.04081210366694238,-0.010814624443656707,-0.06981698767182637,-0.2100000000000003,-0.1200000000000001,-9.8,-0.00860756626885659,0.003105798771121352,0.017881390562842176,118.0,-1.25,179.25,-0.00036620999999999973,-0.5148353843010749,-0.8571777299999985,0.012512210000000013
314.0,0.04081847453621647,-0.010304826893536574,-0.07149402300208751,-0.2100000000000003,-0.1200000000000001,-9.8,-0.030830280830280832,0.01455213133640553,0.042063061266690294,118.0,-1.25,179.25,-0.00036620999999999973,-0.5148324776344082,-0.8571777299999985,0.012512210000000013
315.0,0.04050780357635196,-0.009686463625979757,-0.07137937197211389,-0.2100000000000003,-0.1200000000000001,-9.8,0.03151586316908898,0.014812548003072197,-0.10262438334514948,117.9742943548387,-1.238407258064516,179.25,-0.00035390556451612873,-0.5150097251612904,-0.8570812571774187,0.012512210000000013
316.0,0.040035421343889085,-0.009552751683800074,-0.07002435848201975,-0.2100000000000003,-0.1200000000000001,-9.8,0.03957533282130056,0.020827932987711212,-0.1082098638928276,117.92263104838709,-1.211945564516129,179.25,-0.00032855842741935464,-0.515424668709678,-0.8568459787499996,0.012512210000000013
317.0,0.039024367097955814,-0.011041096784040336,-0.0723355279353263,-0.2100000000000003,-0.1200000000000001,-9.8,0.017123495903737837,0.025126908122119814,-0.048800592468687225,117.89679939516128,-1.1987147177419355,179.25,-0.0003158848588709676,-0.5156321404838716,-0.8567283395362901,0.012512210000000013
318.0,0.0395727437884696,-0.011274840303066115,-0.07079439825407566,-0.21000000000000033,-0.1200000000000001,-9.799999999999999,-0.0008353989200763391,0.003781551110180144,-0.027821128803991707,117.88388356854838,-1.1920992943548385,179.25,-0.00030954807459677405,-0.5157358763709685,-0.8566695199294354,0.012512210000000013
319.0,0.04073922549224969,-0.010239157124237775,-0.06986370036773261,-0.21000000000000033,-0.1200000000000001,-9.799999999999999,-0.008683828492296233,0.007031904587348136,-0.028543008570730347,117.87742565524192,-1.1887915826612905,179.25,-0.0003063796824596774,-0.515787744314517,-0.8566401101260079,0.012512210000000013
320.0,0.040605305984338244,-0.010134699529860826,-0.06943526209453627,-0.2100000000000003,-0.1200000000000001,-9.799999999999999,-0.005791006988083601,-0.03197179584528374,0.06205981938088793,117.875,-1.1875,179.25,-0.00030517999999999995,-0.5157785443821343,-0.8566308431861043,0.012512210000000013
321.0,0.04237484961275284,-0.00991878148732988,-0.06767359622903976,-0.2100000000000003,-0.1200000000000001,-9.8,-0.0011661620469584177,-0.0015295881034288247,0.013947462567674256,117.90725806451613,-1.219758064516129,179.25,-0.00030517999999999995,-0.5155427605210917,-0.8567551546501238,0.012512210000000013
322.0,0.043921199767973956,-0.008608264271570725,-0.06745290954565146,-0.2100000000000003,-0.1200000000000001,-9.8,0.0071761655683026645,-0.006341900986558243,0.00833656850541931,117.92338709677418,-1.2358870967741935,179.25,-0.00030517999999999995,-0.5154234146153842,-0.8568177950669971,0.012512210000000013
323.0,0.044006287171609745,-0.006903862154870222,-0.06808327179093304,-0.2100000000000003,-0.1200000000000001,-9.8,0.007477786270629012,0.001712271123813463,0.01962090958436724,117.93145161290323,-1.243951612903226,179.25,-0.00030517999999999995,-0.5153637416625304,-0.8568491152754336,0.012512210000000013
324.0,0.04554610264287683,-0.0052883532238370955,-0.06842152113119854,-0.2100000000000003,-0.1200000000000001,-9.8,0.03528791996533932,-0.012716629248887314,-0.01656327543424318,117.91315136476427,-1.225651364764268,179.25,-0.00030517999999999995,-0.5154642782679895,-0.8567998311017363,0.012512210000000013
325.0,0.04607205876560714,-0.005950628224821774,-0.06987081019339081,-0.2100000000000003,-0.1200000000000001,-9.8,0.041837508369766435,-0.004753165741068967,-0.01357009925558313,117.89407568238212,-1.2065756823821339,179.25,-0.00030517999999999995,-0.515574114188585,-0.8567455491811407,0.012512210000000013
326.0,0.04531022293119066,-0.0067705994722123755,-0.06991927606443732,-0.2100000000000003,-0.1200000000000001,-9.8,0.030921855921855923,-0.0023378111583756745,-0.000147332506203475,117.8754652605459,-1.196029776674938,179.25,-0.00030517999999999995,-0.5156822066575679,-0.8566840440918106,0.012512210000000013
327.0,0.046280303477884116,-0.008506907519004295,-0.07048447162156837,-0.2100000000000003,-0.1200000000000001,-9.8,-0.0024202164323132054,0.026208846596951437,-0.009194249970459648,117.84196650124069,-1.19075682382134,179.25,-0.00030517999999999995,-0.5158475371997515,-0.8565892904330014,0.012512210000000013
328.0,0.04638259925558312,-0.00940834367245658,-0.07123045905707194,-0.2100000000000003,-0.1200000000000001,-9.8,-0.007370502481389577,-0.009217005272952855,0.0145801023573201,117.82521712158808,-1.188120347394541,179.25,-0.00030517999999999995,-0.5159302024708433,-0.8565419136035967,0.012512210000000013
329.0,0.04765820109261186,-0.009886674037460982,-0.07113456035379812,-0.2100000000000003,-0.1200000000000001,-9.8,-0.030156575182101974,-0.02552171403485952,0.01072897697710718,117.81754032258064,-1.1875,179.25,-0.00030517999999999995,-0.5159674609475802,-0.8565202546975792,0.012512210000000013
330.0,0.04751609651404786,-0.008786582986472427,-0.07062776404786678,-0.2100000000000003,-0.1200000000000001,-9.8,-0.012306110171696149,-0.0031999951222684703,0.006971091311134235,117.81401209677418,-1.1875,179.25,-0.00030517999999999995,-0.5159842575705641,-0.8565103491229824,0.012512210000000013
331.0,0.0459082886416393,-0.009113476046586091,-0.07118985131673737,-0.2100000000000003,-0.1200000000000001,-9.8,0.001968649318618428,-0.0006231927379332421,-0.015562027235251743,117.8125,-1.1875,179.25,-0.00030517999999999995,-0.5159912099999996,-0.8565063499999985,0.012512210000000013
332.0,0.04529194508760972,-0.008623493377602936,-0.07015674810680864,-0.2100000000000003,-0.1200000000000001,-9.8,0.020573156213381134,-0.009094461751039597,-0.015958627148826295,117.8125,-1.1875,179.25,-0.00030517999999999995,-0.5159912099999995,-0.8565063499999985,0.012512210000000013
333.0,0.041289189709703474,-0.020664065237188566,-0.06953200308566237,-0.21700460829493107,-0.10635944700460837,-9.799999999999997,-0.155423027308056,-0.07943022338704053,5.33288105148895,118.89452764976957,-1.2404953917050692,179.3274193548387,-0.0009550205161290322,-0.5078434390138247,-0.8611204944423956,0.012544611032258068
334.0,0.0424811877304237,-0.03222735427269317,-0.07038671626636403,-0.2053008017170634,-0.09472634303389943,-9.799999999999995,0.015882354391529574,0.044468966321675095,-2.965987212556096,120.65532557919323,-1.185716652989079,179.39078656650463,-0.0009507280265134776,-0.4944190336010352,-0.8683593951774506,0.011840111939019004
335.0,0.024532284533414613,-0.02387959015477977,-0.07232908681981794,-0.18516192159585892,-0.09622953096395429,-9.799999999999997,-0.05622437939985733,0.17354811723341818,-1.4070039929427947,119.10626302001135,-1.0764700776466132,179.37200618647813,-0.0004776424187866927,-0.5062469385009785,-0.8618149820818131,0.011024536269048674
336.0,0.007237587768725749,-0.026193822705996243,-0.07028987210143892,-0.16145192853986495,-0.09263089451423517,-9.799999999999997,-0.05822658361126529,0.08963182314394882,-0.37985055763579856,118.42856783643803,-0.9384366517265323,179.3755192222713,-1.3854194467973347e-05,-0.5114430289543891,-0.8589852881689757,0.009925268579878216
337.0,-0.0017951285232136872,-0.023130884078668368,-0.06781211551324529,-0.1454522594800986,-0.0908315762893756,-9.799999999999997,-0.07418524347462291,0.11104620098113743,-0.33726595154196704,118.07019178723172,-0.8440044939962086,179.37727574016793,0.00036170034167119433,-0.5141443062611634,-0.8575095532780365,0.009149151802158067
338.0,-0.013212751000722328,-0.02460732937684021,-0.0706169388351012,-0.13413699018437142,-0.09035818445805183,-9.799999999999997,-0.032389753589570906,0.05403314244668674,-0.25851987480117816,117.83146127294043,-0.7825121256004841,179.3757346442775,0.0006137255107489335,-0.5159439535569522,-0.8565195883011678,0.008680947097756936
339.0,-0.018200498346141108,-0.02403366910733306,-0.06746600366412595,-0.12587317913991003,-0.0902718894009216,-9.799999999999997,-0.062441562610074886,0.05616068302184094,0.0976581470006482,117.71577482559968,-0.7278253292606928,179.3741935483871,0.0007943362441062383,-0.5168279482886395,-0.8560473018505395,0.008359786911671224
340.0,-0.01880033836587567,-0.02175988494760142,-0.0640876175597276,-0.12218774164368779,-0.08999999999999991,-9.8,-0.05159158181046333,0.05872225098022328,0.09223856138496808,117.76812646809938,-0.7030399687778118,179.375,0.0008983757858705717,-0.5165543481580701,-0.8562097562314986,0.008147443543541865
341.0,-0.016684714199789067,-0.023574935251845976,-0.0667477086354247,-0.12077129017668264,-0.08999999999999991,-9.8,-0.03141537443917486,0.010117625249379814,-0.06982318440140138,117.78573180650997,-0.6932538553566479,179.375,0.0009463424620253199,-0.516437887268732,-0.856287239077473,0.008056275402006846
342.0,-0.016374389583539924,-0.024253893672994204,-0.06812955023469859,-0.12019258545979788,-0.08999999999999991,-9.8,-0.005881055517955725,0.020366589525208742,0.011884689474613248,117.78927470278879,-0.6891550312951372,179.375,0.0009658364118533251,-0.5164759949580371,-0.8562747754035014,0.008017768922899801
343.0,-0.01911160499879934,-0.023719387857200045,-0.06852794314816296,-0.12048387096774202,-0.08999999999999991,-9.8,0.009675324431681741,0.021896402610461857,-0.024186747703714078,117.79066377171216,-0.6915322580645161,179.375,0.0009628895239334033,-0.5164548746311611,-0.8562866300717558,0.008026583775364197
344.0,-0.015393488838598104,-0.023749203948150374,-0.0697431840618625,-0.12047653958944288,-0.09516129032258054,-9.799999999999999,0.012546110101960127,-0.05162768991544356,0.018573838849755865,117.76746233856869,-0.6948924731182795,179.375,0.0011396754511162623,-0.5166132241737034,-0.8561912284823896,0.008166806485983662
345.0,-0.016052663734115354,-0.022679052466350866,-0.06866479622528009,-0.12325563952176857,-0.09774193548387086,-9.799999999999999,0.007468474485863599,0.0033534887491540703,0.048054629342431765,117.74481987896175,-0.7115436311000827,179.375,0.0011032856606417786,-0.5167042633880605,-0.8561372750989154,0.008264680718738244
346.0,-0.011746089931573805,-0.02326744962027221,-0.06998764004812391,-0.12678911008346488,-0.0938709677419354,-9.799999999999999,-0.008157773845777878,-0.013349717318971352,0.01624631668734491,117.74153481347281,-0.7317798800661703,179.375,0.0009459117819337928,-0.516770984894635,-0.856089406674962,0.008287652456143319
347.0,-0.013796121888863831,-0.026082856323783758,-0.068812678584856,-0.12633252030227834,-0.09193548387096767,-9.8,0.011538358734679299,0.05035057558369051,-0.08053999302109181,117.71335425537164,-0.7418980045492142,179.375,0.0008803016180140425,-0.5169957661346627,-0.8559583062431888,0.008272482880677117
348.0,-0.013056404616888496,-0.024894211970824885,-0.06846860666215503,-0.12315113918339729,-0.09096774193548379,-9.8,-0.014475712459583427,0.025309292521994136,-0.07612825682382134,117.66654670933906,-0.74683105872622,179.375,0.0008657807107207308,-0.5173365211419285,-0.8557633805081879,0.008227749817354683
349.0,-0.0164964330024814,-0.025127946650124085,-0.06801240694789079,-0.12455210918114144,-0.09048387096774185,-9.8,0.04044665012406948,0.025163810483870966,-0.08040283808933002,117.60655048076923,-0.7492555831265508,179.375,0.0008400900767679903,-0.5177608277239457,-0.8555015571431459,0.008258837037220846
350.0,-0.014987855773860234,-0.024079843107662695,-0.06904838709677419,-0.12657271026998998,-0.09524193548387086,-9.799999999999999,-0.016864884633902448,0.019339293857171955,-0.1473796254073923,117.47646373340339,-0.75,179.375,0.0009271346781010432,-0.5187270729056748,-0.8549029038814502,0.008492451680456283
351.0,-0.013079139885952603,-0.0204128901510943,-0.06942583088954055,-0.12828635513499498,-0.09778225806451601,-9.799999999999997,-0.010009452336501566,0.021888133457178355,-0.08018591027212235,117.4252173337716,-0.75,179.375,0.0009547851843126188,-0.5190688090808311,-0.8546919659293764,0.008648631324099113
352.0,-0.008138825526102853,-0.020468231676043433,-0.06829852338521694,-0.12921265647568603,-0.0990524193548386,-9.799999999999997,-0.02969455247098031,-0.040250102005902136,-0.030306974987177798,117.41975041626544,-0.75,179.375,0.0009682017881860864,-0.5190826802885542,-0.8546845225751103,0.008727554128550799
353.0,-0.008361256195373527,-0.02067404219678263,-0.06776384585974207,-0.12976761856042363,-0.0996874999999999,-9.8,-0.014747220204112585,0.004833425744027238,0.031259503781525165,117.45785907910046,-0.75,179.375,0.0009743497650607856,-0.5188964556281476,-0.8547911474165878,0.008768151419114112
354.0,-0.00812320042231554,-0.019186307452717995,-0.0683462486467169,-0.1299518536350505,-0.0999999999999999,-9.8,0.022364043107749136,0.029223678517814954,0.013849137931469186,117.47807898511473,-0.75,179.375,0.0009778236350505545,-0.5187952524637709,-0.8548496896609152,0.008784150397857108
355.0,-0.0023440951247272798,-0.026704216518537556,-0.07142078301222421,-0.12999999999999992,-0.09608740894901135,-9.8,-0.09431918598802054,-0.029333367071562956,0.034168034261524115,117.50433372897155,-0.75,179.375,0.0008551270759625397,-0.5186062470297172,-0.854962174557654,0.00868161855838
356.0,-0.0006552054233639126,-0.027546938636013492,-0.07155894846651464,-0.12999999999999992,-0.092882414151925,-9.8,-0.06084783714893872,0.003475473091303756,0.08392926094916822,117.53627304728147,-0.75,179.375,0.0007583364412070766,-0.5182989094203843,-0.8551577851549301,0.008609331537254518
357.0,-0.005914800292327119,-0.027954416898651913,-0.07050225649132183,-0.12999999999999995,-0.09127991675338182,-9.8,-0.04428480567124355,0.033019238561780906,0.05384089055522927,117.55163891779395,-0.75,179.375,0.000709941123829345,-0.5180788915524303,-0.8552905002538769,0.008573188026691776
358.0,-0.007274399483974554,-0.027637064029056677,-0.06959154069481424,-0.12999999999999995,-0.09047866805411023,-9.799999999999999,-0.029457522029643156,-0.003821159894841896,0.0426124524986281,117.5580775234131,-0.75,179.375,0.0006857434651404792,-0.5179682980342799,-0.8553569806108099,0.008555116271410406
359.0,-0.008419585814695933,-0.030651609331476627,-0.06842096235969591,-0.12999999999999995,-0.09007804370447442,-9.799999999999999,-0.0167288890230141,-0.008903027464062012,-0.005223471651351591,117.56129682622267,-0.75,179.375,0.0006736446357960464,-0.5179130012752047,-0.8553902207892763,0.008546158517169618
360.0,-0.011582321523372945,-0.03126232911943239,-0.06680933653884899,-0.12999999999999992,-0.08999999999999991,-9.8,-0.020640068861142846,0.0026374560910699305,0.034621614850702975,117.56249999999999,-0.75,179.375,0.0006713900000000007,-0.5178889413660105,-0.8554046973405284,0.008544920000000004
361.0,-0.01080421856586009,-0.03375966799705094,-0.06686954236941228,-0.12999999999999995,-0.08999999999999991,-9.8,-0.005423866346936391,-0.02655495498745531,0.003814183742318497,117.56249999999999,-0.75,179.375,0.0006713900000000007,-0.5178836999294358,-0.85540749467238,0.008544920000000004
362.0,-0.009567735883032454,-0.03264740312294944,-0.0651678421012448,-0.12999999999999995,-0.08999999999999991,-9.8,0.037683402127991095,0.0021782616735790527,0.04402778759568561,117.56249999999999,-0.75,179.375,0.0006713900000000007,-0.5178833000000005,-0.8554077100000009,0.008544920000000003
363.0,-0.00828285837466848,-0.03357002785988987,-0.0668444133346472,-0.12999999999999992,-0.08999999999999991,-9.8,0.02330137247402391,-0.001472845350252763,0.0632561517822346,117.59370042305656,-0.75,179.375,0.0006713900000000007,-0.5177438641036489,-0.855499636218932,0.008544920000000004
364.0,-0.007778141936950216,-0.030846713878741664,-0.06661089074310445,-0.12999999999999995,-0.08999999999999991,-9.8,0.0016020431238527137,-0.0010484426444044154,0.09748029043284796,117.64261634056055,-0.75,179.375,0.0006713900000000007,-0.5175098825356952,-0.8556441664965626,0.008564118064516138
365.0,-0.005353691155779998,-0.02966633300596814,-0.0670073184204596,-0.12999999999999995,-0.08999999999999991,-9.8,0.07034121406973072,-0.09596516825248316,0.08989194022162689,117.69832429931253,-0.780241935483871,179.375,0.0006413622580645164,-0.5171472738484928,-0.8558562213127969,0.008616046370967743
366.0,-0.005312691487665047,-0.030582505477071864,-0.06804313771163319,-0.12999999999999992,-0.08999999999999991,-9.8,0.06676027265745008,-0.04660078572897518,-0.01921345916958357,117.71079290058171,-0.7973790322580645,179.375,0.0006248716129032258,-0.5170871685530143,-0.8558829528589369,0.008643487056451609
367.0,-0.0016049442605892091,-0.030601197736306124,-0.06779202952013781,-0.12999999999999992,-0.08999999999999991,-9.8,-0.017295623048907388,-0.03369796153468893,0.04421606991308575,117.66890451480698,-0.8059475806451613,179.375,0.0006166262903225805,-0.5173028279497638,-0.8557560990465337,0.008657207399193543
368.0,-0.0010113563185547843,-0.03023185217328263,-0.06996819878968286,-0.12999999999999995,-0.08999999999999991,-9.8,-0.035997758642380716,-0.023302246235350814,-0.014479749284599372,117.6469853086991,-0.8102318548387096,179.375,0.0006125036290322581,-0.5173454058627717,-0.8557365440869895,0.00866406757056451
369.0,-0.0007098112237935211,-0.03062751882857681,-0.06859045020129304,-0.12999999999999995,-0.08999999999999991,-9.8,-0.03179676238570649,-0.07211924307735283,-0.05967498048907388,117.60575071886569,-0.8123739919354838,179.375,0.0006104422983870967,-0.5176770033799748,-0.8555391045283731,0.008666897716733863
370.0,0.0009268964234335006,-0.031811095243781506,-0.06704416103254615,-0.12999999999999995,-0.08999999999999991,-9.8,-0.006279515585454372,-0.046907565807109586,-0.12486257184975966,117.58113266790058,-0.8124999999999999,179.375,0.00061035,-0.5179098262054762,-0.855398084300397,0.008666989999999992
371.0,0.0008635091062250269,-0.03439816816897984,-0.06689571639916331,-0.13445747800586505,-0.09101661779081124,-9.799999999999999,0.0027113230847947293,-0.09678409154256254,-0.0594376397860724,117.56246181573802,-0.8124999999999999,179.375,0.0005492568230694038,-0.5180655435222692,-0.8552981637121426,0.008804930801564022
372.0,0.0032335235437472693,-0.031106472221846846,-0.06649156267408737,-0.13739002932551314,-0.09050830889540559,-9.8,-0.003343219831171834,-0.03975846096378908,-0.11520919450281768,117.52921477883675,-0.8124999999999999,179.375,0.00045379566959921787,-0.5183378215218004,-0.8551391239008167,0.008950887018888146
373.0,0.0007807292493987536,-0.031653183228850454,-0.06652079290499716,-0.1388563049853372,-0.09025415444770277,-9.8,0.006582434736714453,0.02263119100475273,-0.0929906570412026,117.5125912603861,-0.8124999999999999,179.375,0.00040606509286412497,-0.5185388065885045,-0.8550252591555909,0.0089979501223473
374.0,0.0013835481884474567,-0.03220419978134792,-0.06805998362607768,-0.1395894428152492,-0.09012707722385134,-9.8,0.02370152362795784,-0.0016432338627029985,-0.10790025843611589,117.50212086300796,-0.8124999999999999,179.375,0.00038219980449657846,-0.5186319204261483,-0.8549578147628076,0.009021481674076877
375.0,0.0014474163014788386,-0.03351755540290367,-0.06878405853484748,-0.13995601173020522,-0.09006353861192563,-9.8,0.035304078210843706,0.001099244465316349,-0.04159266141704175,117.46779430247172,-0.8124999999999999,179.375,0.0003702671603128052,-0.518846817463734,-0.85483827497229,0.009033247449941665
376.0,0.003877304467707225,-0.034312698806361494,-0.06752867669907639,-0.13999999999999996,-0.08999999999999991,-9.8,0.08039346218113214,0.014807379303890792,-0.02394862629708077,117.45084485407065,-0.8124999999999999,179.375,0.00036620999999999973,-0.5188647376973546,-0.8548257381786053,0.009034819687825185
377.0,0.00326539520992021,-0.035603279684138095,-0.06741158080531341,-0.13999999999999996,-0.08999999999999991,-9.8,0.0518382503413465,0.004542087154546853,0.010414474572583442,117.4431643625192,-0.8124999999999999,179.375,0.00036620999999999973,-0.5188353723502386,-0.8548397827339431,0.009033200000000002
378.0,0.0022236547704809935,-0.03349307294624674,-0.06803286602402106,-0.13999999999999996,-0.08999999999999991,-9.8,0.02266357255301064,0.029174798204454813,0.016932184404218745,117.43932411674346,-0.8124999999999999,179.375,0.00036620999999999973,-0.5188187312147812,-0.8548478326387852,0.009033200000000002
379.0,0.0008313655647162411,-0.03195275354198353,-0.0682748939406067,-0.13999999999999996,-0.08999999999999991,-9.8,0.01799182542223645,0.0254572560633955,0.014076257704314416,117.44374349635795,-0.8124999999999999,179.375,0.00036620999999999973,-0.5188428607527418,-0.8548289935275749,0.009033200000000002
380.0,-0.005787039226815504,-0.0305866482199729,-0.0697729834768076,-0.13999999999999996,-0.09132942326490703,-9.799999999999999,0.00287515175164759,0.03858630530066534,-0.1760522350849809,117.31598831709394,-0.8124999999999999,179.37011241446726,0.00042062360703812296,-0.5198437677099297,-0.854214192086368,0.009053724496578694
381.0,-0.005295104500944774,-0.028224965829349302,-0.06692895551812045,-0.13999999999999996,-0.0958260019550341,-9.799999999999999,-0.014425557478854826,0.10427899472189273,-0.11969034951239362,117.20006922058171,-0.8124999999999999,179.37255620723363,0.00048792519061583545,-0.520649197959784,-0.8537143722193227,0.009074966764418376
382.0,-0.00459748421237105,-0.02781475618770756,-0.06707942212790677,-0.13999999999999996,-0.09807429130009765,-9.8,0.022702473801995783,0.04775429164574586,-0.09272108526608233,117.12523622319407,-0.8124999999999999,179.37377810361681,0.0005215759824046917,-0.5211416036573118,-0.8534043267548227,0.009085587898338217
383.0,-0.0037315757430221538,-0.02796898384307335,-0.06806291280692944,-0.13999999999999996,-0.09919843597262942,-9.8,0.007283412044078018,0.05057053161891871,-0.08051025240801515,117.08781972450026,-0.8124999999999999,179.3743890518084,0.0005384013782991199,-0.5213878065060755,-0.8532493040225728,0.009090898465298137
384.0,-0.004771615134778507,-0.028976687551089234,-0.0653087717000308,-0.13999999999999996,-0.09976050830889531,-9.8,-0.028843985965474,0.024439792344318877,-0.12569672349849248,117.05434820772359,-0.8124999999999999,179.3746945259042,0.0005620556995553872,-0.5216597804564717,-0.8530897042433365,0.009078309628070505
385.0,-0.004450812454974786,-0.030385215720803667,-0.06666709357240055,-0.13999999999999996,-0.0999999999999999,-9.8,-0.027358820939726247,0.04719668014087889,-0.07477712519010646,117.02401244697029,-0.8124999999999999,179.375,0.0005884401664932362,-0.521866826692068,-0.8529857185732814,0.00905314471383975
386.0,0.0002223861235307648,-0.026076455195862075,-0.06859169007660162,-0.14434203789042505,-0.0999999999999999,-9.8,-0.023997855465727472,-0.12448646043371589,-0.041516334464760586,117.01047086368365,-0.8396377368151561,179.375,0.000518376611664437,-0.5219609054006248,-0.8529396936836635,0.009172197958558375
387.0,0.0011384883471251843,-0.02597867424805512,-0.06805018747006258,-0.14733230926779328,-0.0999999999999999,-9.8,-0.0482272155740548,-0.08377703914986043,-0.1024113930388319,117.00422736732568,-0.8583269329237071,179.375,0.0004708444348644768,-0.5220051731841836,-0.8529185440998965,0.009259226721214667
388.0,-0.0024039007876156693,-0.027144504017487903,-0.06769082654540509,-0.14882744495647737,-0.0999999999999999,-9.8,-0.08055921732837054,-0.07947481790199337,-0.04816374302545934,117.03088229408469,-0.8676715309779826,179.375,0.0004470783464644966,-0.5218751285747224,-0.8529835741119824,0.00930274110254281
389.0,-0.0019433655863156387,-0.024576414339649265,-0.06638183366812397,-0.14957501280081942,-0.0999999999999999,-9.8,-0.015338141442541153,-0.04128202393538794,-0.024537126455497618,117.0544304810694,-0.8723438300051203,179.375,0.0004347190015360987,-0.5217538554007848,-0.8530584114238378,0.009324974671978997
390.0,0.0020602778096978133,-0.022776085607159383,-0.06661354375103712,-0.14994879672299044,-0.0999999999999999,-9.8,-0.04269053340635783,-0.016999946972321153,-0.0016696840798112074,117.05947330505083,-0.8746799795186893,179.375,0.0004233830676638717,-0.5217419457305352,-0.8530701514892851,0.009343890899414928
391.0,0.007018362151136673,-0.021029619864511597,-0.06830165154781759,-0.1500000000000002,-0.0999999999999999,-9.8,-0.03995445769140216,-0.045430337029427344,-0.025252404763919937,117.06199471704153,-0.875,179.375,0.00039342138022210464,-0.5216988062523646,-0.8530822191317398,0.009404998762559486
392.0,0.007925589264153945,-0.01938678573870742,-0.06752365455802789,-0.1500000000000002,-0.0999999999999999,-9.8,0.0019690141753907313,-0.040400158046351387,-0.023938818697096444,117.06325542303689,-0.875,179.375,0.0003788311739820199,-0.5216772365132794,-0.8530882529529669,0.009434693252247484
393.0,0.007386952160292774,-0.017394985761373244,-0.06822128457509974,-0.1500000000000002,-0.0999999999999999,-9.8,0.010556867609587624,-0.011768357258987748,-0.027119893619740088,117.06295525494275,-0.875,179.375,0.00037153607086197753,-0.5216712072219005,-0.8530889072134565,0.009449540497091484
