time,linaccel_x,linaccel_y,linaccel_z,gravity_x,gravity_y,gravity_z,gyro_x,gyro_y,gyro_z,euler_x,euler_y,euler_z,quaternion_w,quaternion_y,quaternion_x,quaternion_z
0.0,-0.07047619047619046,-0.04071428571428574,0.03095238095238096,2.0940476190476183,3.3890476190476213,8.95071428571429,0.1636904761904762,3.7202380952380953,0.36607142857142855,74.5327380952381,12.328869047619047,-20.727678571428573,0.7781996957142857,-0.19414411333333334,0.07452828523809522,-0.5924406511904763
1.0,-0.05480989294942783,-0.02411406423034331,0.02272056109265412,2.0263879660391284,3.367977113325951,8.975664451827246,0.05553248431155408,1.0259320782576598,0.02900055370985602,74.33164913252122,11.92454549649317,-20.556513012181615,0.7797856404318935,-0.19047740770025837,0.0760621403506829,-0.5914351814045773
2.0,-0.042673627590571105,-0.014280177187153936,0.013546907134947005,2.0793363391868374,3.355799715234931,8.967529663028003,0.23553433001107418,-1.6053828508147445,-0.30899976269577595,74.53244146495807,12.244022899857617,-20.506362719506406,0.77855469596741,-0.19251370847017876,0.07351984885777565,-0.5926906716223699
3.0,-0.039263196751568835,-0.009516795865633077,-0.00012772240679217138,2.3850546327057955,3.3651096345514957,8.879420819490585,0.0641795865633075,-2.2546050203026944,0.0023117386489479586,75.18878276116648,14.08674557032115,-20.743279346622373,0.7733152287227759,-0.20628383207678108,0.06309514621114802,-0.5957583717183463
4.0,-0.03534240703032901,0.0027683706640945953,0.00104418961883328,2.366839031186368,3.3425645697138577,8.896432500982385,-0.17862278069517376,0.7247302897152859,0.06409861393919908,75.07521746508056,13.965936796699173,-20.580081404279642,0.7742731438520343,-0.20462046522916444,0.06301373839709927,-0.595277577836066
5.0,-0.03821191012038724,0.00926667381130997,0.0019583467295395274,2.325773586253707,3.321781516807774,8.917527310399025,-0.1604999464151752,0.42332904654735115,0.03179009037973779,75.11046779552031,13.71718018790412,-20.416207176794195,0.7745290471564319,-0.2021983440769478,0.06339215517858035,-0.5958524790601221
6.0,-0.045917109068207826,0.014707440797481602,0.0044556522405862775,2.2356425430399414,3.2929697842579118,8.951779500624285,-0.18570221279187393,0.7266802817864744,0.0535508005921341,75.02593598639207,13.171486343929189,-20.183198734134752,0.7756829171878072,-0.1973339771957388,0.06519824466081417,-0.5958293931150426
7.0,-0.047342335583895986,0.017410012781941132,0.005015657224410632,2.196341746586472,3.2825142653259136,8.966818715131746,-0.028803885422575157,0.04104809956844613,0.05079684010723935,75.00549180740308,12.938288856839645,-20.093480267932836,0.7760853361893478,-0.19529957123518163,0.0660017829992655,-0.5959279726469335
8.0,-0.05933794162826422,0.006333520662395566,0.0041775317522760496,2.2650958188153307,3.3040848038664707,8.941743583979619,0.02538367333558128,-0.7219673766438124,-0.14339489434640887,75.2223889841145,13.352645437600689,-20.266431217451576,0.7744285583922483,-0.19910875930815627,0.06434491263688134,-0.5969871911811099
9.0,-0.05106223071447306,0.005076392791577686,0.009733196583117906,2.3322252350979733,3.3134040968865905,8.921301524858563,-0.07674315546438874,-0.38231812689670674,0.23868690523022745,75.14553015295417,13.758163859072347,-20.360788222153538,0.7744190867961579,-0.20224276358358623,0.06277921436665918,-0.5961349358830693
10.0,-0.05285369600239781,-0.0015585777977595448,0.014741598291558956,2.3467779401296314,3.294125435540069,8.925247536622832,-0.2547778277321944,-0.4723586602225469,-0.1703490877074669,75.13685277809,13.843875276310367,-20.24463302236709,0.7745262163456597,-0.20221937425147052,0.0615441986913941,-0.5961401104737927
11.0,-0.04569435390206437,-0.0006990371286201347,0.01254310441721929,2.5120223296242177,3.2779808924356524,8.88439638829568,0.08638960698362744,-0.8190471507249635,0.3096867858079503,75.26569723876962,14.847783428871155,-20.2389864561088,0.7730289123136638,-0.20884002238852048,0.05541885423161365,-0.5963484746074708
12.0,-0.04929406916188979,0.005920347682739501,0.009664943239294144,2.4722070735453894,3.2957260874452063,8.889210782660822,0.22729688846427637,1.1047712712150164,-0.3399785976546401,75.27759684912516,14.603759928440297,-20.324036894458807,0.7730810505950694,-0.20766112254831215,0.057453434126034986,-0.5965061331188415
13.0,-0.04563397774530741,0.003405642351354389,0.00748992169645199,2.4148900191075637,3.3164728747517893,8.897957925892621,-0.08647636375557305,-0.5136185886628452,-0.19634298546326473,75.56703383162863,14.261653389719381,-20.425027279794687,0.7717479519718818,-0.2060891760667828,0.05956404997392378,-0.5985897963520473
14.0,-0.04454004158705182,-0.007931325165786225,0.012568721666479337,2.4127675901989427,3.3015763272264063,8.904875894496271,-0.2361473085496984,-0.08246330691993553,-0.09613077675995653,75.73171223446104,14.245573941122476,-20.323204041156195,0.7710030984761063,-0.205550035901212,0.05869232829538047,-0.5998465095332226
15.0,-0.0389434078903001,-0.0061672754861189175,0.008038393091304184,2.585242666067213,3.3020825184519125,8.854349237570718,0.12504630540257017,-2.4494977824922257,-0.11643736418642986,76.04685410110149,15.295947252819301,-20.438492141545836,0.7682906934598273,-0.21320587712399308,0.0525957841315612,-0.6011406845851598
16.0,-0.029036220074182308,0.0037429751601663445,0.003079680416619834,2.6836455265819943,3.311460614064666,8.820723005882133,0.04788101560451089,0.33974203617324195,-0.04478622241579558,76.38585144571204,15.881844594151588,-20.564810586901952,0.7658533569033008,-0.21780517882006106,0.04929667736416769,-0.6028543125990315
17.0,-0.03217241766887716,0.0010364167696976488,0.005836948784234386,2.573414521748905,3.315603536772695,8.85235727398749,-0.11091332284290584,0.6862563691881159,0.396674674984077,76.01807631785995,15.21841233936533,-20.519906522797946,0.7684384897120751,-0.21302995268412575,0.05367347338900752,-0.6009047615513845
18.0,-0.025846577498033048,-0.0025900865460267513,0.00954366640440598,2.556946892210858,3.285012981904012,8.869228560188828,-0.20004671518489375,-0.023596085759244656,0.1493214004720692,75.8413970298977,15.11296961054288,-20.314407946498818,0.7697216047116444,-0.21121917476986624,0.05324678947560975,-0.5999986573048781
19.0,-0.036063298490127765,-0.00910666516803417,0.009281218388220748,2.594191478400959,3.285329914577947,8.858377158967444,0.002872983870967752,-0.23233469381064778,-0.032466936420516276,76.0571970069499,15.339303686167622,-20.34091992619235,0.7683712678093458,-0.21295739421757331,0.05168348066002585,-0.6012724583315443
20.0,-0.042156747592821564,-0.01115266381926492,0.015528099359334607,2.5853116125285673,3.279041137462065,8.863807875313778,-0.1971356215578285,0.5455145226855495,-0.21916423138885768,76.26728420862838,15.28134231810348,-20.289985681034807,0.767380026587108,-0.21240996520900304,0.051344351817326064,-0.6027580899705518
21.0,-0.05701174553220187,-0.011074219774455808,0.014915739387808628,2.4651725113334084,3.282946836012139,8.895983046719866,0.14822798415196137,-0.4783444091641376,-0.38842236147015846,76.27239858472893,14.556683783859727,-20.243143522161027,0.7680003097931702,-0.20746038728384097,0.05529402782168147,-0.6033294492310515
22.0,-0.03851485015116015,-0.0033999878956605966,0.005335071170633719,2.466127985376805,3.2858650740814395,8.895067114959522,-0.09224250089341551,-0.37588315295706126,-0.06538507470106603,76.43731175680797,14.563146280761593,-20.264487444269605,0.7671065263128937,-0.20765852146838462,0.0550705763727625,-0.6044188940185802
23.0,-0.05364048959170909,-0.007151606851056105,0.018844954940155565,2.4804389926884025,3.29685189187943,8.887553718770084,0.038430160843614815,0.540712657392437,0.06322480135914439,76.5102637413072,14.646517696832408,-20.343987673747705,0.7665816744991887,-0.20864628795193424,0.054995251440413506,-0.6047655402512255
24.0,-0.04621685788640941,-0.0026929215552346955,0.01241983613030033,2.4486831170403165,3.29185856367603,8.898871085903343,-0.01764074176544672,-0.20836777306092807,0.09238370467717438,76.54990878515662,14.456824469786703,-20.288875463639428,0.7666031334471891,-0.20716221110140265,0.05572631719401816,-0.6051996767961196
25.0,-0.0472406083295147,-0.003073447402322305,0.012190248513615939,2.4513462792125265,3.2833218860866378,8.900865912739242,0.009251029589345877,-0.2595979305902595,-0.06755224679595254,76.42620340910074,14.477507435522778,-20.240430060694617,0.7672833390453884,-0.2069688880479476,0.05551879270715856,-0.604430398505849
26.0,-0.04313259295123969,-0.0031339849502713393,0.012544301882224777,2.41715172789445,3.2698268978595495,8.914903377110695,-0.30441650779721197,0.867772196332385,0.2392712052895963,76.41534508715125,14.269256743125744,-20.125461414896407,0.7676246316631161,-0.20499777001541286,0.056020521121759564,-0.6046173751362747
27.0,-0.04301357199055862,0.0016398505114083384,0.009481313926042486,2.3319653815892996,3.2500828088119587,8.944435287175455,-0.21848077301337532,0.8262785208497245,0.09397251180173091,76.31960931353265,13.759598741148702,-19.953384392210857,0.7687565495755311,-0.20066335978599525,0.05806050508477577,-0.6044303218961445
28.0,-0.04874626278520851,0.005021636506687647,0.014677025963808026,2.2201699449252557,3.1991577498033035,8.99101770259638,-0.24076760424862312,0.06896636506687642,0.19037913060582218,76.09893046813534,13.085842840283242,-19.567181353265145,0.7708762802336743,-0.19407446530920533,0.05986712796066092,-0.6036774713898503
29.0,-0.04552183320220299,0.006141817466561763,0.014289732494099136,2.150462627852085,3.188611132966168,9.010331825334383,-0.11224552517702596,1.5311639457120376,0.16892579661683713,75.99134170928403,12.659143882769472,-19.465829071597167,0.7718277996369,-0.19068710790637292,0.06181425250118019,-0.6032766061355231
30.0,-0.04103030984226893,0.005466262035892249,0.010879697276235436,2.1184740174590684,3.1948203514293194,9.015967179948296,0.12015051890150237,-0.023528530216177734,0.0382947435465138,75.94308708928104,12.475532482859391,-19.494766494323926,0.7721779563864222,-0.18959601296317105,0.06313111264920761,-0.6030364835184144
31.0,-0.03682851897643401,0.002542430032595257,0.011252856768199019,2.105668577423101,3.190341313551385,9.021789741860552,-0.024209939680041953,-0.9009310254392866,0.045448372110449206,75.94971619647073,12.400450994717321,-19.4583263084935,0.7722881886605971,-0.18889156525832673,0.06337958641789368,-0.6031439601569817
32.0,-0.03749765838672212,0.0034348656850623797,0.010059945299913827,2.1800412123936908,3.184077029710391,9.006949158892512,0.027897980592709155,-0.5090316024127983,0.09026450863586977,76.00332977408115,12.839510509160391,-19.454699149526057,0.771677916108426,-0.1918546989745607,0.06069220132853771,-0.6032913981076018
33.0,-0.043547263122400814,0.00724438949458619,0.010724963470832863,2.2139144280843723,3.1866494323929424,8.997540369412912,-0.06804025701547337,-0.3673476078078753,-0.13071587801131468,76.1062062118317,13.046345209995877,-19.49109016147765,0.7709323933816643,-0.19343691595032037,0.059569729422277166,-0.6038718145224982
34.0,-0.04715758120714848,0.009314562961297816,0.009013150500168597,2.2458690944513124,3.1798172417668895,8.992030609568772,-0.04875753999475479,-0.416261333408265,-0.14675054325428047,76.35624039938556,13.237732990521149,-19.464226237308456,0.769505234728598,-0.19468276904203663,0.05788778431066651,-0.6054605120055447
35.0,-0.04995129444382003,0.008197220036716498,0.012383687385260952,2.2915459143531525,3.179145180023231,8.981275673447978,-0.08312492975160166,-0.5849499831403844,-0.0976216233936533,76.52073732718894,13.513840573601588,-19.487844685474503,0.7683980126477089,-0.19668899348491997,0.05612780245487243,-0.6063893453514667
36.0,-0.056703757820988354,0.005912742122812932,0.022132703907684244,2.2143228803716606,3.120990408752015,9.01991971076393,-0.1426665355363231,0.9214554999812671,0.16139944175939452,76.48181643625192,13.045961185418305,-19.081172726761828,0.7694254326172492,-0.19139312685459517,0.05626088218365742,-0.6067153650674383
37.0,-0.06260443595219363,0.01648115469633959,0.015204825596643066,2.0646634071409835,3.12318599902589,9.05365379716009,-0.5776275242591136,1.1026189773706494,-0.059863811771758285,76.14076561387733,12.149087004982952,-19.026055482185008,0.7719175142079164,-0.18499183746742348,0.06164712170551872,-0.6049726312512644
38.0,-0.06876868607395752,0.012721675845790717,0.015219118804091268,2.0023410700236033,3.095191778127459,9.077098151062156,0.05297747836349326,-0.31109731510621563,0.20122688827694726,75.99635621557829,11.784851986624705,-18.821354986231313,0.7731711927452791,-0.1814120085515342,0.0626429772155783,-0.6043534628747049
39.0,-0.05474435130827735,0.009090883415037623,0.016355423752748694,2.0076353819927775,3.083974404365632,9.080831023421897,-0.22450510903992416,0.27707192247170603,0.08075069599951581,76.00529530175109,11.81121993458613,-18.74814582955073,0.7732100039841988,-0.18119410634503919,0.062030392011842087,-0.6044821893100779
40.0,-0.051174595008977385,0.01010995783655107,0.012314808650567895,1.9614668845447762,3.042063815086042,9.105125189130304,0.023281719673586318,0.30673152575198204,0.23553663832233857,75.9202131750691,11.535524281809195,-18.463387430904394,0.7741810993025833,-0.1778150114830035,0.061899994207533934,-0.6042784872316518
41.0,-0.04251471685932741,0.0113211079505336,0.0077178881962516885,1.8767334422723883,3.0626649720591494,9.116022271984505,0.030214448546470575,0.8186883435211523,0.24906872238697575,75.62094328108293,11.03192544735621,-18.559138271903812,0.7759758263891949,-0.17477656291892107,0.06589483918844438,-0.602429997321471
42.0,-0.050361213661764395,0.019300207791159797,0.008757449212209245,1.881114950876556,3.0326377574693857,9.12542419657447,-0.28201118642700074,-0.2961534678932397,-0.12597704714640195,75.65550507877907,11.060066775605721,-18.37091945066473,0.7759677332473118,-0.17400625851532203,0.06441470158556759,-0.6028316041343782
43.0,-0.06086904113458008,0.01529526518590248,0.008918457100203756,1.958492172527184,3.04412769069378,9.105709737941051,0.19222119671568924,-0.9636501013738423,-0.32732270925376744,76.09668448274122,11.522731066795778,-18.471676287094756,0.7732266318124836,-0.17786555633476564,0.061746589321501344,-0.6054824579011782
44.0,-0.05973347757671124,0.014606215578284816,0.011105822187254132,2.082636309992132,3.0529404012588506,9.074450826121161,-0.0950875295043273,-0.7799776258851299,0.035305615656963024,76.35860419944925,12.26359411880409,-18.58176755507474,0.7711924335118016,-0.18351205199921322,0.05774219872639655,-0.6067660280080647
45.0,-0.05387077104642014,0.015641817466561764,0.00967387883556255,2.116281864673485,3.0418613296616837,9.070314122738,-0.3396304583005507,-0.12549788552321012,0.039805025570417,76.37348052714398,12.467482543273011,-18.526846479150272,0.7710437116671911,-0.184550899693155,0.0562191808511015,-0.6068156017419355
46.0,-0.045729740361919735,0.018462037765538945,0.01032081038552321,2.067773996852871,3.002047600314712,9.09482238394964,-0.2219069630212431,0.45481658143194337,0.02365755310778915,76.28502655389457,12.171770505507475,-18.2568708202203,0.7720074165997246,-0.18112732966109363,0.05629535518764754,-0.6066178802903226
47.0,-0.040501966955153415,0.01524311565696302,0.008874114870180961,2.114165224232887,2.9841447678992914,9.090423288749015,0.02946990558615263,-0.5310090479937057,0.20850216365066876,76.22971085759244,12.449670535011801,-18.164599724626278,0.7722006322635719,-0.18245534126199842,0.05414995815027538,-0.6061620630967741
48.0,-0.04232415420928402,0.015956726986624706,0.008416601101494885,2.0279024390243903,2.993232100708104,9.107302911093624,-0.06536437844217152,0.7664732494099135,-0.10867673092053501,76.17829464988198,11.938230232100707,-18.184320908733277,0.7728119929162077,-0.17908004212431158,0.05735570639378443,-0.6060904441487018
49.0,-0.04461290322580645,0.013177419354838711,0.01095967741935484,1.939096774193548,2.9904516129032257,9.127258064516127,-0.2514616935483871,0.8897177419354839,0.05075604838709678,76.21330645161291,11.405897177419355,-18.128578629032255,0.7730563255887096,-0.17528376419354838,0.06000474484677419,-0.6066358995645161
50.0,-0.03984254992319508,0.010623655913978496,0.010262288786482335,2.0108671274961596,3.0076451612903234,9.105051459293392,0.23119239631336408,-1.4921298963133638,-0.020818932411674335,76.3049563172043,11.83948972734255,-18.27569844470046,0.7721075709197387,-0.17900528239055297,0.05825758778187404,-0.6068952149082181
51.0,-0.038800307219662065,0.010263440860215054,0.009086789554531488,2.2009738863287254,3.035854838709678,9.049566052227341,0.02527361751152074,-0.8863119239631335,-0.1324356758832565,76.69731182795698,12.975616839477727,-18.5336909562212,0.7688888291251921,-0.18808202310253452,0.05267034862480798,-0.6086392383049155
52.0,-0.045129500580720086,0.006440729084710202,0.010087257877187067,2.2746521673972504,3.040607395751377,9.030169532801319,-0.1842074575699674,-0.5250015805889625,-0.0768357077291971,76.95190753671649,13.415527120564985,-18.594485500730585,0.7671567247821082,-0.19143050770282116,0.05009927478339139,-0.6100456379142596
53.0,-0.03796797609681166,0.005663912929451875,0.009688790228916114,2.3128018901502383,3.0100456333595593,9.032326701884529,-0.23993639007530626,-0.03424978222996511,-0.14360938612266305,77.07613017964857,13.640122431250234,-18.41473266972013,0.7665445081531509,-0.19200729456108798,0.047457464464276344,-0.6109038271587426
54.0,-0.03780832634451832,0.004780054066049345,0.013361144494110662,2.2343377730321086,2.9838772418245263,9.061218768642842,-0.11624546447520484,-0.05169827304219511,-0.06370269761054576,77.10460122506001,13.170506444119741,-18.212496478573875,0.7669726588982255,-0.18784725977227268,0.048902353665967783,-0.611562922380033
55.0,-0.03582999959652203,0.004647435897435897,0.014080070205168556,2.251132113821138,2.9898988884181636,9.055590651415194,0.31574099991930443,-0.45653328567249685,-0.08787034865540963,77.19029071218907,13.27461070679255,-18.253617085527246,0.7663886674444107,-0.18879197778402323,0.04843864244114769,-0.6120662342968688
56.0,-0.03498354818535779,0.002803556658395368,0.007169067360648793,2.2708039601363756,3.0222236377574703,9.040214680546308,-0.0537726452016381,-0.2002172476749581,-0.18206521465028547,77.35625926738484,13.387456563073695,-18.466047454053943,0.7652100799480118,-0.1907817230573342,0.04885904107944481,-0.612899769624241
57.0,-0.037443780386935396,-0.0029034931106134885,0.012052669006838953,2.3527214135851033,3.0332581603421493,9.015507812342394,-0.05795929663701102,-0.9290474515322076,-0.014272182462829588,77.53016543227622,13.882137998295306,-18.58000445086647,0.7637633479661381,-0.19468141312032722,0.04634274548228731,-0.6136600574155824
58.0,-0.047045552663963375,-0.012866085658375196,0.016451491859831753,2.388182795698924,3.036208053420485,9.005516593031935,-0.14860371401480763,0.054505335996287985,-0.12951819685690652,77.64082831507595,14.097106936795175,-18.612736538965883,0.7629490344022274,-0.1963071532326656,0.045128223088704636,-0.6142571418970122
59.0,-0.06274527426415703,-0.020262654078153686,0.023171982489055668,2.4239838709677417,3.0410031168673974,8.994925376747567,-0.0030652978676188603,-0.4783563063608304,0.018419148056244825,77.71986618400614,14.314398174766486,-18.661827326554903,0.762309609554298,-0.19800075647985638,0.043991263153119894,-0.6146013988227823
60.0,-0.0718580816639432,-0.021560910044584318,0.015478988884181654,2.49769846577498,3.040423667009624,8.974446952732558,-0.11355566230910448,-0.3698036449192036,-0.07609235358792794,77.84382864668441,14.758900503590954,-18.698675268312854,0.761243874296425,-0.2011115074838306,0.0413961819164498,-0.6150872477630829
61.0,-0.0809470384716254,-0.020871426698137952,0.026991854788274934,2.462278324154209,3.026504221388369,8.987969345760458,-0.4363841942544736,1.5853885492949222,0.11037042430753091,77.83779933022656,14.537512923904053,-18.594053900875547,0.7615629279711866,-0.1991208485790514,0.042049364760349206,-0.615267451606266
62.0,-0.0813547082830745,-0.0119830689379662,0.02306822671896868,2.4531927067132635,3.0246614317744562,8.990880959451875,0.20307220332287573,-1.0350110891934992,-0.21877683304503426,77.9141875495844,14.493267667878508,-18.58068634184813,0.7611914201848617,-0.1987704541848745,0.04209547675198631,-0.6158282712581218
63.0,-0.08364745642320523,0.001858677212857221,0.016733618810760048,2.490774166102501,3.032988428224721,8.977795768025365,0.2206282113613367,-0.43643655130313,0.01436116198709285,78.10886192697834,14.714214198106951,-18.657251726242336,0.7599094970108677,-0.2006879071578151,0.04093431933511795,-0.616882438656486
64.0,-0.06991013302106014,0.01571035093268091,0.013304270318450693,2.5345884992589607,3.028513823142197,8.967695923109698,-0.017007153574107814,-0.6642404871143743,0.11235909478240641,78.04622207789535,14.974973734450597,-18.65504080996294,0.7600282183672425,-0.20235651358294238,0.039453071673248005,-0.6162957873551347
65.0,-0.0669631310266591,0.017758401272792067,0.011684393223741475,2.560298281887545,3.0182811051194856,8.962864090587109,-0.0707011574322152,-0.07110713871847751,-0.01851803325395808,78.04334793410897,15.133530213999492,-18.599748227562117,0.7599936672360407,-0.2031116436221164,0.03818381252210788,-0.6161809825767608
66.0,-0.07297015717343971,0.019264723846466845,0.011660449955694499,2.5414670008965654,3.0153364612930234,8.970948174325812,-0.1468031750969101,-0.005926307360812302,0.08301576700795407,78.05287479317565,15.015255468919495,-18.57433811850175,0.7600403261160534,-0.20217143687400077,0.03866872863320185,-0.6164097267368462
67.0,-0.06834854445318647,0.011491326664418714,0.01855490614813983,2.4039638080251766,2.956708740774043,9.025446330223673,-0.7357234180060694,1.8856105522460753,-0.008070136000899182,77.99690345060134,14.180269332359222,-18.130375173279383,0.7614586900325204,-0.19434140214742798,0.040854009949009035,-0.6169645306722491
68.0,-0.08557749803304486,0.009640440597954367,0.019298190401258852,2.211320613690008,2.923883556254917,9.084114870180958,0.15757031864673476,-0.09653324154209297,-0.06665027537372148,77.86481117230527,13.029405979543666,-17.837273800157355,0.7633599066506688,-0.18518871209598742,0.04595605578402833,-0.6170104098430369
69.0,-0.08213021243115658,0.007210464201416208,0.02122187254130606,2.140654012588513,2.9894154209284016,9.080274586939414,0.36253319236821396,0.24681107395751373,-0.25040322580645163,77.98116148701808,12.610478953579857,-18.211314909520063,0.7626654132985837,-0.1845595029496459,0.050723471664634145,-0.6177383067216757
70.0,-0.07160696489453375,0.008345247461691208,0.01364473043347945,2.171486568506238,3.003779139035629,9.06957047319321,-0.32821281049792067,-0.15649797684612793,-0.037528801843317985,78.15049817822486,12.79215383930913,-18.30876805383837,0.7615519684707206,-0.18635761142489973,0.05002385690700985,-0.61866261342593
71.0,-0.05995375782098836,0.018712356224944743,0.010272404555842793,2.2872145667078794,2.9787778464651,9.04870734517253,0.17570968444419466,-1.2595039058109476,0.22683453692255812,78.23172037156719,13.493637895264321,-18.209286662639094,0.7606711138380354,-0.19038675239222955,0.045086107938162666,-0.6188665393093458
72.0,-0.060295427297590964,0.03639650069311755,0.004083782923082686,2.359091154321681,2.9865824716196463,9.028398027424974,0.21943246318983928,-0.5530886464538609,0.1079737200741823,78.19985716159005,13.92456592343861,-18.291513290996964,0.76041176279805,-0.19363924431708252,0.043134420533597465,-0.6183475289490279
73.0,-0.060885616874601936,0.04787566970139749,0.0036588269454123114,2.4173117061930984,2.9712307519388554,9.019082078228617,-0.11568699421153197,-0.75786992806564,-0.014334712543554014,78.34750922595632,14.273195260106402,-18.217026806788805,0.759431581322412,-0.19554920493676708,0.040331755085347115,-0.6191553256196752
74.0,-0.07073313101794615,0.04978460904424715,0.003397961859802929,2.521466336967517,2.9544218275823306,8.995077329436892,-0.11416910194447566,-0.5659309317747555,0.005962684050803639,78.52304896781686,14.897308315537071,-18.16436017758795,0.7580423785886252,-0.19942006581919003,0.03600718307493163,-0.6198895268783862
75.0,-0.07308929976396539,0.06163808025177028,0.0023733280881195907,2.579212431156569,2.9529228953579842,8.980898111723057,0.0516424075531078,-0.363985051140834,-0.03758605428796224,78.6113468725413,15.242264948859166,-18.191684697088906,0.7572395275385524,-0.20180375038040915,0.033900089315499614,-0.620243657784815
76.0,-0.06800806451612904,0.06429032258064518,-0.0008629032258064514,2.608209677419354,2.956532258064514,8.974540322580651,0.010483870967741941,-0.2129032258064516,-0.058820564516129034,78.65559475806451,15.424092741935482,-18.22288306451613,0.7567693884112906,-0.2030157285725806,0.032929696096774194,-0.6204820668467741
77.0,-0.04523505114083399,0.05345416994492527,-0.00595023603461841,2.6203809992132183,2.9577580645161268,8.969606805664839,0.01592619000786782,-0.08231092643587726,0.010155635326514555,78.68004032258064,15.496733625098347,-18.23477822580645,0.7565365362407552,-0.20361543629642015,0.032504207682926826,-0.6205918057287569
78.0,-0.003024783634933116,0.043860149488591675,-0.012454956726986627,2.626355822187254,2.960137096774192,8.965097757671128,0.03707095790715972,-0.13236010031471282,0.04759293863099921,78.68724798387096,15.534833546420142,-18.252469758064514,0.7564261008219904,-0.20404610829740355,0.032370872575334386,-0.6206025750216362
79.0,0.053850511408339886,0.028990558615263583,-0.027449252557041712,2.6358754917387888,2.9655322580645147,8.962319040125886,0.06921592250196695,-0.10657823564122737,0.08891743705743509,78.69717741935483,15.59208915224233,-18.28548387096774,0.756313931923092,-0.20455628448741148,0.03225638693686075,-0.6205623291398503
80.0,0.09974783634933124,0.025858182533438245,-0.043168174665617634,2.638199842643588,2.971903225806451,8.958554681353263,0.11638719512195121,0.008379228953579856,0.09080448465774979,78.69233870967741,15.610434697088907,-18.33266129032258,0.7562903336026754,-0.204911859154996,0.0324603393595594,-0.6204743306546027
81.0,0.12055940204563338,0.01161054287962235,-0.04500747442958303,2.658745082612117,2.976274193548388,8.95085798583792,0.10350609756097559,0.05550009834775767,0.04076514555468135,78.67620967741937,15.732435090479937,-18.375201612903226,0.7562510702529506,-0.2058995432871754,0.0320404411313926,-0.6202105069402046
82.0,0.12345698924731188,0.0010576036866359467,-0.03953494623655916,2.6930990783410147,2.9798114439324115,8.938495007680494,0.07972830261136712,0.028401017665130566,0.09058179723502303,78.63961213517663,15.944450844854071,-18.41859158986175,0.7562350887338709,-0.20749722952995386,0.031147205490015355,-0.6197433493940092
83.0,0.12726152073732722,-0.007777649769585256,-0.03839784946236561,2.7132108294930886,2.9896543778801843,8.928566052227346,0.1405409946236559,0.028305011520737326,0.11085109447004608,78.59903993855606,16.07640889016897,-18.509158986175116,0.7562502059158988,-0.20875539582104458,0.03098103711520738,-0.6193030989596773
84.0,0.12608870967741936,-0.0064696620583717356,-0.03389861751152075,2.7115599078341015,2.992238863287249,8.928553379416286,-0.004999519969278041,0.07396073348694317,0.03187884024577574,78.57077092933949,16.063176843317972,-18.509907834101384,0.7563774788229647,-0.20870325331989248,0.031140750593702,-0.6191568114592932
85.0,0.10939811172305272,-0.007402513956015136,-0.029247892548049916,2.748793329212093,2.9865374096137276,8.919805702296653,-0.017734442321381744,-0.1521134816042861,0.05386723286875726,78.5819285409876,16.28862028633247,-18.493594751039673,0.7561462839237756,-0.2100263329080776,0.02965525761490765,-0.6190578492996699
86.0,0.10477970102281668,-0.012596418268330151,-0.027438462403057216,2.7954652129931445,2.9910106402907357,8.902870593083808,0.1687537465812446,-0.10420694241504627,0.10049712449889475,78.59078785920349,16.56615994155333,-18.54982156906822,0.7557710190022102,-0.21210414717178072,0.028359344621969956,-0.6188724464320932
87.0,0.10694361395226856,-0.017397287475178908,-0.03111708066389421,2.8195989659435785,3.0009469484095774,8.890671087632532,0.03994042935821063,-0.07392566782810686,0.0875325484245626,78.57594788505489,16.7002266681653,-18.65466308868158,0.7555572722430408,-0.21350388484856322,0.02812092644385748,-0.6186571548635118
88.0,0.10314454310441723,-0.03300430856843131,-0.021639054362893866,2.782352590760931,3.0148512607245896,8.897530665767484,0.06479571765763739,1.0877994923382412,-0.18570187516391293,78.5928274043685,16.48241565508973,-18.71121796673036,0.7556148901394477,-0.21243059050687496,0.029807694829680417,-0.6188633142171891
89.0,0.08225583530028849,-0.04297296841632012,-0.019801862050878576,2.6824320557491292,3.0427904537109898,8.917828312914462,0.2489877205799708,-0.12228688977557978,-0.31721729702896106,78.8613138557941,15.875016391292945,-18.829807332059495,0.7545830425044397,-0.20932711301073398,0.033698058113764945,-0.6209241787599002
90.0,0.05669084148214754,-0.054793966130905564,-0.0010086077704095017,2.6209620096661794,3.071352703158368,8.927269594619906,0.24854316529916454,1.6981644678917986,0.19807291081263345,78.50552884165074,15.49571718931475,-18.975613502678804,0.7567044740649658,-0.2075710893964164,0.037554272289994764,-0.6187182765008896
91.0,0.02633470083548762,-0.05947123562249448,0.015780609568768502,2.365462515454648,3.0428065640103403,9.004847326814282,0.026623323404893054,0.9687179784384249,0.30838748314038433,77.91340011614403,13.958199861376492,-18.658302424038062,0.7614768319624592,-0.1956821027388258,0.04565441278101233,-0.6160525336870106
92.0,0.016562511708066392,-0.06602997264995691,0.018773369300513286,2.316021580307969,3.049629088456783,9.017649469858753,0.16628545202502718,0.8277813682514705,0.07312015286051476,77.72665973549137,13.65873702746244,-18.66866734105129,0.7627484025296167,-0.1937635830145742,0.0478802923582481,-0.6150140042628602
93.0,0.009056236184481658,-0.07668532464126483,0.026967329811546974,2.1794860065190513,3.073083623693379,9.043718519351096,0.08872396126034993,0.9751121632760107,0.0656955996403282,77.50812235397699,12.836941291071897,-18.756343898692442,0.7644491133497806,-0.18877024310052076,0.05366059340178338,-0.6139813530204938
94.0,0.00426192349481098,-0.08333535648720541,0.03228447791390357,2.023258514105878,3.0434963096174736,9.089958338016562,-0.2967168240230789,1.018938968191525,0.18307458506612717,77.23416507436963,11.902751395601513,-18.49763871717058,0.7668615009260425,-0.18110205524869805,0.05787826215432168,-0.6129043535112959
95.0,-0.009831403843992365,-0.06126829268292682,0.021898767374770527,1.9535839421527852,3.007047693979244,9.117901596043612,0.10891405342624855,0.46158641957963364,0.19632799913828633,77.10906602412798,11.489514138660972,-18.24488310666517,0.7681154874868308,-0.17689922608441047,0.05886178023998726,-0.6125068968401334
96.0,-0.02702371585927842,-0.10089809299014652,0.04486231313926044,1.8217794200292232,2.9921207523135136,9.149516719118804,0.23628915177400622,0.5020421794799745,0.06543644159079841,76.83211604567083,10.705804332452887,-18.09837796448241,0.7702400996869917,-0.17078271701938855,0.06286645653545202,-0.6111555686098311
97.0,-0.016820276497695855,-0.07309617474054927,0.01896144767899292,1.7530987973474201,2.9696185980292977,9.171652242328873,-0.05575147053313852,0.03496028623880709,0.04072065490240156,76.66529213967254,10.298553351316922,-17.92805159042374,0.77157016159979,-0.16709051958188154,0.06435183650818628,-0.6103801354201792
98.0,-0.01528267955490615,-0.06360945637106143,0.021904012588512982,1.7444565583904685,2.932681053538646,9.185743509047992,0.10486915065003184,0.27185661833576863,0.08104089393428496,76.48584728934847,10.245239500206061,-17.693962852646962,0.7727941445685812,-0.1653745079026638,0.06338409173166985,-0.6094203801805853
99.0,-0.009049679667303587,-0.0531579933310854,0.025605822187254133,1.7273541643250534,2.923791352890488,9.191986624704956,0.15021683338953207,0.02162362781461917,0.05571517552733131,76.45215849911955,10.140223998726164,-17.631132685174776,0.7731186317217414,-0.1643502515477127,0.06361179989415908,-0.6092718982649582
100.0,-0.013070922782960551,-0.06799835150425237,0.03055022292158406,1.731915177400622,2.918177550485183,9.192843542767223,-0.07901984751414334,-0.07408161927241391,-0.07092793450975984,76.44267871192537,10.16843669214342,-17.601424637518264,0.7731757778616386,-0.16436615021164436,0.06323658625506724,-0.609236134023416
101.0,-0.020682926829268297,-0.06480409126671913,0.030845003933910306,1.7338316286388673,2.911696302124312,9.194456333595593,0.24360739575137685,-0.03031077891424075,-0.007228560188827702,76.42407553107789,10.18253343823761,-17.561772226593234,0.773320107191188,-0.16422518660582214,0.06295209245318645,-0.6091242805239967
102.0,-0.015275373721479153,-0.06507789142407552,0.03358536585365854,1.7181549960660898,2.9188402832415417,9.194574350904798,0.19079956726986624,-0.01115755310778914,-0.036850904799370574,76.35103756884342,10.089604642014162,-17.60045731707317,0.7737126145389457,-0.16377837183870966,0.06382559627616048,-0.6086451234020456
103.0,0.012832808811959084,-0.062101494885916604,0.028516522423288754,1.7789146341463415,2.9291306058221878,9.17955153422502,0.12188975216365067,-0.8536265735641227,-0.0880851691581432,76.5257056451613,10.452011211644374,-17.68485690401259,0.7724735520837922,-0.16675864727576709,0.062054853792682926,-0.6095871246365068
104.0,0.008222069236821401,-0.05702635719905586,0.021713021243115662,1.80818666404406,2.919561369000787,9.177376081825333,0.21635892014162078,0.44250713021243127,0.062345102281667966,76.50599306648309,10.619863788355627,-17.636611182140047,0.7725459522299369,-0.16758510102576707,0.06080569182946498,-0.6093883090373722
105.0,0.005270456333595595,-0.04167545239968529,0.023262195121951226,1.7896748623131393,2.9196176239181746,9.18113808025177,0.23626573564122738,-0.2827879130605822,0.09315499606608968,76.37710587136112,10.518683615263573,-17.631435631392606,0.7732860363288749,-0.16681047106058222,0.06153973007376081,-0.6085984569364674
106.0,-0.0006429976396538136,-0.045224822974036204,0.025304484657749808,1.8491801730920536,2.928268489378442,9.16651258851298,0.1139494000786782,-0.8402598839496459,-0.028472905192761605,76.32547329858379,10.871589791502753,-17.70546075924469,0.7732596081079859,-0.1695496886754524,0.06007946381510622,-0.6080171310367821
107.0,-0.008035208497246265,-0.050342250196695526,0.028732887490165226,1.9355820220298976,2.9280253737214794,9.14824822974036,-0.057919453186467344,0.37026824350904797,-0.15755802517702597,76.39764088316286,11.38261949252557,-17.73105699252557,0.7725186986870575,-0.173124094507081,0.05724059106884343,-0.6082241262240362
108.0,-0.004521636506687648,-0.04744531864673486,0.021342250196695518,1.9281014948859165,2.9302989771833206,9.149261211644372,0.12330841856805665,-0.7281471282454759,-0.022629819040125884,76.48448072383948,11.342973052714397,-17.745997246262785,0.7720783233556257,-0.17299508847128242,0.057417937590873325,-0.6088063311321794
109.0,-0.0035747442958300544,-0.04995397324940993,0.0247741935483871,1.9666077891424074,2.93109756097561,9.140905192761604,0.20620082612116442,-0.08901947285601886,-0.03904897718332022,76.61207710464201,11.5670903815893,-17.771847954366642,0.7712241088493312,-0.17467231149763965,0.05608117156097561,-0.6095323662899292
110.0,-0.009433957139110563,-0.05389478663219812,0.026236896332096967,2.003845275561051,2.9298577235772356,9.133580429732866,0.1030805093477202,-0.24526560919411036,-0.0735958515979169,76.68442101270091,11.790731601944476,-17.77599694185306,0.7706836719762749,-0.17624270566995429,0.05472170281563073,-0.6098944746829361
111.0,-0.015537063054962346,-0.049624620658648984,0.02533234985575663,1.9727611554456563,2.9213528249222596,9.142720898430182,-0.11143737589449627,0.6019567691356636,-0.04984036051478026,76.70638821372373,11.602711471095123,-17.71041830579596,0.7707572024314938,-0.17464808107940877,0.05533813160789218,-0.610200739824379
112.0,-0.018474570079802178,-0.04883837248510735,0.02788165486493575,1.947414409351467,2.900158021430445,9.155210960623432,0.12404871960585964,-0.3256074730246151,0.07715188406204339,76.67930482185005,11.457842999512945,-17.567294862968794,0.7711502508607114,-0.17287006568584917,0.05528575488665656,-0.6102119604794591
113.0,-0.0007251882657075374,-0.04614499269416658,0.029065827432467876,1.9152878498370236,2.8752927203926415,9.169496609343977,0.10884895657712337,-0.2576374058671463,-0.08649966280768798,76.60699112060244,11.26218762878873,-17.404438762129555,0.7718213940714848,-0.17066576347195686,0.05542504720542506,-0.6099762158808586
114.0,-0.0040651905136562866,-0.04351702821175678,0.02931025439286651,2.1124865685062386,2.8862395938705934,9.119878910494174,0.18684973399273164,-2.289872990895808,-0.4303908620883444,76.90217770034843,12.451914034693342,-17.551555533700498,0.7692117712623356,-0.17944557712150164,0.04901077763103669,-0.6111653315116331
115.0,0.0055068375107714205,-0.03317743808774493,0.01622382076355326,2.3591003334457312,2.937729684163201,9.039242403806524,0.5370499419279907,-0.9713702652579523,0.0980023697126372,77.2754854164325,13.930702999138287,-17.993406719493464,0.765597895946911,-0.19164648706230566,0.04260903185380841,-0.6123393632483234
116.0,-0.006094413847364279,-0.03536742722265933,0.016905979543666405,2.404963414634147,2.953767899291896,9.02472423288749,0.08793273013375297,0.6465627458693942,-0.03470446498819828,77.37366492918962,14.19598987018096,-18.10622295436664,0.7648132491951218,-0.19401958416797796,0.04170903894374509,-0.6127613006907946
117.0,-0.009586677157094152,-0.03705840920160354,0.019144046682402306,2.2274107096024878,2.926461335281555,9.078861123599712,0.010041071896894078,1.1531502894234011,0.14703370283990858,77.16949515988534,13.128782466468097,-17.847179468266454,0.7669911332133865,-0.1855847225378873,0.04661537082214043,-0.6122974557991083
118.0,-0.016488039039376567,-0.03847275298789854,0.021872522573151996,2.1623925667828106,2.8744188396837878,9.11267345734517,-0.10642339646322731,-0.18759296204713205,0.010552421696451986,77.01465949430519,12.73985806311116,-17.49393223605335,0.7684958827015473,-0.18107414694386684,0.04682298122616238,-0.6117958056426418
119.0,-0.009804503390656024,-0.027732344235884755,0.020137874189801806,2.159196283391405,2.849818290809636,9.122784309317744,-0.032495972425162035,0.6177962609119179,0.12868850923532277,76.94147793263647,12.71859334607171,-17.33403769060732,0.7690840763991607,-0.18004997841144954,0.04605651775017796,-0.6114590669705144
120.0,-0.010424049593207734,-0.02062705089298323,0.015696647962580298,2.110613695771839,2.8323428237118238,9.140452454443011,0.04763518673825519,-0.28274937100664865,0.10588987789027128,76.75394961712823,12.426802321727576,-17.20458264525928,0.7704421691712562,-0.17737123599847832,0.04718879808134692,-0.610481204179542
121.0,-0.01821517192484934,-0.03692957580054353,0.025238567883729177,2.1242926858088147,2.801202883138367,9.146248257119225,-0.31231537279924376,0.8580401453385323,0.20960799952735437,76.50281076450432,12.505887392177716,-17.01598133049746,0.7719243137311829,-0.17678481389223677,0.045895843158690774,-0.6088741866121943
122.0,-0.01792479026349994,-0.03809305210918114,0.02775369254401512,2.111340659340659,2.7924309346567413,9.15186529599433,0.5011819833392415,-0.5680997429989366,0.14795876166843908,76.302931879948,12.430545462601915,-16.954227224388514,0.7730958616374808,-0.17592370735932883,0.04623773236582772,-0.6076146339458819
123.0,-0.01634718775847808,-0.04872394540942927,0.024574234904880064,2.143884615384615,2.8115810587262198,9.138196856906537,0.3193457919768404,-0.1406934966914806,0.055099772539288674,76.14501912737799,12.626385442514474,-17.088495140612075,0.773648492951613,-0.1778623679185277,0.04624237736724565,-0.60635637858354
124.0,-0.01377401630627437,-0.048776143211627085,0.023167493796526058,2.2225947654496037,2.8465144156918347,9.108521623537754,0.3800898026704478,-0.6319574914332978,0.17000140316672574,76.10212505908069,13.101038343377052,-17.340712144038754,0.7732631908479262,-0.1823228869834574,0.04524658054614202,-0.6055897750041355
125.0,-0.015108678955453144,-0.050100230414746545,0.025857526881720435,2.2237092933947764,2.851575652841782,9.10677611367128,-0.06883640552995393,0.5975086405529955,0.06404329877112136,75.95913738479263,13.101584101382487,-17.375727246543782,0.7739761700368663,-0.18245441717741934,0.04565503524577573,-0.6045990646344084
126.0,-0.007768442546176611,-0.05516705069124425,0.026097823236296884,2.2047746899704017,2.8478231332658943,9.11268870593084,0.24770709227829601,0.09566374199168257,0.13499728372859765,75.84902126419017,12.996792984994942,-17.34573820529392,0.7746731493864504,-0.1815323284942958,0.04624571156997677,-0.6039562496419486
127.0,-0.004483159117305457,-0.06383480386647186,0.019488722790453713,2.1520621089505827,2.8638969128170544,9.119276394664867,0.4739137841407216,-0.5079528211756772,0.017206057285227228,75.68481071569067,12.687948887265371,-17.426025450994715,0.7756887232838034,-0.17981455508890637,0.04882380067060994,-0.6029275138659193
128.0,-0.012064160203814017,-0.056518208384848834,0.02346210333071073,2.262002828668839,2.8906823273762696,9.083811584429203,0.17765749690907048,-0.882706249297516,0.01974214154583942,75.79540434978082,13.342260733955264,-17.640910910981226,0.7743677987709341,-0.18537721372187255,0.046269721702240446,-0.6031299428966694
129.0,-0.019325137686860734,-0.05568548387096775,0.024599527930763178,2.317306254917388,2.8816943351691586,9.073463808025172,0.16531520456333598,-0.9783266129032259,0.0477970102281668,75.80664093233673,13.6713217938631,-17.610072039732493,0.7740931293627066,-0.18738823941994492,0.04415320044040126,-0.6030280450708105
130.0,-0.031430369787568836,-0.054097560975609756,0.023555468135326517,2.4260055074744296,2.878472856018883,9.045714398111723,0.25510916601101497,-0.6752802911093627,0.048893587726199846,75.89172895357986,14.328943745082611,-17.641596184107,0.7730821175932336,-0.19193642434697095,0.0404328952588513,-0.6031443717930763
131.0,-0.034018095987411484,-0.05821007081038551,0.024897324940991353,2.5017667191188044,2.8964952793076324,9.019639260424864,0.3150398308418568,0.01608231707317076,0.22994935090479937,75.81592741935484,14.786501770259637,-17.7949621361133,0.7729431029280095,-0.195717406474823,0.03889343087175452,-0.6022230918044846
132.0,-0.03724901652242328,-0.06647324940991345,0.029478560188827697,2.3796992525570415,2.9239203383162864,9.042014752163654,0.14987337726199843,1.7210869885916602,0.008709923288749019,75.54166748623132,14.03939565302911,-17.905742279701023,0.774846174481314,-0.19129087397698663,0.0443717490747443,-0.6007417475662864
133.0,-0.03289063729346971,-0.07037372147915026,0.03623524783634934,2.1154343036978758,2.9050125885129816,9.110640440597958,-0.021661093627065295,1.4921715184893785,0.13467250196695515,75.24568253343824,12.45825629425649,-17.674872147915025,0.7777939791479151,-0.1793712984925256,0.052323902666404395,-0.5998349457387884
134.0,-0.029056648308418566,-0.06772501966955152,0.033833595594020466,2.02439063729347,2.88436231313926,9.139970889063731,0.27043420535011803,-0.5172501966955154,0.22971823367427222,75.040160306845,11.91805910700236,-17.500673682140047,0.7794738432741934,-0.1747922259409913,0.05463713768174665,-0.5988918704122739
135.0,-0.024294811273174764,-0.06504318727430451,0.03375524521374247,2.1662440184389435,2.8972222104541148,9.104456686638828,0.20948289883798343,-0.48114383485646267,0.28365854288970926,74.93491477788537,12.764593514847988,-17.639947787427623,0.7792615416923733,-0.18117713420473475,0.05093219830515544,-0.5976341297667496
136.0,-0.020512669208577937,-0.06877955980552364,0.030679255179648583,2.189189967520023,2.9104984970445242,9.09557315055781,0.292952626641651,0.2866999157739717,-0.38633445298472835,74.87447327210555,12.903153243458611,-17.7338003590954,0.7794226266488025,-0.18254494869186383,0.050911040112550175,-0.5970589975371906
137.0,-0.03212090722023844,-0.07500568903952068,0.037827977163146335,2.066301090399241,2.9162368617482706,9.122944839516634,0.13808208002985736,0.5709521386854688,0.19150804938570476,74.91872519240854,12.166512493947831,-17.713881155560934,0.7797538894106648,-0.17753082729898728,0.054904829425033774,-0.5977931846288103
138.0,-0.02756389578163771,-0.0764747170610664,0.03685950392382337,2.0054568984647663,2.960318666908753,9.122847223062806,0.3781738586616636,-0.008238894268595254,-0.03736089466198632,74.86212924156226,11.803196869515222,-17.961698150557808,0.7800437786749431,-0.17638994324685794,0.05872200436338234,-0.5974145918077176
139.0,-0.022406947890818856,-0.07732203594988804,0.034183784219976206,2.0095187718130285,2.9869980431317957,9.11345586959592,0.2181191873953479,0.12944910125279915,0.11491330266900683,74.83968357239402,11.827253676693093,-18.130294639795032,0.7799874642124714,-0.17742034709923543,0.059749545286529884,-0.5971083959159555
140.0,-0.017586435070306036,-0.07701502955476204,0.03332845124977306,1.9716808085698725,2.9660639512598603,9.128801549355444,0.05738465573241342,-0.0007479473057757785,-0.052680859004619815,74.80023880852951,11.599074522382942,-17.983282142064596,0.7805214589317113,-0.1750983894544978,0.06012405365732615,-0.5970718661043798
141.0,-0.014836490548528317,-0.0725688837781678,0.02860679053440659,1.9369505537735279,2.938589804111441,9.145112025661197,-0.09915483971837236,0.3416795275272852,-0.03584574028122414,74.8050712138635,11.387307717525065,-17.802434737436705,0.7808364403431174,-0.17271558188145814,0.060071044354233494,-0.5973584540065566
142.0,-0.011498819826907949,-0.0635535011801731,0.027431156569630216,1.9292006294256492,2.895008654602674,9.160937057435092,-0.03909077498033044,-0.30523210070810386,-0.08176632572777341,74.92421813532651,11.344726101494885,-17.529130605822186,0.7805281565743507,-0.1710362080755311,0.058317039482690805,-0.5984133624307633
143.0,-0.004746262785208498,-0.06023072383949645,0.025092446892210858,1.9088843430369786,2.863275373721478,9.175267899291898,-0.02438901455546813,0.109308615263572,0.059136506687647514,75.00134982297403,11.223725167191187,-17.32411487018096,0.7804112652619982,-0.1691911564610543,0.05752416418273014,-0.5991724799801338
144.0,-0.00774371510996216,-0.05061248173541644,0.026784702708778245,1.939264368139073,2.836991757521261,9.176984180060696,0.0726425222921584,-0.4667022591884905,-0.1506496806039489,75.09653224635645,11.403244832059496,-17.167707396688023,0.7799453461260066,-0.16963731785763927,0.05531973118449103,-0.5998555735762803
145.0,-0.016319630212431158,-0.04988285377093403,0.026262935071747033,1.9961907478176166,2.819368382600876,9.169892435652468,-0.13802469699524184,-0.25412445908733283,-0.15499793938031547,75.23025897072047,11.74441355466262,-17.084220921846317,0.7790830834648851,-0.17151408346050168,0.05261034114696901,-0.6006795223691692
146.0,-0.01789771833202203,-0.04951803978869282,0.02642179011651868,2.051639728747518,2.8082729009778573,9.160704282342362,0.04285761117979843,-0.2947285601888277,-0.06378929227080289,75.32301759019893,12.074046495073246,-17.038431025439287,0.7784049141477649,-0.17353078925847665,0.05027500578719418,-0.601169741095875
147.0,-0.02299291896144768,-0.03173698999662808,0.019358810085796714,2.0624256865610127,2.7895935708665847,9.164483533775428,-0.03856824397737065,-0.2176337529504327,-0.033497714585440784,75.38261914128358,12.136088943838747,-16.922121688958825,0.7781824613122776,-0.17338433731924618,0.0490650750863587,-0.6016169364102506
148.0,-0.01835483870967742,-0.04577880184331798,0.030079877112135178,2.0369831029185868,2.7847834101382487,9.171345622119816,0.24347158218125958,0.04858870967741935,0.024606374807987715,75.25872695852533,11.983966973886329,-16.884408602150536,0.7789881740337943,-0.17211369298771123,0.04986920127803379,-0.6008771533963133
149.0,-0.018064497396126034,-0.05305153422501968,0.028930013862350605,2.0583621070772917,2.8042040200816762,9.16062419916826,0.36767075044022324,-0.7620223108913117,-0.1096591547712712,75.17996047356787,12.11581443651418,-17.005117595818817,0.779164691781799,-0.17360653895442285,0.050062502849499826,-0.6001801962796636
150.0,-0.015434500393391032,-0.05366581431943353,0.02462077104642014,2.120400472069237,2.8064081431943353,9.1460525177026,0.22237657356412274,-0.7406372934697087,-0.045943154996066084,75.28740165224232,12.491941630605822,-17.048546911880408,0.7782940015609756,-0.17637984658044845,0.048058307826907946,-0.6006648015501574
151.0,-0.010356075081488142,-0.05662956614589189,0.020485116706005772,2.1857601438687198,2.807615937956614,9.129810629050997,0.09936272994642388,-0.3708058779176501,-0.02567895076992244,75.5328449313439,12.88060143166236,-17.08397967713836,0.7766971789675078,-0.17925417866714433,0.04569293199256304,-0.6020629288213537
152.0,-0.00891267655764115,-0.0627231932111948,0.022079923944400736,2.2313758476640064,2.807922024277846,9.118838878273582,0.14832047787643773,-0.08521452690045332,0.05945795165036904,75.65196514040312,13.152607503465587,-17.104027808999287,0.7758483151437001,-0.1812171198767749,0.044090096355728525,-0.6026992540402851
153.0,-0.0168877898917238,-0.0676882095088232,0.01839076842381327,2.294143568993294,2.8105779476227934,9.10260492300776,-0.12034580944887792,-0.6340639166760331,-0.2514958225619123,75.94722752987899,13.528571896894084,-17.14626793675771,0.7739463195960437,-0.1840555255029036,0.04170562866576749,-0.6044434199515942
154.0,-0.006870330823123901,-0.05442868382600878,0.021521111985313403,2.394743696377056,2.7850403506800037,9.084097111385862,0.0070576224195421505,-0.5250177962609119,-0.028216439998501375,76.1251676595107,14.134816042860889,-17.034045652092466,0.772627924310217,-0.18751825875381212,0.03719194951227006,-0.60535299597265
155.0,-0.007480798771121353,-0.05705069124423964,0.026430107526881724,2.3138509984639017,2.760769585253456,9.112428571428572,0.16378648233486942,0.4495583717357911,0.12924347158218125,75.95059523809525,13.648972734254992,-16.84621735791091,0.7741414298018434,-0.1832379550952381,0.03903381080491552,-0.6046086132380952
156.0,-0.004529429395676446,-0.05576739350342813,0.026164175190139,2.329819452249822,2.756328369113184,9.11013039976022,-0.12319285995279308,-0.5201354154958601,-0.1729144421340527,75.98142620639916,13.744673649357463,-16.82288880146866,0.7739149357629164,-0.18378017973496685,0.03826767417460941,-0.6047900535152861
157.0,-0.010416216859092824,-0.06160944961850219,0.029389914551808685,2.5490843412072532,2.7590842359980234,9.045732956104878,0.008897756070115087,-0.2653664654730756,-0.015194985865368785,76.4521917541123,15.075797846184107,-16.954607535267964,0.7701066197050392,-0.19327825133115295,0.03057618911147146,-0.6069220098658308
158.0,-0.00972846173215778,-0.05409408732845232,0.02144956557083522,2.5282549202196023,2.732278485126508,9.061857069450289,0.061729744010479974,0.10222820159525943,0.283789555838437,76.21659966929886,14.941416348207259,-16.767825561028758,0.771701360092151,-0.19138285502771166,0.030578331927663533,-0.605590551895857
159.0,-0.01731622779388227,-0.05771006209740589,0.01892773977466492,2.60793141556295,2.746237936879691,9.03523479432576,0.2850495398239804,-1.1128775946708802,-0.3349149379025941,76.29910004586296,15.427764625716533,-16.896592792035115,0.7707148307344394,-0.19530974094588352,0.028476067345936225,-0.6057317631746948
160.0,-0.01393810996303083,-0.05911486582447005,0.020671186960503195,2.638111557506102,2.756986494010263,9.024666767737227,0.14456548588366605,-0.23058132782324492,-0.15542093275932223,76.57192352312816,15.608737495785096,-16.973258286261462,0.7690552556070899,-0.19697328302241068,0.027488438887169522,-0.6074000655168321
161.0,-0.01713821312470975,-0.06065105997753793,0.022259275620298807,2.6404523169119805,2.7447481643930143,9.028466350036982,-0.01099322086619213,-0.6718652115119372,-0.36532848368886645,76.68085259555306,15.623138417444082,-16.896075445255043,0.7685669781654647,-0.19669324005565855,0.026719856709517098,-0.6081681474633727
162.0,-0.02563748079877112,-0.052955115956689516,0.017489977895170664,2.68940541755648,2.717790079052864,9.020245213742458,0.19727506462852645,-1.5547562848900378,-0.23565293544640514,76.73165580158107,15.924808456033869,-16.756922979656064,0.7681210123832003,-0.19791390068281448,0.023914300744820347,-0.6083828799662809
163.0,-0.030163163613202953,-0.047239706268030424,0.019855756622082353,2.7356556517178072,2.6986821400472074,9.012258064516125,-0.5143002322880372,1.352753503053464,0.2816808568431306,77.2621646809786,16.194564647259376,-16.652817194934624,0.7651262808594659,-0.1992265703126522,0.020773937782960546,-0.6118241881506876
164.0,-0.06920197819489715,-0.0576366565508973,0.009281405717282974,2.096636319358585,2.5673230677007233,9.191892398186654,-0.21717292345734518,3.698817016972013,-0.11736399910082052,76.13560750814881,12.383326776816155,-15.61204385373347,0.7747360890697239,-0.16793760071634634,0.03726038819414784,-0.6070916503057211
165.0,-0.054447566595481625,-0.05742572402682552,0.02353527406241805,1.79392004795624,2.562087969727623,9.267991832452886,0.3372976846127908,1.497077666629201,-0.25038636619085086,76.01145048892886,10.569318777865197,-15.450175152673186,0.7769706690431231,-0.1550643367783148,0.046966761945224984,-0.6074910354243004
166.0,-0.018776104304821847,-0.044358810085796715,0.020414371885654342,1.7298404331047919,2.5679283279007894,9.288405042898354,0.1504840114645386,0.5585948915364729,-0.15387630662020907,76.2449955041025,10.171259506949909,-15.449787615675696,0.7761508211777377,-0.1526205660028474,0.04907404875152674,-0.6094234052353602
167.0,-0.0230070406907543,-0.047112348443583696,0.025740684702132376,1.7002826766729204,2.559832354899231,9.301242873570171,0.21771697028384673,-0.6313300651616938,-0.22010177732050273,76.3530011196514,9.992603492101917,-15.37887843208457,0.7758399885579698,-0.15119121945599062,0.049552054022756156,-0.610359893127842
168.0,-0.010453166293449535,-0.04327686659000586,0.03290968145413464,1.6683553430571525,2.5703095684803,9.306612782182409,0.2546344489499486,-0.3879506344691238,-0.27230010187819,76.33732373055739,9.802409141802336,-15.428006289213014,0.776022551721943,-0.1501936083865319,0.05104268158258185,-0.6103534463947629
169.0,-0.009062145695898643,-0.05302316972301237,0.033587020113377324,1.7207040287276323,2.5872594262543127,9.29264156024935,0.1187363826181686,0.11161575278904151,0.07222426062660131,76.57498562609695,10.107808622828784,-15.548557629264256,0.7745053339726946,-0.15296870755282532,0.04979830260875749,-0.6117166713563114
170.0,-0.009822182210655851,-0.06159026306764308,0.032053148136940435,1.8181214872198352,2.5817571718210983,9.27525469043152,0.013169332143073295,-0.7092885044079968,-0.05232709077245859,76.71764131816255,10.685739480572536,-15.547267602987752,0.7733870929737587,-0.1568878717032419,0.04630424314151486,-0.6124148276647805
171.0,-0.00799154425432946,-0.06173426363827622,0.03049085978275593,2.108741235161377,2.6087942925157717,9.201847583311,-0.0903023346965125,-1.0363142790857187,-0.3137655519146471,77.39012826276792,12.424245748350783,-15.82022678344472,0.7682864967028931,-0.17002763422182063,0.037037088327093834,-0.6157328101960615
172.0,-0.024198418942714767,-0.061806751339402805,0.028172642463751826,2.2366915439661312,2.6182656326102425,9.170849349968154,0.030034936870106027,-0.782864542355101,-0.47655295792589264,77.94714229515567,13.194148308418567,-15.92463985987786,0.7646570552066987,-0.1758343012688921,0.032468303548162304,-0.6189459562857893
173.0,-0.005147203177100891,-0.05684672736128284,0.025061930987973473,2.3026046232812565,2.6226827769660175,9.155256303622942,0.2836396163500805,-0.7420666142145291,-0.10618560563485821,78.22008963695627,13.585385523210071,-15.977470402008167,0.7628564254735304,-0.17878221937087407,0.030154254392491853,-0.6205311031861677
174.0,-0.02549728372859765,-0.053989059982765736,0.024512082724513884,2.1865863399647822,2.6006435127945737,9.189221385485741,-0.038604070660522294,0.9318236952530815,-0.012563691881158454,78.15588962571653,12.884421715184892,-15.796199795811322,0.7639022433850735,-0.17321273084121985,0.03319459416398786,-0.6206698126772695
175.0,-0.026628264208909375,-0.05812749615975424,0.0255668202764977,2.223625192012289,2.6096144393241163,9.175574500768047,0.45025441628264207,-1.1066196236559138,-0.05978302611367128,78.09277073732719,13.118951612903224,-15.874073540706604,0.7639727049285714,-0.17512582540015362,0.03237505792857143,-0.61999796737404
176.0,-0.008819826907946499,-0.04280920535011802,0.015343823760818259,2.348432336742722,2.6235184893784425,9.138249016522423,0.4862399193548387,-2.2383347265932336,0.1632400668764752,78.09888375295043,13.866603560188826,-16.016088463808025,0.7631710273440204,-0.18076097569846578,0.028862253893194332,-0.6194317516799765
177.0,0.009830841856805668,-0.04017663257277734,0.01543509047993706,2.3260241935483865,2.619404602675059,9.147478166797796,0.0163921125098348,0.9159950334382376,0.3026086742722266,77.6465836447679,13.72501475216365,-15.971726249016521,0.7658026629036193,-0.17950498640774978,0.030164007498229742,-0.6165753379228954
178.0,0.014405820313963506,-0.040394383874714335,0.013621923120152864,2.2678955453149,2.6187493443482817,9.164307631785993,0.13715870986474843,0.4658880217114382,-0.054674445505975805,77.52992944719193,13.369585429077215,-15.943393606459106,0.7667664216146362,-0.17703397978586416,0.03222244159723314,-0.6160734862195121
179.0,0.006572917837473306,-0.04664765276685026,0.015021983065452776,2.234223502304147,2.5932423757071668,9.180767487167962,-0.001044300981604282,1.0098125304409726,0.15169263515791837,77.50378960838859,13.166622351635382,-15.765146784028325,0.7672517217403056,-0.1747285247170488,0.032320083594507505,-0.6161658757591416
180.0,0.003984039563897944,-0.049541568318909004,0.020369862500468326,2.175668202764977,2.5786655426922933,9.199593421003335,0.06306151886403656,-0.2403558315537072,-0.04335731145329888,77.41895629612978,12.814989603237045,-15.649685287175451,0.7680804031846689,-0.17179909168513732,0.03373051242628601,-0.6159098347142482
181.0,-0.0008553444981454421,-0.04340729084710203,0.01899374320932149,2.2042495223108913,2.5888599153272636,9.190410400509535,0.049272694915889245,0.08153825259450753,-0.17743199955041025,77.53041146828518,12.986590985725524,-15.723141227380015,0.7672889372138922,-0.17334780774186054,0.033066618634071406,-0.6165216308260463
182.0,-0.008078341013824883,-0.052827956989247325,0.021499231950844848,2.371400921658987,2.59495238095238,9.143780337941628,0.2171274961597542,-0.5507680491551459,-0.056595622119815676,77.93966973886329,13.996658986175115,-15.832056451612903,0.7641548963410139,-0.18058211990476192,0.027229376937019968,-0.6184744412596005
183.0,-0.004216664793376045,-0.04941986062717771,0.023771702071859423,2.2473306919935565,2.5735140871454796,9.18152824922258,-0.2277545567794388,1.1495742947060807,0.022074388370611816,77.88043968472519,13.2490583202203,-15.644334934996815,0.7652463704565771,-0.17467459364304447,0.03049063859701772,-0.6186967885920347
184.0,0.0024807613053089064,-0.055562464875800834,0.02329138098984676,2.114602365966056,2.5297601157693608,9.225326336592856,-0.08003511249110187,0.49930231632385447,0.09909883013000637,77.68491550288486,12.45349421387359,-15.326511745532201,0.7671805075977203,-0.16769495540831178,0.033288521095743887,-0.6181102251562325
185.0,-0.008721600914165822,-0.050033344573077065,0.025485360233786673,2.068494539357836,2.49649238507362,9.245941394102877,0.09962698100483308,0.24147383481323292,0.17007312858266832,77.56561563354688,12.175848249409913,-15.101439916544901,0.7682354747948278,-0.16462876478806526,0.03361521685163539,-0.6176448473185155
186.0,-0.006082574650631296,-0.04532312389944176,0.022141873665280434,2.112049689033757,2.475596998988422,9.241636019632086,-0.015509090142744743,-0.46615824388370614,0.178433741710689,77.45851346193473,12.440293076317861,-14.98446491794987,0.7687185673853172,-0.1657292352609681,0.03150317622420479,-0.6168774890302255
187.0,-0.006041287325315649,-0.04115349743359185,0.025010452961672477,2.0708111348394596,2.44822591884905,9.2588341388483,0.20983618073507926,-0.1867333558128208,0.04526525795211869,77.28951378741898,12.188493312352477,-14.800448184781388,0.7699783679587877,-0.16305819252564535,0.031975520285489493,-0.6160258332126933
188.0,-0.007411674347158219,-0.04215975422427035,0.021640552995391707,2.0760814132104457,2.46511059907834,9.254416282642088,0.25400345622119813,-0.0822484639016897,-0.014228110599078338,77.28653993855606,12.21491935483871,-14.91036866359447,0.7699120308448542,-0.16380276819201228,0.03252910340552996,-0.6158951579784946
189.0,-0.006686635944700461,-0.03957296466973888,0.020907066052227342,2.0806766513056836,2.4667396313364054,9.253096774193544,0.16714669738863286,-0.09037058371735791,0.1504416282642089,77.1861799155146,12.24700940860215,-14.919268433179724,0.7704016621612904,-0.1640335673033794,0.032563863424731186,-0.6152204806067589
190.0,-0.0035357985837922894,-0.03354130605822188,0.021967151848937844,2.105513571990558,2.4704415814319436,9.246396931549963,0.09250835955940204,-0.2361280487804878,-0.05037863886703382,77.14258580841857,12.391567909126673,-14.946341463414633,0.7705253477014165,-0.16515408337509832,0.03200126196282455,-0.6147987679602676
191.0,-0.009944934622157283,-0.03467349481098499,0.022355503727848343,2.2073779457495033,2.4954633022367103,9.215252613240418,0.1803747634970589,-0.9370420389831778,-0.2161335398636244,77.2321379982953,13.002138361245365,-15.139196557360158,0.7694245037593104,-0.17022377686400844,0.02958257233298677,-0.6148833954636206
192.0,0.0012967105016672281,-0.046688537334682104,0.02054921134464801,2.28838793038852,2.503700769922446,9.193397156344837,0.13985484339290397,-0.5017115436851373,-0.05008277602937319,77.38417666535537,13.489550199505452,-15.223819241504627,0.7681645680343563,-0.1739324787953992,0.027113109663051208,-0.6155382929670583
193.0,-0.0019840208309917207,-0.05663567307332061,0.023320042336368065,2.333952914840208,2.517084747667754,9.178284337417107,0.08211516756584616,-0.7545616382863137,-0.11441245410437974,77.4807193318909,13.765919867652018,-15.33480129069724,0.7673278794445975,-0.176352773182318,0.0260629187567813,-0.6159501949039657
194.0,-0.008891011951594174,-0.0671559701772133,0.029029260799520444,2.4124086770821624,2.533619946798547,9.15352216102806,0.42072468247723954,-1.5968912742122812,-0.30876512682177515,77.64506996740474,14.248182908096362,-15.467280637668129,0.7659206376595107,-0.18022737874227265,0.02390320250646285,-0.6166512254306694
195.0,-0.01631274107725538,-0.06553368742882584,0.028664539828336878,2.4059252138818676,2.5670433549153833,9.145020279460109,0.3449781217081274,0.9854980622333284,0.6468777745394536,77.34927185084598,14.199777486836865,-15.671466810517959,0.7673335142203102,-0.18094013981914464,0.0259290463134294,-0.61454131002454
196.0,-0.0245159112077671,-0.06151820185011411,0.031339594480501665,2.2577204841280003,2.560790981717555,9.183566675641039,0.21399415620455636,1.6243395016872684,0.588170561804214,76.61631980294726,13.308788161761697,-15.569778823190116,0.772051911225681,-0.17432122943057188,0.03154169026257435,-0.6102238692199617
197.0,-0.025291000450461044,-0.050216221302712444,0.02455256671310685,2.0903354584290668,2.529364806358384,9.23172039525561,0.168169383373718,1.2223044872716435,0.4370829205559229,76.09474526732728,12.305628345239622,-15.312500544561228,0.7757815770998585,-0.16614056327154086,0.03635609210611015,-0.6074855245981792
198.0,-0.024014501012012582,-0.04657939310611625,0.02469957210556995,2.004325872408869,2.532341726546619,9.251407011160456,0.3022937790196678,0.4624012601582451,0.39210066562807944,75.63418911674782,11.7919024889062,-15.298756173146073,0.7786177380739261,-0.162522544330499,0.03989263548263808,-0.6046635859340226
199.0,-0.019436627449545312,-0.04043620661262877,0.025014729292079117,1.9510213528992009,2.5302572594368105,9.263548753041917,0.19431687190090202,0.4314401771174501,0.20847551826981134,75.31069200226887,11.477861462316799,-15.266713400911204,0.7805809572374799,-0.16013495149067752,0.041923484105355596,-0.6026914708025175
200.0,-0.01647446704881795,-0.04120227792139673,0.027414484283091685,1.9007568094114125,2.533356936795175,9.274036191974819,0.17051159566895208,-0.08254420965868645,-0.035121857554981054,75.13679002285414,11.179709452624481,-15.267922708028923,0.7816884988512981,-0.15807184091341647,0.043852804973586595,-0.6016918905702296
201.0,-0.011281705443782545,-0.04610542879622345,0.02705069124423963,1.8440590461204152,2.535110336817654,9.284237383387659,-0.037522011164812116,0.5578237982840658,0.11413491439061856,75.02116350080553,10.839824285339628,-15.263967723202576,0.7825320611992805,-0.15571392809336476,0.04588570932898729,-0.6010560148237233
202.0,-0.00788640942063444,-0.04782485020879987,0.023825432369885557,1.8990986590121128,2.533992962191231,9.273042252790482,0.22492960750238483,-0.9100519694048412,-0.191459848177,75.1616439061856,11.170953620206177,-15.273242132899881,0.7815699582244662,-0.1580666667643083,0.04389094786003925,-0.6018215955978246
203.0,-0.001696941925108723,-0.04851116625310174,0.022841119017358198,1.9759419337546793,2.5358163080035627,9.25594677549044,0.15755725064340328,-0.8944191790375897,-0.059365840689601504,75.20820688621632,11.6343064717868,-15.3136962041368,0.7809816048006674,-0.1613884635945853,0.04148613618808414,-0.6018584897894709
204.0,-0.0025439863048045573,-0.047810264479816025,0.027136531184524894,2.0268765530299753,2.5417020171017026,9.243727911742074,0.3286704427882634,-0.25791966032918034,-0.08708850649743646,75.20128577985088,11.926461851156972,-15.365792830628589,0.7807849586694131,-0.16365153517258768,0.04019305126241343,-0.601608646137851
205.0,-0.0015527994166861193,-0.060479726672488285,0.027565024799485856,2.070085554623713,2.55812415305649,9.230392673416278,-0.0025263845779188165,0.1130857095304381,-0.16349280800500313,75.41017899291896,12.18263774810293,-15.481961994535753,0.7793937608590968,-0.16607257775001946,0.039207156616370246,-0.6028230064760665
206.0,-0.0023854626883737812,-0.05816997086312586,0.02760355694659393,2.0646049892934237,2.5532825066357723,9.233249332099845,0.12157666946219269,0.009859867054005534,0.03139683716493315,75.49949233824134,12.152162768060682,-15.45173848574714,0.7789799741315454,-0.16572040913230618,0.03905532338499004,-0.6034826011450993
207.0,-0.007690663519538421,-0.0663554568955828,0.029728991045670828,2.00311556329849,2.5441929489340978,9.248910025851409,0.005530890562361841,0.3682984198793601,0.10961384455434416,75.40841552395938,11.787397554419092,-15.374649226330972,0.7797984725223485,-0.1628145275156982,0.04074959038728411,-0.6030962054120865
208.0,-0.001710792027275111,-0.06838701247611556,0.028187862950058075,1.9518638398711174,2.51903903937657,9.267168624255364,0.049529804053800905,0.24884728232362968,0.03495542739125548,75.25816625922596,11.480397242984527,-15.196967610805139,0.7809464922021655,-0.15975440046516617,0.04152540227310704,-0.6023749720364917
209.0,0.002817991083136638,-0.06182657075418682,0.02404151212019033,1.8992746618710425,2.4916001648495754,9.285314150837358,0.06045038589786819,0.10705972987149226,0.24104122176014386,75.24133111348395,11.166181484395489,-15.010378966692892,0.7813972451655988,-0.15667736815597022,0.042059270047843836,-0.6025580200182459
210.0,-0.003610674009965906,-0.06726261661234126,0.0325911730545877,1.8535201004083777,2.4858040163350945,9.295977295717659,0.17777141639503954,0.48365378311041174,0.12123363212318759,75.07478632778839,10.892246918436925,-14.960293731969578,0.7824986572798883,-0.15451490566728487,0.04349984109394553,-0.6015938770311527
211.0,-0.0037657356412273794,-0.06634402045633361,0.03485877261998428,1.829636113296617,2.4716070023603467,9.304529897718332,-0.13985419944925254,0.0923915715971676,0.02468651652242329,74.9456124606609,10.752579169944926,-14.865637293469707,0.7833651613522816,-0.15300072424685288,0.043849469153619196,-0.6008337966614867
212.0,-0.005486746468847177,-0.07032350792401934,0.037443595219362344,1.8135108369862505,2.4381729328237984,9.316355194634895,0.06443229927690983,-0.13144558324903527,0.17477725403694128,74.85017878217377,10.657453179442507,-14.651532644430706,0.7840931823971469,-0.15122616006870296,0.043061598269781946,-0.6003876152429939
213.0,-0.008980292982653328,-0.06941047544115994,0.03403001948222248,1.7954905679817164,2.443986053351318,9.318758242478738,0.2651651071522236,0.3575518199018395,0.0572837637218538,74.772212719175,10.551675424300324,-14.682879938462403,0.7845620008918266,-0.15063130623960325,0.04397410123786108,-0.5998601303554661
214.0,-0.010538533588100857,-0.07162459255928966,0.038107751676595115,1.7815235097973097,2.4413035105466268,9.321875088981304,0.01670553744707956,-0.4103873965006931,0.05074369637705593,74.65588962571653,10.468680454085646,-14.662533719231202,0.785221029240268,-0.14992229676093066,0.044418036639091836,-0.5991360169075719
215.0,-0.011305458768873403,-0.06431741036304373,0.036203364429957675,1.8418412198868532,2.4129916451238245,9.317068150312839,-0.07996843505301413,-0.1930575849537297,0.11901858304297327,74.6089145217489,10.824279251433067,-14.508986175115208,0.7853929038868532,-0.15148641730808138,0.04145972719523436,-0.598725315742535
216.0,-0.012891124349031509,-0.05792188378104981,0.034753924543853745,1.8113887452699409,2.377325877636657,9.332027387508896,0.18341271402345358,0.007301852684425472,0.12818061331534975,74.49547319321118,10.642273378666967,-14.281858351129593,0.7862903487805627,-0.14904234944869055,0.04107361120973363,-0.5981812984928252
217.0,-0.01048072383949646,-0.05910818253343824,0.03196774193548388,1.8339878048780487,2.3729110936270654,9.328431549960662,-0.013154012588512995,0.026192466561762398,0.08332022029897718,74.40129081431942,10.774259933123524,-14.259325826121163,0.7867350457501966,-0.1498101040833989,0.04031891189575138,-0.5974556288815893
218.0,-0.01675491738788356,-0.07175314712824549,0.035885523210070824,1.830384933123525,2.393434303697875,9.324845200629424,0.316544551534225,0.1973015833988985,0.06071498819826908,74.31669576121163,10.750918322187253,-14.38391645357986,0.787074798720889,-0.15026318083398899,0.041396808784225025,-0.5968223884848545
219.0,-0.022815630736952537,-0.06775195758870031,0.03816434378629502,1.7644280656401035,2.3985378123712104,9.335871717058186,0.1710674946611217,0.6708366115919224,-0.038138089618223375,74.26604397315575,10.361301855026039,-14.39655332087595,0.7875482440968116,-0.14765381854794685,0.04372479367571466,-0.5966736860387023
220.0,-0.0368916863362182,-0.06843243040725339,0.0371063654415346,1.6837059683039226,2.3971439061856055,9.350903600464576,0.23815471507249633,0.084611854183058,-0.05263759319620846,74.2028052527069,9.886069274287212,-14.368059926567007,0.7881880270806637,-0.1442297069473606,0.046228812442696034,-0.5964742618741897
221.0,-0.0303467086283766,-0.06370087295343,0.03878843055711664,1.6416279644824097,2.3954531490015363,9.359163837997826,0.2986062717770035,0.05936926304746919,0.005437694353902067,74.17646163500805,9.634704582068862,-14.345679255179649,0.7884979924081525,-0.14239133754763778,0.047493480578547076,-0.5964145422132554
222.0,-0.020462890112772095,-0.05396766700385897,0.03143434116368814,1.6879288524221647,2.403504701959462,9.34905162788955,-0.21771102618860286,-0.12004982953055338,0.11324697463564498,74.28788168296428,9.90934678356,-14.40680894308943,0.7877014219625342,-0.14465102824510134,0.04625255820587463,-0.5970218973646921
223.0,-0.02315591397849462,-0.07350153609831028,0.03869278033794163,1.728458525345622,2.4043471582181257,9.341215821812593,0.11146313364055302,0.372513440860215,-0.052006528417818734,74.33834485407066,10.155165130568356,-14.42412634408602,0.7872646916712751,-0.14638567329800303,0.04498366023118279,-0.597262671249616
224.0,-0.026353068450039333,-0.06593017309205348,0.030778520849724628,1.7582775373721478,2.4555979543666395,9.321751180173091,0.3646488985051141,-0.9868312352478363,-0.4495402242328875,74.54711349331234,10.332739968528717,-14.74900914634146,0.7857896783528717,-0.14939882189103068,0.045884835737804885,-0.5983825628377262
225.0,-0.022205144056048856,-0.07068878086246298,0.034470673635307786,1.8461915720654902,2.4813277790266373,9.2979191768761,0.4341653670712975,-0.7359871422014912,-0.029496014574201063,74.70657085955939,10.853176339871117,-14.93275870143494,0.7844733631894927,-0.15396065278921733,0.044000611099125175,-0.5990846879029261
226.0,-0.022179086583492567,-0.06662340301974448,0.03257355475628489,1.8733179536173243,2.4820792120939634,9.292595800082424,0.024793762410550396,-0.041322273893821926,0.14548384755160915,74.64657012195121,11.01269962253194,-14.945159592652953,0.7846768663774961,-0.15508030708284626,0.04328160337538871,-0.5986059089162545
227.0,-0.026404059420778534,-0.06859307444456932,0.03905851223258777,1.887005947697726,2.44956035742385,9.29869817541493,0.0664506528417819,0.24442602375332503,0.06454340882694541,74.57494836742723,11.093109744389494,-14.746813298490128,0.7851602484286182,-0.154558480808634,0.041613566882619614,-0.598230264363615
228.0,-0.026550147989959152,-0.056149263796785434,0.029482597130118773,1.8622850399010906,2.40982203739088,9.31356337342175,-0.008544546850998456,0.3465985725525458,0.10400509535049268,74.49479225206998,10.94699290022854,-14.495281649245062,0.7858825776257914,-0.15223460203776557,0.04084412282379829,-0.5979035808767
229.0,-0.014476490202690038,-0.052033719231201536,0.030879772207860326,1.923636619085085,2.421948784234386,9.296400097411109,0.5796134464800868,-3.0591308868157805,-0.32582495035779846,74.43466500880447,11.31794963658162,-14.5943609269042,0.7858493251047918,-0.15524582282218724,0.03946685537649395,-0.5971955962778464
230.0,-0.01146289011277209,-0.04481907759169758,0.02577745307406991,2.0473863849237572,2.437879809673672,9.264205912105204,0.30618045408564687,0.712720111648121,0.4077263871717059,74.34613118654228,12.052415608257466,-14.734323367427223,0.7856543926734104,-0.16088402099119553,0.036413943333033605,-0.5960971031938105
231.0,-0.0029157019219961757,-0.051141321044546856,0.025046570004870553,2.0610851972575026,2.486343898692443,9.250194447566596,0.5767360720842232,-0.016387312202615134,0.34705635794837214,73.92879786257541,12.130305393203702,-15.03790861151699,0.7875252037641152,-0.1628883818709677,0.03863058185178525,-0.5930034555347496
232.0,-0.013139878610767671,-0.046688265707541865,0.025931549960660896,2.0290312277546736,2.522777621670226,9.248213255404442,0.13112636281892776,0.5151580823123899,0.06077247480424115,73.7965801908883,11.936113413697502,-15.246711321231876,0.7881848453551384,-0.16262511735412688,0.04134324048454535,-0.5920595706631074
233.0,-0.010195131317672622,-0.058374854819976764,0.02971308680828744,1.992468762878873,2.4935585496984,9.264674984077029,0.14652036266906449,-0.4080795609943427,0.11119940944513132,73.62049631664232,11.71493650715597,-15.053271175208874,0.7894192397397811,-0.16006720041669478,0.041504812746112923,-0.5911157574436888
234.0,-0.01322767974223521,-0.05874751788992544,0.02881720430107527,2.014704582068862,2.5114030946761075,9.255091229253303,0.17902335993406016,0.1687553857105391,0.05838110224420216,73.53809102319133,11.851286482334869,-15.168298771121352,0.7896481363433367,-0.16155455660409873,0.04167799234610917,-0.590413379996628
235.0,0.001785845416057849,-0.05816762204488404,0.026582480986100186,1.9322004420965868,2.5231956464725926,9.269329249559776,0.3121365816192724,0.483099172005545,0.047458647109512565,73.33556301749654,11.363693988610393,-15.215905876512682,0.7909801543313851,-0.1583652409590124,0.04497665708886891,-0.589223223218613
236.0,-0.024196289155376492,-0.053828582380116605,0.03658469435102008,1.8061776167708503,2.5147695708435283,9.296386531905021,0.07684106642112151,0.33641842683935524,0.06541629921350614,73.13831870005158,10.617004075127598,-15.125808234841475,0.7925674033369675,-0.1526809820253528,0.0487393432794575,-0.5882690335571972
237.0,-0.014361547972090858,-0.04535374643714535,0.029432150854652825,1.7634561606764594,2.496430718507823,9.309604790436419,0.3839694776112951,0.0579730851367358,0.10075250444546274,73.06589045788988,10.365680721389808,-15.007235188755645,0.7931996158729908,-0.1502982390900246,0.049384404170731706,-0.5879975274485811
238.0,-0.012089451068207954,-0.03591026649720592,0.030421463011156166,1.84725213338982,2.496445661603018,9.292871875567393,0.1344138347555932,-0.9118918199882992,-0.021452735076358212,73.0221416106841,10.866419914664407,-15.032936348826887,0.7930859117227905,-0.15387310732188464,0.04687754245646473,-0.5874287147983417
239.0,-0.017954919981670567,-0.03445713766956884,0.023974921682042058,1.9358399215523523,2.515370933158109,9.26964769455564,-0.12331376375067366,0.6607881951349202,0.015682347009795865,73.24595569163333,11.387495812114715,-15.171944271225103,0.7914839137213481,-0.15823372398858082,0.04465866327068113,-0.5885854086407878
240.0,-0.020295432341065695,-0.029335327667349705,0.021304473129807513,1.9431507595472974,2.509741918191958,9.270244738214842,0.18097824677289664,-0.5275660118795445,0.15263644040197935,73.11487972753709,11.429829415273947,-15.141822510036516,0.792159404236634,-0.15834492098757,0.04437378367239893,-0.5876958511710083
241.0,-0.017495110711475775,-0.0356717994829718,0.02165389082462254,1.97808654602675,2.498561612528569,9.265690607320819,0.02884727061556329,-0.35590976359072346,0.12245138810835113,73.06534412348731,11.635200067438461,-15.087929451875164,0.7923284780322954,-0.15944765976673786,0.04290197181469409,-0.5873017812554794
242.0,-0.016218051028436552,-0.032721816342587404,0.020409950919785702,2.050813532651455,2.4842375332509086,9.254946011764263,0.015579221460417373,-0.37015098722415796,0.04268714173316848,73.11897221910007,12.06750168596156,-15.012444269603986,0.791812057914653,-0.16203449238926976,0.03999551720947135,-0.5874917805608633
243.0,-0.01737102394065415,-0.02752534562211982,0.01950395264321307,2.0597985837922894,2.4915483496309614,9.250628788730282,0.1885429545539695,0.353034262485482,-0.15955729459368323,73.20151994117867,12.119711700573227,-15.059418436926304,0.7912960975120078,-0.16267880318204636,0.03994408623258776,-0.5880171239665055
244.0,-0.023273069574013712,-0.03773348694316438,0.0245607320819752,2.0466611966580492,2.509547600314713,9.248952643213066,0.23639417312951927,-0.6191289901090254,-0.21527211887902287,73.3238206464726,12.045973361807352,-15.159394318309543,0.790621352836649,-0.16276808176383423,0.04086833825838297,-0.5888382648603648
245.0,-0.028033634933123525,-0.043007277734067664,0.02192191188040913,2.0984476789929194,2.516904012588513,9.235413060582216,0.1237718823760818,0.3894878540519277,-0.10118140243902438,73.67742058418568,12.355138670338317,-15.226526848937844,0.7885106159669552,-0.16530511508398898,0.03907494133929976,-0.5910581073339889
246.0,-0.023833595594020457,-0.043607395751376885,0.023811959087332805,2.038601101494886,2.5102820613690007,9.250301730920533,-0.004573170731707335,0.350963808025177,-0.11738050747442959,73.73502163650667,11.999350904799371,-15.167783733280881,0.788522175381196,-0.16259718829228953,0.04058333173878835,-0.5917004890416996
247.0,-0.010697660260012738,-0.038647015848038674,0.02326954778764377,1.9904713573863855,2.496773041474654,9.263723605335128,0.05034000224794874,-0.030402101832078227,-0.03129220757933386,73.69045909669926,11.71091706942415,-15.078012075699673,0.7890491405451183,-0.16015107459742045,0.041596681189726877,-0.5916064624632273
248.0,-0.008579258926229814,-0.050306002023153884,0.023035639354089397,2.059152083099172,2.4907276891086876,9.250737786145141,0.1619827961672474,-1.1664045816005395,-0.303395046551272,73.82309146809786,12.124529394271477,-15.06170777368776,0.7880743064795812,-0.16292305752205796,0.03899628062338429,-0.5923166094033289
249.0,-0.012885616874601926,-0.0579982016410026,0.018095612753362557,1.8962309392679177,2.479935933460717,9.281129219587127,0.0358196583117905,2.148666685399573,-0.13962103330710726,73.81267796260911,11.150076336592859,-14.953474485781722,0.7887654728005695,-0.1556637321614027,0.043585104196920306,-0.5927058459214716
250.0,-0.008887340301974448,-0.0471997302461504,0.01983380165598891,1.8251493012625977,2.5233928290434977,9.287412760855721,0.11749185118579297,0.20169860627177716,-0.21692892735378966,74.07007324566334,10.727029710389271,-15.19144515005058,0.7875384719533925,-0.15420429753624815,0.0472328260968866,-0.5945941502250945
251.0,-0.019741860552246072,-0.043403956389794315,0.024858678955453153,1.7972921958712678,2.5219678543329214,9.294914090892066,0.11491724738675958,0.06379678543329212,-0.16126245738263834,74.16458028923608,10.562742825296915,-15.171420844104755,0.7872319865423925,-0.15301437213240418,0.04793689145442285,-0.5953465380385898
252.0,-0.011538158929976394,-0.04797403619197483,0.024653029110936274,1.8243375295043274,2.5253595594020464,9.289658536585367,0.45548780487804874,-1.0023898505114082,-0.009874114870180944,74.29123229740361,10.726844020456333,-15.203943745082611,0.78646998504642,-0.15433426436506686,0.04708085296223446,-0.5961214336931551
253.0,-0.010820220298977182,-0.035973642800944144,0.018003147128245477,1.991334775767112,2.556979543666405,9.244467348544454,0.1328137293469709,0.5956530291109365,-0.10906274586939417,74.55422649488591,11.7263006490952,-15.453688040912667,0.7841694421652242,-0.16245338989693153,0.042797066300157366,-0.5972085926215578
254.0,-0.005618420066689146,-0.03057702034393616,0.018489415907983968,1.9280511502004418,2.545670656775692,9.262249222584392,0.09763930257390131,-0.4672932823798283,-0.08242701191412835,74.39722512972537,11.343284077498032,-15.357394814731556,0.7853477870490427,-0.15935244849160762,0.0445295209566427,-0.596424649335394
255.0,0.0010600857967105006,-0.04616705069124426,0.02413003446854745,1.9082520699861378,2.538395713911056,9.269302620733583,0.13774815246712374,-1.0646261848563185,0.0027122906597729576,74.39019215278557,11.222610149488592,-15.304021954966093,0.7855259784358117,-0.1583013153168109,0.04485377644576825,-0.5964879156834326
256.0,-0.007111086133902813,-0.045023041474654385,0.02474646884717695,1.8156744220898426,2.557843018245851,9.281405342624854,0.021217826233561866,0.8686949720879696,-0.1445107901539845,74.43793881832828,10.664732494099134,-15.396365816192723,0.7855235554880672,-0.1550157571261474,0.04853027083578735,-0.5970401135755872
257.0,0.0021730171218762875,-0.05018972687422728,0.02049597242516204,1.8002502716271398,2.5580292982653328,9.285668052901727,0.08360261886028998,-0.06618850923532271,-0.05271861301562325,74.53681952718145,10.581422108575925,-15.39852712524821,0.7850966979029635,-0.15447105497928143,0.04887981215982916,-0.5977530502944814
258.0,-0.0053328462777715345,-0.0728187029335731,0.03715593271140085,1.7787490539882358,2.5591216514930117,9.290180997339927,0.06559654939867371,0.8159960286238808,0.3037941159941553,74.30728663219811,10.446847954366639,-15.394700226668164,0.7863927785376343,-0.1534561108680829,0.04991206692255816,-0.5962511203038103
259.0,-0.014780094413847363,-0.06785405192761604,0.03750039339103069,1.6981978756884342,2.5523933910306833,9.306752557041701,0.2931525373721479,-0.04251081825334374,0.11808369394177812,74.03951121164437,9.970399783634932,-15.327212824547601,0.7881230363225806,-0.14974555672974038,0.052460016825334375,-0.5946713452671126
260.0,-0.01443174665617624,-0.068191384736428,0.03275098347757672,1.7155072777340674,2.5576522423288743,9.302113493312355,0.11222831431943353,0.004757572777340713,0.08377630802517703,73.9435852675059,10.070074006687648,-15.361678796223448,0.7885375197387885,-0.15058338410444533,0.05227000196498821,-0.5939412245533042
261.0,-0.01212313139260425,-0.062217741935483864,0.030566876475216373,1.7438611329661682,2.5383086152635723,9.3025422895358,-0.040010326514555467,0.11441163453973249,0.19362829464988196,73.84685041306057,10.241644128638868,-15.250232346577498,0.7890261969771835,-0.15113521794610546,0.05069162853245476,-0.5932988612303304
262.0,-0.015455574912891991,-0.06241436251920123,0.03283604960473569,1.75641059720505,2.5200742385073616,9.30536887902289,0.041071545652092464,0.1499009497583455,0.04774660700236033,73.78656604754411,10.311505868082874,-15.144085787344048,0.7893861308046439,-0.1510275079553876,0.04964397211549774,-0.5929452119548348
263.0,-0.01343874339665056,-0.05764964782136302,0.03747526319733244,1.6855382057622417,2.5055284646510056,9.32170027350043,0.11980185268442545,0.6067819559964032,0.27251794846577493,73.5934797192874,9.893798764096513,-15.039627472743621,0.7907283784952608,-0.14750827842291409,0.05149479917940504,-0.5918660961912254
264.0,-0.018802967292345735,-0.05136937544490653,0.03022179760968117,1.7248166048480762,2.497880184331797,9.31678955453149,0.3459920947135738,-1.1964215465887378,-0.13645751376868612,73.51773772057996,10.13293338578547,-15.004615319770709,0.7909968736547901,-0.14894167793450974,0.050014689728372856,-0.5912584588902625
265.0,-0.012539957288973815,-0.060196096062343114,0.03130366040987599,1.7152863512045256,2.501037653141508,9.317865272938443,-0.03731079764714698,0.10987832977408107,0.07208890637293466,73.54573451725301,10.07214135851036,-15.020182364842082,0.7909001891137838,-0.1486070882127309,0.05041191987284103,-0.5914543479250683
266.0,-0.008320669888726538,-0.05684695215615751,0.028958937469559028,1.721740436851373,2.503993968004196,9.31638552321007,0.10958539395301786,0.2812537465812446,-0.09528141508373608,73.55379645760743,10.109432252444645,-15.035331431943352,0.7908235927311829,-0.14897163701783372,0.05035047107125998,-0.5914825263727097
267.0,-0.010921883781049793,-0.06190985725525459,0.03570076055599265,1.7355553182720764,2.4912391442808444,9.31751125847664,-0.030598329024764913,-0.2968397587201679,0.22609798246599977,73.5078451069649,10.191694063542018,-14.957078228616389,0.79108246411783,-0.14911938300097413,0.04943064653437488,-0.591176006261736
268.0,-0.013755310778914244,-0.04962077104642015,0.026874021205649842,1.7650359109812297,2.4935177400621935,9.311606402907348,0.25961208834438576,0.0476164718444419,-0.029448713985987807,73.41301058877525,10.364206450676258,-14.98319072908471,0.7914476029284965,-0.1504034971330973,0.04874816025849536,-0.5904198595564422
269.0,-0.013915420928402832,-0.05592368214004721,0.02816557079165262,1.920507727323817,2.4932380203064697,9.278918858416699,0.16781745251208272,-0.9737084831965832,0.4163338648795474,73.27788117951744,11.296112863418381,-15.024984428271702,0.7914688394146809,-0.1569417732479019,0.04413359983813832,-0.588977299518583
270.0,-0.016249066957170807,-0.06059583610724446,0.029046495073245672,1.9837760927768797,2.4993013922872303,9.26454968975425,0.16660749590037552,-0.1855734827066456,-0.02866684030629743,73.15518141378683,11.67342023960828,-15.087004982953054,0.7917862109737797,-0.1597535342810022,0.042644709271736664,-0.5879338791763717
271.0,-0.019410247764299695,-0.06543386275408306,0.03564152710651532,2.036121533331604,2.5124348743310194,9.25016962214287,0.13100440079196962,0.175795247893989,-0.0724699408904759,73.1272930878458,11.981794605211206,-15.189412629725375,0.7916240852787484,-0.1623680168325134,0.04164255228947816,-0.5875295256258203
272.0,-0.03064611522754717,-0.07034871737232085,0.04139826158630251,1.847254315052899,2.4831969808319148,9.295563961346808,-0.023827067896698112,0.6635909756385759,0.15525794851620972,73.01008143770733,10.857390221567051,-14.951413631935859,0.7931772540996416,-0.15339678109603644,0.04635006297400737,-0.5874169289962303
273.0,-0.02692904839718372,-0.07366053380136778,0.040266719118804105,1.8035457443160041,2.460699872904436,9.311093808630396,0.07536565191954649,-0.23536081018378413,0.12618408178498658,72.79824348383062,10.59878439649781,-14.797361001835824,0.7945824221942139,-0.15075977593818718,0.046989997903286326,-0.5861888435403577
274.0,-0.03168403639371381,-0.07093176178660049,0.037338709677419354,1.7727067824648473,2.4434317617866013,9.322380893300252,0.14346567411083538,0.031100082712985963,-0.0049498552522746,72.68214691894127,10.414404983457402,-14.676680107526881,0.7954172010310173,-0.14884211465674113,0.04736545934739453,-0.5855538189338294
275.0,-0.02987096774193548,-0.061120967741935484,0.036250000000000004,1.7817661290322584,2.4278870967741932,9.324862903225808,0.0040322580645161255,0.01108870967741938,0.037852822580645165,72.63785282258064,10.468699596774194,-14.588407258064516,0.7957055365080644,-0.14873096161290325,0.04652793598387096,-0.5852734474677419
276.0,-0.03458064516129033,-0.06840322580645161,0.03487096774193549,1.8705403225806454,2.4270241935483865,9.304782258064517,0.5528225806451612,-4.153881048387097,-0.42993951612903225,72.75579637096773,11.013810483870968,-14.615423387096772,0.7946815735887096,-0.15263548826612905,0.043526482935483876,-0.5857510469596774
277.0,-0.03148347757671125,-0.06043489378442171,0.030524783634933127,2.1299392210857597,2.4739350904799373,9.232127458693942,0.19824572187254125,1.3492390342250191,0.26894546616837134,72.91159274193548,12.547916256884342,-14.99792855035405,0.7923801240672699,-0.1650935044468922,0.03742732537509835,-0.5857305048988984
278.0,-0.026725609756097564,-0.05660857592446891,0.025996262785208498,2.014634933123525,2.501483674272227,9.253515342250196,0.17999483674272226,0.9356830251770257,0.07905438630999213,72.57096774193548,11.852259539732493,-15.120662863886702,0.7945801860497639,-0.1608862123363493,0.042584438352871755,-0.5836879033768686
279.0,-0.027237804878048784,-0.05611073957513768,0.03412313139260425,1.8519626278520853,2.47906038552321,9.293677025963806,0.0745488296616837,2.0303415125885125,0.04769251573564124,72.32767137096774,10.87708743115657,-14.930139899685287,0.7966662051418174,-0.15310066037785208,0.04696033265224233,-0.5826178970029503
280.0,-0.009429386309992132,-0.04709166011014949,0.031593823760818256,1.6383926042486237,2.475671321793863,9.334628835562551,0.34012219708890634,0.6730588611329661,0.0397484756097561,72.16451612903225,9.61646710267506,-14.84700039339103,0.7983445715507473,-0.14392890972521635,0.05345588506805664,-0.5820899076587333
281.0,-0.007057435090479936,-0.04568292682926829,0.028413847364280098,1.5834059795436666,2.455557435090479,9.352165224232888,-0.11816974822974041,0.0396292289535799,0.03315548780487805,72.14627016129032,9.294045043273012,-14.703943745082611,0.7987929327269866,-0.14095620797954367,0.05428573388080252,-0.5822317721317861
282.0,-0.006751152073732721,-0.04053993855606759,0.02974961597542243,1.5434554531490015,2.421930491551459,9.369302611367125,0.3236319124423963,-0.11161194316436251,0.015853014592933947,72.15507632488479,9.056485215053762,-14.482882104454685,0.7990971185222735,-0.13821875684485405,0.054061425908218136,-0.582558847342166
283.0,-0.002037634408602154,-0.04779416282642089,0.029389400921658985,1.5336670506912442,2.4464097542242706,9.36440053763441,0.07854982718894009,0.08097638248847926,0.031888440860215056,72.05673483102919,8.998475902457756,-14.63335733486943,0.7994948989508449,-0.1385379137331029,0.05551560666205836,-0.5818172470537635
284.0,-0.0014484002098085493,-0.04212839533925294,0.02433986175115207,1.5648582106327975,2.449119216215204,9.358595331759773,0.09787481032932449,-0.14456663763066202,0.07553804419092579,72.08969707719831,9.183550869206847,-14.656525490802142,0.7992063305954069,-0.13997035977203925,0.05462892350982541,-0.5819633413775898
285.0,-0.0007121033307107257,-0.04315290734704584,0.02460138248847926,1.6293242666067216,2.432841866172118,9.350942827170204,0.0669565583904687,-0.5132107381701697,0.18159462693417255,72.04935962730883,9.563952853958263,-14.574936132497845,0.7992355274106068,-0.14218388800698734,0.05206670356539658,-0.5816211410476657
286.0,0.004236276705198816,-0.04810881512927148,0.022476663121824413,1.7463503053463718,2.4316009372217082,9.329684399523892,0.1627069806013551,-1.2920743775631658,0.20992921483185056,72.0296794259373,10.259614195796335,-14.601778059011536,0.7988898877650636,-0.14710874083827447,0.04850523325250805,-0.5811272853899413
287.0,0.0073946360484519425,-0.0486515564163086,0.01879574791848592,2.085563223558503,2.4500382266566376,9.24835106042659,0.2771831941334302,-2.6940736289674136,0.047073487750120324,72.24069709467034,12.29497396126035,-14.837418782044075,0.7961313855818875,-0.1623263246165259,0.038695302933342564,-0.5813250774476962
288.0,-0.0023979200710121306,-0.07608384272428334,-0.00397002158607194,2.291564253868345,2.13636396739898,9.26164480824709,-4.169372112610704,0.9669992838265851,-0.810223816800823,72.35474754887126,13.519923616574875,-12.952618761221732,0.7958402393308822,-0.16114990815465313,0.01913356884915976,-0.5823083116439711
289.0,0.004972970577809283,-0.05243628650394977,0.054466602110189846,2.0626642220224043,1.9531197904508288,9.361700977425407,-1.250099959868351,0.8525765311268851,-1.3063660764720462,73.5563592002346,12.143910283428871,-11.768698434973757,0.7916759995110818,-0.14585958267966442,0.017123536248977615,-0.5921766385054743
290.0,0.0012535743826066388,-0.047382505771176114,0.04956433024096282,2.008136450488929,1.440167230094846,9.455113737560628,-3.129747080548615,0.06559318107803552,0.19253628780084342,75.03532485741376,11.819394177812747,-8.650453048132041,0.7858653531512783,-0.1270855494135649,-0.0038397223171394556,-0.6037639459677909
291.0,0.03061370699817811,-0.044444710480756086,0.0324933236793519,2.044963449050416,1.157280895136676,9.496101120227792,-0.2993299909254321,-1.6823653730287973,0.9185025486554566,74.78449656512561,12.037783798083666,-6.943777195387697,0.7880770377980602,-0.11989115658552135,-0.01638453703465413,-0.6026753061872925
292.0,0.0342423373700568,-0.04543557317900906,0.030962633515521743,2.2073070589075847,1.0622195191655055,9.479701228878646,-0.23276885069481662,-1.036835715625335,0.46427192735683925,74.23428703157933,13.012228838459613,-6.382392138213125,0.7906568158974563,-0.12380410264759942,-0.024859279306469473,-0.598639097434323
293.0,0.021826813846318717,-0.06210488336369807,0.03330389740292217,2.1363712713892764,1.0247387918408173,9.504407066052224,0.12315690529775297,1.2921920212195905,0.4113950362590647,73.88806085449933,12.579249499874969,-6.145480343300111,0.7929637386180832,-0.11967588748912228,-0.023825321879041187,-0.5966730596687746
294.0,0.009947201085985779,-0.07497102847140358,0.035393884185332056,1.9680174329296611,1.0098018075947557,9.543907834101379,0.18140852177330044,0.5725985067695495,0.5249323491587182,73.40894018147394,11.577129550244704,-6.033017629407351,0.7962703841032044,-0.11229347028142751,-0.01882435824213196,-0.5939411219449864
295.0,0.0066000923307749995,-0.07769525073576086,0.03802868024698483,1.921765422124762,1.0242480620155037,9.553168320926382,0.25579790380287376,-0.44971338988593296,0.26650027891588285,72.90109252072634,11.302893692173043,-6.11217155250351,0.7991177865473484,-0.11089634859663955,-0.0163008595508781,-0.5905353610924269
296.0,-0.002047418749621741,-0.08563115051746051,0.03802345215759852,2.003234914967016,1.052264096511933,9.534786363452959,0.35259155797978575,-0.02389220077064294,-0.0011369252960519577,72.72881037669713,11.784113968659849,-6.293398343722892,0.7996120876684925,-0.11519270095275774,-0.017427677618375402,-0.5890464169394583
297.0,0.0012059373225777627,-0.08175835559667188,0.03574828521858421,2.029312925993493,1.0727265183020493,9.52710189908439,0.32999561577944736,-0.2680400904006824,-0.08131443038996147,72.70883563189695,11.937497892548048,-6.423736902276192,0.7995358982274876,-0.11693035653724676,-0.017357021588181552,-0.5888356088560578
298.0,-0.00998362888095382,-0.07744638209941118,0.04252180005936891,1.9852570774360705,1.1403463620696117,9.528446302844802,0.3813836565840401,-0.09378747031554856,-0.21134413915811437,72.73101991848304,11.67945603152748,-6.8251232994483875,0.799454446507561,-0.11717581605395364,-0.013257645345934096,-0.5889940102613622
299.0,-0.012095117051844037,-0.07739753820792372,0.039544502180222096,2.0045713190559775,1.160791652616987,9.522034595354814,0.3827509200738941,0.4389177567777096,0.1955220068418337,72.79202925647655,11.793511857929639,-6.944453690814823,0.7990233514711385,-0.11858013758688465,-0.013065732415478568,-0.5893174555106735
300.0,-0.0025334382376081825,-0.06445618373234424,0.040128507736690286,2.010771421078266,1.2120317710089545,9.514444569330482,0.323838091491514,-0.006790678505863373,-0.13437816117792517,72.62960127009103,11.82926360945637,-7.253510078303547,0.7997041831909633,-0.12044251346259038,-0.010976067612678431,-0.5880625919276161
301.0,-0.018087557603686636,-0.063678955453149,0.03728110599078342,1.83357910906298,1.2468586789554532,9.543694316436252,0.2688652073732719,0.4666858678955453,-0.1321524577572965,72.6504896313364,10.777505760368662,-7.4406201996927805,0.8001856650537635,-0.11409064533026111,-0.004152640483870967,-0.5886877852150536
302.0,-0.012279232700161104,-0.07377767786894457,0.03698568805964559,1.9006311116106556,1.2080716346333966,9.53654715072496,-0.17005966430632047,-0.4130032126934172,-0.0029738488629126036,72.84079605484995,11.177831478775616,-7.215924843580233,0.7990557383430745,-0.11567133474579444,-0.008020895538196394,-0.5898834637943502
303.0,-0.007323817016972013,-0.07158330523397399,0.03369300513281631,2.0034373009628714,1.1697643400397135,9.520063317223034,0.10873515417181823,-0.28827601064029074,0.11227333183470081,72.77687001236372,11.785885223483572,-7.001821775130193,0.7990289417082537,-0.1188154442503091,-0.01266451386722116,-0.5892336461726799
304.0,-0.021944288336892583,-0.07029110936270652,0.0366484957476303,2.016929863999101,1.1850144243377914,9.516419392304517,0.382605559926567,-0.0286531508748267,0.007887724326552013,72.73259595931212,11.868352159904086,-7.094009919073844,0.7991901886534788,-0.11987287767843094,-0.012402732495597767,-0.5888326066318235
305.0,-0.010309317747555353,-0.07081682964295079,0.03676434003971378,2.0483904312315016,1.1863105915851786,9.50974886665917,0.15562689670675506,0.22976424637518267,0.259555421303061,72.75228588288186,12.056929536173241,-7.103951004083774,0.7989560203712862,-0.12122077011340901,-0.01334027619557154,-0.5888667731930239
306.0,-0.008753737214791502,-0.06702439024390243,0.036922108575924484,2.0257797010228167,1.171038552321007,9.516371361132963,0.04840676632572778,0.16133949645948073,0.09078481510621557,72.60647128245475,11.923544453186468,-7.011801730920535,0.7998401940550747,-0.11982165422029897,-0.013117775461841069,-0.5879705325696302
307.0,-0.015375295043273016,-0.07384028324154207,0.04316129032258067,1.955426435877262,1.1659252557041695,9.532362706530293,0.015022619984264365,-0.0545190794649882,-0.03553304484657751,72.48837529504327,11.503771636506688,-6.970785798583792,0.8007553898292683,-0.11671806723210071,-0.011063498389457119,-0.5873841444075533
308.0,-0.012414634146341466,-0.08496026750590085,0.041984264358772644,2.0013709677419356,1.1659681353265148,9.52204602675059,0.013338414634146343,-0.7086718135326514,0.04738886703383162,72.4100757277734,11.776654701022817,-6.975710562549174,0.8009693665841856,-0.11869892653501178,-0.012346807620377657,-0.5866697504177812
309.0,0.0027580645161290286,-0.09387903225806453,0.04267741935483872,2.038137096774194,1.1716370967741936,9.513395161290322,0.14621975806451612,0.17222782258064517,0.020866935483870964,72.39465725806451,11.99561491935484,-7.009929435483871,0.8008845664596773,-0.12041394567741932,-0.01322503908870968,-0.586411606016129
310.0,0.010544453186467344,-0.09602655389457121,0.040505900865460284,1.9981764358772613,1.1657163650668765,9.523010228166797,-0.05493951612903225,-0.04322138080251768,-0.1444568745082612,72.43286659126672,11.758017800944138,-6.971452104642014,0.8008706499533832,-0.11852064255074743,-0.012316467691581432,-0.5868477274966561
311.0,0.00615656963021243,-0.09092702596380803,0.03853894571203778,1.9654679386309986,1.1379409913453975,9.533391620771049,-0.06600240952006295,0.10944015538945712,-0.15512883556254914,72.46381540125886,11.56789437450826,-6.801003147128245,0.8009383194101102,-0.11632418351160502,-0.012500952048387099,-0.5871891494388277
312.0,-0.0023813926042486238,-0.08829012588512981,0.038221085759244704,1.9504799370574346,1.1099866247049568,9.539796616837133,0.1708042387883556,-0.19122246262785209,0.24264727576711254,72.45463955546813,11.471850413060583,-6.6274168961447675,0.8011095612897323,-0.11479154319531865,-0.013206539516129032,-0.5872466722234462
313.0,-0.007493115656963021,-0.08518941778127459,0.038715381589299776,1.9830948072383943,1.1035578284815108,9.5335192761605,0.1713144177812746,-0.2887563926042486,0.08450408143194335,72.333065745476,11.667225609756098,-6.597176190007868,0.8016157337698663,-0.1160019253516916,-0.014309179935483874,-0.58628883066011
314.0,-0.011234461054287962,-0.07127616050354052,0.039692368214004736,2.0397812745869395,1.1056821400472072,9.521066089693152,0.2874213217938631,-0.002089889850511395,-0.3608477576711251,72.32396734854446,12.002866837136114,-6.619581038552321,0.8013895221188041,-0.1184388360306845,-0.01593452170967742,-0.586068348313926
315.0,-0.007289142407553106,-0.07775059008654601,0.03785955940204565,2.0568851298190407,1.1237655389457117,9.515938237608179,0.19652340676632574,-0.16403176632572777,-0.26709284028324154,72.67744885916602,12.10401012981904,-6.730522226593234,0.7994409663426436,-0.11966170229150275,-0.016071538907553112,-0.588470622622738
316.0,0.0037050972237832984,-0.07780958000824248,0.03861619085084862,2.1190821063279763,1.1295126821775128,9.501005535573785,0.12867691824959723,-0.6860174660934397,-0.05641484957476302,72.86762462065865,12.48045121717058,-6.771985289985388,0.7981815037334963,-0.12242395317059122,-0.01798244459277472,-0.5895524640463734
317.0,-0.02094603049717133,-0.08385448278445919,0.03884476977258253,2.1653060301225135,1.1285240062193247,9.48931133153497,0.1778033208759507,0.8061500131130342,0.22914424571953093,72.80760743321719,12.751968360121388,-6.775513574332172,0.7982693539537298,-0.1243286389929377,-0.019353183512401183,-0.5889269545997995
318.0,-0.0348489753100296,-0.08274713386534788,0.040417584579071617,2.112244604923008,1.138728784983702,9.500614383125397,0.20832490352553296,-0.27301706333595605,0.6794038720917163,72.15839041015698,12.436472851335655,-6.827715744539358,0.8017985827191844,-0.1225170161193567,-0.016645069538458658,-0.5845674696772039
319.0,-0.04212393690757184,-0.08473755198381477,0.0468686073957514,2.034310441721929,1.120084298078004,9.519808175040275,0.17324191675096473,0.8152537372147914,0.40265679442508706,71.48556629575512,11.968940841482146,-6.702275579783447,0.8056327751114607,-0.11869650278558314,-0.014336877369150652,-0.5801158382653329
320.0,-0.0408896631823461,-0.07945532201865796,0.048400472069236825,1.8765344498145442,1.109873777677869,9.553074032445393,0.09638689071222509,1.0192909126671912,0.16143854670113522,71.13207799445507,11.0258502397812,-6.613323077067176,0.8081199435486492,-0.11172420481293319,-0.009694953482372336,-0.5781251046873479
321.0,-0.015249274460132056,-0.08439031018810719,0.04884368398451798,1.717237743635855,1.0887638414562097,9.585359833190676,-0.21657303816037096,0.6524601349345645,-0.07049225034079479,71.0298243717992,10.08131657386673,-6.471461624200609,0.8093112106786731,-0.10439306245491276,-0.005688558147306929,-0.5778949734543912
322.0,-0.027929327949784286,-0.08833196150820069,0.05022791894703776,1.6128922223855349,1.0639988327958434,9.60670421317471,0.10905500053316733,-0.07450309165002317,-0.1592556227538525,70.97979735318444,9.467943584411916,-6.314588737056281,0.8100173726541617,-0.09930404011181815,-0.003556939934898828,-0.5778678727087062
323.0,-0.009420060925175012,-0.09018158526498415,0.04483146724767495,1.557393340595937,1.0532887086687248,9.617605600274365,0.1254555518570074,0.3011589904980936,0.18914373146523034,70.97267552553006,9.134193308822045,-6.247895484072707,0.8102834157975952,-0.0966233486063568,-0.00231900042771692,-0.5779771500047409
324.0,-0.014757237386269644,-0.0875140813815086,0.048501492868526695,1.589117598700801,1.0513139058685872,9.61307502673042,0.053286391192075684,-0.2978862797312837,-0.025019007595472945,70.93509858101837,9.326095474237931,-6.237342706631161,0.8103522376981682,-0.09794161198217133,-0.003352299895211725,-0.5776676480826222
325.0,-0.006757650951199342,-0.07881349230365753,0.05235558514394077,1.5692402509633039,1.018995662611713,9.619827835945854,0.05370972785410236,0.34097621497306785,0.04931005265387643,70.91838094373499,9.20823422905445,-6.042310466218806,0.8105843013732776,-0.09612179341447274,-0.004080910427444573,-0.5776462030655045
326.0,-0.00406451612903226,-0.06945554681353264,0.047323367427222665,1.5145365853658537,0.988372934697089,9.631372147915023,0.027035798583792285,0.0649980330448466,0.23656569630212432,70.81735837922895,8.883123524783635,-5.856726986624706,0.8113511849331234,-0.09290038641856807,-0.003642363219512195,-0.5770950473532652
327.0,0.0005601888276947288,-0.06588591660110149,0.046706530291109376,1.5312966168371362,0.9883485444531868,9.62911487018096,0.11870574350904799,-0.4544797403619197,0.09286487018095986,70.6258359559402,8.982961250983479,-5.858575924468923,0.8122384379142408,-0.09362622950118019,-0.003977965800944139,-0.5757302560204562
328.0,-0.0004673485444531861,-0.05777380015735642,0.0443682140047207,1.5124421715184893,0.9610822187254133,9.635053107789137,-0.03975708103855232,0.06812303304484657,0.0925575334382376,70.54725609756096,8.87343872934697,-5.69391719118804,0.8127591048579859,-0.09200580622974036,-0.004514402668371361,-0.5752590305397327
329.0,0.013136900078678205,-0.0639049960660897,0.04456805664830842,1.555842643587726,0.9572673092053503,9.628650078678206,0.36743951612903225,-0.44479371557828484,0.257224872147915,70.47529996066089,9.124932385916601,-5.6721552911093625,0.812981865934107,-0.09370880222580645,-0.005886377785798584,-0.5746527203170733
330.0,0.009536191974822979,-0.05727104642014162,0.040864673485444536,1.6385180959874113,0.9904038158929976,9.611337136113297,0.15221774193548387,-0.38023455940204565,-0.23214865263571993,70.46264998033044,9.616926878442172,-5.87771071007081,0.8126864933662469,-0.09820795379838712,-0.006939318042092839,-0.5742891771182139
331.0,0.001511211644374513,-0.0735997246262785,0.036993115656963026,1.7429398111723051,0.9770700236034617,9.593661487018096,0.12671493902439024,-1.0476814516129032,-0.07377065302911094,70.58863222856019,10.239711595200628,-5.809280340283241,0.811698399907553,-0.1022187165302911,-0.01072539934815106,-0.5749133482909127
332.0,0.007367033831628645,-0.07694413847364279,0.03814398111723054,1.7662269866247047,0.9840385523210069,9.588972069236823,0.3895161290322581,0.3697826514555468,0.35977330841856797,70.44281569630212,10.377028422501965,-5.853230723839497,0.8123456014893783,-0.10338257732808809,-0.010951582237214787,-0.5738049498485445
333.0,0.003961250983477582,-0.07145633359559402,0.038524390243902445,1.7631394571203778,0.9834819040125885,9.58944590873328,-0.04657258064516129,-1.0190032454760032,-0.21457636703383168,70.39423436270653,10.362412716365068,-5.847578186467349,0.8125896697210857,-0.10328615556726985,-0.010894800441974821,-0.5734851272492132
334.0,0.00015401258851298447,-0.07446203776553895,0.03827832415420929,1.8825979543666402,0.9539909520062941,9.569468922108577,-0.10312500000000001,-0.26025767112509834,-0.18473273996852874,70.50084702006293,11.071806156569629,-5.683164093233674,0.8116268462315107,-0.10744589705782846,-0.015770635563729346,-0.5739460014512195
335.0,0.0030810385523210096,-0.058081825334382386,0.032852871754524,1.8392989771833204,0.9490196695515339,9.578105428796224,0.13649193548387095,0.3210808418568057,0.18820318646734852,70.461487018096,10.809642997639653,-5.649218135326514,0.8120163669181747,-0.10544037390794647,-0.014645921467348545,-0.5737922864272227
336.0,0.010832415420928401,-0.05895043273013376,0.035903225806451625,1.8378359559402044,0.9573461841070021,9.578202989771832,0.08240804484657747,0.11820171125098347,-0.1269349921321794,70.41826809598741,10.80040076711251,-5.702928304484658,0.812241039879229,-0.10563183286664043,-0.014187182472462628,-0.5734743059594807
337.0,0.017250721216889586,-0.07169113184219399,0.036976377805252716,1.8738941871791988,0.9736573564122738,9.569794425087105,0.22137828528342887,0.21292143184968715,0.07700705528080626,70.46309839927318,11.015515471038926,-5.800908721572815,0.8118240139621313,-0.10766367652735939,-0.014637794864982578,-0.573675916145227
338.0,0.00824863249784571,-0.0787829699149526,0.039364532988647866,1.8106899891349144,0.9636554831216515,9.582945215615752,0.2481255385710539,0.40952931231501255,0.3472436870106028,70.3234462810498,10.635048682140047,-5.73571621754524,0.8127984859651287,-0.10468323335565358,-0.013047691371623392,-0.5728668830543722
339.0,0.006620283990858335,-0.07737132366715374,0.03971049230077555,1.6998369300513279,0.9687067738188904,9.601412123936907,0.40682486605972046,1.0264884464800867,0.5282589402794949,69.65282697117007,9.971455792682928,-5.754576858772619,0.8165145645753064,-0.10014796872218162,-0.008968230250327825,-0.5683861827650893
340.0,0.00321336780188078,-0.07645985538196395,0.040181859053613586,1.6015071747030833,0.9974743546513805,9.615754449065225,0.2854688846427635,0.004121239369075713,0.2508734217526507,69.10103546139148,9.394069630212432,-5.9122934697088905,0.819553880392492,-0.09684131102641341,-0.004444491746131655,-0.5646402815277058
341.0,-0.0057772657450076825,-0.08292780337941628,0.047207373271889404,1.5586190476190473,1.005356374807988,9.622291858678953,0.17450076804915515,0.30583717357910906,0.24842549923195084,68.91203917050692,9.139112903225808,-5.952822580645162,0.8206371017281107,-0.09523643586175115,-0.002688134623655914,-0.5633923220691244
342.0,-0.010748847926267284,-0.0878463901689708,0.04531182795698925,1.5746328725038399,1.0219362519201232,9.61833717357911,0.042588325652841784,-0.38419738863287256,0.17911386328725037,68.63502784178186,9.23638152841782,-6.0546562980030725,0.8219123712910905,-0.09646440486789555,-0.0022100826274961596,-0.5613361784754223
343.0,-0.0070433233308327126,-0.08767966991747936,0.046229932483120774,1.5846954238559638,0.9929769317329333,9.619796511627907,-0.062281976744186035,-0.17789759939985,0.08854440172543136,68.43749648349586,9.299733917854464,-5.886273912228056,0.8228960457038635,-0.09608021993698423,-0.0035594902124906217,-0.5599750558073893
344.0,-0.022436984246061515,-0.10442048012003,0.04814722430607653,1.5792912603150788,0.9689360465116279,9.623160352588146,0.13266949549887472,0.2657891035258815,0.11632361215303827,68.17870287884472,9.265466757314329,-5.74127203675919,0.8242392198640284,-0.09515920129913727,-0.0042085999006001495,-0.5581522987625657
345.0,-0.00530189102153587,-0.10551688836843356,0.03903417470221214,1.8065762949883815,0.9716223308876001,9.579645184161894,0.17137691435053887,-1.4645348837209302,0.004811835580846441,68.40055509304156,10.621056426454174,-5.781609169441751,0.8222411365214122,-0.10498476164573306,-0.010907851007931856,-0.5590924515966644
346.0,-0.013016433517384976,-0.08878346486246326,0.038765950047549416,1.9587123617208237,0.9735786385620797,9.549813183478793,0.13099966478486413,-0.7441742346644353,-0.25101633200279433,68.5839727491676,11.521112890646442,-5.814108322313928,0.8207143833943911,-0.1115447352900915,-0.015386269892716957,-0.5599958989017234
347.0,-0.023306603855466682,-0.08057721630219938,0.038814426636677946,2.0265739227958957,0.9576764160552332,9.538571914320041,0.06267725174727078,-0.14338248023544348,-0.1531795369691391,68.82867992297088,11.924392130807092,-5.7304664595440595,0.8192869303181634,-0.11393429336278768,-0.018238484450390734,-0.5615744877129587
348.0,-0.02066451814642216,-0.07563671347011236,0.04294535395105813,2.049077311424479,0.9522321662732758,9.535218659847889,0.17937830347596279,-0.32337801851963927,0.23314448672557445,68.7832086649418,12.059351642407552,-5.699072977818798,0.8194422560972734,-0.11475120691870927,-0.019049041213631504,-0.5611949363582633
349.0,-0.0006498473988639213,-0.08061808791785187,0.03369637129196532,2.0913668047137755,0.9486039863624447,9.526878723165108,0.1618689712464299,-0.27650275733969676,0.03640351256401611,68.64271920382267,12.307744417593945,-5.683151840291887,0.8199414858602727,-0.11651032767248828,-0.020260105301516212,-0.5600813888532867
350.0,0.005280898487822166,-0.07737828078032641,0.033606643553142385,2.0957542127424107,0.9537945187516392,9.525272563785544,0.30573287271998917,0.06793469528766537,0.11114038728122128,68.51982537689166,12.3430687076168,-5.712937053112112,0.8204958931386335,-0.11689014005969024,-0.020079095459570064,-0.5591992435926544
351.0,0.004937507024839832,-0.07168157806002023,0.0369427522385823,2.040608407328313,0.962404171818216,9.53683751077142,0.19980605588025924,0.2537069494398861,0.1401811472031771,68.35966676501442,12.012116151043422,-5.760562080851223,0.8215162795452118,-0.1147957761252014,-0.017940765942002918,-0.5582022153671649
352.0,0.010742947060807011,-0.059609606234311205,0.03381776628826197,2.048400209808549,0.9808643362931329,9.531698325278182,0.5201519238694691,-2.7038912929451877,-0.17180650781162188,68.28727145854407,12.069072908471021,-5.875739949795811,0.8217562549713384,-0.11575900549136411,-0.01735981782660822,-0.5575941207365778
353.0,-0.004541980442845905,-0.06528867408489754,0.03301824585066128,2.1686808287437715,0.9936737102394069,9.501946723614697,0.14065719718257086,1.4725773669027011,0.5228201921996178,68.111500599453,12.777897980592709,-5.964448456408526,0.8219782130560862,-0.12122998528698813,-0.020083470829118426,-0.5559322295933087
354.0,-0.008490652279794685,-0.06595616499943802,0.030682702034393623,2.126337342175265,0.9903691131842194,9.51287812371211,0.1235496047356787,-0.17420478813083073,0.30012457382638347,67.710022573152,12.522781555580533,-5.93923747705219,0.8241720673483197,-0.11939711266883968,-0.01859759875096474,-0.5531865257467311
355.0,-0.0024121239369075697,-0.06739192986399911,0.029279195234348663,2.145938143943651,0.9819902214229514,9.51070735453898,0.09477047506650181,0.3612158592784084,0.22982231838447417,67.49129669176875,12.638701950095538,-5.894259769210596,0.8251627512430032,-0.12002285240837735,-0.019264313663444603,-0.5515986842856393
356.0,-0.013187628788730282,-0.0664225394327676,0.038568169045745754,2.111982128807463,0.9595089355962683,9.520929714135848,-0.045524708703308235,0.4302719081338279,-0.01728930163725599,67.44414104941741,12.431702165523959,-5.751277350043085,0.8256203414625154,-0.11788538794766024,-0.019199652012213853,-0.5514032389630961
357.0,-0.014011202277921398,-0.06969369825034658,0.04270302723764566,2.0512966917687607,0.9371178112472369,9.536218856543405,-0.11535618279569892,0.5598805543066951,-0.015222242516203953,67.40976370780413,12.069781831890898,-5.60844479412536,0.826111449012982,-0.11462627436000897,-0.018373012931006703,-0.5513848086273275
358.0,-0.0007883368925855165,-0.06024586002772472,0.03766000711850437,1.9930862463002512,0.9021247143231802,9.551951921996178,-0.05332034908770747,0.0866962997826983,-0.11910235425798958,67.34914630633922,11.724356700292233,-5.392652251695328,0.826741005853387,-0.1111420700556929,-0.01812171268576486,-0.5511727420507289
359.0,-0.004992319508448541,-0.06050953504926755,0.03662770222172269,2.0214821475403695,0.8789082462253194,9.548252219849388,0.0848975310029598,-0.3545342999512944,-0.030000749316248927,67.33973530403506,11.897107170956502,-5.254093140009742,0.8267128456498444,-0.11172692849499832,-0.019929260551871414,-0.5510404619160016
360.0,-0.0015520212805814702,-0.056584429208347393,0.03523359934060171,2.011126596980255,0.8612086471095126,9.552178824322807,0.14190293544640514,0.09181231501255108,0.12246520362669064,67.43870124761156,11.83508486006519,-5.1503795755123445,0.8263200023253157,-0.11075505494773519,-0.020476074874676856,-0.5518088069729497
361.0,-0.0009070473193211207,-0.061728672586265035,0.037242141545839436,2.009636956277397,0.8759615600764303,9.55163688134577,0.4671986812034019,-0.40742900228541457,-0.017323255029785323,67.25502041886779,11.822915495860027,-5.236795642726012,0.8271797528129332,-0.11113542209284027,-0.019646716434003973,-0.5504690876714997
362.0,-0.011713161739912326,-0.057054737551983814,0.03284136975010303,2.0036461728672585,0.909120827245139,9.548742122812932,-0.10182060432355475,0.7608508017683864,-0.07757390131505001,67.2710192574276,11.787731351391855,-5.431596090442471,0.8270327376889214,-0.11181360974822974,-0.018110016701659737,-0.550557674827882
363.0,-0.014097560975609755,-0.07591188040912666,0.05063886703383163,1.9401337529504328,0.892684500393391,9.563609756097563,0.36055271439811165,-0.24571203776553896,-0.005222265932336743,67.20132769472855,11.407956333595592,-5.32816679779701,0.8276881882690795,-0.10861028837922894,-0.016921057853658536,-0.5502606502738
364.0,-0.009111273462965044,-0.07236416769697651,0.04858926229815294,1.9886609718631754,0.9239037877936385,9.55088172043011,0.19593706680154355,-0.1433240605447529,-0.07730274249747106,67.29578931100372,11.697372475740888,-5.520500355925218,0.82695501506032,-0.11157979897718329,-0.017042277457794762,-0.5507845228246973
365.0,-0.004218444419467234,-0.06272848525720282,0.03702364092765352,1.9858796972762356,0.909356824397737,9.553069648945339,0.07638822543179347,-0.545183067326065,-0.15900326889213592,67.32597434528492,11.680582991457795,-5.432673700872954,0.8268471263765877,-0.11100842886609717,-0.017625716755011046,-0.5510536008900753
366.0,-0.0016019351092128424,-0.059410775167659524,0.03643059458244352,2.011945131317673,0.8964479225207,9.549192087220414,0.18181462150162972,0.23594832996141019,0.11970057791015695,67.30451662077104,11.836999187460194,-5.356138187965981,0.8268689488388876,-0.11176395134923754,-0.018890657845303655,-0.5508364181292758
367.0,0.008999288149563528,-0.05289460866958902,0.034112622232213105,2.1165400322205987,0.9022123562249449,9.525238844554343,0.2509553782173766,-1.3010893184968717,-0.1512003109662433,67.31358182533438,12.468533400771797,-5.404073470458206,0.8263085781473157,-0.11651121755011051,-0.021677690996215953,-0.5505454793799408
368.0,-0.0010393016372559991,-0.050495298040538025,0.036363942902101834,2.2097767037578206,0.9037576336592857,9.503807463189844,0.05754397549735865,-0.5238727473680267,0.05325999400547002,67.36386211644376,13.025498997789516,-5.42580247087033,0.825609537665318,-0.12059228782304895,-0.02431421743752576,-0.5506168318221496
369.0,0.002867445955565549,-0.044786819527181464,0.029602862388070885,2.257276984751414,0.8915754374133601,9.494280843730099,0.048141227380015736,-0.20327661945974299,0.004356571503503059,67.37075114270728,13.312456680154359,-5.354534299951295,0.8253886428533965,-0.12230420651137086,-0.026219711572065492,-0.5504979809686785
370.0,0.003436364317560228,-0.04067157468809712,0.030625866396912824,2.253777677868944,0.8758795099471731,9.49738245101345,-0.006037849837023716,0.3707897793263647,-0.012293469708890633,67.32195075118955,13.289432767599564,-5.256028483383912,0.825697754740924,-0.12168738684331795,-0.026734807735378965,-0.5501631346071709
371.0,-9.762893685093818e-05,-0.0411510804530401,0.031537257136583806,2.2158321461898574,0.8531521294957882,9.508280319208719,0.04687245417626183,0.23145327926058168,0.05147481338975858,67.20977440570945,13.059762109516926,-5.120477201181828,0.8264560098151803,-0.11942086682634943,-0.026470901961945188,-0.5495392512895819
372.0,0.021161518602647176,-0.037642903757298216,0.023122043577096366,2.3431103333324614,0.8742185284997206,9.471531602412796,0.4312071049121165,-2.2479434645246674,-0.20723086912843192,67.30630458137182,13.835398363963812,-5.269452380516731,0.8252093884314371,-0.12565118007253556,-0.02939538031351914,-0.5496847530555287
