time,linaccel_x,linaccel_y,linaccel_z,gravity_x,gravity_y,gravity_z,gyro_x,gyro_y,gyro_z,euler_x,euler_y,euler_z,quaternion_w,quaternion_y,quaternion_x,quaternion_z
0.0,0.00861538461538462,-0.06476923076923076,-0.0015384615384615382,-0.37000000000000005,-9.79,-0.030000000000000023,0.04038461538461539,-0.010576923076923078,0.009615384615384616,39.0625,-2.125,90.1875,0.66522217,0.2621459999999997,-0.6579589799999992,-0.2362670900000001
1.0,0.008463192721257241,-0.06298759305210917,0.0008850289495450785,-0.37,-9.79,-0.03000000000000002,0.0027088502894954524,-0.026375103391232422,-0.0008271298593879239,39.0625,-2.125,90.1875,0.66522217,0.26214599999999966,-0.6579589799999992,-0.23626709000000007
2.0,0.007912796880538819,-0.06324468273661821,0.0002007266926621767,-0.37,-9.79,-0.03000000000000002,-0.027856921304501948,-0.008513437167671039,0.030895515774548032,39.0625,-2.125,90.1875,0.66522217,0.26214599999999966,-0.6579589799999992,-0.2362670900000001
3.0,0.00894263854425145,-0.06393085194375515,0.0040103391232423485,-0.37000000000000005,-9.79,-0.02850000000000002,0.012520936724565756,0.012693729321753515,0.001397074028122414,39.0625,-2.125,90.17760416666667,0.6652409890833337,0.2621459999999997,-0.6579493169166661,-0.23626709000000012
4.0,0.006585147682702314,-0.06496654126310733,0.007746938285439847,-0.37,-9.79,-0.02411290322580647,-0.005030191907468182,0.020759062575042023,-0.03208609321219883,39.0625,-2.125,90.15045362903226,0.6652942798790327,0.2621459999999997,-0.6579228049596768,-0.23626709000000007
5.0,0.007399193548387099,-0.06457075962539019,0.008560093652445372,-0.37,-9.790000000000001,-0.02439255983350678,-0.006808500260145681,-0.0008962831685744039,0.01918167924037461,39.0625,-2.125,90.13203612773152,0.6653354539093396,0.26213177306971874,-0.6578723018450827,-0.23628182498439132
6.0,0.011853666083309688,-0.06491040740390375,0.010736941475104848,-0.37,-9.79,-0.017577511588307643,0.0809223667147542,-0.02335574256811087,0.015553496890076624,39.0625,-2.125,90.07716786836235,0.6656391735577978,0.2620243329473716,-0.657562439358514,-0.2363966474433197
7.0,0.011125964555302488,-0.06398784948358957,0.015219664906286921,-0.37000000000000005,-9.79,-0.004731683833856052,-0.011821501195972778,-0.056421638731325906,0.02426441904057181,39.0625,-2.1537841191066995,89.98146544782881,0.6662254902404374,0.26192329268708525,-0.6569683150390588,-0.23652233478617585
8.0,0.009597760503457696,-0.0661143884514722,0.013217191324111203,-0.37,-9.79,0.001943633889523589,-0.06111803386411542,0.007575470956917688,-0.007635305600681838,39.0625,-2.1716501240694788,89.93810860597085,0.6664812768011665,0.2618978077951554,-0.6567059249111624,-0.23655615997373303
9.0,0.011055058711666416,-0.06512584016746348,0.018248163820224185,-0.37,-9.79,0.0012943975899230849,0.036905091093436565,-0.006034288292352809,0.0034496590818130874,39.0625,-2.1805831265508684,89.96703817395317,0.6663852900134868,0.26195890002660993,-0.6567979064878396,-0.2364746288578342
10.0,0.009427113122742678,-0.06491463704523018,0.022042916457458615,-0.37,-9.79,0.0010478231445973387,0.003949423798539306,0.0008687819724500262,-0.001396918638073685,39.0625,-2.185049627791563,89.98164928989021,0.6663368520853078,0.26198989073390844,-0.6568450563786756,-0.23643340283162256
11.0,0.008504142319699034,-0.06451815016409188,0.021697035339790297,-0.37,-9.79,0.0007071960297766753,0.007784359241175059,0.00017497298487152767,-0.007333356679740655,39.0625,-2.1872828784119105,89.9903817075062,0.6663037852264275,0.26200852129559543,-0.6568775254156333,-0.23640943185080635
12.0,0.009085818058112545,-0.06559654406467622,0.016427922136396392,-0.37,-9.79,0.00024193548387096788,0.029241125030016808,-0.011621570579524534,0.03460100156087409,39.0625,-2.1875,89.99688130040323,0.6662736750201621,0.2620193153326612,-0.6569074847177425,-0.23639531273185474
13.0,0.010460247738733696,-0.06637690106459615,0.012470513487553035,-0.37,-9.79,0.0,0.025394252031137435,-0.0008964707736332338,0.019442637877211236,39.0625,-2.1875,90.0,0.6662597700000008,0.2620239299999999,-0.6569213900000006,-0.2363891599999999
14.0,0.01066291168508911,-0.06570145781637715,0.010870737461463272,-0.37000000000000005,-9.789999999999997,0.0,0.0027795646054214595,0.014507185103203247,0.014902553763440858,39.0625,-2.1875,90.0,0.6662597700000008,0.2620239299999999,-0.6569213900000006,-0.2363891599999999
15.0,0.009882867132867137,-0.06454931761786598,0.00849484453718325,-0.37000000000000005,-9.79,0.0,0.015455432504323633,0.024784464527408075,0.0004578293010752679,39.0625,-2.1875,90.0,0.6662597700000008,0.2620239299999999,-0.6569213900000006,-0.2363891599999999
16.0,0.009976173020527864,-0.06437207336108218,0.011399667525935742,-0.37,-9.79,0.0,0.01943076996223946,0.006700044638633998,-0.0037318033515435305,39.0625,-2.1875,90.0,0.6662597700000007,0.2620239299999999,-0.6569213900000006,-0.2363891599999999
17.0,0.009912481671554256,-0.06474148022892817,0.009709410375871096,-0.37,-9.79,0.0,0.0014146037311197294,-0.0022888385677797755,0.011034173929066944,39.0625,-2.1875,90.0,0.6662597700000008,0.2620239299999999,-0.6569213900000006,-0.2363891599999999
18.0,0.009850317693059631,-0.06397524280263611,0.007531345583829976,-0.37000000000000005,-9.79,0.0,0.02974929691687951,-0.005732258360136222,-0.003327820018604357,39.0625,-2.1875,90.0,0.6662597700000008,0.2620239299999999,-0.6569213900000006,-0.2363891599999999
19.0,0.009910496089931577,-0.06333625663705006,0.0071030665809216804,-0.37000000000000005,-9.79,0.0,-0.0067172005527640945,-0.006302007817559652,-0.009276089496481666,39.0625,-2.1875,90.0,0.6662597700000008,0.2620239299999999,-0.6569213900000006,-0.2363891599999999
20.0,0.011385561520512096,-0.06252839756930545,0.005524331807630455,-0.37,-9.79,0.0,0.005061075679653332,-0.01722986463328555,-0.017945106077585267,39.0625,-2.1875,90.0,0.6662597700000007,0.2620239299999999,-0.6569213900000006,-0.2363891599999999
21.0,0.011248612025764736,-0.06373750383548119,0.005783617916942578,-0.37,-9.79,0.0,0.0006677446756547297,-0.005954692582391593,-0.0033834231260414923,39.0625,-2.1875,90.0,0.6662597700000008,0.2620239299999999,-0.6569213900000006,-0.2363891599999999
22.0,0.011976702104693787,-0.06456474292270337,0.005460512432416699,-0.37,-9.79,0.0,-0.025236314154108118,-0.009736225013280165,-0.018509911004708092,39.0625,-2.1875,90.0,0.6662597700000008,0.2620239299999999,-0.6569213900000006,-0.2363891599999999
23.0,0.012547374466209021,-0.06304786045264713,0.006001214648457105,-0.37,-9.79,0.0,-0.007390186123276655,0.014726596100165298,-0.041238093332266065,39.0625,-2.1875,90.0,0.6662597700000008,0.2620239299999999,-0.6569213900000006,-0.2363891599999999
24.0,0.012160784007298062,-0.06180184585907789,0.00579465198924096,-0.37,-9.79,0.0,-0.011581259314740064,0.017032963062489595,-0.017362222844793083,39.0625,-2.1875,90.0,0.6662597700000008,0.2620239299999999,-0.6569213900000006,-0.2363891599999999
25.0,0.013894728031824812,-0.06341324983260466,0.0037851431722399466,-0.37,-9.79,0.0,-0.0035856448658868013,0.0034801611918547403,-0.018680210918114143,39.0625,-2.1875,90.0,0.6662597700000008,0.2620239299999999,-0.6569213900000006,-0.2363891599999999
26.0,0.00997496007576653,-0.06178362318684898,0.007655937252711448,-0.37000000000000005,-9.789999999999997,0.0,0.011450184560063593,0.045650806966331156,-0.05007766091435446,39.0625,-2.181634897360704,89.97409579667644,0.6663838662658852,0.2619499475171065,-0.6568015852688174,-0.23646743808406628
27.0,0.009606851148000015,-0.06317407982757,0.0050973824489160295,-0.37,-9.79,0.002622950819672132,0.10066163379245908,0.007706723907849305,-0.012892987801683598,39.0625,-2.152309384164223,89.95161690944346,0.6665020493756708,0.26177984833020845,-0.6566946820923671,-0.23665397925356124
28.0,0.0096728572176252,-0.06393727032853155,-0.0023079395999147457,-0.37,-9.79,0.006472765732416714,0.05423506676822135,0.01860630614235271,0.0001939310863573818,39.0625,-2.1376466275659824,89.91129232568946,0.6666959290426738,0.261649868519943,-0.6564930166913444,-0.23680508962678043
29.0,0.00964989790161657,-0.06307021705012185,-0.008311693125019412,-0.37,-9.79,0.008397673188789005,0.02986669009937122,0.01148527349611432,0.002483849072955366,39.0625,-2.1303152492668618,89.89113003381246,0.6667928688761753,0.2615848786148102,-0.6563921839908331,-0.23688064481339
30.0,0.008284006022768586,-0.06339118792952741,-0.0099920748503509,-0.37,-9.79,0.00936012691697515,0.026448543560851863,-0.004167412879734404,0.0015676069186116779,39.0625,-2.126649560117302,89.88104888787397,0.666841338792926,0.26155238366224387,-0.6563417676405774,-0.2369184224066948
31.0,0.008961162346672663,-0.06588425476632773,-0.01179222510845991,-0.37,-9.79,0.009841353781068223,0.0052513978801326765,-0.008498662451597406,0.007091843537507208,39.0625,-2.125,89.87681782125858,0.6668616957429925,0.2615384481385511,-0.6563203033632989,-0.23693486501322011
32.0,0.009571802749222109,-0.06415841506164084,-0.011744869825514991,-0.37,-9.79,0.010000000000000005,0.02589381105006105,-0.027963635826539053,0.001670260742841388,39.0625,-2.125,89.875,0.6668701199999993,0.26153564000000007,-0.6563110399999992,-0.2369384799999996
33.0,0.009153225806451618,-0.0643076923076923,-0.009694168734491318,-0.37,-9.79,0.010000000000000005,0.008352396091811414,0.000922766749379654,0.006614454094292804,39.0625,-2.125,89.875,0.6668701199999993,0.26153564000000007,-0.6563110399999992,-0.2369384799999996
34.0,0.008832356119426881,-0.06336780597134395,-0.010952983670855683,-0.37,-9.79,0.010000000000000005,0.00461894598475146,-0.015224900944528934,0.0084325972544625,39.0625,-2.125,89.875,0.6668701199999993,0.26153564000000007,-0.6563110399999992,-0.23693847999999962
35.0,0.008629074781877851,-0.06503653045705594,-0.017782032938445533,-0.37,-9.790000000000001,0.008917793964620191,0.0503342965810854,-0.007297430310974145,-0.0025474890938925795,39.0625,-2.125,89.88228407908429,0.6668213411446408,0.26154173922996893,-0.6563598153590002,-0.23692120357960442
36.0,0.010830782738333468,-0.06484875530296966,-0.03623771311934683,-0.37,-9.790000000000001,0.027007284079084305,0.19810812805170894,-0.01689070879692628,-0.004408922121387977,39.09078784119106,-2.125,89.77541623309052,0.6674103427013525,0.26132350795741605,-0.6557562723048104,-0.23716343901064574
37.0,0.013350836468422321,-0.06659249179540541,-0.05891010966141037,-0.37,-9.79,0.04764508124549746,0.18210597934843512,-0.009674417673897383,-0.010593932602257265,39.10890198511166,-2.125,89.65399223565197,0.6680940147749939,0.2610820843906186,-0.6550672687777157,-0.2374294657484991
38.0,0.010630241189034117,-0.06838557592251658,-0.07209596231032234,-0.37,-9.79,0.05995413304466372,0.08709630567721097,-0.012486436849079928,-0.038253167805717234,39.11795905707196,-2.125,89.57094773072922,0.6685126323030117,0.2609293390002247,-0.6546280829705265,-0.2375949956699486
39.0,0.01058430943550611,-0.06628382243262573,-0.07632134058564859,-0.37,-9.79,0.06594480845781572,0.06657336838788451,-0.01446000236322817,-0.027993732045501034,39.1224875930521,-2.125,89.52942547826783,0.6687309426031187,0.26085446627430575,-0.6543984905175209,-0.2376762604156196
40.0,0.011079671136783781,-0.06650431547417268,-0.08083761200313289,-0.37,-9.79,0.06897396510299733,0.04711038858315431,-0.012518208479340154,-0.013785497656465397,39.124751861042185,-2.125,89.50843672456577,0.6688416220924023,0.2608168393104098,-0.6542821700610493,-0.23771743267659246
41.0,0.010915745750224866,-0.06596740811336262,-0.07940969401360728,-0.37,-9.790000000000001,0.06990633739020832,0.013927606120890099,-0.004253907559037119,-0.007328517448824164,39.125,-2.125,89.50139578163771,0.668877793368782,0.2608049408561973,-0.6542436326682413,-0.23773017900579013
42.0,0.01144826749610019,-0.06551608218843508,-0.07971477256511629,-0.37,-9.790000000000003,0.0700102406554019,0.010586331676470023,-0.004146084492717951,0.0049240507288817615,39.125,-2.125,89.5,0.6688837174039941,0.2608031262519199,-0.6542364649718372,-0.2377320237634411
43.0,0.011472056076617589,-0.06545531156568155,-0.07973189886674814,-0.37,-9.790000000000001,0.06999999999999998,0.010383953187086875,0.007580252487580921,0.011922815470392277,39.125,-2.125,89.5,0.6688842800000001,0.2608032199999998,-0.654235839999999,-0.23773193000000023
44.0,0.010807752013258579,-0.06639310144828643,-0.0806061912703901,-0.37,-9.79,0.06999999999999998,0.005464486341859638,0.009521200724864941,0.014670149710067148,39.125,-2.125,89.5,0.6688842800000001,0.2608032199999998,-0.654235839999999,-0.23773193000000026
45.0,0.010713065546214082,-0.06550229439961786,-0.08182925520258555,-0.37,-9.790000000000001,0.06999999999999998,-0.008673119241857406,0.003885274114159668,0.0057742007655434595,39.125,-2.125,89.5,0.6688842800000001,0.2608032199999998,-0.654235839999999,-0.23773193000000026
46.0,0.010509805491075008,-0.06557752341311132,-0.08204178339870324,-0.37,-9.790000000000003,0.06999999999999998,0.015046425998559196,0.003974225566317138,0.0013427519410870092,39.125,-2.125,89.5,0.6688842800000001,0.2608032199999998,-0.654235839999999,-0.23773193000000026
47.0,0.010866245097254468,-0.06270551508844953,-0.07771444008644839,-0.37,-9.790000000000001,0.06999999999999998,0.0219450392219643,0.0035642459777475385,0.008979778676058592,39.125,-2.125,89.5,0.6688842800000001,0.2608032199999998,-0.654235839999999,-0.23773193000000026
48.0,0.011701112623068922,-0.06706987913231408,-0.08845647562635071,-0.37,-9.79,0.07838709677419353,0.10355936824621788,-0.009097219442888016,0.004226241695349396,39.125,-2.125,89.4632056451613,0.6691362941935484,0.2606993638709678,-0.6539892379838705,-0.2378461258064518
49.0,0.012240804056620917,-0.06816997836248616,-0.09575736460036663,-0.37,-9.79,0.08795698924731178,0.08605486234990006,-0.0077914018755264845,0.006457768135870373,39.125,-2.125,89.41708669354838,0.6694093098924727,0.2605937848387099,-0.6537135127553766,-0.2379465401612905
50.0,0.012502725335711812,-0.06761425763506929,-0.09946263915729314,-0.37,-9.79,0.09446236559139777,0.041832774071734136,-0.008471477658441109,0.0002054647626480357,39.125,-2.125,89.39402721774192,0.669556317526881,0.26054099532258085,-0.6535651486357531,-0.23799674733870985
51.0,0.011246159754224274,-0.06699308755760366,-0.1020682123655914,-0.37,-9.79,0.09771505376344077,0.014682439676139272,-0.01710159450204813,0.0011755752368151563,39.125,-2.125,89.3824974798387,0.6696298213440852,0.26051460056451636,-0.6534909665759414,-0.2380218509274195
52.0,0.01035317873247114,-0.0668264085030474,-0.10262546609434617,-0.37,-9.79,0.09934139784946228,0.01885114195695621,-0.012240089817361214,-0.0017611449713426817,39.125,-2.125,89.37673261088709,0.6696665732526873,0.26050140318548415,-0.6534538755460355,-0.23803440272177434
53.0,0.010996481839353851,-0.06469411823001833,-0.10202358654179675,-0.37,-9.790000000000001,0.09989247311827948,0.024269320978478108,-0.021380671588788133,0.0012699651487372613,39.125,-2.125,89.375,0.6696770737634401,0.26049805000000026,-0.6534430363440866,-0.2380371100000001
54.0,0.01020497827990024,-0.06502895462728968,-0.10188910361230862,-0.37,-9.790000000000003,0.09999999999999991,-0.007147605833870143,-0.004350833292040368,0.009856217894719455,39.125,-2.125,89.375,0.6696777299999992,0.26049805000000026,-0.6534423800000007,-0.23803711000000013
55.0,0.010784772806104757,-0.0651437655880944,-0.10203262144261104,-0.37,-9.790000000000001,0.0999999999999999,-0.011590315973770709,0.01964197966734387,-0.00404846555340832,39.125,-2.125,89.375,0.6696777299999991,0.26049805000000026,-0.6534423800000007,-0.23803711000000013
56.0,0.010556236889483511,-0.06599226169829708,-0.10341006392151034,-0.37,-9.79,0.0999999999999999,0.003085410369489453,0.020461670837256165,-0.003080300365029813,39.125,-2.125,89.375,0.6696777299999991,0.26049805000000026,-0.6534423800000007,-0.23803711000000013
57.0,0.010962813349298148,-0.06551502339618799,-0.10479923028558757,-0.37,-9.790000000000001,0.0999999999999999,0.017562188390421875,0.01721931864136396,-0.001475113762119485,39.125,-2.125,89.375,0.6696777299999992,0.26049805000000026,-0.6534423800000007,-0.2380371100000001
58.0,0.0117864708439172,-0.06612492411571452,-0.10437602860099705,-0.37,-9.790000000000003,0.0999999999999999,0.012909280979810311,-0.0007886453966263786,0.011161940170622532,39.125,-2.125,89.375,0.6696777299999992,0.26049805000000026,-0.6534423800000007,-0.23803711000000013
59.0,0.0110623301149867,-0.06571594800999045,-0.10377230150133099,-0.37,-9.790000000000001,0.0999999999999999,-0.0005367747026026482,-0.005125722282080098,0.015368951354822191,39.125,-2.125,89.375,0.6696777299999991,0.26049805000000026,-0.6534423800000007,-0.23803711000000013
60.0,0.011777653357334706,-0.06480296012345108,-0.10295081561052799,-0.37,-9.790000000000001,0.0999999999999999,0.006329477535002219,-0.004826616677132064,0.0026797865248463166,39.125,-2.125,89.375,0.6696777299999992,0.26049805000000026,-0.6534423800000007,-0.2380371100000001
61.0,0.011645208201838937,-0.0662681249040446,-0.10427538765971238,-0.37,-9.790000000000003,0.0999999999999999,-0.002395485939339144,-0.01436738487487419,0.004015998959417274,39.125,-2.125,89.375,0.6696777299999992,0.26049805000000026,-0.6534423800000007,-0.2380371100000001
62.0,0.011456853217453093,-0.06493637583286556,-0.10351451637272846,-0.37,-9.790000000000001,0.0999999999999999,0.006482486269919795,-0.03197609882357695,0.004056130560097782,39.125,-2.125,89.375,0.6696777299999991,0.26049805000000026,-0.6534423800000007,-0.23803711000000013
63.0,0.011587980975044704,-0.0658843136452536,-0.10456220673532943,-0.37,-9.79,0.0999999999999999,-0.003561514822194521,-0.005438471012964501,0.0021661386328725037,39.125,-2.125,89.375,0.6696777299999991,0.26049805000000026,-0.6534423800000007,-0.23803711000000013
64.0,0.01121905769182343,-0.06543711650004616,-0.10558553885153571,-0.37,-9.790000000000001,0.0999999999999999,-0.004232664333140271,-0.0068785517027188095,0.009370199692780337,39.125,-2.125,89.375,0.6696777299999992,0.26049805000000026,-0.6534423800000007,-0.2380371100000001
65.0,0.011402333472240168,-0.06506925168752842,-0.10675423374742732,-0.37,-9.790000000000003,0.0999999999999999,-0.010639301750848807,-0.0028694075447798515,0.013695309498221423,39.125,-2.125,89.375,0.6696777299999992,0.26049805000000026,-0.6534423800000007,-0.23803711000000013
66.0,0.011086996019358149,-0.06527773648481244,-0.10345106783608346,-0.37,-9.790000000000001,0.0999999999999999,0.0035501626942834015,0.004049188180301604,0.008301124820375599,39.125,-2.125,89.375,0.6696777299999991,0.26049805000000026,-0.6534423800000007,-0.23803711000000013
67.0,0.01085071767173745,-0.06610276993211436,-0.10413720826519995,-0.37,-9.79,0.0999999999999999,0.006127359892968634,-0.00898411046694085,0.00818282047470393,39.125,-2.125,89.375,0.6696777299999991,0.26049805000000026,-0.6534423800000007,-0.23803711000000013
68.0,0.010896676742150214,-0.0671868754438994,-0.10364393075995573,-0.37,-9.790000000000001,0.0999999999999999,-0.0014109290091340039,-0.007933823893761459,0.00927832284492014,39.125,-2.125,89.375,0.6696777299999992,0.26049805000000026,-0.6534423800000007,-0.23803711000000013
69.0,0.010999413639892312,-0.06625472804453034,-0.10333002989610691,-0.37,-9.790000000000001,0.0999999999999999,0.003410798936293213,0.01280056117139884,0.008402602282675123,39.125,-2.125,89.375,0.6696777299999991,0.26049805000000026,-0.6534423800000007,-0.23803711000000013
70.0,0.012112197116099307,-0.06600123053036683,-0.10334250037163668,-0.37,-9.79,0.0999999999999999,0.0024775779198255785,0.00433589040021142,0.004436929124754307,39.125,-2.125,89.375,0.6696777299999991,0.26049805000000026,-0.6534423800000007,-0.23803711000000013
71.0,0.012481690123778717,-0.06536473771656129,-0.1018353524916446,-0.37,-9.790000000000001,0.0999999999999999,-0.030762472235557815,0.0014791142296777006,0.003228102949725747,39.125,-2.125,89.375,0.6696777299999992,0.26049805000000026,-0.6534423800000007,-0.2380371100000001
72.0,0.012262862471003545,-0.06541099149012908,-0.10281936595396363,-0.37,-9.790000000000003,0.0999999999999999,-0.01660051415157307,0.007559193571572082,-0.002815031986478652,39.125,-2.125,89.375,0.6696777299999992,0.26049805000000026,-0.6534423800000007,-0.2380371100000001
73.0,0.010949329258394595,-0.06556969969927891,-0.10335557267521284,-0.37,-9.790000000000003,0.09999999999999991,-0.024803248751124725,0.011161230500666374,0.004673389313732578,39.125,-2.125,89.375,0.6696777299999992,0.26049805000000026,-0.6534423800000007,-0.23803711000000013
74.0,0.012795733177584399,-0.06665077726899428,-0.10525641536986449,-0.37,-9.790000000000001,0.0999999999999999,-0.0019429550207236534,0.016653573919688025,0.013803428527834031,39.125,-2.125,89.375,0.6696777299999991,0.26049805000000026,-0.6534423800000007,-0.23803711000000013
75.0,0.011262051995018854,-0.06568695092202453,-0.09605681268942301,-0.37,-9.790000000000001,0.0999999999999999,0.04343346276647163,-0.028097839298203715,0.013760382726895367,39.125,-2.125,89.375,0.6696777299999992,0.26049805000000026,-0.6534423800000007,-0.23805724893178215
76.0,0.00837409466865848,-0.06538840423809333,-0.08598010738472558,-0.37,-9.790000000000001,0.09533026113671265,-0.08891487362964895,-0.0759883591830681,-0.009537908575276264,39.125,-2.125,89.375,0.6696217266410647,0.2605105497439839,-0.6535253873937537,-0.2380341772743908
77.0,0.011298709865346614,-0.06625809790068438,-0.08975204707532394,-0.37,-9.79,0.09250384024577565,-0.03201688677346798,-0.026285122519573753,-0.016048937745040945,39.125,-2.125,89.375,0.6695867244495648,0.2605042998719921,-0.6535783920839738,-0.23800413912106647
78.0,0.011064184062382772,-0.0660666305039487,-0.09260160700726208,-0.37,-9.79,0.09109062980030713,-0.021120512494640767,-0.0026175005591278413,0.012773765440282,39.125,-2.125,89.375,0.6695692233538147,0.2605011749359961,-0.6536048944290839,-0.23798912004440428
79.0,0.011687886002005522,-0.06676031377988015,-0.09356578846266841,-0.37,-9.79,0.09038402457757289,0.007030119536729796,-0.009863547786604372,0.012169002775824563,39.125,-2.125,89.375,0.6695604728059398,0.2604996124679982,-0.653618145601639,-0.2379816105060732
80.0,0.011330458072393561,-0.066045413367994,-0.09384132892197408,-0.37,-9.79,0.09003072196620576,0.02228819567529245,-0.004295536452794518,0.0053656357083776435,39.125,-2.125,89.375,0.6695560975320023,0.2604988312339992,-0.6536247711879164,-0.23797722639528945
81.0,0.011298869589192176,-0.06544078144078143,-0.09632926661152466,-0.37,-9.79,0.08999999999999991,0.0020315146323210843,0.013901258911339556,-0.0028535364724880854,39.125,-2.125,89.375,0.6695556600000002,0.26049805000000026,-0.6536254900000005,-0.23797607000000018
82.0,0.011997629783790039,-0.0675177972680574,-0.09843038212510116,-0.37,-9.79,0.08999999999999991,0.013115032910493367,-0.0012259494285053593,-0.015117935289794032,39.125,-2.125,89.375,0.6695556600000002,0.26049805000000026,-0.6536254900000004,-0.23797607000000018
83.0,0.011485493781279428,-0.06699403729580627,-0.09911782225030144,-0.37,-9.790000000000001,0.08999999999999991,0.019740811799051912,-0.012395406209223197,-0.00665413554209405,39.125,-2.125,89.375,0.6695556600000002,0.26049805000000026,-0.6536254900000003,-0.23797607000000018
84.0,0.01191402185223726,-0.06789281997918832,-0.1003666428199792,-0.37,-9.790000000000001,0.08999999999999991,0.015358757154006244,-0.00543765446149844,-0.0025110155437044744,39.125,-2.125,89.375,0.6695556600000002,0.26049805000000026,-0.6536254900000004,-0.23797607000000018
85.0,0.011489299538044341,-0.06667597377258536,-0.10364426654684199,-0.37,-9.79,0.08999999999999991,0.0021617527216756536,0.0026732678633368014,-0.0027060324236117678,39.125,-2.125,89.375,0.6695556600000002,0.2604980500000002,-0.6536254900000005,-0.23797607000000018
86.0,0.012119737774654533,-0.06604532015562191,-0.10455590823501854,-0.37000000000000005,-9.79,0.08999999999999991,-0.022590888632121723,-0.002176590914721768,-0.019597183838533996,39.125,-2.125,89.375,0.6695556600000002,0.26049805000000026,-0.6536254900000005,-0.23797607000000018
87.0,0.012225321540813221,-0.06569175477083905,-0.10436952539742603,-0.37,-9.79,0.08999999999999991,-0.022774372515852744,0.001171720151380011,-0.007847499307404355,39.125,-2.125,89.375,0.6695556600000002,0.26049805000000026,-0.6536254900000005,-0.23797607000000018
88.0,0.012871245577898812,-0.06548375459665783,-0.10452867528976399,-0.37,-9.79,0.08999999999999991,-0.0193541477563655,0.007495979742703532,-0.00951688180770842,39.125,-2.125,89.375,0.6695556600000002,0.26049805000000026,-0.6536254900000005,-0.23797607000000018
89.0,0.012526852627659086,-0.0663104256854257,-0.1033706884513336,-0.37,-9.79,0.08999999999999991,-0.025491085974956945,0.028933851766513054,-0.0158786525974026,39.125,-2.125,89.375,0.6695556600000002,0.26049805000000026,-0.6536254900000005,-0.23797607000000018
90.0,0.011412813000677209,-0.06656359426358127,-0.10291220702641096,-0.37,-9.79,0.08999999999999991,-0.0058290182184563034,0.024704742393835785,-0.006332631094841684,39.125,-2.125,89.375,0.6695556600000002,0.26049805000000026,-0.6536254900000004,-0.23797607000000018
91.0,0.012137538092760525,-0.06712716323522125,-0.10382937540260641,-0.37,-9.79,0.08999999999999991,0.0055180305733115295,0.0022077219393654094,-0.005150442531547826,39.125,-2.125,89.375,0.6695556600000002,0.26049805000000026,-0.6536254900000004,-0.23797607000000018
92.0,0.01134858449303039,-0.0667309590990002,-0.10510474663430569,-0.37,-9.79,0.08999999999999991,-0.012279077920540265,0.017418028153305534,-0.013540588433888057,39.125,-2.125,89.375,0.6695556600000002,0.26049805000000026,-0.6536254900000005,-0.23797607000000018
93.0,0.010782699184559232,-0.06565562611888054,-0.1072309527462363,-0.37,-9.79,0.08999999999999991,-0.029968814033874844,0.009016283741911345,0.0005714256531276557,39.125,-2.125,89.375,0.6695556600000002,0.26049805000000026,-0.6536254900000005,-0.23797607000000018
94.0,0.010439313952321241,-0.06612499698243715,-0.10832525134710358,-0.37,-9.790000000000001,0.08999999999999991,0.010477859664904408,-0.006164944432374193,0.007916314088270383,39.125,-2.125,89.375,0.6695556600000002,0.26049805000000026,-0.6536254900000004,-0.23797607000000018
95.0,0.010542155035391253,-0.06655794800643916,-0.11034732084888174,-0.37,-9.79,0.08999999999999991,0.04086985537297712,0.011441296014657095,0.010053772970006059,39.125,-2.125,89.375,0.6695556600000002,0.26049805000000026,-0.6536254900000004,-0.23797607000000018
96.0,0.01070886553612881,-0.0663012474287188,-0.10977427486376498,-0.37,-9.79,0.08999999999999991,-0.006518797351913897,0.025193894295090967,-0.001949560007572495,39.125,-2.125,89.375,0.6695556600000002,0.26049805000000026,-0.6536254900000005,-0.23797607000000018
97.0,0.011491460614769675,-0.0654247187949061,-0.10732508299886032,-0.37,-9.79,0.08999999999999991,0.01463048473812001,0.004404668995589913,-0.00012155616669144243,39.125,-2.125,89.375,0.6695556600000002,0.26049805000000026,-0.6536254900000005,-0.23797607000000018
98.0,0.011156843070214565,-0.06571823951571609,-0.10634443701171066,-0.37,-9.790000000000001,0.08999999999999991,-0.0012979540368002907,0.0027066248368927868,0.005438412574533803,39.125,-2.125,89.375,0.6695556600000002,0.26049805000000026,-0.6536254900000004,-0.23797607000000018
99.0,0.012027432981517275,-0.06597826648002246,-0.10624974191896669,-0.37,-9.79,0.08999999999999991,0.019235908517499956,-0.012450667810481805,0.012572223977173249,39.125,-2.125,89.375,0.6695556600000002,0.26049805000000026,-0.6536254900000004,-0.23797607000000018
100.0,0.011971217770840566,-0.06723132474026725,-0.10970449205523346,-0.37,-9.79,0.08999999999999991,0.01303417289674281,0.008431604138793916,-0.0029784809453611474,39.125,-2.125,89.375,0.6695556600000002,0.26049805000000026,-0.6536254900000005,-0.23797607000000018
101.0,0.012324268985896225,-0.06673260611682849,-0.11045964621270399,-0.37,-9.790000000000001,0.08999999999999991,-0.010099194206705277,0.01154957470953445,-0.001268726359777348,39.125,-2.125,89.375,0.6695556600000002,0.26049805000000026,-0.6536254900000004,-0.23797607000000018
102.0,0.011718571416386624,-0.06456122805820441,-0.11048097098309484,-0.37,-9.790000000000003,0.08999999999999991,0.0097421692418246,-0.0045616118797018115,0.001993739444908821,39.125,-2.125,89.375,0.6695556600000002,0.26049805000000026,-0.6536254900000003,-0.23797607000000018
103.0,0.012116749888134081,-0.06567815665297158,-0.1103133262823903,-0.37,-9.790000000000001,0.08999999999999991,-0.019153869353313265,-0.0037858987918480244,-0.010100094577553594,39.125,-2.125,89.375,0.6695556600000002,0.26049805000000026,-0.6536254900000004,-0.23797607000000018
104.0,0.01141623784729285,-0.06580278800390515,-0.10949134056054999,-0.37,-9.79,0.08999999999999991,-0.007198532458914698,0.017701304636334052,-0.003852970675873571,39.125,-2.125,89.375,0.6695556600000002,0.26049805000000026,-0.6536254900000005,-0.23797607000000018
105.0,0.012152531366042742,-0.06702541793948455,-0.11092414570270204,-0.37,-9.79,0.08999999999999991,0.007523695640102301,0.02732333456983113,-0.00010686888248363693,39.125,-2.125,89.375,0.6695556600000002,0.26049805000000026,-0.6536254900000005,-0.23797607000000018
106.0,0.012426689159304184,-0.06709886897578593,-0.10880505926149767,-0.37,-9.79,0.08999999999999991,-0.011053788905289432,0.02109427411929395,-0.0026135982917282496,39.125,-2.125,89.375,0.6695556600000002,0.26049805000000026,-0.6536254900000005,-0.23797607000000018
107.0,0.011750667119618738,-0.06557428906219229,-0.1097942637559573,-0.37,-9.79,0.08999999999999991,-0.020398197792351018,0.0029372033656307854,-0.019751710263303003,39.125,-2.125,89.375,0.6695556600000002,0.26049805000000026,-0.6536254900000005,-0.23797607000000018
108.0,0.010327963425977048,-0.06682391791107417,-0.10769723764212462,-0.37,-9.79,0.08999999999999991,-0.05544657682807967,0.0009863070076333563,-0.007948201875336163,39.125,-2.125,89.375,0.6695556600000002,0.26049805000000026,-0.6536254900000004,-0.23797607000000018
109.0,0.011166716707700319,-0.06737753603115842,-0.10641757208653033,-0.37,-9.790000000000001,0.08999999999999991,0.0012673456750664606,0.006769284684408957,-0.001906071042771202,39.125,-2.125,89.375,0.6695556600000002,0.26049805000000026,-0.6536254900000003,-0.23797607000000018
110.0,0.0115856625013156,-0.06637822014051521,-0.10720264165002402,-0.37,-9.790000000000001,0.08999999999999991,0.013386489017768764,-0.009808201999833411,0.00403928398706294,39.125,-2.125,89.375,0.6695556600000002,0.26049805000000026,-0.6536254900000004,-0.23797607000000018
111.0,0.01043169059919457,-0.06505901435951673,-0.10666741243949071,-0.37,-9.79,0.08999999999999991,-0.015159230972623356,0.0032926082048570157,0.0030922029451246795,39.125,-2.125,89.375,0.6695556600000002,0.26049805000000026,-0.6536254900000005,-0.23797607000000018
112.0,0.010280400815765707,-0.06623355223864212,-0.11020557986581256,-0.37,-9.79,0.08999999999999991,-0.028635239969355512,0.007526803531315033,-0.011192929210016727,39.125,-2.125,89.375,0.6695556600000002,0.26049805000000026,-0.6536254900000005,-0.23797607000000018
113.0,0.01176368004828476,-0.06611783376078062,-0.10966386872719502,-0.37,-9.790000000000001,0.095076679005817,-0.03509035927605798,0.028105680983002833,0.008103297425663236,39.125,-2.125,89.3575489159175,0.6697012931676365,0.2604505377842413,-0.6534633320729776,-0.23804062361184564
114.0,0.007081549592439996,-0.06555360768814299,-0.10589427645185184,-0.37,-9.79,0.09769962982548909,-0.08194615375938914,0.026126793552366162,0.0029614805814154703,39.125,-2.125,89.33401639344262,0.6698174881967218,0.2604112900211527,-0.6533473982766322,-0.23807935182384393
115.0,0.005722554430116569,-0.0650644302521616,-0.10347149178455364,-0.37,-9.79,0.09901110523532514,-0.05623155342219329,0.003728549345947546,-0.0037970974909102887,39.125,-2.125,89.32225013220517,0.6698755857112644,0.2603916661396084,-0.6532974325254131,-0.23809071478288968
116.0,0.0030483577178447626,-0.06653152359128033,-0.0984212602721328,-0.37,-9.790000000000001,0.09966684294024317,0.05983753452024209,0.002658268489839088,-0.01832300873813301,39.125,-2.125,89.31636700158646,0.6699046344685357,0.2603818541988363,-0.6532703837798934,-0.23809846213232266
117.0,0.005489360630555766,-0.06473608358854259,-0.06762569177693449,-0.3649181141439204,-9.790000000000001,0.0747440914453077,-0.23938437583334465,0.02795213042436734,-0.05589187972847412,39.1508064516129,-2.120037220843672,89.48414503925477,0.6689382362466746,0.2608000419058698,-0.6541172327708398,-0.2379960719023897
118.0,0.005355732668530131,-0.06646375834636012,-0.04753838792971527,-0.3622977667493794,-9.79,0.05318114143920595,-0.058010207483039325,0.0399295950905549,-0.0596256067071773,39.17016129032258,-2.122518610421836,89.61207351116624,0.6681403201513643,0.26116243474193546,-0.6548219801916071,-0.2378821646992118
119.0,0.0069631676903260465,-0.06506462614640571,-0.03527341410591441,-0.3629022652685503,-9.790000000000001,0.04970191307131992,0.03281253000639504,0.025303977962501573,0.005078720026488313,39.167872008324665,-2.1274013447530615,89.63398290542703,0.6679961053566392,0.26131591646566066,-0.6549132823793049,-0.2378710090775513
120.0,0.00687640308080722,-0.06635018889266511,-0.03157180480085242,-0.36645113263427515,-9.790000000000003,0.04904450492275671,0.010524445943826899,0.009783084059860407,0.04606267009525334,39.146436004162325,-2.1262006723765308,89.63453177529416,0.6679824302589643,0.2615074862973464,-0.6548738321573946,-0.2378270674420013
121.0,0.008250470181334336,-0.06744796594289522,-0.036103194838289776,-0.36822556631713754,-9.790000000000003,0.048715800848475106,-0.0032815369434752344,0.017021367519089378,0.033591223995273416,39.13571800208116,-2.125600336188265,89.63480621022774,0.667975592710127,0.2616032712131892,-0.6548541716048741,-0.2378050320657916
122.0,0.008911717425536602,-0.06711521539493809,-0.03937480825848477,-0.3692715920915713,-9.790000000000001,0.04934053069719038,0.006795956094019208,0.012793542477887278,0.011100478278309442,39.12955254942767,-2.125455254942768,89.62960844010146,0.6680028277669737,0.2616379419936913,-0.6548174546609982,-0.23779733512470702
123.0,0.008946217063444681,-0.06642343756219328,-0.04093090048720284,-0.3697970863683663,-9.790000000000001,0.04993236212278871,-0.00995430391839102,-0.004323568088579774,0.011209423907625065,39.12626821019771,-2.125227627471384,89.62565036420395,0.6680261379812688,0.2616505331893859,-0.6547904632049952,-0.2377953833662848
124.0,0.009417197856664946,-0.06651082024617105,-0.04315733865349192,-0.37,-9.790000000000001,0.04999999999999995,-0.011455243976439454,0.006875955661373856,-0.002653106869172782,39.125,-2.125,89.625,0.6680297899999992,0.2616577099999998,-0.6547851600000004,-0.23779296999999966
125.0,0.009925331487740868,-0.06682041729993828,-0.04394929711249801,-0.37,-9.79,0.05065540194572449,0.04977022495595191,0.021970311441021597,-0.012922311956574423,39.12858422939068,-2.125,89.6219278033794,0.668050790962621,0.2616487095289297,-0.6547641583819765,-0.237800970409626
126.0,0.00631039096179575,-0.06402193482318352,-0.032031283550534334,-0.37,-9.790000000000001,0.055488991295442915,0.01049873643526089,0.07980381712171514,-0.023944758270980956,39.15905017921147,-2.125,89.59120583717359,0.6682282858195003,0.2615576902639446,-0.6545866636863056,-0.23786149823811176
127.0,0.010313413606857936,-0.06568838676643046,-0.03201768990634757,-0.37189247311827944,-9.790000000000003,0.05790578597030213,-0.00872912640602547,-0.03498928447549676,0.026423678212179773,39.13933691756272,-2.14005376344086,89.57584485407065,0.6683437750280299,0.2615110953147681,-0.6545026730474539,-0.23779258001152914
128.0,0.022994896189485164,-0.06766209140610803,-0.0356420395421436,-0.38126881720430117,-9.790000000000003,0.05911418330773173,0.02773091026212774,-0.008861057430256185,0.03387716168673505,39.0676523297491,-2.197043010752688,89.56816436251921,0.6685333012236919,0.26177341943157756,-0.6543603965237265,-0.23741475177995824
129.0,0.030693556645689842,-0.06800027253357116,-0.03976034388781527,-0.38595698924731203,-9.790000000000001,0.059718381976446536,-0.010688116297507558,-0.004718547148307817,0.020186788728672186,39.0318100358423,-2.225537634408602,89.59204589093702,0.66860050238604,0.2619045814899823,-0.654316328019928,-0.2372258376641728
130.0,0.03500627653073023,-0.06806311629750753,-0.048249347571147766,-0.3883010752688175,-9.79,0.06000000000000005,0.012385076515864755,0.02573852468493467,0.018093906397106188,39.01377688172043,-2.2397849462365587,89.6086189516129,0.668629509267777,0.2619704437839056,-0.6542993796653662,-0.23713113059347926
131.0,0.03681115075235784,-0.06908341385461571,-0.053896612738053934,-0.3894731182795702,-9.790000000000001,0.06000000000000005,0.00826069642650678,0.024147661579373335,0.00689533162380457,39.003864247311824,-2.2469086021505373,89.61781754032259,0.6686387941344092,0.26200607865053754,-0.6542961240470433,-0.2370820105698927
132.0,0.03696079307404601,-0.06933088372970517,-0.05409470157438569,-0.39000000000000035,-9.790000000000003,0.06000000000000005,-0.016585653020661645,0.017582104630687902,0.011244741873950581,39.0,-2.25,89.62241683467741,0.6686426008870974,0.2620239299999999,-0.6542943475907261,-0.23706055000000026
133.0,0.03618781110187775,-0.06869014331671322,-0.05533220617922825,-0.39000000000000035,-9.790000000000001,0.06000000000000005,-0.012868861312042,0.008018873863664979,0.0029238756526319323,39.0,-2.25,89.62471648185485,0.6686403860887102,0.2620239299999999,-0.654296593150202,-0.23706055000000026
134.0,0.03762656023100234,-0.06894973684873207,-0.06063324183895309,-0.39000000000000035,-9.790000000000001,0.06000000000000005,-0.02681546045176399,-0.003922874014756616,-0.0028631340602519877,39.0,-2.25,89.625,0.6686401400000006,0.2620239299999999,-0.6542968700000004,-0.23706055000000026
135.0,0.037569712002551776,-0.06899792248999015,-0.06452145920945496,-0.39000000000000035,-9.790000000000003,0.06000000000000005,0.005021777131441332,-0.0028574943550485586,0.012606577312751294,39.0,-2.25,89.625,0.6686401400000006,0.2620239299999999,-0.6542968700000004,-0.23706055000000026
136.0,0.03664775922708235,-0.0695822945783284,-0.06502954680902855,-0.39000000000000035,-9.790000000000001,0.06000000000000005,0.02514193695281744,-0.00436893534956729,-0.001173189838248009,39.0,-2.25,89.625,0.6686401400000006,0.2620239299999999,-0.6542968700000005,-0.23706055000000026
137.0,0.03621763782305655,-0.06904986003715553,-0.06461581228136726,-0.39000000000000035,-9.790000000000001,0.06000000000000005,-0.003937620595766779,-0.0069662438300863525,-0.0024284050213058163,39.0,-2.25,89.625,0.6686401400000006,0.2620239299999999,-0.6542968700000004,-0.23706055000000026
138.0,0.037150805598676256,-0.06895350144714918,-0.06546868443049417,-0.39000000000000035,-9.790000000000003,0.06000000000000005,0.00835825063401625,-0.005080024116784087,-0.001687832822992898,39.0,-2.25,89.625,0.6686401400000006,0.2620239299999999,-0.6542968700000003,-0.23706055000000026
139.0,0.038419224410478625,-0.06725341210203395,-0.06755295670493508,-0.39000000000000035,-9.790000000000003,0.06000000000000005,0.006990688863632486,0.0036218511533125217,-0.012002033809698458,39.0,-2.25,89.625,0.6686401400000006,0.2620239299999999,-0.6542968700000003,-0.23706055000000023
140.0,0.038000574488380165,-0.06739387140131806,-0.06506210978147761,-0.39000000000000035,-9.790000000000003,0.06000000000000005,-0.027276477952653484,0.0018109255766562608,-0.0064472093955948665,39.0,-2.25,89.625,0.6686401400000006,0.2620239299999999,-0.6542968700000004,-0.23706055000000023
141.0,0.03833100441008871,-0.0672197611614885,-0.0670331830269395,-0.39000000000000035,-9.790000000000001,0.06000000000000005,-0.004618411707381531,-3.9847711543861564e-05,-0.014764093289067273,39.0,-2.25,89.625,0.6686401400000006,0.2620239299999999,-0.6542968700000005,-0.23706055000000026
142.0,0.038483920519300344,-0.06638563500322084,-0.0681992137819401,-0.39000000000000035,-9.790000000000001,0.06000000000000005,0.0008288014303883188,0.01157281807971194,-0.007853560692400442,39.0,-2.25,89.625,0.6686401400000006,0.2620239299999999,-0.6542968700000004,-0.23706055000000026
143.0,0.03861881637844177,-0.06665505508481573,-0.06850872107427777,-0.39000000000000035,-9.790000000000001,0.06000000000000005,0.007263639066448639,0.017613565977900005,-0.01927096237384999,39.0,-2.25,89.625,0.6686401400000006,0.2620239299999999,-0.6542968700000005,-0.23706055000000026
144.0,0.03808590588507342,-0.06782394331301718,-0.0709828551607948,-0.39000000000000035,-9.79,0.06000000000000005,0.02250982772574864,0.01323026609186859,-0.011842822456766263,39.0,-2.25,89.625,0.6686401400000006,0.2620239299999999,-0.6542968700000005,-0.23706055000000026
145.0,0.0387435295277195,-0.06810488034110966,-0.0694239347024185,-0.39000000000000035,-9.790000000000001,0.06000000000000005,0.006909734660881861,-0.010835951036561741,-0.00803669414747356,39.0,-2.25,89.625,0.6686401400000006,0.2620239299999999,-0.6542968700000005,-0.23706055000000026
146.0,0.03922276322776144,-0.06806626505534745,-0.0702460175304207,-0.39000000000000035,-9.790000000000003,0.06000000000000005,-0.011365281159062398,-0.010224683147569144,-0.012252474057863765,39.0,-2.25,89.625,0.6686401400000006,0.2620239299999999,-0.6542968700000003,-0.23706055000000026
147.0,0.038323990833774024,-0.06844796991597624,-0.06948061410356489,-0.39000000000000035,-9.790000000000001,0.06000000000000005,-0.008324099955511907,0.011427039527251055,-0.009182174544416744,39.0,-2.25,89.625,0.6686401400000006,0.2620239299999999,-0.6542968700000005,-0.23706055000000026
148.0,0.03844514953875082,-0.06886300185506952,-0.07180891944297546,-0.39000000000000035,-9.79,0.06000000000000005,-0.002337933234284372,0.007905660060604534,-0.013327646411993318,39.0,-2.25,89.625,0.6686401400000006,0.2620239299999999,-0.6542968700000005,-0.23706055000000026
149.0,0.03884474413660201,-0.06961591531070044,-0.0712669293711582,-0.39000000000000035,-9.790000000000001,0.06000000000000005,0.007604240029373513,-0.01284050280751548,-0.00034032172770850043,39.0,-2.25,89.625,0.6686401400000006,0.2620239299999999,-0.6542968700000004,-0.23706055000000026
150.0,0.03745445385924055,-0.06802794707893561,-0.06972424557752341,-0.39000000000000035,-9.790000000000003,0.06000000000000005,0.016332967890590157,-0.00748780825198619,-0.013544918487686438,39.0,-2.25,89.625,0.6686401400000006,0.2620239299999999,-0.6542968700000003,-0.23706055000000026
151.0,0.03523624531324845,-0.06754779247807341,-0.0617710718002081,-0.39000000000000035,-9.790000000000003,0.06000000000000005,0.02526943659878103,0.014097211898980888,0.008584807492195628,39.0,-2.25,89.625,0.6686401400000006,0.2620239299999999,-0.6542968700000004,-0.23706055000000026
152.0,0.03807531836876271,-0.06746243166014235,-0.05649914936491419,-0.39000000000000035,-9.790000000000003,0.06000000000000005,-0.03567237335447533,0.0018379498868572744,0.044450844854070665,39.0,-2.25,89.625,0.6686401400000006,0.2620239299999999,-0.6542968700000004,-0.23706055000000023
153.0,0.03931876517516477,-0.06917412417620533,-0.05466944155393687,-0.39000000000000035,-9.790000000000003,0.06000000000000005,-0.018437825182101977,-0.005612643080124871,0.02681451612903226,39.0,-2.25,89.625,0.6686401400000006,0.2620239299999999,-0.6542968700000003,-0.23706055000000023
154.0,0.03967238987166147,-0.0699203044415255,-0.05724503448707231,-0.39000000000000035,-9.790000000000003,0.06000000000000005,-0.004752189914876922,-0.014977727691441633,0.02484620485832722,39.0,-2.25,89.625,0.6686401400000006,0.2620239299999999,-0.6542968700000004,-0.23706055000000023
155.0,0.03965608740894901,-0.06953273286592404,-0.059377893587622174,-0.39000000000000035,-9.790000000000001,0.06000000000000005,0.0022778028920239046,-0.018527170297333723,0.015867322859271137,39.0,-2.25,89.625,0.6686401400000006,0.2620239299999999,-0.6542968700000005,-0.23706055000000026
156.0,0.03960960391787656,-0.06899394022349106,-0.05863304437734675,-0.39000000000000035,-9.79,0.06000000000000005,-0.007573914238707999,-0.0011118376303740785,0.010022311232255193,39.0,-2.25,89.625,0.6686401400000006,0.2620239299999999,-0.6542968700000005,-0.23706055000000026
157.0,0.04073803123399898,-0.06962461492617494,-0.061513712615312285,-0.39000000000000035,-9.790000000000001,0.06000000000000005,0.014391806321506216,0.001203316356509111,0.006447376566526487,39.0,-2.25,89.625,0.6686401400000006,0.2620239299999999,-0.6542968700000003,-0.23706055000000026
158.0,0.04147923067076294,-0.06954080208674338,-0.06241008211410775,-0.39000000000000035,-9.790000000000003,0.06000000000000005,0.00022345692419396736,-0.015325761176584154,-0.008738677308134605,39.0,-2.25,89.625,0.6686401400000006,0.2620239299999999,-0.6542968700000003,-0.23706055000000026
159.0,0.0404119143625192,-0.0693501984126984,-0.06161202316948283,-0.39000000000000035,-9.790000000000001,0.06000000000000005,0.008155521953405017,-0.01801895321300563,0.0008994575652841773,39.0,-2.25,89.625,0.6686401400000006,0.2620239299999999,-0.6542968700000005,-0.23706055000000026
160.0,0.041524321556579626,-0.06919866871479773,-0.060778289810547864,-0.39000000000000035,-9.79,0.06000000000000005,0.00494431643625192,-0.01531938044034818,0.00598758320532514,39.0,-2.25,89.625,0.6686401400000006,0.2620239299999999,-0.6542968700000005,-0.23706055000000026
161.0,0.04118863452422246,-0.07029090894075282,-0.06283913912425877,-0.39000000000000035,-9.790000000000001,0.06000000000000005,0.002728174603174603,-0.005850542176634789,-0.002289127149298846,39.0,-2.25,89.625,0.6686401400000006,0.2620239299999999,-0.6542968700000004,-0.23706055000000026
162.0,0.040645392530928436,-0.06917502436284953,-0.06256473085245196,-0.39000000000000035,-9.790000000000001,0.06000000000000005,-0.01226158474142345,-0.012552287217349651,0.008348043952232298,39.0,-2.25,89.625,0.6686401400000006,0.2620239299999999,-0.6542968700000005,-0.23706055000000026
163.0,0.039239362932130886,-0.0682246089556183,-0.06534688155525825,-0.39000000000000035,-9.79,0.06000000000000005,0.028361815156169992,-0.011316466189319987,-0.008561193077647291,39.0,-2.25,89.60383064516128,0.6686401400000006,0.2620239299999999,-0.6542761985483867,-0.23706055000000026
164.0,0.03971453343823102,-0.06794054686237093,-0.0657066473618669,-0.39000000000000035,-9.790000000000001,0.06000000000000005,0.04142356914121192,-0.010610418887009719,-0.016090663858541944,39.0,-2.25,89.58215725806451,0.6686401400000006,0.2620239299999999,-0.6542550349193541,-0.23706055000000026
165.0,0.04007013804779858,-0.0677164646628341,-0.06581471976766004,-0.39000000000000035,-9.790000000000003,0.06000000000000005,0.013805113035430985,0.008123322113662339,-0.01615365414058102,39.0,-2.25,89.57132056451613,0.6686401400000006,0.2620239299999999,-0.6542444531048379,-0.23706055000000026
166.0,0.039860771417239566,-0.06738580777366471,-0.06726740150713907,-0.39000000000000035,-9.790000000000001,0.06000000000000005,0.0028702984531993637,0.0024845278622421993,-0.0154747198902697,39.0,-2.25,89.56590221774194,0.6686401400000006,0.2620239299999999,-0.6542391621975796,-0.23706055000000026
167.0,0.03928270425700688,-0.06799733937070332,-0.06714428543098888,-0.39000000000000035,-9.79,0.06000000000000005,-0.001683550370174511,0.0075899201811211,-0.009044693614489688,39.0,-2.25,89.56319304435485,0.6686401400000006,0.2620239299999999,-0.6542365167439506,-0.23706055000000026
168.0,0.039166446324695944,-0.06904151242728712,-0.07004329719725012,-0.39000000000000035,-9.790000000000001,0.06000000000000005,-0.009845154680063457,0.0002664760708619776,-0.011516310814383923,39.0,-2.25,89.5625,0.6686401400000006,0.2620239299999999,-0.654235839999999,-0.23706055000000026
169.0,0.03991356553112367,-0.06947452704662149,-0.06850606544582999,-0.39000000000000035,-9.790000000000003,0.06000000000000005,-0.019829777831323246,-0.019472577286723188,-0.009036630697616895,39.0,-2.25,89.5625,0.6686401400000006,0.2620239299999999,-0.654235839999999,-0.23706055000000026
170.0,0.04027143109977654,-0.06937369927159207,-0.0689185536113338,-0.39000000000000035,-9.790000000000001,0.06000000000000005,-0.01373231355870763,-0.02627846209656096,-0.0027583338575339895,39.0,-2.25,89.5625,0.6686401400000006,0.2620239299999999,-0.654235839999999,-0.23706055000000026
171.0,0.04080672881731803,-0.06906623959417271,-0.06881598531243069,-0.39000000000000035,-9.790000000000001,0.06000000000000005,0.02759908125394483,-0.021936931197864246,0.01082379954495829,39.0,-2.25,89.5625,0.6686401400000006,0.2620239299999999,-0.654235839999999,-0.23706055000000026
172.0,0.039341319663601784,-0.06789086888657647,-0.06154996716193854,-0.39000000000000035,-9.790000000000003,0.06000000000000005,-0.025632345916992205,-0.00855602087988946,-0.0028812600220057653,39.0,-2.25,89.5625,0.6686401400000006,0.2620239299999999,-0.654235839999999,-0.23706055000000026
173.0,0.038960718002081174,-0.06757446670135275,-0.06202035639958376,-0.39000000000000035,-9.790000000000001,0.06000000000000005,-0.028697320499479706,0.007430411030176899,-0.009777819328824142,39.0,-2.25,89.5625,0.6686401400000006,0.2620239299999999,-0.654235839999999,-0.23706055000000026
174.0,0.03946995317377733,-0.0688704799687825,-0.06331767039542144,-0.39000000000000035,-9.79,0.06000000000000005,-0.02550240634755463,-0.0017153355879292401,-0.0062871927029136306,39.0,-2.25,89.5625,0.6686401400000006,0.2620239299999999,-0.654235839999999,-0.23706055000000026
175.0,0.03972489594172739,-0.06767100313880689,-0.06574071151976252,-0.39000000000000035,-9.790000000000001,0.06000000000000005,-0.012625195109261186,-0.007757125752716603,-0.010065518862694255,39.0,-2.25,89.5625,0.6686401400000006,0.2620239299999999,-0.654235839999999,-0.23706055000000026
176.0,0.043141477670118236,-0.06919475849098446,-0.06916033716586203,-0.39000000000000035,-9.790000000000003,0.06000000000000005,0.01006538559134099,0.0027436906675935247,-0.00011851155089473084,39.0,-2.25,89.5625,0.6686401400000006,0.2620239299999999,-0.654235839999999,-0.23706055000000026
177.0,0.0428948803543099,-0.06795585999471179,-0.0698273069804336,-0.39000000000000035,-9.790000000000001,0.06000000000000005,-0.019941292636171334,0.020947807872818615,-0.021472497190639872,39.0,-2.25,89.5625,0.6686401400000006,0.2620239299999999,-0.654235839999999,-0.23706055000000026
178.0,0.042841089370703335,-0.0698272243521946,-0.07107796800634583,-0.39000000000000035,-9.79,0.06000000000000005,0.005150321423849816,0.00960759849286092,-0.004924126619513483,39.0,-2.25,89.5625,0.6686401400000006,0.2620239299999999,-0.654235839999999,-0.23706055000000026
179.0,0.04325197028368673,-0.06891213259753329,-0.07187336875863598,-0.39000000000000035,-9.790000000000001,0.06000000000000005,-0.005387227913205164,-0.014257969093840092,-0.0003336448329097079,39.0,-2.25,89.5625,0.6686401400000006,0.2620239299999999,-0.654235839999999,-0.23706055000000026
180.0,0.04299695288377886,-0.06830191505603792,-0.07411093080977804,-0.39000000000000035,-9.790000000000001,0.06000000000000005,0.016963644107913546,0.004191084199774825,0.001560107779208816,39.0,-2.25,89.5625,0.6686401400000006,0.2620239299999999,-0.654235839999999,-0.23706055000000026
181.0,0.04303386126389508,-0.06823920343805229,-0.07185195336372494,-0.39000000000000035,-9.79,0.06000000000000005,0.011520705067059775,0.003945365406611829,0.008807321733107047,39.0,-2.25,89.5625,0.6686401400000006,0.2620239299999999,-0.654235839999999,-0.23706055000000026
182.0,0.04291500043628387,-0.06790335535466865,-0.07253359170037119,-0.39000000000000035,-9.790000000000001,0.06000000000000005,0.02085756465674512,0.02727060914764753,-0.0028513567332613884,39.0,-2.25,89.5625,0.6686401400000006,0.2620239299999999,-0.654235839999999,-0.23706055000000026
183.0,0.043276106445006034,-0.0670650270956315,-0.07224936955457481,-0.39000000000000035,-9.790000000000003,0.06000000000000005,0.017375493311318088,0.007305206824616998,-0.0047718638339760144,39.0,-2.25,89.5625,0.6686401400000006,0.2620239299999999,-0.654235839999999,-0.23706055000000026
184.0,0.042809699820788534,-0.06667945043564755,-0.07108566292505014,-0.39000000000000035,-9.790000000000001,0.06000000000000005,0.010996023417629876,-0.003426301250493146,-0.012179590969231865,39.0,-2.25,89.5625,0.6686401400000006,0.2620239299999999,-0.654235839999999,-0.23706055000000026
185.0,0.04239426523297492,-0.06710705617315874,-0.07211203896872855,-0.39000000000000035,-9.79,0.06000000000000005,-0.005041835918356278,0.0038956621849271242,-0.004151936846278464,39.0,-2.25,89.5625,0.6686401400000006,0.2620239299999999,-0.654235839999999,-0.23706055000000026
186.0,0.04314384817402508,-0.06608429134575053,-0.07230983908365732,-0.39000000000000035,-9.790000000000001,0.06000000000000005,0.006732319409303766,0.016972276527939173,-0.010656646618801818,39.0,-2.25,89.5625,0.6686401400000006,0.2620239299999999,-0.654235839999999,-0.23706055000000026
187.0,0.04321920066025422,-0.06672802615939033,-0.07389685502569962,-0.39000000000000035,-9.790000000000003,0.06000000000000005,0.013496381809358386,0.014022230278776568,0.006553617462677356,39.0,-2.25,89.5625,0.6686401400000006,0.2620239299999999,-0.654235839999999,-0.23706055000000026
188.0,0.04372884940469084,-0.0672125059406153,-0.06933605310777312,-0.39000000000000035,-9.790000000000001,0.06000000000000005,0.025166025383790775,0.010737648719504625,0.005896123908493622,39.0,-2.25,89.5625,0.6686401400000006,0.2620239299999999,-0.654235839999999,-0.23706055000000026
189.0,0.043740694461029336,-0.0684153968845504,-0.06841932728229447,-0.39000000000000035,-9.790000000000001,0.06000000000000005,-0.00048827548345106025,-0.0032361134530418997,-0.008714619941265468,39.0,-2.25,89.5625,0.6686401400000006,0.2620239299999999,-0.654235839999999,-0.23706055000000026
190.0,0.04244023970363295,-0.06701084153574086,-0.07087798456753268,-0.39000000000000035,-9.790000000000003,0.06000000000000005,0.014044530579200857,-0.02223426847176495,0.002569902601741129,39.0,-2.25,89.5625,0.6686401400000006,0.2620239299999999,-0.654235839999999,-0.23706055000000026
191.0,0.04277058811404333,-0.06632539995621586,-0.07177093817346455,-0.39000000000000035,-9.790000000000001,0.06000000000000005,-0.011415559892501547,-0.008564454735362183,0.0035612260147103144,39.0,-2.25,89.5625,0.6686401400000006,0.2620239299999999,-0.654235839999999,-0.23706055000000026
192.0,0.04181628295178634,-0.06691468305584458,-0.07233047173083593,-0.39000000000000035,-9.79,0.06000000000000005,-0.014606841289455427,-0.011536986754249044,0.0044412423040235864,39.0,-2.25,89.5625,0.6686401400000006,0.2620239299999999,-0.654235839999999,-0.23706055000000026
193.0,0.042646548733957686,-0.06780697190426638,-0.07382652618799859,-0.39000000000000035,-9.790000000000001,0.06000000000000005,0.0050170178633368034,-0.008566922476586887,-0.015600069372181755,39.0,-2.25,89.5625,0.6686401400000006,0.2620239299999999,-0.654235839999999,-0.23706055000000026
194.0,0.04324193548387098,-0.066502688172043,-0.07487701612903225,-0.39000000000000035,-9.790000000000003,0.06000000000000005,0.010441868279569892,-0.005082325268817203,-0.009038978494623656,39.0,-2.25,89.5625,0.6686401400000006,0.2620239299999999,-0.654235839999999,-0.23706055000000026
195.0,0.04233947772657451,-0.06914048899129542,-0.07566175435227854,-0.39000000000000035,-9.790000000000001,0.06000000000000005,0.015536794354838708,-0.009071180555555555,0.005502752176139273,39.0,-2.25,89.5625,0.6686401400000006,0.2620239299999999,-0.654235839999999,-0.23706055000000026
196.0,0.042651593701996934,-0.06891500256016383,-0.07633642153097797,-0.39000000000000035,-9.79,0.06000000000000005,0.0037991431451612906,-0.004126064068100357,0.007728694636456732,39.0,-2.25,89.5625,0.6686401400000006,0.2620239299999999,-0.654235839999999,-0.23706055000000026
197.0,0.043031105990783414,-0.06851472094214028,-0.07361187916026624,-0.39000000000000035,-9.79,0.06000000000000005,0.012407994111623143,-0.025908058115719404,0.0022337429595494108,39.0,-2.25,89.5625,0.6686401400000006,0.2620239299999999,-0.654235839999999,-0.23706055000000026
198.0,0.04301568100358424,-0.06854153865847412,-0.07426497695852532,-0.39000000000000035,-9.79,0.06000000000000005,-0.015192572324628777,-0.007749695980542754,0.004231470814132105,39.0,-2.25,89.5625,0.6686401400000006,0.2620239299999999,-0.654235839999999,-0.23706055000000026
199.0,0.04281698028673835,-0.06837829621095749,-0.07518625192012288,-0.39000000000000035,-9.79,0.06000000000000005,0.004265272977470556,0.013295850934459804,-0.0008580549155145925,39.0,-2.25,89.5625,0.6686401400000006,0.2620239299999999,-0.654235839999999,-0.23706055000000026
200.0,0.042301161467882334,-0.06766510734106336,-0.0748216247130139,-0.39000000000000035,-9.79,0.06000000000000005,0.005438654525502535,-0.008216509727590308,-0.003870796118048329,39.0,-2.25,89.5625,0.6686401400000006,0.2620239299999999,-0.654235839999999,-0.23706055000000026
201.0,0.04423331638967888,-0.06817834458803564,-0.07551515529675018,-0.39000000000000035,-9.790000000000001,0.06000000000000005,0.01819688749873752,-0.015229241197084417,0.0031952991580567443,39.0,-2.25,89.5625,0.6686401400000006,0.2620239299999999,-0.654235839999999,-0.23706055000000026
202.0,0.040834016105745746,-0.06731753890948121,-0.06962905742308068,-0.39000000000000035,-9.790000000000001,0.06000000000000005,0.0021219972567932347,-0.016591195099310257,-0.01576346153208274,39.0,-2.25,89.57478878648234,0.6686401400000006,0.2620239299999999,-0.654247839754224,-0.23706055000000026
203.0,0.04004578429455234,-0.06827858512294335,-0.07070290556765912,-0.39000000000000035,-9.79,0.06000000000000005,0.03599123416347086,-0.00996770456450408,0.0036310060491148016,39.0,-2.25,89.60090245775729,0.6686401400000006,0.2620239299999999,-0.6542733392319509,-0.23706055000000026
204.0,0.0410622554407205,-0.06925278111506167,-0.07241757856426662,-0.39000000000000035,-9.790000000000001,0.06000000000000005,0.015016136072370186,-0.012803465640732788,0.012836127699375297,39.0,-2.25,89.61395929339477,0.6686401400000006,0.2620239299999999,-0.6542860889708144,-0.23706055000000026
205.0,0.041602458813313294,-0.06933477151316106,-0.07088211454099957,-0.39000000000000035,-9.790000000000003,0.06000000000000005,-0.001595698105641214,-0.019679557746587372,0.00863090139937121,39.0,-2.25,89.62048771121351,0.6686401400000006,0.2620239299999999,-0.6542924638402461,-0.23706055000000026
206.0,0.04271952660390678,-0.06847886116641658,-0.07227606520281074,-0.39000000000000035,-9.790000000000001,0.06000000000000005,0.008299520064048774,-0.024613708011315898,0.015742936157115535,39.0,-2.25,89.62375192012288,0.6686401400000006,0.2620239299999999,-0.654295651274962,-0.23706055000000026
207.0,0.04115239003006399,-0.06798495029646992,-0.06443552364083188,-0.39000000000000035,-9.79,0.06000000000000005,-0.012539308068334037,-0.010466736238120826,-0.007969545746327024,39.0,-2.25,89.625,0.6686401400000006,0.2620239299999999,-0.6542968700000005,-0.23706055000000026
208.0,0.04100933224401138,-0.06815896278705039,-0.06456456906525992,-0.39000000000000035,-9.790000000000001,0.06000000000000005,0.006937437121306275,-0.021579557717817686,0.012046396564303438,39.0,-2.25,89.625,0.6686401400000006,0.2620239299999999,-0.6542968700000004,-0.23706055000000026
209.0,0.04145395010198687,-0.06907687993670938,-0.06672309519612532,-0.39000000000000035,-9.790000000000001,0.06000000000000005,0.014302702258190424,-0.03411565881200003,0.0010734621442001803,39.0,-2.25,89.625,0.6686401400000006,0.2620239299999999,-0.6542968700000005,-0.23706055000000026
210.0,0.04270873073581629,-0.06930708089907918,-0.06796625410255763,-0.39000000000000035,-9.79,0.06000000000000005,0.012976641980496587,-0.010075743208221065,-0.0035616295836376145,39.0,-2.25,89.625,0.6686401400000006,0.2620239299999999,-0.6542968700000005,-0.23706055000000026
211.0,0.04202868852459017,-0.06895401567995432,-0.0736743072868139,-0.39000000000000035,-9.79,0.06000000000000005,0.0010687241360496248,4.295356870052773e-05,-0.003679186287594537,39.0,-2.25,89.625,0.6686401400000006,0.2620239299999999,-0.6542968700000005,-0.23706055000000026
212.0,0.04274245486137343,-0.0686577554078215,-0.07609265799568549,-0.39000000000000035,-9.790000000000001,0.06000000000000005,0.0016000302707897894,-0.0005641606964485073,0.007274590163934426,39.0,-2.25,89.625,0.6686401400000006,0.2620239299999999,-0.6542968700000004,-0.23706055000000026
213.0,0.04285644603835291,-0.06893908564986868,-0.07629166769899079,-0.39000000000000035,-9.790000000000001,0.06000000000000005,-0.010052004618618172,-0.005492990261054127,-0.0005170395421435999,39.0,-2.25,89.625,0.6686401400000006,0.2620239299999999,-0.6542968700000004,-0.23706055000000026
214.0,0.04260717847232545,-0.0700340589539666,-0.07727409805840477,-0.39000000000000035,-9.790000000000001,0.06000000000000005,0.0037105568304758594,-0.004026577055770279,0.0003895217035825777,39.0,-2.25,89.625,0.6686401400000006,0.2620239299999999,-0.6542968700000005,-0.23706055000000026
215.0,0.04188574649422724,-0.06978265447698329,-0.07663352080339592,-0.39000000000000035,-9.79,0.06000000000000005,-0.011422821383149167,-0.009778535503691592,0.006369156013081611,39.0,-2.25,89.625,0.6686401400000006,0.2620239299999999,-0.6542968700000005,-0.23706055000000026
216.0,0.04196821886923344,-0.0695111429066944,-0.0769585934790149,-0.39000000000000035,-9.79,0.06000000000000005,0.005537309226500174,-0.0065453737426292066,0.010289032691640651,39.0,-2.25,89.625,0.6686401400000006,0.2620239299999999,-0.6542968700000005,-0.23706055000000026
217.0,0.0409303459937565,-0.06945475220091504,-0.076548037138893,-0.39000000000000035,-9.79,0.06000000000000005,0.0007037224575921252,-0.00018368917546206882,0.008459928532200253,39.0,-2.25,89.625,0.6686401400000006,0.2620239299999999,-0.6542968700000005,-0.23706055000000026
218.0,0.04082157258064517,-0.06788554467485916,-0.07696548579109061,-0.39000000000000035,-9.79,0.06000000000000005,0.02134236591141833,0.008655553955453149,0.0038397457437275985,39.0,-2.25,89.625,0.6686401400000006,0.2620239299999999,-0.6542968700000005,-0.23706055000000026
219.0,0.040789216961498447,-0.06701045899195612,-0.07693381924830284,-0.39000000000000035,-9.79,0.06000000000000005,0.00882679072105776,0.012715442820598583,-0.006940831309978032,39.0,-2.25,89.625,0.6686401400000006,0.2620239299999999,-0.6542968700000005,-0.23706055000000026
220.0,0.040966726407771964,-0.06808973339603093,-0.07785806344488119,-0.39000000000000035,-9.790000000000001,0.06000000000000005,0.015928156895431048,-0.0018671451450946808,-0.014235842347215349,39.0,-2.25,89.625,0.6686401400000006,0.2620239299999999,-0.6542968700000004,-0.23706055000000026
221.0,0.03905787197244717,-0.0697128694501916,-0.07602256570861571,-0.39000000000000035,-9.790000000000001,0.06000000000000005,0.04038765355652249,-0.011639007720396801,0.005974416736018539,39.0,-2.25,89.625,0.6686401400000006,0.2620239299999999,-0.6542968700000005,-0.23706055000000026
222.0,0.03921131812021862,-0.07026369771300395,-0.0778345133872158,-0.39000000000000035,-9.79,0.06000000000000005,0.0068583271524390345,0.0005361028986341646,-0.00010246629424603753,39.0,-2.25,89.625,0.6686401400000006,0.2620239299999999,-0.6542968700000005,-0.23706055000000026
223.0,0.03746300193005299,-0.06822360672900582,-0.08035282857020801,-0.39000000000000035,-9.79,0.06000000000000005,-0.001824922685301219,0.009728906944068746,0.010205173262887222,39.0,-2.25,89.625,0.6686401400000006,0.2620239299999999,-0.6542968700000005,-0.23706055000000026
224.0,0.035587874960693586,-0.06841013502039413,-0.08107195513224069,-0.39000000000000035,-9.790000000000001,0.06000000000000005,0.018173862244459812,0.004604307790452687,0.002734887769261117,39.0,-2.25,89.625,0.6686401400000006,0.2620239299999999,-0.6542968700000005,-0.23706055000000026
225.0,0.03556344718798448,-0.06889058705557911,-0.08047520515209566,-0.39000000000000035,-9.79,0.06000000000000005,0.0010594009668573393,0.0015424987199180746,0.00272202238093301,39.0,-2.25,89.625,0.6686401400000006,0.2620239299999999,-0.6542968700000005,-0.23706055000000026
226.0,0.03500266573428923,-0.06797319931375985,-0.07855557492627824,-0.39000000000000035,-9.79,0.06000000000000005,-0.009062913443862676,-0.023086277521761393,0.004977242629278589,39.0,-2.25,89.625,0.6686401400000006,0.2620239299999999,-0.6542968700000005,-0.23706055000000026
227.0,0.035463127345068124,-0.068236865520049,-0.07748287628113117,-0.39000000000000035,-9.79,0.06000000000000005,-0.02203386918402122,-0.017377112135176648,0.0015576078836258634,39.0,-2.25,89.625,0.6686401400000006,0.2620239299999999,-0.6542968700000005,-0.23706055000000026
228.0,0.035550469243780955,-0.06884689022001161,-0.07270415885146525,-0.39000000000000035,-9.790000000000001,0.06000000000000005,-0.0009873894753166888,0.0008929603752704691,0.002019657549992242,39.0,-2.25,89.625,0.6686401400000006,0.2620239299999999,-0.6542968700000005,-0.23706055000000026
229.0,0.037217664511173885,-0.0678906624217498,-0.06698616066266949,-0.39000000000000035,-9.79,0.06000000000000005,-0.02464212548312769,-0.004673847513337628,0.020549702277719965,39.0,-2.25,89.625,0.6686401400000006,0.2620239299999999,-0.6542968700000005,-0.23706055000000026
230.0,0.03764569861503396,-0.06943199866528428,-0.06158497051999912,-0.39000000000000035,-9.79,0.06000000000000005,0.0013184563415036248,-0.01223048002119282,0.00031729077807381503,39.0,-2.25,89.625,0.6686401400000006,0.2620239299999999,-0.6542968700000005,-0.23706055000000026
231.0,0.04398909865715277,-0.06876240281859428,-0.047039396030030795,-0.39141519250780443,-9.790000000000001,0.054255983350676405,-0.14007196410942507,0.009729257908238136,0.05830526999881838,38.99115504682622,-2.267689906347554,89.63696670135275,0.668480595608741,0.26215755780437044,-0.6544508259625391,-0.23692437884495332
232.0,0.04172556695241399,-0.0687382699391024,-0.03710359706197376,-0.39586888657648267,-9.790000000000003,0.036482830385015624,-0.12046449980242904,0.02637258610853824,0.05832095338468907,38.96331945889698,-2.323361082206035,89.7600156087409,0.667898824578564,0.26262627422476603,-0.6550353912070757,-0.23645692893860581
233.0,0.041014948053449615,-0.06790488641893427,-0.03620966153744511,-0.39809573361082173,-9.790000000000001,0.027596253902185237,-0.05132458303634162,0.027726320390212167,0.004534126412378232,38.94940166493237,-2.351196670135276,89.82154006243496,0.6676079390634754,0.2628606324349639,-0.6553276738293439,-0.23622320398543206
234.0,0.03980214888591579,-0.06892044116133607,-0.040574108802516703,-0.3992091571279913,-9.79,0.02315296566077004,-0.014845599249865634,0.013015105919632453,-0.004389362805075604,38.942442767950055,-2.3651144640998956,89.852302289282,0.6674624963059311,0.2629778115400628,-0.6554738151404781,-0.23610634150884519
235.0,0.04049784863650628,-0.0688808161141668,-0.040336682192821625,-0.39976586888657606,-9.79,0.020931321540062442,0.002239111045042366,0.0194185331086996,-0.008436927060106039,38.93896331945889,-2.3720733610822062,89.8676834027055,0.667389774927159,0.2630364010926123,-0.6555468857960451,-0.23604791027055172
236.0,0.04000831020927275,-0.06979932651173545,-0.040758747914705254,-0.3999999999999996,-9.79,0.02000000000000001,0.020886756107229572,0.013846047437358573,-0.005015417760930247,38.9375,-2.375,89.875,0.6673583999999998,0.2630615200000004,-0.6555786099999994,-0.23602295000000023
237.0,0.04065972222222222,-0.06854950716845876,-0.043061475934459796,-0.3999999999999996,-9.79,0.02000000000000001,0.014052899385560674,0.018857206861239116,-0.005938380056323604,38.9375,-2.375,89.875,0.6673583999999998,0.2630615200000004,-0.6555786099999994,-0.23602295000000023
238.0,0.040891817076292886,-0.0692401913722478,-0.04296058947772657,-0.3999999999999996,-9.79,0.02000000000000001,0.00472230222734255,0.029629896313364053,-0.006737431195596518,38.9375,-2.375,89.875,0.6673583999999998,0.2630615200000004,-0.6555786099999994,-0.23602295000000023
239.0,0.041779393881208396,-0.06970454109062979,-0.044177547363031235,-0.3999999999999996,-9.79,0.02000000000000001,0.006654425883256528,0.011774253552227342,0.0024526569700460826,38.9375,-2.375,89.875,0.6673583999999998,0.2630615200000004,-0.6555786099999994,-0.23602295000000023
240.0,0.04095807731694828,-0.07012797619047617,-0.046035682283666154,-0.3999999999999996,-9.79,0.02000000000000001,0.005700364823348694,-0.0020335301459293393,0.005194532450076804,38.9375,-2.375,89.875,0.6673583999999999,0.2630615200000004,-0.6555786099999994,-0.2360229500000002
241.0,0.0400719726062468,-0.06948027073732717,-0.045624087941628255,-0.3999999999999996,-9.79,0.02000000000000001,-0.007358470942140296,-0.005257036450332821,0.009221690188172042,38.9375,-2.375,89.875,0.6673583999999998,0.2630615200000004,-0.6555786099999994,-0.23602295000000023
242.0,0.040651060744810744,-0.07113285404112016,-0.04686295122887864,-0.3999999999999996,-9.79,0.02000000000000001,-0.013667797815983299,-0.014436685486332665,0.009652379290736146,38.9375,-2.375,89.875,0.6673583999999998,0.2630615200000004,-0.6555786099999994,-0.23602295000000023
243.0,0.04186446886446886,-0.07024124620898811,-0.046092165898617504,-0.3999999999999996,-9.79,0.02000000000000001,-0.0057468293355390125,-0.0006956752924494871,0.01418453857969987,38.9375,-2.375,89.875,0.6673583999999998,0.2630615200000004,-0.6555786099999994,-0.23602295000000023
244.0,0.04212015045886014,-0.07060961439993696,-0.04820225294418841,-0.3999999999999996,-9.79,0.02000000000000001,0.028728607861672376,-0.01407671629445823,0.007940323565323565,38.9375,-2.375,89.875,0.6673583999999998,0.2630615200000004,-0.6555786099999994,-0.23602295000000023
245.0,0.04089089382117478,-0.06879830355792893,-0.04772356837289198,-0.3999999999999996,-9.79,0.02000000000000001,0.017922338096635702,-0.016688678993569732,0.014778672882210863,38.9375,-2.375,89.875,0.6673583999999999,0.2630615200000004,-0.6555786099999994,-0.23602295000000023
246.0,0.041728719193859676,-0.06814660146189802,-0.049576384997820994,-0.3999999999999996,-9.79,0.02000000000000001,0.01224285599935964,0.01163478532104963,-0.009195848087627485,38.9375,-2.375,89.875,0.6673583999999998,0.2630615200000004,-0.6555786099999994,-0.23602295000000023
247.0,0.042564938587831405,-0.06731068700059334,-0.049246973860917656,-0.3999999999999996,-9.79,0.02000000000000001,-0.012001578026552013,-0.0020184319091707224,0.0019034151188157423,38.9375,-2.375,89.875,0.6673583999999998,0.2630615200000004,-0.6555786099999994,-0.23602295000000023
248.0,0.04056785323590735,-0.06816610444706178,-0.04986678508218569,-0.3999999999999996,-9.790000000000001,0.02000000000000001,-0.0044719169719169725,-0.006436143923136639,0.01627243002112929,38.9375,-2.375,89.875,0.6673583999999999,0.2630615200000004,-0.6555786099999994,-0.23602295000000023
249.0,0.04137455641826089,-0.06971285253075055,-0.050495348506274615,-0.3999999999999996,-9.790000000000001,0.02000000000000001,0.0038284296348812473,0.0012462137527173948,0.0025598581237238887,38.9375,-2.375,89.875,0.6673583999999998,0.2630615200000004,-0.6555786099999994,-0.23602295000000023
250.0,0.04286990047760079,-0.06966131700418902,-0.050775769986748126,-0.3999999999999996,-9.79,0.02000000000000001,0.0012963688236841203,0.009500578260333722,0.0009384878547859816,38.9375,-2.375,89.875,0.6673583999999998,0.2630615200000004,-0.6555786099999994,-0.23602295000000023
251.0,0.04372615331252168,-0.06995360735345128,-0.050284787258642605,-0.3999999999999996,-9.790000000000001,0.02000000000000001,0.021366786829195777,0.01921839126736369,0.018670936875443897,38.9375,-2.375,89.875,0.6673583999999999,0.2630615200000004,-0.6555786099999994,-0.23602295000000023
252.0,0.04344372181755117,-0.07054669614984392,-0.052138809399930604,-0.3999999999999996,-9.790000000000003,0.02000000000000001,0.0247002904960111,-0.011640164325355532,0.01235326157648283,38.9375,-2.375,89.875,0.6673583999999999,0.2630615200000004,-0.6555786099999994,-0.2360229500000002
253.0,0.04411850461655352,-0.07028895681581687,-0.05278463189386054,-0.3999999999999996,-9.790000000000001,0.02000000000000001,0.019981859484168276,-0.015898146513634935,0.010809185336248616,38.9375,-2.375,89.875,0.6673583999999998,0.2630615200000004,-0.6555786099999994,-0.23602295000000023
254.0,0.04480312637775566,-0.07083895731609702,-0.05375680881293523,-0.3999999999999996,-9.79,0.02000000000000001,0.010266693544813667,0.001354199075688737,0.007066687503732248,38.9375,-2.375,89.875,0.6673583999999998,0.2630615200000004,-0.6555786099999994,-0.23602295000000023
255.0,0.0445455004008594,-0.07059088962835061,-0.052354834898019065,-0.3999999999999996,-9.79,0.02000000000000001,0.017949917032903502,-0.014951650702170992,-5.088563881487911e-05,38.9375,-2.375,89.875,0.6673583999999998,0.2630615200000004,-0.6555786099999994,-0.23602295000000023
256.0,0.04437732876442553,-0.07085735948639177,-0.05335743826066405,-0.3999999999999996,-9.79,0.02000000000000001,0.011348787860884633,-0.005931210366694237,-0.00713067174760723,38.9375,-2.375,89.875,0.6673583999999998,0.2630615200000004,-0.6555786099999994,-0.23602295000000023
257.0,0.04316984717791168,-0.07120659537595023,-0.053443193902871305,-0.3999999999999996,-9.79,0.02000000000000001,0.01915014868643901,0.011105941549489937,-0.007140087734845799,38.9375,-2.375,89.875,0.6673583999999998,0.2630615200000004,-0.6555786099999994,-0.23602295000000023
258.0,0.04249378175587853,-0.07142255012013077,-0.053388263618102325,-0.3999999999999996,-9.79,0.02000000000000001,0.025208074855252276,0.01560161388790421,0.001902306362991846,38.9375,-2.375,89.875,0.6673583999999998,0.2630615200000004,-0.6555786099999994,-0.23602295000000023
259.0,0.04327532516179397,-0.0706889425538619,-0.05331191645697859,-0.3999999999999996,-9.79,0.02000000000000001,0.00042565195799265133,-0.008887300691405663,0.0030199100459957808,38.9375,-2.375,89.875,0.6673583999999999,0.2630615200000004,-0.6555786099999994,-0.2360229500000002
260.0,0.043944370210185255,-0.07156822959746345,-0.054262205028284466,-0.3999999999999996,-9.79,0.02000000000000001,0.0074932919288171135,-0.00037939023305562326,0.0072543226625268195,38.9375,-2.375,89.875,0.6673583999999998,0.2630615200000004,-0.6555786099999994,-0.23602295000000023
261.0,0.04351704397606036,-0.07173421560518334,-0.05383725170769062,-0.3999999999999996,-9.79,0.02000000000000001,-0.003908343954946282,0.00025133310927864,0.0038319244361021193,38.9375,-2.375,89.875,0.6673583999999998,0.2630615200000004,-0.6555786099999994,-0.23602295000000023
262.0,0.04350045747190116,-0.07092293906810035,-0.05484542486128948,-0.3999999999999996,-9.79,0.02000000000000001,-0.002388415153651801,-0.0063414550334500094,0.005552748818547337,38.9375,-2.375,89.875,0.6673583999999998,0.2630615200000004,-0.6555786099999994,-0.23602295000000023
263.0,0.04395606590952969,-0.07026382488479263,-0.05667002425860172,-0.3999999999999996,-9.790000000000001,0.02000000000000001,-0.0022278737314597973,0.007815575606674893,0.012277782499391435,38.9375,-2.375,89.875,0.6673583999999999,0.2630615200000004,-0.6555786099999994,-0.2360229500000002
264.0,0.04305888376856119,-0.07004998719918074,-0.05746031746031745,-0.3999999999999996,-9.79,0.02000000000000001,-0.017630928379416284,0.014660738287250383,0.0014644937275985655,38.9375,-2.375,89.875,0.6673583999999998,0.2630615200000004,-0.6555786099999994,-0.23602295000000023
265.0,0.043281499862145016,-0.07157468047185787,-0.05769786127850643,-0.3999999999999996,-9.79,0.02000000000000001,-0.004092700394363701,0.010196029468962937,-0.015324657701169798,38.9375,-2.375,89.875,0.6673583999999998,0.2630615200000004,-0.6555786099999994,-0.23602295000000023
266.0,0.044375804974595284,-0.0711667245165229,-0.05510429098231516,-0.3999999999999996,-9.79,0.02000000000000001,0.01611106187719091,-0.014374981537279922,-0.003566066689806609,38.9375,-2.375,89.875,0.6673583999999998,0.2630615200000004,-0.6555786099999994,-0.23602295000000023
267.0,0.04462985748209473,-0.07033110224265271,-0.05595525748387349,-0.3999999999999996,-9.790000000000001,0.02000000000000001,-0.016918454493246374,0.013813175854669093,-0.0018932904013549178,38.9375,-2.375,89.875,0.6673583999999999,0.2630615200000004,-0.6555786099999994,-0.23602295000000023
268.0,0.044261165300187144,-0.07025157262670267,-0.0574399943333346,-0.3999999999999996,-9.79,0.02000000000000001,-0.02154726488103179,-0.008063170137181582,0.01740012899287093,38.9375,-2.375,89.875,0.6673583999999998,0.2630615200000004,-0.6555786099999994,-0.23602295000000023
269.0,0.04515925648521901,-0.06996705615462118,-0.05899265461674409,-0.3999999999999996,-9.79,0.02000000000000001,-0.018310114775385328,-0.007879831356353208,0.02295697693883178,38.9375,-2.375,89.875,0.6673583999999998,0.2630615200000004,-0.6555786099999994,-0.23602295000000023
270.0,0.04385450217200998,-0.0701003935219596,-0.05869860058140493,-0.3999999999999996,-9.790000000000001,0.02000000000000001,-0.018155097410105212,-0.004553259150521117,0.009373309569231787,38.9375,-2.375,89.875,0.6673583999999999,0.2630615200000004,-0.6555786099999994,-0.23602295000000023
271.0,0.04429393370123335,-0.0702912298920182,-0.059892684575493405,-0.3999999999999996,-9.790000000000003,0.02000000000000001,-0.01016640527711912,-0.003255052850087852,0.005087467321864179,38.9375,-2.375,89.875,0.6673583999999999,0.2630615200000004,-0.6555786099999994,-0.2360229500000002
272.0,0.044246342500980876,-0.069266322542263,-0.06056288755309529,-0.3999999999999996,-9.790000000000001,0.02000000000000001,0.0027536860190887228,0.009818883564550247,-0.0030006211777775884,38.9375,-2.375,89.875,0.6673583999999998,0.2630615200000004,-0.6555786099999994,-0.23602295000000023
273.0,0.04439887689565174,-0.06963064110984118,-0.061831342970096015,-0.3999999999999996,-9.79,0.02000000000000001,-0.01887895336142338,0.00788638230646867,-0.0010750333711468589,38.9375,-2.375,89.875,0.6673583999999998,0.2630615200000004,-0.6555786099999994,-0.23602295000000023
274.0,0.04513490631776954,-0.0701480618503635,-0.06139966246047042,-0.3999999999999996,-9.79,0.02000000000000001,-0.01225965717226315,0.014806136381728958,-0.005586839842255457,38.9375,-2.375,89.875,0.6673583999999998,0.2630615200000004,-0.6555786099999994,-0.23602295000000023
275.0,0.04473781141665198,-0.06990497752511898,-0.06220050017627356,-0.3999999999999996,-9.79,0.02000000000000001,-0.009437653190132038,0.011515589456741623,-0.0006639933152443071,38.9375,-2.375,89.875,0.6673583999999998,0.2630615200000004,-0.6555786099999994,-0.23602295000000023
276.0,0.04382448476702509,-0.07050907258064516,-0.06366767473118277,-0.3999999999999996,-9.79,0.02000000000000001,-0.0036942364311315923,0.007319468445980543,-0.006396909402201741,38.9375,-2.375,89.875,0.6673583999999998,0.2630615200000004,-0.6555786099999994,-0.23602295000000023
277.0,0.04348270289298515,-0.07142921146953404,-0.06370047683051716,-0.3999999999999996,-9.79,0.02000000000000001,0.010221154153865847,0.005329841109831029,0.00977562564004096,38.9375,-2.375,89.875,0.6673583999999998,0.2630615200000004,-0.6555786099999994,-0.23602295000000023
278.0,0.044420954941116225,-0.06976836917562723,-0.06335074244751664,-0.3999999999999996,-9.79,0.02000000000000001,0.006831637224782385,-0.0022525441628264203,0.004856310803891449,38.9375,-2.375,89.875,0.6673583999999999,0.2630615200000004,-0.6555786099999994,-0.2360229500000002
279.0,0.04514698540706605,-0.0707751216077829,-0.06501894521249359,-0.3999999999999996,-9.79,0.02000000000000001,-7.240463389656922e-05,-0.009142785138248847,0.025613639272913467,38.9375,-2.375,89.875,0.6673583999999998,0.2630615200000004,-0.6555786099999994,-0.23602295000000023
280.0,0.044489479942100896,-0.07086910793059985,-0.06556016385048644,-0.3999999999999996,-9.79,0.02000000000000001,0.00503858400783804,0.015151715863661428,0.011750259708929064,38.9375,-2.375,89.875,0.6673583999999998,0.2630615200000004,-0.6555786099999994,-0.23602295000000023
281.0,0.043425735554767815,-0.06976151089054311,-0.06581259600614439,-0.3999999999999996,-9.79,0.02000000000000001,0.002999822757887274,0.010600801528220884,0.0014558470203631492,38.9375,-2.375,89.875,0.6673583999999998,0.2630615200000004,-0.6555786099999994,-0.23602295000000023
282.0,0.043353890835646516,-0.0701833584184192,-0.06707798007269186,-0.3999999999999996,-9.790000000000001,0.02000000000000001,0.018566970883866708,-0.013801149603965574,0.005087284476496534,38.9375,-2.375,89.875,0.6673583999999999,0.2630615200000004,-0.6555786099999994,-0.2360229500000002
283.0,0.04601488704608746,-0.07036702483132942,-0.06791456607321229,-0.3999999999999996,-9.79,0.02000000000000001,0.05533283260015148,-0.020062217147092873,-0.014865471945059463,38.9375,-2.375,89.875,0.6673583999999998,0.2630615200000004,-0.6555786099999994,-0.23602295000000023
284.0,0.0478320722992854,-0.06967147964556743,-0.06320715502841362,-0.3999999999999996,-9.79,0.02000000000000001,0.03785906862982484,0.00280971323904957,-0.002104394958704847,38.9375,-2.375,89.875,0.6673583999999998,0.2630615200000004,-0.6555786099999994,-0.23602295000000023
285.0,0.04568542700852367,-0.06982085148531474,-0.059592131104217204,-0.3999999999999996,-9.790000000000001,0.02000000000000001,0.007848328839846387,-0.007540152585630101,-0.02651545690463058,38.9375,-2.375,89.875,0.6673583999999999,0.2630615200000004,-0.6555786099999994,-0.23602295000000023
286.0,0.04501629261332481,-0.07099593521526362,-0.0573229472725387,-0.3999999999999996,-9.790000000000001,0.02000000000000001,0.003396130625760366,-0.006938279057792009,-0.010553555385238996,38.9375,-2.375,89.875,0.6673583999999998,0.2630615200000004,-0.6555786099999994,-0.23602295000000023
287.0,0.04428156696321367,-0.0715196492575525,-0.05813224612132,-0.3999999999999996,-9.79,0.02000000000000001,0.007604331838527989,0.000599729201527459,-0.009395731847930078,38.9375,-2.375,89.875,0.6673583999999998,0.2630615200000004,-0.6555786099999994,-0.23602295000000023
288.0,0.0433344805233788,-0.07175110355449846,-0.05901112083083986,-0.3999999999999996,-9.790000000000001,0.02000000000000001,-0.002840839878268338,0.007479678947591604,-0.0010320829267564434,38.9375,-2.375,89.875,0.6673583999999999,0.2630615200000004,-0.6555786099999994,-0.23602295000000023
289.0,0.04481335177676079,-0.07038300484440946,-0.06172561594159655,-0.3999999999999996,-9.790000000000003,0.02000000000000001,0.006196870846164614,-0.0029997844850883863,0.0056407951971188695,38.9375,-2.375,89.875,0.6673583999999999,0.2630615200000004,-0.6555786099999994,-0.2360229500000002
290.0,0.044513855909192046,-0.07019150242220472,-0.0625043272215787,-0.39999999999999963,-9.790000000000003,0.02000000000000001,0.019048617525059413,0.0003211275285276069,-0.0021061112463937395,38.9375,-2.375,89.875,0.6673583999999999,0.2630615200000004,-0.6555786099999994,-0.23602295000000023
291.0,0.04560219559018623,-0.06863318868402371,-0.06291449769247827,-0.3999999999999996,-9.790000000000001,0.02000000000000001,-0.0008815264416925945,-0.004209931332037745,-0.020984177368834744,38.9375,-2.375,89.875,0.6673583999999998,0.2630615200000004,-0.6555786099999994,-0.23602295000000023
292.0,0.045201783131262316,-0.06912048579106458,-0.0658936189277705,-0.3999999999999996,-9.79,0.02000000000000001,0.016254705289138343,0.004442899551201183,-0.03136136277949792,38.9375,-2.375,89.875,0.6673583999999998,0.2630615200000004,-0.6555786099999994,-0.23602295000000023
293.0,0.04387007214802714,-0.07108560503483824,-0.06654891870855434,-0.3999999999999996,-9.79,0.02000000000000001,-0.009631203257847292,0.016859031742136772,-0.006561646158590938,38.9375,-2.375,89.875,0.6673583999999998,0.2630615200000004,-0.6555786099999994,-0.23602295000000023
294.0,0.043525464418804685,-0.06934898971995745,-0.06618958362714866,-0.3999999999999996,-9.79,0.02000000000000001,-2.316376535939444e-05,0.008627823644733114,-0.0004549373045731001,38.9375,-2.375,89.875,0.6673583999999998,0.2630615200000004,-0.6555786099999994,-0.23602295000000023
295.0,0.04513595454724487,-0.07082144826499664,-0.0687801311591634,-0.3999999999999996,-9.79,0.02000000000000001,-0.028149124620898813,-0.01314397967623774,0.012240167986135727,38.9375,-2.375,89.875,0.6673583999999998,0.2630615200000004,-0.6555786099999994,-0.23602295000000023
296.0,0.04457656044085182,-0.0700323325610872,-0.06780950177532673,-0.3999999999999996,-9.79,0.02000000000000001,-0.02115237014513191,-0.025469957946161012,0.010442176496017055,38.9375,-2.375,89.875,0.6673583999999999,0.2630615200000004,-0.6555786099999994,-0.2360229500000002
297.0,0.0438764076670341,-0.07035427308066913,-0.06809532618125634,-0.3999999999999996,-9.790000000000001,0.02000000000000001,0.003463939301845619,-0.011382118196442415,0.00379596478204219,38.9375,-2.375,89.875,0.6673583999999999,0.2630615200000004,-0.6555786099999994,-0.23602295000000023
298.0,0.04435877967344773,-0.07116075149169146,-0.06774643027326632,-0.3999999999999996,-9.790000000000001,0.02000000000000001,0.01172128589023905,-0.011117867952449416,-0.00980442810171198,38.9375,-2.375,89.875,0.6673583999999998,0.2630615200000004,-0.6555786099999994,-0.23602295000000023
299.0,0.04422324064317548,-0.07086011364907153,-0.0683767433624396,-0.3999999999999996,-9.79,0.02000000000000001,0.0006628102838292021,0.007041872475388194,-0.002476558808920506,38.9375,-2.375,89.875,0.6673583999999998,0.2630615200000004,-0.6555786099999994,-0.23602295000000023
300.0,0.04375227242009624,-0.07056070776684123,-0.0698364234791155,-0.3999999999999996,-9.790000000000001,0.02000000000000001,0.006918665436250858,0.0030243883295957208,-6.142989254310301e-05,38.9375,-2.375,89.875,0.6673583999999999,0.2630615200000004,-0.6555786099999994,-0.23602295000000023
301.0,0.04355821259905547,-0.07079305411030176,-0.06922187424957973,-0.3999999999999996,-9.790000000000003,0.02000000000000001,0.014616810413831744,0.005749157027935644,0.005056519150724406,38.9375,-2.375,89.875,0.6673583999999999,0.2630615200000004,-0.6555786099999994,-0.23602295000000023
302.0,0.043581915872888816,-0.07127321800208117,-0.06891114524133513,-0.3999999999999996,-9.790000000000001,0.02000000000000001,0.00332492445769631,-0.007758876220683582,0.00964974760866085,38.9375,-2.375,89.875,0.6673583999999998,0.2630615200000004,-0.6555786099999994,-0.23602295000000023
303.0,0.042923712278876175,-0.07229789932362123,-0.06627194979188344,-0.3999999999999996,-9.79,0.02000000000000001,-0.01173704149323621,0.012908713254422475,0.006693670330385015,38.9375,-2.375,89.875,0.6673583999999998,0.2630615200000004,-0.6555786099999994,-0.23602295000000023
304.0,0.04397697710718002,-0.07072515608740895,-0.06507349115504679,-0.3999999999999996,-9.790000000000001,0.02000000000000001,-0.02184004292403746,0.01594611732570239,0.01575507284079084,38.9375,-2.375,89.875,0.6673583999999999,0.2630615200000004,-0.6555786099999994,-0.23602295000000023
305.0,0.044030632154006245,-0.07027672996878251,-0.06356432101977105,-0.3999999999999996,-9.790000000000001,0.02000000000000001,-0.032772258714880334,0.024134609131113424,0.020933597814776272,38.9375,-2.375,89.875,0.6673583999999998,0.2630615200000004,-0.6555786099999994,-0.23602295000000023
306.0,0.04482806899641576,-0.07028660672992748,-0.06344663864938968,-0.3999999999999996,-9.79,0.02000000000000001,-0.005974882392473119,0.008881294209281007,-0.0035206769362271448,38.9375,-2.375,89.875,0.6673583999999998,0.2630615200000004,-0.6555786099999994,-0.23602295000000023
307.0,0.045882952508960566,-0.07011558159077022,-0.063563205077383,-0.3999999999999996,-9.790000000000001,0.02000000000000001,0.017552923387096773,-6.729140342401178e-05,-0.0035937558068232494,38.9375,-2.375,89.875,0.6673583999999999,0.2630615200000004,-0.6555786099999994,-0.2360229500000002
308.0,0.043067524321556576,-0.07025064313793501,-0.0632776982888195,-0.3999999999999996,-9.790000000000001,0.02000000000000001,-0.0005426347286226312,0.013271455824785689,-0.0033802292378970313,38.9375,-2.375,89.875,0.6673583999999998,0.2630615200000004,-0.6555786099999994,-0.23602295000000023
309.0,0.04185634280593957,-0.06933187724014336,-0.059477038530465924,-0.3999999999999996,-9.79,0.02000000000000001,0.057692392313108035,0.0017905145929339485,0.02412934427803379,38.9375,-2.375,89.875,0.6673583999999998,0.2630615200000004,-0.6555786099999994,-0.23602295000000023
310.0,0.04020724526369687,-0.07016001024065538,-0.05109856630824371,-0.3999999999999996,-9.79,0.015412186379928323,-0.050353622631848435,-0.008313332053251406,-0.010362263184843831,38.9375,-2.375,89.875,0.6673033965386588,0.2630615200000004,-0.6556331133896567,-0.23599494598566328
311.0,0.03952246543778802,-0.07048451100870456,-0.05123284690220172,-0.3999999999999996,-9.79,0.01254480286738352,0.006233198924731183,0.0056679627496159755,0.029557091653865844,38.9375,-2.375,89.875,0.6672678943983621,0.2630615200000004,-0.6556688655657963,-0.23597744347670271
312.0,0.04063412058371736,-0.07032418074756785,-0.052851062467997936,-0.3999999999999996,-9.79,0.011111111111111117,-8.200524833589396e-05,-0.011863759280593958,0.010732686891961083,38.9375,-2.375,89.875,0.6672501433282136,0.2630615200000004,-0.655686741653866,-0.23596869222222244
313.0,0.04113119239631337,-0.06974478366615464,-0.05482030849974397,-0.3999999999999996,-9.79,0.010394265232974917,0.012551803315412184,0.002340649801587301,0.007462477598566307,38.9375,-2.375,89.875,0.6672412677931396,0.2630615200000004,-0.6556956796979008,-0.2359643165949823
314.0,0.04038095238095239,-0.07049974398361494,-0.05394879672299026,-0.3999999999999996,-9.79,0.010035842293906815,-0.0008960573476702515,0.0056131592421915,0.00022401433691756267,38.9375,-2.375,89.875,0.6672368300256024,0.2630615200000004,-0.6557001487199182,-0.23596212878136225
315.0,0.04158730158730159,-0.07186891961085508,-0.05449052739375319,-0.3999999999999996,-9.790000000000001,0.010000000000000005,0.013876088069636456,-0.0006848438300051203,-0.010490271377368151,38.9375,-2.375,89.875,0.6672363300000008,0.2630615200000004,-0.6557006800000001,-0.23596191000000022
316.0,0.042018689196108544,-0.07116359447004608,-0.05560419866871477,-0.3999999999999996,-9.790000000000001,0.010000000000000005,0.02913146441372248,-0.0001424091141833078,-0.003797043010752688,38.9375,-2.375,89.875,0.6672363300000008,0.2630615200000004,-0.6557006800000001,-0.23596191000000022
317.0,0.042430235535074246,-0.07033730158730159,-0.05699948796722988,-0.3999999999999996,-9.79,0.010000000000000005,0.0353110599078341,-0.019264432923707116,0.012846422171018945,38.9375,-2.375,89.875,0.6672363300000008,0.2630615200000004,-0.6557006800000003,-0.23596191000000022
318.0,0.041619623655913984,-0.06923521505376343,-0.05983870967741934,-0.3999999999999996,-9.790000000000001,0.010000000000000005,0.024798387096774194,-0.0018397177419354847,0.015498991935483871,38.9375,-2.375,89.875,0.6672363300000008,0.2630615200000004,-0.6557006800000001,-0.23596191000000022
319.0,0.04179829109062981,-0.06976264080901179,-0.05855491551459292,-0.3999999999999996,-9.790000000000001,0.010000000000000005,0.030488351254480288,0.016354846710189448,0.010393665194572452,38.9375,-2.375,89.875,0.6672363300000008,0.2630615200000004,-0.6557006800000003,-0.23596191000000022
320.0,0.04160535435558199,-0.07032972484432551,-0.058031533372974564,-0.3999999999999996,-9.790000000000001,0.010000000000000005,0.01955717423979651,-0.0291659472657863,0.011793151535891845,38.9375,-2.375,89.875,0.6672363300000008,0.2630615200000004,-0.6557006800000001,-0.23596191000000022
321.0,0.03984916195926863,-0.07148924782799002,-0.05898796361676825,-0.3999999999999996,-9.790000000000003,0.010000000000000005,-0.008635865598624117,-0.01615959873044778,0.006338112090786714,38.9375,-2.375,89.875,0.6672363300000008,0.2630615200000004,-0.6557006800000001,-0.23596191000000022
322.0,0.04114838782786275,-0.0708367957146296,-0.05605263959526936,-0.39999999999999963,-9.790000000000003,0.010000000000000005,-0.02823183623995193,-0.013282538078206438,6.817316265935423e-05,38.9375,-2.375,89.875,0.6672363300000008,0.2630615200000004,-0.65570068,-0.23596191000000022
323.0,0.042035407431596505,-0.07184069688445252,-0.057576371000911675,-0.3999999999999996,-9.790000000000001,0.010000000000000005,-0.018959428104614984,-0.008429383478427335,-0.0022996627786293603,38.9375,-2.375,89.875,0.6672363300000008,0.2630615200000004,-0.6557006800000001,-0.23596191000000022
324.0,0.042116014007656924,-0.07018942166291238,-0.058189107159442005,-0.3999999999999996,-9.79,0.010000000000000005,-0.011551846668794948,-0.012823242686474293,-0.00274193328383593,38.9375,-2.375,89.875,0.6672363300000008,0.2630615200000004,-0.6557006800000003,-0.23596191000000022
325.0,0.04238837496070398,-0.07109443789172469,-0.05905156557201045,-0.3999999999999996,-9.790000000000001,0.010000000000000005,-0.009095179658922814,-0.013702097452481275,-0.0026237173626494433,38.9375,-2.375,89.875,0.6672363300000008,0.2630615200000004,-0.6557006800000001,-0.23596191000000022
326.0,0.043168863790889175,-0.06974409378593671,-0.059359161609293803,-0.3999999999999996,-9.790000000000003,0.010000000000000005,-0.024618788717232002,-0.006802271410944071,-0.003972221435286612,38.9375,-2.375,89.875,0.6672363300000008,0.2630615200000004,-0.6557006800000001,-0.23596191000000022
327.0,0.0428350929213568,-0.06978875762802918,-0.060191214860701885,-0.3999999999999996,-9.790000000000001,0.010000000000000005,-0.008558072306791568,-0.006747579386064314,0.015233614295577212,38.9375,-2.375,89.875,0.6672363300000008,0.2630615200000004,-0.6557006800000001,-0.23596191000000022
328.0,0.04258114093072448,-0.06888311409307245,-0.0598664727657324,-0.3999999999999996,-9.79,0.010000000000000005,0.01501819886964569,-0.01693465758857747,0.019273553179534636,38.9375,-2.375,89.875,0.6672363300000008,0.2630615200000004,-0.6557006800000003,-0.23596191000000022
329.0,0.042402241612315636,-0.06889076179564016,-0.06241115496965574,-0.3999999999999996,-9.79,0.010000000000000005,-0.013436991114972343,-0.0036070177343809013,0.009171996843863581,38.9375,-2.375,89.875,0.6672363300000008,0.2630615200000004,-0.6557006800000003,-0.23596191000000022
330.0,0.0416503666070694,-0.06957750214046485,-0.06284672645278803,-0.3999999999999996,-9.79,0.010000000000000005,-0.009691538291237525,-0.019972278225806453,-0.009717867845181435,38.9375,-2.375,89.875,0.6672363300000008,0.2630615200000004,-0.6557006800000003,-0.23596191000000022
331.0,0.042976350486431135,-0.07079565092165899,-0.06380448348694315,-0.3999999999999996,-9.79,0.010000000000000005,-0.008809563812083972,0.002302647369431641,-0.0017041090629800301,38.9375,-2.375,89.875,0.6672363300000008,0.2630615200000004,-0.6557006800000003,-0.23596191000000022
332.0,0.04373235821518806,-0.07014651167182898,-0.06332803332200143,-0.3999999999999996,-9.79,0.010000000000000005,0.018240003425793024,-0.0019113436374682087,-0.00032994734613834924,38.9375,-2.375,89.875,0.6672363300000008,0.2630615200000004,-0.6557006800000001,-0.23596191000000022
333.0,0.042589878539111746,-0.06849588275288962,-0.06268691294603508,-0.3999999999999996,-9.790000000000001,0.010000000000000005,0.017511415812579218,-0.019567940872806024,0.0063474226284908454,38.9375,-2.375,89.875,0.6672363300000008,0.2630615200000004,-0.6557006800000001,-0.23596191000000022
334.0,0.04216027465102029,-0.06910201203696709,-0.06241360496252085,-0.3999999999999996,-9.790000000000001,0.010000000000000005,-0.005437200439844542,-0.019656602284841312,0.005749876188797394,38.9375,-2.375,89.875,0.6672363300000008,0.2630615200000004,-0.6557006800000001,-0.23596191000000022
335.0,0.04154120314141468,-0.06946648122428134,-0.06401415999829535,-0.3999999999999996,-9.79,0.010000000000000005,0.011769465477820845,-0.0008155397103043836,0.014737358827787173,38.9375,-2.375,89.875,0.6672363300000008,0.2630615200000004,-0.6557006800000003,-0.23596191000000022
336.0,0.04315520533288911,-0.06851796021124419,-0.06633262371919166,-0.3999999999999996,-9.790000000000001,0.010000000000000005,0.012903411442544177,0.00026584702682005707,0.019964370784042916,38.9375,-2.375,89.875,0.6672363300000008,0.2630615200000004,-0.6557006800000001,-0.23596191000000022
337.0,0.04417010364732171,-0.0686841860898257,-0.06478629445968793,-0.3999999999999996,-9.790000000000003,0.010000000000000005,0.02082955239737792,-0.016937537584148867,-0.004098732709000361,38.9375,-2.375,89.875,0.6672363300000008,0.2630615200000004,-0.6557006800000001,-0.23596191000000022
338.0,0.044682862673719195,-0.06873692906851672,-0.06391799760715333,-0.3999999999999996,-9.790000000000001,0.010000000000000005,-0.024684388180618196,0.0018547771607681871,-0.00789656024704045,38.9375,-2.375,89.875,0.6672363300000008,0.2630615200000004,-0.6557006800000001,-0.23596191000000022
339.0,0.04510544298770361,-0.07047353197988636,-0.06183854519290623,-0.3999999999999996,-9.790000000000001,0.010000000000000005,0.008217023338950639,0.012865464092626714,0.00020228059433293095,38.9375,-2.375,89.875,0.6672363300000008,0.2630615200000004,-0.6557006800000001,-0.23596191000000022
340.0,0.044036272282293336,-0.07023924737952134,-0.06124617566216991,-0.3999999999999996,-9.790000000000003,0.010000000000000005,0.00521963389792325,0.018135785756391,-0.004417890360001548,38.9375,-2.375,89.875,0.6672363300000008,0.2630615200000004,-0.65570068,-0.23596191000000022
341.0,0.045328553909523187,-0.07007599597955443,-0.06346946540908599,-0.3999999999999996,-9.790000000000001,0.010000000000000005,0.005923209333943116,0.00802677706645568,-0.0031095929853947454,38.9375,-2.375,89.875,0.6672363300000008,0.2630615200000004,-0.6557006800000001,-0.23596191000000022
342.0,0.04536648860598469,-0.07005620818748795,-0.06430431135112476,-0.3999999999999996,-9.79,0.010000000000000005,0.014266844331342335,-0.018491535652887817,-9.17351148337056e-05,38.9375,-2.375,89.875,0.6672363300000008,0.2630615200000004,-0.6557006800000003,-0.23596191000000022
343.0,0.04440777067268001,-0.06944643486691346,-0.06545835127208054,-0.3999999999999996,-9.790000000000001,0.010000000000000005,0.006608588576321448,0.009805051425988247,0.0022806813417126917,38.9375,-2.375,89.875,0.6672363300000008,0.2630615200000004,-0.6557006800000001,-0.23596191000000022
344.0,0.04414730151825434,-0.07121184778776661,-0.0666239403108155,-0.3999999999999996,-9.790000000000003,0.010000000000000005,-0.020591792438438956,0.007711885839911098,0.011584550083865334,38.9375,-2.375,89.875,0.6672363300000008,0.2630615200000004,-0.6557006800000001,-0.23596191000000022
345.0,0.0450106955041844,-0.07092850453904459,-0.06829896287132865,-0.3999999999999996,-9.790000000000001,0.010000000000000005,-0.014376931599032174,-0.01012688746506006,0.006426380140788026,38.9375,-2.375,89.875,0.6672363300000008,0.2630615200000004,-0.6557006800000001,-0.23596191000000022
346.0,0.04352853323596316,-0.07216032081790938,-0.06937881611308366,-0.3999999999999996,-9.79,0.010000000000000005,0.012358535208548429,0.002024509896502228,0.016333779788135945,38.9375,-2.375,89.875,0.6672363300000008,0.2630615200000004,-0.6557006800000003,-0.23596191000000022
347.0,0.04292592031865714,-0.07141314688137923,-0.06910280019105777,-0.3999999999999996,-9.790000000000001,0.010000000000000005,0.026102607214138276,0.003293175120690537,0.008134887845936894,38.9375,-2.375,89.875,0.6672363300000008,0.2630615200000004,-0.6557006800000001,-0.23596191000000022
348.0,0.04479360532061888,-0.07064474548370037,-0.06791430332133533,-0.3999999999999996,-9.790000000000001,0.010000000000000005,-0.0055474867155115085,0.022211103689377527,-0.003056211991010048,38.9375,-2.375,89.875,0.6672363300000008,0.2630615200000004,-0.6557006800000003,-0.23596191000000022
349.0,0.04438147525312588,-0.07109403130832631,-0.07014376662041852,-0.3999999999999996,-9.79,0.010000000000000005,-0.005630844244999423,0.007934201337272682,-0.008003012192780337,38.9375,-2.375,89.875,0.6672363300000008,0.2630615200000004,-0.6557006800000003,-0.23596191000000022
350.0,0.04338781423946615,-0.07036489199824916,-0.06827047201988667,-0.3999999999999996,-9.790000000000001,0.010000000000000005,0.006450370888252978,-0.016575364049105597,-0.006167794738863286,38.9375,-2.375,89.875,0.6672363300000008,0.2630615200000004,-0.6557006800000001,-0.23596191000000022
351.0,0.0452969114825041,-0.07012952261202782,-0.06904558437059907,-0.3999999999999996,-9.790000000000003,0.010000000000000005,-0.011138442844477424,0.004183501377086545,-0.008781630876835133,38.9375,-2.375,89.875,0.6672363300000008,0.2630615200000004,-0.6557006800000001,-0.23596191000000022
352.0,0.045351369372885766,-0.07134467805939582,-0.07026941029143896,-0.3999999999999996,-9.790000000000001,0.010000000000000005,0.005389415414389801,0.0035550701474402553,-0.0008625896319659535,38.9375,-2.375,89.875,0.6672363300000008,0.2630615200000004,-0.6557006800000001,-0.23596191000000022
353.0,0.044262064247521674,-0.07025180260717012,-0.0723875227686703,-0.3999999999999996,-9.790000000000001,0.010000000000000005,-0.021577079293730532,0.007990662222054341,-0.002854884351942786,38.9375,-2.375,89.875,0.6672363300000008,0.2630615200000004,-0.6557006800000001,-0.23596191000000022
354.0,0.043590031729243785,-0.06993107703155296,-0.07217325489159174,-0.3999999999999996,-9.790000000000003,0.010000000000000005,0.00783219306363476,-0.0017256907720782661,0.005639239599858981,38.9375,-2.375,89.875,0.6672363300000008,0.2630615200000004,-0.65570068,-0.23596191000000022
355.0,0.04249202047291682,-0.06964321388700023,-0.06696489165470523,-0.3999999999999996,-9.790000000000001,0.011802355350742453,0.034352444458084656,0.002864593170028455,0.017735774433826058,38.9375,-2.375,89.86783154121864,0.6672613312903228,0.2630545201433694,-0.6556661784946237,-0.23597291157706118
356.0,0.042048026578724834,-0.07057082650645535,-0.06407301917137609,-0.3999999999999996,-9.790000000000001,0.016062467997951878,0.03113346451423023,0.02757054055901672,-0.01646113310003823,38.9375,-2.375,89.8714157706093,0.6673118345161291,0.2630580200716849,-0.6556204253763438,-0.23599891530465972
357.0,0.042122886240182095,-0.06855286433731017,-0.0659138810161481,-0.3999999999999996,-9.790000000000003,0.01819252432155659,0.005685685935724317,0.002632781930090063,-0.0025237955789720505,38.9375,-2.375,89.87320788530465,0.6673370861290322,0.2630597700358427,-0.6555975488172038,-0.23601191716845898
358.0,0.04092531442900765,-0.06670900752560907,-0.06206093054577384,-0.39999999999999963,-9.790000000000003,0.019257552483358947,-0.029679098827740096,-0.0009796079090785754,0.03680199996046706,38.9375,-2.375,89.87410394265231,0.6673497119354839,0.2630606450179215,-0.6555861105376338,-0.23601841810035862
359.0,0.042381269185997855,-0.0687694181861801,-0.06296750203012463,-0.3999999999999996,-9.790000000000001,0.01979006656426012,-0.02719470079929642,0.006860436952682052,0.03201105135139014,38.9375,-2.375,89.87455197132616,0.6673560248387095,0.263061082508961,-0.6555803913978488,-0.23602166856630846
360.0,0.04219985118286068,-0.06956699275924468,-0.06807668496283496,-0.3999999999999996,-9.790000000000001,0.02000000000000001,-0.0355251537790645,-0.006880841431493074,0.001563001354138489,38.9375,-2.375,89.875,0.6673583999999999,0.2630615200000004,-0.6555786099999994,-0.2360229500000002
361.0,0.04279173967398324,-0.06855578219301114,-0.07098267130555899,-0.3999999999999996,-9.790000000000003,0.02000000000000001,0.013535116485424391,-0.0031943662585838593,0.011255616181751863,38.9375,-2.375,89.875,0.6673583999999999,0.2630615200000004,-0.6555786099999994,-0.23602295000000018
362.0,0.04232659432139141,-0.06957270865335381,-0.07221925738731148,-0.3999999999999996,-9.790000000000001,0.02000000000000001,-0.004023689774210068,-0.011834821944733495,0.012502477577919825,38.9375,-2.375,89.875,0.6673583999999998,0.2630615200000004,-0.6555786099999994,-0.2360229500000002
363.0,0.04241459788910361,-0.06836856036205671,-0.07353938935962868,-0.3999999999999996,-9.790000000000001,0.02000000000000001,0.018279518276266456,-0.02146111544687247,0.007665780932560328,38.9375,-2.375,89.875,0.6673583999999999,0.2630615200000004,-0.6555786099999994,-0.23602295000000023
364.0,0.04247780090183836,-0.06842225979882066,-0.07361259972251126,-0.3999999999999996,-9.790000000000003,0.02000000000000001,0.023555649497051682,0.01245853928199792,-0.013248460804717307,38.9375,-2.375,89.875,0.6673583999999999,0.2630615200000004,-0.6555786099999994,-0.23602295000000023
365.0,0.04346470690253207,-0.06928639871661463,-0.07192189125910509,-0.3999999999999996,-9.790000000000001,0.02000000000000001,-0.0026879010579257713,0.020157361038848423,-0.012739821800208115,38.9375,-2.375,89.875,0.6673583999999998,0.2630615200000004,-0.6555786099999994,-0.23602295000000023
366.0,0.04126235691987512,-0.06918135405827261,-0.07140397372528615,-0.3999999999999996,-9.790000000000001,0.02000000000000001,0.0018271169354838702,0.006403038826742976,-0.0009491252601456805,38.9375,-2.375,89.875,0.6673583999999999,0.2630615200000004,-0.6555786099999994,-0.23602295000000023
367.0,0.04163319458896982,-0.0688949445022546,-0.0714232570239334,-0.3999999999999996,-9.790000000000003,0.02000000000000001,-0.013793682795698925,-0.008833300815123134,0.0036059985258411384,38.9375,-2.375,89.875,0.6673583999999999,0.2630615200000004,-0.6555786099999994,-0.2360229500000002
368.0,0.04215391952826916,-0.06872010492542491,-0.07296396982310094,-0.39999999999999963,-9.790000000000003,0.02000000000000001,-0.01610057882414152,-0.016294468652445368,0.011399123092265,38.9375,-2.375,89.875,0.6673583999999999,0.2630615200000004,-0.6555786099999994,-0.2360229500000002
369.0,0.04103533645508152,-0.06962540105792576,-0.0732015478668054,-0.3999999999999996,-9.790000000000001,0.02000000000000001,-0.034194930411030174,-0.005854700507284079,0.006723885167360388,38.9375,-2.375,89.875,0.6673583999999998,0.2630615200000004,-0.6555786099999994,-0.2360229500000002
370.0,0.04119632327436698,-0.06914420742282346,-0.07559157127991674,-0.3999999999999996,-9.790000000000001,0.02000000000000001,0.007308467741935484,-0.005433792924037461,0.005127579778009018,38.9375,-2.375,89.875,0.6673583999999999,0.2630615200000004,-0.6555786099999994,-0.23602295000000023
371.0,0.04035733497097172,-0.06924926718525218,-0.07608001825284452,-0.3999999999999996,-9.790000000000003,0.02000000000000001,0.04054161211425939,-0.014765959511096705,0.0007984775435992786,38.9375,-2.375,89.875,0.6673583999999999,0.2630615200000004,-0.6555786099999994,-0.2360229500000002
372.0,0.04104758709634095,-0.06940036323932347,-0.07580127384736439,-0.3999999999999996,-9.790000000000001,0.02000000000000001,0.03610221926757516,-0.009556718874851988,0.023818337594124266,38.9375,-2.375,89.875,0.6673583999999998,0.2630615200000004,-0.6555786099999994,-0.2360229500000002
373.0,0.040726558525129006,-0.07005207614091108,-0.07667854270965246,-0.3999999999999996,-9.79,0.02000000000000001,0.003983009275364642,-0.011048360717507918,0.010582683902028852,38.9375,-2.375,89.875,0.6673583999999998,0.2630615200000004,-0.6555786099999994,-0.23602295000000023
374.0,0.04285790291847848,-0.07096471414572436,-0.07276769877418106,-0.3999999999999996,-9.790000000000001,0.02000000000000001,0.005482978091983398,-0.023898256299614173,0.003662687717143458,38.9375,-2.375,89.875,0.6673583999999999,0.2630615200000004,-0.6555786099999994,-0.2360229500000002
375.0,0.0430440432122082,-0.07001161726809531,-0.07035780178456008,-0.3999999999999996,-9.790000000000001,0.02000000000000001,0.008649996222709073,-0.009835960649022521,0.007926959784442597,38.9375,-2.375,89.875,0.6673583999999998,0.2630615200000004,-0.6555786099999994,-0.2360229500000002
376.0,0.04316845878136201,-0.0700163850486431,-0.07015770609318994,-0.3999999999999996,-9.79,0.02000000000000001,0.04771505376344086,-0.005561955965181772,0.009133384536610343,38.9375,-2.375,89.875,0.6673583999999998,0.2630615200000004,-0.6555786099999994,-0.23602295000000023
377.0,0.04240218075596183,-0.07086198618350918,-0.07092253196007822,-0.3999999999999996,-9.790000000000001,0.02000000000000001,0.009628157185666442,0.007875441733188954,0.001715362242199894,38.9375,-2.375,89.875,0.6673583999999999,0.2630615200000004,-0.6555786099999994,-0.2360229500000002
378.0,0.04308588300470903,-0.07033473093097631,-0.07042695978444258,-0.3999999999999996,-9.790000000000003,0.02000000000000001,-0.018931441120428428,0.008446809448263704,0.007341296072456834,38.9375,-2.375,89.875,0.6673583999999999,0.2630615200000004,-0.6555786099999994,-0.23602295000000018
379.0,0.04312991687522998,-0.07047078204543959,-0.07089558186932848,-0.39999999999999963,-9.790000000000003,0.02000000000000001,-0.0241178841051327,-0.016537304606426592,0.012045713072648812,38.9375,-2.375,89.875,0.6673583999999999,0.2630615200000004,-0.6555786099999994,-0.2360229500000002
380.0,0.04356188624099441,-0.0702507520058227,-0.06883744787270826,-0.3999999999999996,-9.790000000000001,0.02000000000000001,-0.0112428898252238,-0.013965016870545605,-0.0023616800740186563,38.9375,-2.375,89.875,0.6673583999999998,0.2630615200000004,-0.6555786099999994,-0.23602295000000023
381.0,0.04336824470779879,-0.06930612357075569,-0.06802343463783901,-0.3999999999999996,-9.79,0.02000000000000001,-0.0105977633969949,-0.006438473617044436,0.006339641273794563,38.9375,-2.375,89.875,0.6673583999999998,0.2630615200000004,-0.6555786099999994,-0.23602295000000023
382.0,0.042395008506350855,-0.06856159258708686,-0.06849108071948862,-0.3999999999999996,-9.79,0.02000000000000001,0.038141537832614834,-0.024031060568521546,0.005284054308508002,38.9375,-2.375,89.875,0.6673583999999998,0.2630615200000004,-0.6555786099999994,-0.23602295000000023
383.0,0.04247031035792742,-0.06961647093801099,-0.06799415291610919,-0.3999999999999996,-9.790000000000001,0.02000000000000001,0.0359558495614687,-0.007467316617940968,0.01856944650909271,38.9375,-2.375,89.875,0.6673583999999999,0.2630615200000004,-0.6555786099999994,-0.23602295000000023
384.0,0.041355169053400066,-0.07117417372776375,-0.0633848669540657,-0.3999999999999996,-9.790000000000001,0.017849462365591408,0.04477726574500768,0.006072749946319145,-0.007642089093701997,38.9375,-2.375,89.875,0.6673331983655917,0.2630615200000004,-0.6556038116344083,-0.23600982311827973
385.0,0.0427779925011975,-0.0719190327535801,-0.056837289199411986,-0.39999999999999963,-9.790000000000003,0.01376344086021506,0.009869638108451845,0.020382001222271774,-0.011889689972416299,38.9375,-2.375,89.875,0.6672827953118285,0.2630615200000004,-0.655654214688172,-0.23598488204301094
386.0,0.04297629783790033,-0.07188629569066612,-0.054778091604314294,-0.3999999999999996,-9.790000000000001,0.011720430107526887,-0.0005855342483854446,0.025023949919891646,0.012248319376311052,38.9375,-2.375,89.875,0.667257593784947,0.2630615200000004,-0.6556794162150539,-0.23597241150537654
387.0,0.04396250598747997,-0.07130941644781394,-0.05249805923062946,-0.3999999999999996,-9.790000000000001,0.0106989247311828,0.0004443123069553874,0.002746188659300002,-0.0001833407660670923,38.9375,-2.375,89.875,0.6672449930215061,0.2630615200000004,-0.6556920169784948,-0.23596617623655936
388.0,0.04383210280296648,-0.07004215185900929,-0.05251385791916489,-0.3999999999999996,-9.790000000000003,0.010188172043010757,-0.001894779330393274,-0.008988291379680557,0.0042430070363212915,38.9375,-2.375,89.875,0.6672386926397857,0.2630615200000004,-0.6556983173602151,-0.23596305860215075
389.0,0.04305762846241514,-0.06973228944716976,-0.05364876203689938,-0.3999999999999996,-9.790000000000001,0.012949308755760376,-0.0084270683646334,0.00034056373156269096,-0.022447268883273048,38.9375,-2.375,89.8565668202765,0.6672908318330779,0.26304352036866363,-0.6556281755862778,-0.2359799125806454
390.0,0.04537376740498488,-0.06999101465074409,-0.05730565052937581,-0.3999999999999996,-9.790000000000001,0.01663594470046084,0.0018998893348529155,-0.008170639049931453,-0.02293019011281238,38.9375,-2.375,89.83352534562212,0.6673580841423454,0.26302102082949297,-0.6555384200512036,-0.23600241580645184
391.0,0.04551246519544569,-0.06988273420625307,-0.0602013046952403,-0.3999999999999996,-9.790000000000003,0.018479262672811067,0.00800062541919129,0.004440603183267927,-0.007810566084584782,38.9375,-2.375,89.82200460829492,0.6673917102969793,0.26300977105990764,-0.6554935422836664,-0.23601366741935503
392.0,0.04695238244163544,-0.0700116064371536,-0.06331345151515395,-0.3999999999999996,-9.790000000000001,0.019400921658986187,0.03014495370855506,0.0015374191774820386,0.020483374605990645,38.9375,-2.375,89.81624423963133,0.6674085233742962,0.2630041461751149,-0.6554711033998979,-0.23601929322580667
393.0,0.040713518409757815,-0.06912344274750665,-0.0527578522296712,-0.3999999999999996,-9.79,0.019861751152073743,0.034580125343780854,-0.003008332141929744,0.020331133027521694,38.9375,-2.375,89.81336405529953,0.6674814342447515,0.2629763301484892,-0.6554193833128518,-0.23605260632360486
394.0,0.02568315911086633,-0.07083857161675905,-0.031585124229547734,-0.3862083553675303,-9.791353781068217,0.011708090957165525,-0.15595512338067266,-0.03656634447661235,-0.24288433359787906,39.00941961924907,-2.2803410893707037,89.87119910100475,0.6670163364652112,0.26254850831364934,-0.6559341270121629,-0.23641983859543547
395.0,0.005380601407670416,-0.0662205345076511,-0.0017498982229944646,-0.3579428873611845,-9.795838180856688,-0.02664595452141725,-0.3931765731367463,-0.045761059855371725,-0.27026175576876266,39.14634287414067,-2.1038802221047064,90.12561971179271,0.665257869361638,0.26195298399553435,-0.657845839877049,-0.23672542655578216
396.0,-0.008752511675305582,-0.06403009960976136,0.019935527853229627,-0.3322887282256093,-9.798080380750923,-0.06071344428044862,-0.3335387964462708,-0.25618987229569773,-0.2859612053585915,39.224396160228736,-1.947191675809214,90.34460150250203,0.6638382381642085,0.26117527866363144,-0.6595818199625978,-0.23673904666980256
397.0,-0.03948538645837615,-0.06529209953606348,0.0435630412970938,-0.3124982253053754,-9.799201480698041,-0.08197940053709624,-0.19544768817914712,-0.09091778408284398,-0.2835215973029516,39.20900282107234,-1.8253187118049001,90.47395642085023,0.6631158340430034,0.2600521847032721,-0.6608765324739676,-0.23639483974252595
398.0,-0.0480155279213776,-0.06473624630984118,0.05653216068950952,-0.30320692902985913,-9.799762030671602,-0.09109888140998731,-0.22140880608098717,-0.08155917169008875,-0.2507656826563598,39.182928829891004,-1.7696382640910358,90.5367765975219,0.6628171848566666,0.2594319910511121,-0.6615225249789192,-0.2361192501272794
399.0,-0.05056646306169355,-0.06660265514857473,0.061279036452634175,-0.30042155018388794,-9.799999999999999,-0.09206451209579214,-0.10679608733451791,-0.0346485705092432,-0.13761182070417147,39.15474112039236,-1.7526965778413932,90.55990072604808,0.662800763594383,0.2591823407238637,-0.6617186821695231,-0.2359016616025082
400.0,-0.052628688736882145,-0.06718367668979204,0.06178172035951167,-0.2996966621887184,-9.8,-0.09147832459628313,-0.037310167268975916,-0.0065724439109691585,-0.0631030292386622,39.13749215797843,-1.7482610913400514,90.56442931967727,0.6628401988435625,0.2590694541623349,-0.6617651148574432,-0.23578904253512525
401.0,-0.049840118459382465,-0.06668875460968524,0.06377826082854782,-0.2996942627265211,-9.8,-0.09071990375216174,-0.010680348636816349,-0.016099271988239894,-0.007804652025899531,39.1285679374389,-1.7481826641100833,90.56382575757576,0.6628768038945785,0.25902800910572193,-0.6617639523372436,-0.23573708218475106
402.0,-0.04883443338600087,-0.06626808442209811,0.06610036720615586,-0.29991066997518645,-9.8,-0.08865185710346996,0.06209468696725956,-0.018939060189995756,-0.01899129170675417,39.1258064516129,-1.7495037220843672,90.55010240655403,0.6629430028528891,0.2590182318636416,-0.6616920333374301,-0.2357460728469025
403.0,-0.0489544375366729,-0.06653230523834433,0.0764211513450134,-0.3000000000000004,-9.8,-0.08406041986687149,-0.02559037363795831,-0.011361589648347752,-0.007611340642458969,39.125,-1.75,90.52384152585765,0.6630525892626726,0.258995700768049,-0.6615566515719411,-0.2357927746492578
404.0,-0.048359630521377164,-0.06769655485343973,0.08566715453289803,-0.3000000000000004,-9.8,-0.08186891961085513,-0.04077543247273378,-0.02593349263617811,0.007929605326575908,39.125,-1.75,90.51091269841271,0.6631037173732717,0.2589829510291858,-0.6614923986891965,-0.23581827619559673
405.0,-0.048617516766974726,-0.06761812952750285,0.08948379647117086,-0.3000000000000004,-9.8,-0.08077316948284693,-0.01212169382119144,0.01263654644389044,-0.04842096779439786,39.125,-1.75,90.50444828469023,0.6631292814285712,0.25897502675732154,-0.6614602722478242,-0.23583257637119878
406.0,-0.0534658349281895,-0.06485818633376142,0.09743779274004685,-0.3000000000000004,-9.8,-0.08374807987711211,-0.15927432470432207,-0.024799783907481554,-0.08676137239996475,39.125,-1.75,90.51145673323092,0.6630635595750125,0.25897061226242923,-0.6615362143522787,-0.23582717851074006
407.0,-0.056755958938749115,-0.06634870402197543,0.09193958249393536,-0.3000000000000004,-9.8,-0.09405017921146949,-0.013616937057742182,0.0027530778363257877,-0.01307474661984925,39.125,-1.75,90.55171530977981,0.6628362026472094,0.25903978428789654,-0.6617860111367129,-0.2357387229164044
408.0,-0.058551870598406816,-0.06712732828015747,0.08130249385140975,-0.3000000000000004,-9.8,-0.09074798754333388,0.018878585278638157,-0.015451218386173436,-0.002259554447550218,39.125,-1.75,90.52109826832195,0.6629946869899185,0.2589904838811243,-0.6616393705524914,-0.2358027088511161
409.0,-0.05578496302451881,-0.06809062140632736,0.07215204855077936,-0.3000000000000004,-9.8,-0.08537399377166696,0.02670020061611812,-0.008633732886773606,-0.02349422494187169,39.125,-1.75,90.47829106964485,0.6632283407530237,0.2589183230695944,-0.6614126725343098,-0.23588427829652592
410.0,-0.05487455197132616,-0.06687299069107634,0.06481780866762357,-0.3000000000000004,-9.8,-0.0826869968858335,0.006941296702005322,0.00716216329648376,-0.004990745637228979,39.125,-1.75,90.4568874703063,0.6633451676345763,0.2588822910826555,-0.6612993235252189,-0.23592501460040477
411.0,-0.05433993939546557,-0.06703893967246688,0.06076645429897676,-0.3000000000000004,-9.8,-0.08123341139734586,0.007197313087053965,0.0066884280593958005,-0.011135663502136267,39.125,-1.75,90.44586565015571,0.6634060343216404,0.2588642892254035,-0.661239773854263,-0.23594577487572735
412.0,-0.05450842335876709,-0.06726498954949509,0.06108420001175155,-0.3000000000000004,-9.8,-0.08023268112109999,0.0159866493750682,0.005568356374807987,-0.005420622329665163,39.125,-1.75,90.43921866737176,0.6634424992755155,0.258853069413009,-0.6612034361078788,-0.23595881147012185
413.0,-0.053867114905189986,-0.06898944876734406,0.05979778482872082,-0.3000000000000004,-9.8,-0.08000000000000004,0.002209347955646211,-0.005255549469920173,0.0042139352656274925,39.125,-1.75,90.4375,0.6634521499999999,0.25885009999999997,-0.6611938499999992,-0.23596191000000022
414.0,-0.056229512393711226,-0.06852698244818817,0.0647504029110322,-0.3000000000000004,-9.8,-0.08000000000000004,0.009297198299379684,-0.0036038372029580383,-0.0018132832632436016,39.125,-1.75,90.4375,0.6634521499999998,0.25885009999999997,-0.6611938499999992,-0.23596191000000022
415.0,-0.052561760805150556,-0.07015186808021287,0.07157387017031383,-0.3000000000000004,-9.8,-0.08000000000000004,0.01764143069090848,-0.01601082797167871,0.019414658931614245,39.125,-1.75,90.4375,0.6634521499999997,0.25885009999999997,-0.6611938499999992,-0.23596191000000022
416.0,-0.05498598310291858,-0.06741999487967228,0.0775313300051203,-0.3000000000000004,-9.8,-0.08000000000000004,-0.021868199564772144,-0.006023385496671786,-0.04218950012800819,39.125,-1.75,90.4375,0.6634521499999997,0.25885009999999997,-0.6611938499999992,-0.23596191000000022
417.0,-0.05495471710189451,-0.06809491807475676,0.07233542946748589,-0.3000000000000004,-9.8,-0.08000000000000004,-0.010363663274449564,-0.006167894745263696,-0.013959893433179722,39.125,-1.75,90.4375,0.6634521499999997,0.25885009999999997,-0.6611938499999992,-0.23596191000000022
418.0,-0.053884280593958,-0.06680081925243213,0.06489503328213003,-0.3000000000000004,-9.8,-0.07647311827956989,0.052502560163850485,-0.03991295442908346,0.04441244239631337,39.125,-1.75,90.4375,0.6635151521505371,0.25882804683870964,-0.6611308444086024,-0.2359839631612905
419.0,-0.054803329864724235,-0.06618347290355611,0.05871430223147184,-0.3000000000000004,-9.8,-0.07307526881720428,0.016614018135870372,-0.029810011066514708,0.02182993905158317,39.125,-1.75,90.4375,0.6635781543010747,0.25880756890322565,-0.661067838817205,-0.23600444109677438
