time,linaccel_x,linaccel_y,linaccel_z,gravity_x,gravity_y,gravity_z,gyro_x,gyro_y,gyro_z,euler_x,euler_y,euler_z,quaternion_w,quaternion_y,quaternion_x,quaternion_z
0.0,-0.16425000000000003,-0.06075000000000001,-0.050500000000000024,-3.5974999999999993,-0.8999999999999992,9.069999999999995,-0.0109375,-0.20625,0.0984375,339.796875,-21.521875,5.6828125,0.9660263062499999,0.17605591124999997,-0.07911224424999994,0.17187957724999997
1.0,-0.1634166666666667,-0.05941666666666667,-0.054500000000000014,-3.6073333333333335,-0.9008333333333333,9.065833333333334,0.013020833333333334,0.15208333333333335,0.0703125,339.7895833333333,-21.586458333333333,5.684895833333332,0.9659022009166665,0.17660420941666663,-0.07929738391666662,0.17190907924999996
2.0,-0.15819897959183676,-0.05335544217687076,-0.04662244897959185,-3.6797414965986404,-0.9059353741496599,9.036785714285713,0.08891369047619047,0.06857993197278912,-0.18755314625850336,339.85624999999993,-22.042155612244898,5.728900935374149,0.9652359212091838,0.18045041913775506,-0.08014294902551017,0.17121448171938775
3.0,-0.13609285714285715,-0.05449920634920636,-0.0242904761904762,-3.704946031746033,-0.9373031746031746,9.023566666666664,-0.8185069444444444,-0.30799603174603174,-0.11085813492063491,339.94124999999997,-22.193839285714287,5.9351537698412695,0.965021880297619,0.18151895226428572,-0.08187758221190475,0.1704510358690476
4.0,-0.14377427784646507,-0.038329671050166714,-0.05065196133528156,-3.5518346259038633,-1.0969326926679406,9.062386703383162,-0.6619840840545502,-0.6714536266906448,0.04470672464501143,340.20603363493314,-21.23384040968866,6.900172752519576,0.9664113052895638,0.17224870303897383,-0.08819045219537483,0.16838384265890188
5.0,-0.13104754411599415,-0.029892313888576653,-0.05145088231988311,-3.858443866846503,-1.1545639073095804,8.91525708103855,-1.83671649619722,4.530699720879697,0.570726321606534,339.18811836152634,-23.226520175340003,7.407995379997002,0.9610122329767055,0.1876593716763516,-0.09618440522662132,0.17619156446585924
6.0,-0.11291010078303548,-0.06389104941740659,-0.06303227679742235,-4.290744782885618,-1.2881527293844366,8.672975122700533,-4.308162395564048,5.7830485931587425,2.6577277921396725,337.2042706342962,-26.059501447117007,8.5393243509048,0.9514301858637368,0.20798504773640925,-0.1120021417310142,0.19138185489402793
7.0,-0.08358254655127197,-0.06482954928627625,-0.089231192162152,-5.176512944438201,-1.6703858885017422,7.925523659660559,2.828973717732569,-5.232995672698663,-1.9829640609194108,335.7964277518639,-32.479011476246676,12.536943281443184,0.9292626043604397,0.25424931246651494,-0.1492867680237252,0.19820704292704466
8.0,-0.15694046682402307,-0.05655187141733167,-0.09382930575849535,-4.30349840770297,-1.5911163313476453,8.489277958862537,1.467914278221123,-3.7634736428009443,-1.276260256266157,338.7455425049642,-26.4689160203814,11.010961560076431,0.9487788478173165,0.20896165186632198,-0.1277692208787981,0.17695826848368362
9.0,-0.16726094938368735,-0.09435382713274137,-0.051118429433142244,-3.7776799670300854,-1.3270648533213443,8.835690907047319,1.626138492375707,-1.5307336742722266,-0.1274938181409464,341.9057669251808,-22.92262185755498,8.799756940541755,0.9622455695341501,0.18458047863654417,-0.10219393870061069,0.15227086583822258
10.0,-0.14501914503015997,-0.0835695178149938,-0.059587538870780415,-3.680641714435578,-1.627426997864449,8.87309328987299,-2.224843814394365,-0.08885719905586154,-1.0116963583230303,344.8714269322993,-22.183085122325878,10.519592278296056,0.9669260841573188,0.18007396880686374,-0.11127237532591511,0.12775297496474464
11.0,-0.1267137049941928,-0.06401790865834925,-0.05264351279457496,-3.7599818852796822,-1.7045929152148664,8.851121969952416,2.486022442021655,2.08151097279982,0.394023266269529,346.1005887986587,-22.621333150687498,10.93666814188303,0.9680301162521635,0.18487575612742124,-0.11294724855717282,0.11756158337359035
12.0,-0.11308401643093699,-0.051121768246939786,-0.03950139059155034,-4.135733806927342,-1.3576201992571315,8.753690963899508,0.9566846170384057,2.052333157603425,0.6450343531004702,346.48010553514905,-24.990919785967833,8.76521688539513,0.9661107327659917,0.2073883773551406,-0.09629527183172469,0.11425557466253908
13.0,-0.10707829853804914,-0.047101206704115064,-0.03988779206996873,-4.403354806689478,-1.2017980028543722,8.65497854646588,0.469420937551461,0.977653473963003,0.35482564429217056,346.5038884530584,-26.70566654620972,7.87648445076208,0.9636017160805768,0.22276782183886057,-0.0900914643231204,0.11375271101272116
14.0,-0.1164947944303149,-0.042119151739154315,-0.0445487347446618,-4.523471758183449,-1.1277901304594442,8.611432821620031,0.26757337200153697,0.24369064827182402,0.17668197537189173,346.45320430717436,-27.481764724717763,7.432975088284266,0.9624385618265789,0.22967159460088188,-0.08718255773414085,0.11405426104265089
15.0,-0.11586925477013854,-0.037729614459363986,-0.0394949660760138,-4.542207760999483,-1.1037356481977638,8.609131794272606,0.05430881892947101,-0.781924907402809,0.05291120798492306,346.33853126827,-27.599011038691728,7.297789527956901,0.962300145589585,0.23064972171915887,-0.08630228950679918,0.11497660114737916
16.0,-0.12365734290715537,-0.04552529203729505,-0.04455678205265602,-4.147307469724574,-1.23570038938306,8.773841120994533,-0.04204845854320724,-4.110608120780195,-1.109205761261744,346.51713687350406,-25.04763925356339,7.994330725538528,0.966769831216358,0.2084172884235523,-0.09008038340669097,0.11399479867791944
17.0,-0.11173864894795127,-0.0455383399421284,-0.03357246454470761,-3.8646889936769915,-1.1671037580823778,8.914186126888865,0.4226648179902118,-0.5050883814703677,0.20057810211481453,348.55772916443397,-23.24200698612153,7.452365100203622,0.9721030956419374,0.19484319562587965,-0.08113804480537098,0.09704697035171292
18.0,-0.106034455042332,-0.03558925445647127,-0.02483385131997285,-3.929639043689496,-1.1193276086878865,8.89911552888222,0.28685324232843923,0.27851979736005417,0.16330628416032583,351.09155659450573,-23.6381753920623,7.164498602329154,0.9734926654478887,0.20015157212841606,-0.07438908522392206,0.07558285190780731
19.0,-0.10220501553959918,-0.0323875611760083,-0.02798681813310471,-3.9815589611688647,-1.0500637659414853,8.888753616975674,0.42033834351445,-0.09073362090522635,0.17871655413853466,353.28734415746794,-23.959943110777694,6.73006756153324,0.9744981994103885,0.20445241927446145,-0.06701461855070912,0.05692829140570857
20.0,-0.10059482727824814,-0.03731436430536207,-0.027743793091129933,-4.0160221841174595,-1.0288790411888686,8.878051155646055,0.08340745900760904,0.06190565498517486,0.06798730932733185,354.87810948272784,-24.182006885649983,6.603469840674454,0.9750115090485125,0.20735679100435822,-0.06314168328149894,0.04336529729732433
21.0,-0.11037637283885432,-0.039327164543749196,-0.03308886106544059,-4.037124369942661,-1.0062924860134896,8.87184806480366,0.37247767952441074,0.038005766685573816,0.050435877697647416,355.87852813595384,-24.317087961014643,6.467090868971598,0.9753134484816763,0.20915372066730964,-0.060273681853836275,0.03481539467466345
22.0,-0.10423169729714657,-0.03381587034389261,-0.032140829632495246,-3.976559184221143,-0.8598304140495054,8.913182096917962,0.9827035809475015,-0.9926719103556377,-0.014471671053651913,356.650371532343,-23.928166073530576,5.511443033885649,0.9766552401823232,0.20632345042367733,-0.051127577258501034,0.028266598327579287
23.0,-0.10542614050725226,-0.03135493978024124,-0.030298525415325968,-3.902269607471555,-0.8203798767636159,8.94989365982611,0.20405340337697658,-0.6434173683882644,0.11519600011065484,356.8848055818397,-23.45453042539816,5.236112261950504,0.9776928775988419,0.20245036053825954,-0.048498826947222864,0.02630402330357459
24.0,-0.10091813937805008,-0.03365289231715596,-0.025606251954974818,-3.8753414089585134,-0.8202690474447878,8.962474479682644,0.19976575698802745,-0.4199373708300769,0.050517546906325886,356.94082348984455,-23.279727770302767,5.220201868302441,0.9780424319507263,0.20098454646959057,-0.048297221878373334,0.02586321178850004
25.0,-0.08730584388257344,-0.048019994545674745,0.007515422409609361,-3.8526142528663536,-0.8937030721094905,8.961954981776806,-3.9169517989253415,0.16172990329463893,0.050183168614453266,356.78734722879324,-23.13258061902235,5.703598918022189,0.9779574124995565,0.199618313448505,-0.052568745285960866,0.02720497264828228
26.0,-0.12764505412067303,0.008404636873504102,-0.046584538991890856,-3.8279719572750333,-1.3603338334583643,8.90220644446826,0.45937421855463834,-0.26256541814024936,-0.8130525935055192,355.0628514271425,-22.979326304790483,8.681525068767193,0.9757701123127207,0.19647820233715568,-0.07977997728971528,0.04175002304404672
27.0,-0.15766348730039653,-0.007815686064373233,-0.03299594541492517,-3.7124030829135855,-1.4754294823705922,8.934028953666987,-0.21048543385846463,-1.346516204944093,-2.9244135810738396,352.9125913174722,-22.25499511038474,9.361369248562141,0.9754916684969455,0.18856936966070084,-0.08902120607171435,0.06014115280484406
28.0,-0.16375109848890793,-0.018681268531418563,-0.049224547208230635,-3.6209711267102485,-1.4079835583895972,8.985351650412603,1.859883051119923,0.41684366404101025,0.1529525796627731,353.99925840835203,-21.678668830153967,8.889257972975386,0.9774456126701316,0.18464336633956702,-0.08332305575475119,0.05097912541931911
29.0,-0.14212869637269943,-0.03519989862448191,-0.041264024194201866,-3.7571870779105923,-1.2131045840728474,8.960401336614641,1.272012237597727,0.5980332354430071,0.423573186959632,356.26533902911706,-22.5344729624806,7.687429315952682,0.9775117556165374,0.19360921176380397,-0.06958023031138424,0.03161811376237395
30.0,-0.1194111223798981,-0.033507207376757095,-0.03854330241968158,-3.9618637002456176,-1.0758345501009399,8.889132119920223,0.8915000704117668,1.5929682306247295,0.33199828702820305,191.47430257907465,-23.848158860272555,6.880055383782793,0.9760298016993979,0.20622900045045034,-0.058355838304885665,0.01085366638118698
31.0,-0.10992330312543291,-0.040713281107733396,-0.028517618951776274,-4.180238301735713,-1.0057721137601474,8.79922331802463,0.3416421723026576,0.6218369378930098,0.14946688544958542,91.32361802340829,-25.247869752716923,6.511877490278493,0.9737876550553446,0.219270038285709,-0.05106537255970091,-0.006534039402148446
32.0,-0.10256030122513207,-0.035450413997227544,-0.03032707654265484,-4.287820576224195,-0.9783136637817987,8.753715184893785,0.25152720017983593,0.2764473511670601,0.25665861151699076,41.358362837660636,-25.93536117043198,6.378969502828669,0.9726839547827363,0.2257545004676858,-0.04761953326409651,-0.01620030449552283
33.0,-0.1075405192761605,-0.029765145554681363,-0.03386860739575139,-4.330957907159718,-0.9639417781274585,8.737067269866246,0.2525349134539733,-0.11990804484657747,0.08660503540519275,16.309087332808815,-26.21506441778127,6.305436172305271,0.9722238847922896,0.2283780700149489,-0.04599672999763965,-0.02046064780920535
34.0,-0.12170495672698663,-0.025386113296616847,-0.039188434303697894,-4.3064466955153415,-0.9226081825334381,8.753742132179383,0.3263313827694728,-0.35369418764752164,0.06629130605822187,3.7872147915027536,-26.05376057238395,6.007827252163651,0.9726561395952003,0.22699571310346195,-0.0432954119815106,-0.022543963818056637
35.0,-0.11998072383949648,-0.0218579858379229,-0.0451121164437451,-4.287414437450826,-0.8351359166011014,8.770847364280092,0.8200051632572778,-0.4513227773406766,0.37004204366640436,2.761922206923682,-25.9258150570417,5.434622098741149,0.9730881314466953,0.2258503186488986,-0.038481445711644365,-0.02373391978088119
36.0,-0.12367151848937845,-0.035514162077104644,-0.04160365853658538,-4.3105403225806445,-0.7397895357985838,8.768691384736428,0.3990829071597168,0.20657085955940202,0.21782798977183318,2.4918014850511407,-26.07631540125885,4.817724724626278,0.9730573163556254,0.22690141098111727,-0.03400103065066876,-0.021437346865066875
37.0,-0.11438571990558619,-0.03905133752950433,-0.03942427222659324,-4.394892210857592,-0.7379474822974036,8.726656372934698,-0.18809869197482296,0.3856731904012588,0.15840258654602674,2.3569089299763966,-26.6286019866247,4.8342225609756095,0.9719848289441384,0.23153195640145557,-0.034173999102871756,-0.020255615134146338
38.0,-0.08547764990027995,-0.03893949097030355,-0.039620331912246363,-4.436454357491812,-0.7724944650796846,8.702157612573874,-0.015150128995663537,-0.707884288145207,-0.04710743234589135,2.1967801401569904,-26.89565531626809,5.072488015296507,0.9713838392342596,0.23382122976158676,-0.036284074788026276,-0.018899409477613302
39.0,-0.09028013100836185,-0.04013851023731543,-0.030931330393574007,-4.519399484017347,-0.7214242585036501,8.66373026183375,0.5861503485627505,0.4660322855104019,0.263351279893144,2.1438759080013905,-27.442172662067954,4.754551442738734,0.9703811477563903,0.23837862018370443,-0.033631809160338866,-0.018438920820631984
40.0,-0.08659875944595907,-0.03783086015406292,-0.030909410279399127,-4.581879128318667,-0.6842982818875449,8.634364737525846,0.19661569355753572,0.27983459279454004,0.016997237114156585,2.171318363127367,-27.854539320805813,4.52647910453223,0.9696069885524674,0.24181972481411818,-0.031586945842167855,-0.01863772789025306
41.0,-0.09454800285437213,-0.04006019797632337,-0.034977915210509955,-4.609663403655791,-0.6811428466872815,8.620200464750337,0.05754761861197007,0.05481698168444549,0.14622481839972187,2.1698497795180502,-28.037974813825407,4.520227160448648,0.969236240412347,0.2433523024849505,-0.03145711138843247,-0.018613159746070668
42.0,-0.09127872211955426,-0.031182734708067275,-0.034011380894004,-4.593112583023803,-0.6726249245238138,8.629994016796886,0.16670653943973798,-0.610770108685708,0.10214958465226062,2.140933937752731,-27.92870416537061,4.458063029476881,0.9694956881880774,0.24239425400014641,-0.031044274356686732,-0.018371669046914167
43.0,-0.09404484657749802,-0.03259638080251771,-0.036254130605822193,-4.58348308418568,-0.6983556254917387,8.63360778914241,-0.25446498819826907,-0.22823809992132177,-0.1432558025177026,2.1781520456333596,-27.861833693941776,4.632255605822187,0.9695719609720692,0.2419097321400472,-0.03236453290007868,-0.01869973384618411
44.0,-0.09947324940991345,-0.03263571990558617,-0.04041660110149489,-4.606096380802517,-0.7115066876475216,8.620348347757671,0.019231904012588508,0.27516596184107,-0.016110592053501183,2.258799665617624,-28.01323392014162,4.718345544846577,0.9692149808361527,0.24321582396144764,-0.032826904148701805,-0.019378265023013375
45.0,-0.09405920535011801,-0.027366247049567277,-0.03699055861526357,-4.656072383949645,-0.7293904405979543,8.591936270653028,0.0023074842643587817,-0.029780930369787573,0.15971184107002356,2.2524845102281668,-28.345503048780486,4.850831038552321,0.9684676542608182,0.2460490217549173,-0.033762449219512186,-0.01929540183811959
46.0,-0.09836191974822973,-0.019543666404405982,-0.02227222659323367,-4.432840283241541,-0.6694917387883554,8.708080251770259,0.5665617623918174,-1.7097364280094414,0.08024193548387094,2.1392309205350117,-26.88064516129032,4.399154209284028,0.9715560907490165,0.2334924155011801,-0.030945131524783627,-0.018364062073957514
47.0,-0.09848465774980328,-0.03508261211644376,-0.023944925255704165,-4.3285247836349345,-0.6353084185680564,8.765664830841853,0.3391424075531078,-0.8674567269866247,0.04545633359559401,2.1716020849724624,-26.198092053501178,4.151239181746656,0.9730382640055073,0.2276481665822187,-0.029179256580645158,-0.018712326926042494
48.0,-0.09120254018208382,-0.04144524371510998,-0.02585167284852572,-4.297238301300064,-0.5952091903637929,8.785190888314414,0.3336550709977146,-0.6787243359184744,0.12723436738975683,2.213744450376531,-25.99669411037428,3.878010846352703,0.9735477236345773,0.2258663316132029,-0.02701367138031546,-0.019078072775710914
49.0,-0.08864480536510433,-0.04378601401221387,-0.030650912292533063,-4.262368167172456,-0.6327301056535912,8.799504889288524,-0.12328195833801658,0.34660524615038785,-0.0443897287475179,2.2581943000449587,-25.771544247124496,4.115135719905586,0.9739234743688977,0.22402370985272185,-0.028922188027462437,-0.019480908372606874
50.0,-0.08779820913416506,-0.03972365216739726,-0.029236746468847177,-4.396865535199131,-0.5857803754074408,8.7359298639991,0.7201130530890563,0.1744618972687423,-0.12491663856730734,2.503366303248286,-26.646860833239668,3.832366247049567,0.9722048387126747,0.23146247978119966,-0.025833789223408635,-0.02151957460162602
51.0,-0.08366228316661047,-0.0412056498445169,-0.02802907347045821,-4.473034655876513,-0.5427658761380241,8.700713948521972,-0.007572309018021028,0.29510368663594466,0.054329642950807375,2.65683657412611,-27.14921228129332,3.5699744295830054,0.9712436246356446,0.2356926842367839,-0.023217991150650027,-0.022795310580120638
52.0,-0.08437480798771121,-0.035929339477726585,-0.02908141321044548,-4.460208909370199,-0.5246221198156682,8.708912442396315,0.40563556067588324,-0.570794930875576,0.052774577572964665,2.7025921658986176,-27.05949500768049,3.44758064516129,0.9714701985821812,0.2348952335330261,-0.022183776411674343,-0.023192178333333337
53.0,-0.08260983102918587,-0.03293010752688173,-0.027605222734254996,-4.37460138248848,-0.5375107526881722,8.75053149001536,-0.29660618279569895,-1.4383112519201229,-0.15180011520737327,2.7373607910906297,-26.5005616359447,3.5144969278033793,0.972558114955453,0.23017289390168974,-0.022891362218894002,-0.023527243198924734
54.0,-0.08481029185867894,-0.03185675883256529,-0.01993625192012289,-4.202397465437787,-0.5962407834101382,8.827404761904763,-0.184559811827957,-2.284545410906298,-0.26452332949308754,2.750880856374808,-25.388539266513057,3.8577956989247313,0.9745711928870968,0.22074064624884795,-0.026106761961981563,-0.02368217951036866
55.0,-0.12371159754224272,-0.038327572964669744,-0.033516513056835645,-4.0544769585253455,-0.6383582949308757,8.8932346390169,0.33491263440860214,-2.2848886328725038,-0.8550187211981567,2.830556355606759,-24.425595238095237,4.100772849462366,0.9762797275403226,0.21266445717281107,-0.028319749928571426,-0.024406702388248852
56.0,-0.11514208909370202,-0.02868394777265745,-0.043302611367127514,-3.849254608294931,-0.6769976958525346,8.981355222734255,0.13000672043010753,0.14868471582181275,-0.25213133640553,3.5679243471582183,-23.126759312596008,4.3079973118279575,0.978355288145161,0.20183536496543777,-0.029282565843317968,-0.03077162418202764
57.0,-0.11460271252482113,-0.0325948259713012,-0.041560825746506325,-3.842742666067213,-0.6973621445431044,8.985496553145254,0.21737477052189877,0.352526366565509,-0.16621122288411824,3.941325961934735,-23.079512991270466,4.431302452137425,0.9783666019268289,0.20159312077323815,-0.029631518022760484,-0.033956486679723494
58.0,-0.11919000786782064,-0.03166738788355626,-0.041254917387883575,-3.884616247049565,-0.7037324940991343,8.968528127458693,0.02579661683713612,0.2573760818253344,-0.046948760818253346,4.1520185877262,-23.340111132966165,4.4765022619984265,0.9778579746494883,0.2039110232271833,-0.029488481266915816,-0.035724239529307616
59.0,-0.1246433910306845,-0.03687804878048782,-0.04170810385523212,-3.930489575137686,-0.7134226986624701,8.947921321793864,0.12882572777340676,0.17289166994492525,0.00349134539732494,4.257460906766326,-23.63104346970889,4.547021292289536,0.9773032679537763,0.20644454913375296,-0.02974744508910307,-0.0365990004783635
60.0,-0.11717291553188486,-0.028308544654925466,-0.03836707922290143,-3.9664343036978758,-0.7093442070648991,8.932550404486676,0.15534545280316325,-0.027553984092880637,0.06661074714034981,4.325056833656116,-23.8626539205451,4.536334389941294,0.9768797860820371,0.20843753604971352,-0.029382380606069326,-0.03713790497015777
61.0,-0.12255823195949082,-0.03267443361778532,-0.038340797675966855,-3.9787010228166793,-0.7045269422421268,8.928581653856243,0.0332170812402913,-0.13734050011095644,0.04464609937662652,4.31966047327967,-23.934426758659647,4.518520017551292,0.9767488561781155,0.20908917664179227,-0.029206997952228198,-0.03719368509394984
62.0,-0.12642467066109864,-0.03715153624240958,-0.04207362464443505,-3.9885401258851294,-0.7086285379975386,8.923681070830561,0.04842404022675462,-0.11836045461881418,-0.0039849754887127005,4.323136688252738,-23.99816833605681,4.544394745203656,0.9766205020977123,0.20964914366708023,-0.029348988393895374,-0.03725933934083801
63.0,-0.1185278349371583,-0.032273643809639097,-0.038835396114507065,-4.023402242328875,-0.7109413343016804,8.907734319836992,0.10551119399221287,-0.08396877963041417,-0.02553202354294014,4.350076408642498,-24.222087708547683,4.563449339556981,0.9762065853903197,0.2115472177776786,-0.02932344618514595,-0.0374111535437471
64.0,-0.11331633682341787,-0.03365698319514214,-0.033591085154027735,-4.03863257277734,-0.713131957473421,8.900601030886236,0.03869309699610643,-0.12814870433133613,0.043836810809175085,4.363546268837378,-24.316941031693197,4.580842613326878,0.9760296276911276,0.21236415128803285,-0.02936676701999233,-0.03746057433638969
65.0,-0.11344394177812746,-0.03236860739575139,-0.032740952006294274,-4.061380802517703,-0.7121730920535014,8.890845594020453,0.18058000590086543,-0.06504106018882769,-0.004399832808811961,4.369738394964594,-24.463655586152633,4.577207907159718,0.975754502096184,0.2136074392279701,-0.029238026409913444,-0.03757435447423289
66.0,-0.11944374508261212,-0.030434303697875704,-0.038455153422501984,-4.063900078678207,-0.7112478363493318,8.88799134539732,0.043339398111723035,-0.22427960267505903,0.06098052714398111,4.373377261998426,-24.473864083398897,4.570862018095987,0.9757313528343822,0.21374560710188817,-0.029122416930763177,-0.03764307840243902
67.0,-0.12679032258064515,-0.035322580645161306,-0.041459677419354864,-4.063661290322581,-0.7129032258064517,8.888758064516121,0.10357862903225806,-0.1640625,0.020866935483870967,4.375,-24.475100806451614,4.581905241935484,0.9757305997177418,0.21372523229838708,-0.029193803467741933,-0.03767862718548387
68.0,-0.12681333595594022,-0.024896734854445327,-0.04193135326514558,-4.077151455546813,-0.7169421715184893,8.881895357985833,0.08553673288749017,-0.28429017505900867,0.048904651848937844,4.387588512981903,-24.56434156176239,4.613624852478363,0.9755573965163259,0.2144932475039339,-0.02936909266837135,-0.03770887238335955
69.0,-0.1233234380358692,-0.025378578345336814,-0.04366160301801531,-4.07387411487018,-0.7239696382819907,8.883492964352715,-0.031345699933426126,-0.20810029327805685,0.034242829439770826,4.31843238717747,-24.539623996348524,4.657788827190381,0.9756105352727409,0.21428140402884868,-0.029876902059165003,-0.03712503179765578
70.0,-0.11415365450180556,-0.02780622465653938,-0.04260499505739476,-4.093558025177025,-0.7376138513990598,8.873581159595712,0.09047634358167404,0.05822303884484256,-0.02887152882850168,4.306393612943573,-24.669912804625874,4.745477074885513,0.9753395510879834,0.21541689641765016,-0.03061375591264702,-0.03695371194721499
71.0,-0.10553257075995076,-0.029300929008049394,-0.03469195464907504,-4.125310188827693,-0.7430673505618433,8.857802971615326,0.01842611435574654,-0.2795277164155016,-0.0408169357360447,4.319453690814823,-24.88052890919728,4.789315051998225,0.9749362499498732,0.21718811378415942,-0.03081359485600879,-0.03709275558060987
72.0,-0.10260499505739473,-0.035162561278218256,-0.03159597732453752,-4.1346994492525555,-0.7531707720551151,8.853119227743147,0.13000438782303456,-0.07681022917549274,0.01620947568036474,4.350452651859024,-24.939256390082512,4.851235146966854,0.9747937082531626,0.21772154461788615,-0.031229866000585037,-0.037370309778208155
73.0,-0.10226237164356754,-0.0305592507413908,-0.03248957009421212,-4.1697612116443725,-0.743245496177046,8.837299189009258,0.08039361798704836,-0.06431974873408783,0.0376090651415199,4.390657089108112,-25.16416005971474,4.801551877181303,0.9743714904641111,0.2196307448738526,-0.030629845891716585,-0.03761779382694828
74.0,-0.0923007474429583,-0.03705133752950433,0.0038337922895357902,-4.165558025177026,-0.7607435090479935,8.837143391030683,-1.2276381785995278,-1.0896919256490953,-0.3759121754523997,4.392857494099134,-25.134318450039338,4.9104740361919745,0.9743843249789537,0.21940813493154993,-0.031608027438827686,-0.03759120718725412
75.0,-0.125743115656963,-0.0029409913453973206,-0.06503068450039343,-3.9789040125885125,-1.371500786782061,8.825793469708891,-3.725361428009441,-1.6128147128245476,2.2538281864673486,144.1843823760818,-23.937421321793863,8.804833792289536,0.973852092711251,0.20703441936900077,-0.07123210665892997,-0.001826353190401253
76.0,-0.14463001573564124,-0.002737214791502752,-0.04504091266719121,-3.7977604248623127,-1.52971577498033,8.88823111723053,-0.7390575826121164,-1.5935828088119592,0.8397140538945712,251.37004819040123,-22.789348937844217,9.736873033044846,0.9729443855295045,0.1924266799559402,-0.0902361549738395,0.054573302869787566
77.0,-0.13840122138548577,-0.012873215690682251,-0.03667637031209023,-3.831713161739912,-1.5432321194410097,8.878950620059197,-0.2789145919973024,0.18439619160016463,0.5016722631224009,303.0698119216215,-23.00403986830767,9.844653394402608,0.9694471226180548,0.1904664582030085,-0.10035167014840207,0.09864668004280468
78.0,-0.11350449589749353,-0.025562717770034847,-0.030452755610505422,-3.895529691656365,-1.5561080233037345,8.852619253681016,-0.2866710103592971,0.16386668258963694,0.26754237149226334,327.91737336555394,-23.410097563317223,9.962481852497096,0.9658900215752222,0.19099430754967034,-0.10781520165600765,0.12901156511281892
79.0,-0.10069579633584354,-0.029507165336630337,-0.026669926192349487,-3.9894664587314077,-1.5646225600389636,8.810333820388896,-0.06896554550222919,0.3626289058109474,0.2517399357461317,339.7652895053576,-24.016565918755383,10.065767135925967,0.9625636247593852,0.1940420561982223,-0.11325744847316511,0.14892700181850627
80.0,-0.10742047881308306,-0.032644711700573245,-0.02709302761230378,-4.074180810010864,-1.5514766026001263,8.775231426323481,0.23683779176501443,-0.29434078903001015,0.02138408077629163,341.1772264059046,-24.554175096474466,10.022349293769434,0.960335555545015,0.19745762639346592,-0.11536942684545351,0.15890955263909184
81.0,-0.10171181297066426,-0.03137349668427561,-0.026107489415907993,-4.02852628226743,-1.5243142257689848,8.800849387433967,0.1698793600839234,-0.463727239518939,0.060603527406241794,340.63309097635903,-24.260688059645574,9.820011192911469,0.960302562567944,0.19468421843276756,-0.11436774152264809,0.1636033363549511
82.0,-0.11432608369862499,-0.03179751601663483,-0.021156944288336893,-3.9961491701322536,-1.5166779251433058,8.817186710876326,0.12290015829305757,-0.14456827675995657,-0.05962321100745571,340.47916643250534,-24.051576842381326,9.754387832040763,0.9605117326898766,0.19286502550155482,-0.11390427195311154,0.16499107325905737
83.0,-0.11188654415345997,-0.030772029897718343,-0.022717489041249865,-4.024414830841856,-1.51674142032895,8.803992740998837,0.0038223909744857856,-0.039930067719456015,0.031848340732831285,340.4504367108763,-24.23304168539957,9.767218877617923,0.9601546974662898,0.19436363188288186,-0.11421705913707804,0.16512630950203253
84.0,-0.12162472368963319,-0.03072255341039764,-0.03087115146851576,-4.045894656942845,-1.5269142378733251,8.79215362856393,0.05459096699261924,0.01530882366715371,0.025029706966911924,340.42797373178223,-24.37174726949879,9.843781197493826,0.9598235453622808,0.19541545975823166,-0.1149943597752181,0.16527237045748855
85.0,-0.1441107489415908,-0.04268788960842463,-0.045649285411677246,-4.04959652201981,-1.527989377001179,8.79029455621745,0.09040032220598704,-0.49257240268255215,-0.004345025548802103,340.4182711400847,-24.39925569120101,9.854854308424333,0.9597679558706566,0.19558500983879323,-0.11509531923438322,0.16539188328116364
86.0,-0.13870368288936347,-0.036355746535132856,-0.04407169227310849,-4.062009118602351,-1.5484518088782453,8.781189764340038,0.001582930575849538,0.06336171368626126,-0.03964300844709971,340.3967339178,-24.481369584388858,9.99373812982192,0.9594869992964612,0.1961093848289167,-0.11633544023874945,0.16552453765159678
87.0,-0.1238246974635645,-0.03755238152877809,-0.03649690042451648,-4.10628386693296,-1.5617082018427415,8.758313214192047,-0.010715222359596866,-0.10812048068637369,0.0033639796474178828,340.4738144411974,-24.75728097630143,10.10411729465132,0.9590189658992139,0.1984497930950248,-0.11732790602810801,0.16472328731124292
88.0,-0.10869806301749654,-0.026648694604634815,-0.026827559275238277,-4.120169583236064,-1.569894039477438,8.750531415083735,0.1171702306020756,-0.04361957214042187,-0.01485506854802685,340.4874352543929,-24.84919060335809,10.155385260228886,0.9588400811178095,0.1991586440436722,-0.11782656741881589,0.16454838920477655
89.0,-0.1256716121539096,-0.030892585515716917,-0.03330956127533627,-4.140795296167244,-1.5675045052639465,8.74242699786445,0.01577597551609157,0.0582977408115095,0.0365395873140759,340.51522300354054,-24.9767820262448,10.156352679742234,0.9586306429005097,0.20028143385971864,-0.11792746373835747,0.16434495427070916
90.0,-0.14740032220598706,-0.03405919598366492,-0.044727361282829434,-4.143296841632008,-1.5721111235997145,8.73877801506126,0.021068431306432885,-0.0724640328200517,0.01882422914090892,340.50904799370574,-24.994918230864336,10.177823517290472,0.9585506186841259,0.20039177336937541,-0.11822729305466262,0.1644572453047094
91.0,-0.15188269454123116,-0.03895328013187968,-0.04837469559027388,-4.151569742609865,-1.574253830879322,8.735695065752502,0.1487128151811472,-0.29734531302686296,0.006609203476827395,340.50656471282457,-25.041027172080476,10.197954834963095,0.9584481781107492,0.20076463239672548,-0.11843559170829118,0.16445431244779135
92.0,-0.12849145779476231,-0.039868907122250954,-0.056415252332246826,-4.100364504889287,-1.5798216439998494,8.757656082574652,0.3189156691394103,-1.048412971600914,0.25688961166685403,340.4118903609831,-24.714135733955267,10.21406068524971,0.9588968478429807,0.1978501462624293,-0.11837035526518302,0.16532046288194518
93.0,-0.13498689633209696,-0.041577329436888855,-0.04895010490427486,-4.069966449364952,-1.5521516522423284,8.776957185942823,0.09904128498370238,-0.20198586368064148,-0.03396305168408825,340.326912922427,-24.519188876868604,10.021298026488328,0.9592755925889251,0.19634703911956275,-0.1167659810442284,0.16607997996435125
94.0,-0.1235216739725001,-0.04332092278296057,-0.041124246000524535,-4.063394515005057,-1.543362116443745,8.782418109100444,0.012096247330560868,-0.21482861732419167,0.0485678693192462,340.23863287250384,-24.477563188434303,9.959036110018356,0.9592818585202694,0.19598915082187818,-0.11634766040114647,0.1667956791999176
95.0,-0.13503503053463714,-0.0494386871979319,-0.04236454235510099,-4.053003709115432,-1.5292415420928402,8.790293731969577,0.22734348656850623,-0.24728326027499908,-0.08136122663069947,340.2386712749616,-24.406599134539732,9.861952530815628,0.9594770799294895,0.1955213968665842,-0.11549226576508936,0.1668293790031846
96.0,-0.1364915514592934,-0.052148139822412065,-0.040606346708628394,-4.0381619647072045,-1.525006294256491,8.797632310516658,0.09003877711588176,-0.23512864823348695,0.1070229665430295,340.13788402457755,-24.316684697088906,9.828315958562811,0.9595201526390171,0.19467483129481844,-0.1153097239525683,0.1677032562671312
97.0,-0.13725806451612904,-0.04993351691581434,-0.042507474429583025,-4.06714319433517,-1.529583792289536,8.783552714398112,0.011580448465774985,0.049395161290322565,0.011696007081038552,340.09354838709675,-24.504209284028327,9.873364968528717,0.9590798417741937,0.1961892987234461,-0.11594713900393391,0.16802495022265931
98.0,-0.12578874901652243,-0.04303914240755313,-0.0372136113296617,-4.102375688434305,-1.5465975609756095,8.76429405979544,-0.007388375295043272,-0.09631933516915814,0.1195134244689221,340.04274193548383,-24.72808320220299,10.004567023996852,0.9584954698328088,0.1978904432641621,-0.11731301921479151,0.168379725225413
99.0,-0.12687824547600313,-0.03783005507474431,-0.03896970889063731,-4.131768489378441,-1.5588552321007079,8.747272029897722,0.07170903815892997,0.01741492918961448,-0.014109215184893789,340.01874999999995,-24.912327891424077,10.100595003933911,0.9580439740454363,0.19931842178933906,-0.11836028829287959,0.16854320491915803
100.0,-0.13925767112509835,-0.03106018882769474,-0.043420338316286416,-4.121533438237607,-1.567734067663257,8.750599724626278,-0.03236624704956727,-0.33358084185680564,0.10673067466561761,339.98845766129034,-24.851224429583006,10.153876130999212,0.9580799634380408,0.19867154834225015,-0.11875345856982689,0.1688419888829661
101.0,-0.13500786782061375,-0.0293607395751377,-0.036302911093627085,-4.124323170731705,-1.5777621951219507,8.747642604248625,0.09248623131392604,-0.143705743509048,-0.0625368804091267,339.93936491935483,-24.872336005114086,10.213102380015734,0.957938282384343,0.19872842571144766,-0.11934473023249406,0.1691457892358379
102.0,-0.14032179386309995,-0.036447678992918967,-0.039959087332808826,-4.120428796223445,-1.5872738001573568,8.748250983477575,-0.025334382376081828,-0.42473200236034614,0.12321252950432729,339.91760916601095,-24.849230428796226,10.272934697088905,0.957911035468922,0.19843997870495672,-0.11981242753855231,0.1692968212391817
103.0,-0.140058615263572,-0.029848544453186472,-0.040734854445318665,-4.116075924468921,-1.6004110936270652,8.747795830055077,0.11840578284815106,-0.14753024193548384,-0.03777414437450826,339.87619246656175,-24.820268243509048,10.358659520062941,0.9578410276361133,0.198046567920535,-0.12051450836014947,0.16967482536388667
104.0,-0.12411762391817469,-0.02244866247049568,-0.03507218725413062,-4.119816876475216,-1.600689417781275,8.746166994492526,0.08520849724626278,-0.36602822580645156,0.10530709087332807,339.8373881294256,-24.845956677812744,10.356478658536584,0.9577374238127458,0.19821788661152634,-0.12063097267958296,0.1699653581671912
105.0,-0.11626042486231317,-0.02281707317073171,-0.03366915814319435,-4.127952793076316,-1.6038487411487021,8.7425794649882,0.10903570023603462,-0.19233870967741934,-0.05321843036978757,339.76277168568055,-24.892711201809597,10.38721110346184,0.9575227991966957,0.19852635190656964,-0.12102671410995278,0.17054018593843434
106.0,-0.11550118017309206,-0.026690794649881985,-0.03803619197482299,-4.096428009441384,-1.5816380802517704,8.760539732494099,0.2051730920535012,-0.49435483870967734,0.14783634933123524,339.7233969315499,-24.689525963808023,10.223318253343823,0.9579403141951218,0.1969587295137687,-0.1195739028009441,0.17099992552163654
107.0,-0.104375295043273,-0.028376868607395758,-0.030902439024390257,-4.1089103068450035,-1.584607395751377,8.754396538158932,-0.026544059795436642,-0.05453874901652242,0.06125590086546027,339.6052321007081,-24.77289535798584,10.250476986624705,0.9575876595562548,0.19747617916679783,-0.12009062221085758,0.17203962625413055
108.0,-0.10770261511370874,-0.032731576186729616,-0.028058278071259986,-4.153778333520663,-1.5810510284365518,8.733931250234164,0.22458202202989774,-0.024578860851972563,-0.10538934003971376,339.6884542074107,-25.064857536248173,10.24956762110824,0.9571871675966803,0.2000256673959574,-0.12023226555074744,0.1712088488312352
109.0,-0.10074194485032409,-0.027984985575662216,-0.023742750365291682,-4.16739506762579,-1.582009385186018,8.72580197444832,0.0033413650668764894,-0.25886201107114754,0.14026854791877408,339.7135032642089,-25.156169916825895,10.276411465943577,0.9570498675638793,0.20080556537697164,-0.12045038285641224,0.1709277747177419
110.0,-0.10860081113483946,-0.034778783110411764,-0.02850443969877488,-4.167322533812893,-1.5881982409801068,8.725296148514484,0.09400939221085759,-0.10622032005170282,0.02736713686261285,339.70035042242705,-25.150111168090366,10.321093837810498,0.9569907691690362,0.2007181462892923,-0.12079948343627064,0.1711051697903226
111.0,-0.11992540556741972,-0.04102648832939944,-0.03589738113971003,-4.1767782023903175,-1.589966055973925,8.720430332321758,0.07606215578284815,-0.1503631842193998,0.0631795361732419,339.7035522273426,-25.209758205012925,10.327230386647184,0.95687961058855,0.20121302383013,-0.12093701833910309,0.17106150990322583
112.0,-0.12338913866097187,-0.04268082874377131,-0.046005338878273586,-4.1328855606758825,-1.5950538383724857,8.739774568206514,0.2026406372934697,-0.8306644795998651,0.041277022217226775,339.6489830373534,-24.92468142351354,10.3377153113409,0.9573075467380201,0.19870734366958898,-0.12084826975963808,0.17160588355114081
113.0,-0.11049547600314721,-0.027672698662470498,-0.06992073170731705,-3.814407356412274,-1.8311376868607399,8.818346970889065,-1.4003392997639654,-1.6640993804091269,-1.680760719905586,341.3403348741149,-22.92224995082612,11.696618066483083,0.9615047554285995,0.18193946051534227,-0.12767142133929976,0.157686443459284
114.0,-0.16425472069236824,-0.040027143981117216,-0.08134520062942563,-3.8448947678992913,-2.132262981904013,8.741754720692366,-1.7321978265145552,0.36634047993705743,-0.1486538650668765,341.93870967741935,-23.097366738788352,13.687611870574349,0.9604335912598347,0.182030817452203,-0.14264523027458695,0.1523866553939811
115.0,-0.14848210070810391,-0.030681943351691575,-0.0571308025177026,-3.9509854445318644,-2.324563926042486,8.649848544453187,-0.9075998229740361,0.2115755310778914,0.07187745869394174,342.05858084185684,-23.77187868804091,15.036152635719905,0.9582881849840674,0.18645772514693157,-0.15351346392328874,0.15102489810641226
116.0,-0.11919823161365255,0.07647296841632012,-0.09312127683488816,-3.751351017196807,-2.205503353190214,8.761892398186653,1.244834401108988,0.8112121126971639,-0.4803679142782211,343.8520006743846,-22.504870555617998,14.149547131992058,0.9632705222003669,0.17842355241467162,-0.14271172476003147,0.1362964729792814
117.0,-0.13926866734105128,-0.17619309879734749,-0.0791570192199618,-3.9912970664268856,-1.6524959724251622,8.75706342962047,3.057212637218538,-2.117776123037728,0.8098750515154921,344.2905754748792,-24.033513169233075,10.655344966468098,0.9637655743535274,0.19534372538908246,-0.11474499129819041,0.13254272729609232
118.0,-0.16511033681765389,-0.09669214341913007,-0.11060919411037426,-3.6294211531977076,-1.4054572702409052,8.96022329624218,0.1126690644786632,-1.7688851110861339,0.5148903188340639,347.68575783972125,-21.748709771083888,8.933617605185269,0.9722291955992658,0.17990693958675208,-0.09405692989771833,0.1044046262208235
119.0,-0.2092394440073433,-0.0701273837623169,-0.0929234573451725,-3.4066134652129936,-1.3510977483046718,9.063150500168597,0.8436832640215803,-1.8970650219175003,-0.7935493237420852,348.7749498894758,-20.332103986362444,8.485453898317786,0.9760635806822524,0.1691282604008842,-0.08788687253418753,0.09554025252594506
120.0,-0.24247180697613424,-0.1169126297253756,-0.08130437226031245,-3.3497268742272683,-1.3816661046794798,9.092122063616948,-0.10252402495223101,0.3581895582780712,0.6396140084672735,347.8469064946986,-19.981477838971937,8.638453739088082,0.9760749506086321,0.16545561686448615,-0.09021195031902138,0.10361021109774829
121.0,-0.21631898392716645,-0.10737589449627216,-0.06668539957288974,-3.511579183994605,-1.3980128133078566,9.033444606796296,0.3425147989959163,0.12568609269042,0.5152743434116368,345.5167448765501,-20.98999662807688,8.792076448990297,0.9721527276718743,0.17212420572327747,-0.09565296734479789,0.1232014264549848
122.0,-0.16844509385186018,-0.07754553969502828,-0.05526402158030798,-3.6007762167022594,-1.4296657300213558,8.99774748042411,0.1788842681053539,0.10210838859540669,0.21674909145404814,343.5112982840658,-21.543650949758344,9.024091922370836,0.9689133788107602,0.17495534176801167,-0.10098222737814243,0.1401184128270203
123.0,-0.13587460192574274,-0.06762182008916863,-0.04195594020456335,-3.7120450339065596,-1.4385554681353265,8.952627627290093,-0.01999667490914539,0.29181887152972913,0.1818731032932449,342.25230765988533,-22.24510649657188,9.121702540182085,0.966287108262298,0.17980481468903373,-0.10430442833951517,0.15060614561811098
124.0,-0.12907897793263645,-0.05714836461728673,-0.04077958862537935,-3.8257808624630023,-1.4896205462515453,8.896467423476073,-0.15160915664456182,0.4580593645798209,0.25449121426698135,341.5215393297366,-22.96866008205013,9.499047900041212,0.9639684327109137,0.18491320559645574,-0.10912135681184668,0.15653170373998726
125.0,-0.11890538009066726,-0.04910825746506314,-0.033908021430444725,-3.962864767149975,-1.483394814731557,8.83731448802967,0.4867024465175527,0.7649711044921509,-0.07809397362406802,341.32364666460603,-23.83577224064291,9.520276497695853,0.9622224197818925,0.1921396769102881,-0.11038803609784198,0.15793403891562696
126.0,-0.3376595330318776,0.30548783297740806,0.02891911563390714,-3.6098444959839524,-3.0179752221290377,8.106412796880536,-2.2470409573379677,16.380987640244623,-42.502882751100195,263.6059725233297,-21.802432157158997,20.182788367873933,0.922741675280605,0.21882552387919946,-0.17287370803187405,0.01745650244012096
127.0,-0.607511218128842,0.5655705293919298,0.24769342878469552,-2.654168215733912,-4.089850514290325,7.873278979085427,9.431116618105209,-4.159859002458333,19.99719773735313,204.2924771890842,-15.99710821567627,26.738269183936964,0.8911142785072379,0.2134191781613739,-0.20618591095545313,-0.1265956484654234
128.0,-0.3984337964684149,0.27866314488029664,0.10475224434626482,-3.180532648573561,-2.9444206488502314,8.381490488006616,4.204277587086398,-2.693980000461117,9.813988653622802,277.043003187476,-19.101146273736752,19.08506681163054,0.9319062373112225,0.1990224359962015,-0.15864559391090627,-0.02001427471351047
129.0,-0.27783929773652205,0.1322809988211338,0.041750264489199225,-3.498588465797768,-2.252147198887634,8.63555019524112,2.958790075266069,-0.5170824471227695,5.2007127640426605,313.8006148171658,-21.01023854864815,14.51007750220522,0.9525810312022236,0.19564419920782392,-0.1281861568504269,0.030052558129128444
130.0,-0.19876772499879186,0.05427395263450006,0.00735887208199798,-3.7366213281744454,-1.8865284344069138,8.732188289333122,1.3049735331933356,-0.24273474853234878,2.715119434173741,332.3844201478958,-22.46085751474219,12.142317585728515,0.9622604763859266,0.19845564139749405,-0.11203318513618343,0.05324412655866334
131.0,-0.16021008453332844,0.0036502204819497414,-0.01736476497173075,-3.8856279389969446,-1.656804635610122,8.794181961648949,0.9013935934440925,-0.5481190991345397,2.652908120322764,344.31846905133295,-23.376233721158947,10.640487027244616,0.968239654646291,0.20026027593579032,-0.10179654290116279,0.06746211202390993
132.0,-0.13085101000859972,-0.01878779298483158,-0.028722705066510538,-3.9904067114339568,-1.5252128016760294,8.818877271147056,0.15062119188333667,-0.4227490656963021,0.11728067306460761,351.20805004986005,-24.01606544928915,9.810717303944887,0.971753538641694,0.20229240726224998,-0.09577185994654913,0.07445267833050336
133.0,-0.1311876017784934,-0.022268896492415792,-0.031812965436481086,-4.005429162168591,-1.506287852450918,8.815591861379982,0.21966543465134578,-0.07465578284815105,0.1441746107258522,351.55841010557515,-24.113274660128447,9.693891918101475,0.9718950669740727,0.20348227503031854,-0.09424464109827457,0.07147144234267103
134.0,-0.11581904012588513,-0.017059008654602678,-0.031037765538945723,-4.039358772619985,-1.5009323367427228,8.800831628638864,-0.16229838709677416,0.17013670338316286,0.21541601101494884,351.52950924468917,-24.328668371361132,9.678102871754524,0.971500913610543,0.2053182751825334,-0.09419132558929977,0.0717138163721479
135.0,-0.11533674272226593,-0.031749016522423304,-0.03340479937057436,-4.096295436664044,-1.51460306845004,8.771326121164439,-0.08994148308418566,0.10175304878048781,0.07445171125098346,351.4080423878835,-24.69608575924469,9.793619689221085,0.9706725735322581,0.20830744981077892,-0.09542024098347757,0.07266817028756883
136.0,-0.12070141620771047,-0.03925373721479152,-0.03899980330448468,-4.116833792289537,-1.5199175845790722,8.760552911093624,-0.007844463021243107,-0.17092225609756098,0.07125417977970103,351.3443142702596,-24.825521243115656,9.840309057828481,0.9703598626197874,0.2093451998149095,-0.09592923860346182,0.07323463846400471
137.0,-0.12556038552321008,-0.04196557828481513,-0.038197482297403634,-4.13354189614477,-1.5249305664830848,8.753191778127459,0.17095176042486232,-0.009075039339103072,-0.012835611723052719,351.33296862706527,-24.930250540912667,9.881167633752952,0.9701357490881197,0.21021353454051928,-0.09630273967269865,0.07327372945377653
138.0,-0.13108261211644376,-0.03980133752950435,-0.042018095987411505,-4.149694335169158,-1.5188402832415426,8.746035405192764,0.058081726986624706,-0.2114427616050354,0.16205497639653815,351.2925427812746,-25.036118214004716,9.852957808811958,0.9699425259311566,0.21109069873800157,-0.09611277057828482,0.07359212605350116
139.0,-0.12660267505900868,-0.03390145554681355,-0.03639614476789931,-4.1565025570417,-1.5271369000786783,8.741448859166013,0.06977650472069236,-0.11141079858379228,0.07787052517702596,351.1960796125098,-25.083480035405188,9.901144522029899,0.969749157905783,0.21139218213532657,-0.0967612187596381,0.07439254747600313
140.0,-0.1355928402832416,-0.03685798583792291,-0.041543666404406,-4.168519669551534,-1.5196628638867034,8.73712706530291,0.08803107789142406,-0.20102773406766328,0.06504474822974037,351.2054533831628,-25.155369787568844,9.86162962234461,0.9696474883957512,0.21205158684028325,-0.09641375594335169,0.07431640583241539
141.0,-0.1311349986886966,-0.03980529953917052,-0.03787460192574278,-4.179066511183544,-1.5268763159866618,8.730755657337681,0.03347125435540069,-0.11515948728035667,0.06297973802030647,351.1827864495523,-25.224745232475364,9.916554386309992,0.9694666299799746,0.21259609870581844,-0.09690039784148215,0.07449845196963394
142.0,-0.14514411224757412,-0.03777764976958526,-0.04001794612416172,-4.171690513656288,-1.5212244483159112,8.735381860926905,0.25398361104866807,-0.5650898242853396,0.01276507062305646,351.1739537086471,-25.17431818075381,9.868509047993705,0.9695824460867615,0.21216790769968344,-0.09654006933203141,0.07456818721868794
143.0,-0.13046260911917873,-0.04298847926267281,-0.03819983327713462,-4.144077975722153,-1.5314284683975872,8.747010246899706,-0.12726966720992094,-0.34301438218875274,0.08629324959724251,351.0434464683789,-24.99627607386385,9.924121075456146,0.9697902369744482,0.21052451319565588,-0.09719870065814318,0.07564443149221646
144.0,-0.12288453036604097,-0.039760368663594475,-0.0351200779288899,-4.164680116893336,-1.5462585890375036,8.734109962159529,0.10226738413697502,0.0203778895507849,-0.001258617136862622,350.9683210164475,-25.131026141770633,10.037211747405493,0.9694153979227079,0.21156637588411825,-0.09825996493391032,0.07624357623401146
145.0,-0.13994344535611253,-0.04202023153872093,-0.04198962196995243,-4.182041081263346,-1.5488570679255176,8.72495427297591,-0.131473506987374,-0.29134528024427714,0.2204564506762579,350.8713064562961,-25.244481402907347,10.067853513356562,0.9691142474940057,0.21240360978706305,-0.09871185073603464,0.07711194353006633
146.0,-0.13804672923457342,-0.045370012363718126,-0.04259375819564648,-4.188321035180396,-1.5514520624929746,8.721889110561612,0.16114449861376495,-0.07182986540406881,0.02977917415982914,350.73002328734407,-25.282117860421117,10.087931969109437,0.9689276861796579,0.21262614601179236,-0.09912779178694128,0.07832983969083213
147.0,-0.13898078003821512,-0.037588231988310676,-0.03245266194597431,-4.150181859053612,-1.5384341351017194,8.742144299576637,-0.030868668277696604,-0.48667528380352926,0.06902080757558726,350.60970762616614,-25.032902827732194,9.982297637780526,0.9693804599827281,0.21046237118262706,-0.09844251512940691,0.07934468167271741
148.0,-0.125418961447679,-0.03311900078678207,-0.024925255704169952,-4.151383556254917,-1.556366837136113,8.738844807238396,0.057856756490952004,-0.6081849921321794,-0.047992476396538156,350.5391424075531,-25.03939688237608,10.09800845790716,0.969236565008261,0.21040562619807238,-0.09952066271754523,0.07994660945771047
149.0,-0.10855704169944924,-0.031206923682140057,-0.030325727773406773,-4.167381589299763,-1.5598158929976398,8.729645948072383,0.10160306845003933,0.06913847364280096,-0.08083202202989771,350.6224822974036,-25.147669158143195,10.123790322580643,0.9690712916428009,0.21138660562549172,-0.09962599929661684,0.07921103214004721
150.0,-0.1009080963620696,-0.04057498782361097,-0.029368401333782934,-4.194647484170694,-1.6143817391630142,8.707186130156233,-0.44354346970889064,-0.2523334176314113,0.25679793750702484,350.3960719437263,-25.323890777790268,10.499000599452998,0.9683092147847213,0.21247678279139035,-0.10309164915994154,0.0811053977233899
151.0,-0.08401423700872954,-0.0281907197182571,-0.06359057360158857,-4.230270240905174,-1.7347085721778879,8.663128863661909,-0.40666551927616046,-1.5682644664868306,-0.9580241232999887,350.5131913613203,-25.5557052236709,11.320212337492038,0.9672317344261923,0.21422864741457795,-0.10950324332505337,0.08000040246909071
152.0,-0.10570499419279908,-0.032242488104604554,-0.002471919373571614,-4.0913979056610845,-1.6343212412423664,8.748673007755425,1.0233588217938632,0.04083334504139968,0.02836402017534001,350.7479656649245,-24.664334712543553,10.578723399273162,0.9696223208952361,0.2071356500094133,-0.10294963408188153,0.07816595055791278
153.0,-0.09865894870930275,-0.04416559889101196,-0.011010153235172907,-4.106739275411188,-1.5556565883631184,8.756913116780938,0.533831628638867,0.31172211606908695,-0.0325165786220074,351.3323245663332,-24.76540828369113,10.065873796410775,0.9702315610000373,0.20871678058131954,-0.09777059817803754,0.07322397433944028
154.0,-0.09403207073545389,-0.046510022104829365,-0.014995241841819345,-4.130024240380653,-1.5155836049604736,8.755093851860178,0.2548042879622344,-0.05195758870031095,0.0694321119478476,351.61355115020046,-24.911638052152412,9.81197899104567,0.9703497661955338,0.21031902778239855,-0.09523406197100145,0.0708538147149601
155.0,-0.0951573564122738,-0.045549173878835586,-0.019416207710464206,-4.146089693154995,-1.496739575137686,8.752809598741148,0.23576907946498818,-0.02316581431943351,-0.00301435877261998,351.71340479937055,-25.012342643587722,9.709220102281666,0.9703262575255698,0.21132159804327305,-0.09416244061683715,0.07000151394964596
156.0,-0.10952989771833202,-0.052337922895358005,-0.027670338316286403,-4.141302124311565,-1.479703383162863,8.759382769472854,0.09590381589299762,-0.21678550354051926,0.09782405586152636,351.73089103068446,-24.970102281667977,9.588997344610544,0.9705029986368997,0.21105900510346187,-0.09319671405350119,0.0698999964162077
157.0,-0.12458398898505114,-0.05290381589299766,-0.038406372934697106,-4.1284874114870185,-1.4816298190401258,8.763692171518487,-0.01939171911880409,-0.1887920436664044,0.006253688040912669,351.75463217938625,-24.90755310778914,9.592541551927615,0.9706460417299367,0.21045289867289535,-0.09320181960739576,0.06970066008457908
158.0,-0.1353847364280094,-0.05291561762391819,-0.046888670338316306,-4.127292092840284,-1.4830084579071596,8.764100118017305,0.031483575924468925,-0.2853990460267506,0.09659962627852085,351.99067294453187,-24.888907602281666,9.601537913060582,0.9708094763044847,0.2105188617678993,-0.09285662409402048,0.06772411063906375
159.0,-0.12143492404527023,-0.05228007928342312,-0.038481349230365766,-4.073730517057031,-1.4804737285400147,8.788113851399057,0.12274395917811534,-0.69488818616474,0.15403285697714297,351.9240152615546,-24.54143542334927,9.556978246232525,0.9714264597357827,0.20754815202724988,-0.0925671631183502,0.06831420799167828
160.0,-0.11468038491799311,-0.044678690310476325,-0.03421156367891223,-4.029436462305069,-1.4570135165123361,8.812637374165302,0.2449411426496399,-0.5620339829328813,0.06373640783554238,351.9186313522564,-24.258080024813896,9.382164255885733,0.9720584010028244,0.20516990997143375,-0.09113565776983598,0.06845852769115782
161.0,-0.11511123887913817,-0.03856829873509655,-0.032366993483830625,-3.9968393955899835,-1.45491588492808,8.827972502975653,0.14833111420444228,-0.447391893118683,0.10966619762351469,351.8615186659,-24.04993891091206,9.353980436361434,0.9724300349860701,0.20335567855141323,-0.09094827924526418,0.06892219446477638
162.0,-0.1337357925316226,-0.038320341342371264,-0.04062094756803649,-3.9746038047973515,-1.4409394530855981,8.839395378159736,0.17027590328632813,-0.15116447527688676,0.06589722154975891,351.83560787740316,-23.907222602584277,9.25852050929008,0.972728649424585,0.20219320912621805,-0.09017648456755735,0.0691797521576439
163.0,-0.13460176723355322,-0.04346662228408886,-0.04149998991305051,-3.9973986765922245,-1.4605302104137665,8.826205753596,-0.09439833867941658,-0.01262860860618531,0.07846272367810526,351.76271321289516,-24.055703035163106,9.395238077225684,0.9723314313130986,0.20332805432923812,-0.09142940623942385,0.06974898024414453
164.0,-0.13822147915027538,-0.038192368214004735,-0.03910896931549962,-4.0245,-1.4695239968528717,8.813453579858383,0.21398259244689216,-0.0049960660896931595,-0.004477281667977971,351.7376893194335,-24.221058713611328,9.459483182533438,0.971974522221479,0.20469179962863893,-0.09205317931077892,0.06991096053894569
165.0,-0.14567643587726198,-0.02566974822974037,-0.031285405192761614,-3.997167387883555,-1.4578619197482299,8.827446695515341,0.23177001376868606,-0.720412077104642,0.18545805468135326,351.6759847069237,-24.051348593627065,9.371731166404405,0.972296105339693,0.20321129728481513,-0.09143055137450826,0.0704768842230527
166.0,-0.13932690794649882,-0.032817859952793085,-0.034533044846577515,-3.976538158929976,-1.4377612116443745,8.840257277734064,0.23233428402832415,-0.163574449252557,0.038306451612903226,351.5579514162077,-23.92223642800944,9.23242525570417,0.9725502691573561,0.202060250518096,-0.09049370695869392,0.07149572227104642
167.0,-0.13783418568056652,-0.03265597954366642,-0.0338518882769473,-3.9899645948072395,-1.426095397324941,8.836218332022028,0.016417928796223447,-0.11468454956726987,0.10380605822187254,351.49096429976396,-24.006087726199844,9.162927812745869,0.9724032255542878,0.20276117971616842,-0.09006243342033829,0.0720836595580252
168.0,-0.13472757671125102,-0.03850944138473645,-0.0370106215578285,-4.0218290715971685,-1.4361404405979548,8.819988198269083,-0.04912470495672698,0.13844905586152634,0.06410060975609756,351.42763940794646,-24.21312450826121,9.244619148308418,0.971937032406176,0.20444234002340678,-0.09090442827065301,0.07261704904917388
169.0,-0.13772934697088907,-0.03646420141620772,-0.043093627065302925,-4.041944925255706,-1.4423587726199847,8.810103855232107,-0.06902045633359559,-0.16945318646734855,0.08130409126671911,351.34702006294253,-24.345889063729345,9.294826907946499,0.971614781826908,0.20548501011801726,-0.0914726442926829,0.07322873215106215
170.0,-0.12948623131392606,-0.03726829268292685,-0.04042564909520065,-4.076334382376084,-1.4644996066089702,8.790917387883558,-0.09130605822187254,-0.06286880409126673,0.08436762391817466,351.2901258851298,-24.559524980330448,9.454430566483083,0.9710712184665615,0.20723651780094415,-0.09289592091502755,0.07367091754287963
171.0,-0.1855967741935484,-0.03674980330448467,-0.009284421715184904,-4.081546420141622,-1.5055896931549961,8.781642800944141,-1.1508113690007868,-1.8013744099134539,-0.866500295043273,351.3510031471282,-24.590688926042485,9.72755950039339,0.970854852156176,0.20741809838906372,-0.09498963820338316,0.07313178326789929
172.0,-0.11828619197482297,-0.06467702596380803,-0.06578304484657752,-3.7870832022029903,-1.9573542486231315,8.803008654602674,-1.0043248426435878,-0.3230170633359558,-0.09286855822187257,354.17476396538154,-22.737786437844214,12.497557287568842,0.9726045210112115,0.19364526464693155,-0.11284884837391816,0.04914333581963021
173.0,-0.11945712037765538,-0.049370574350904806,-0.02884343036978758,-3.8997403619197497,-1.8265853658536586,8.790361919748225,0.7020062942564909,0.131294256490952,0.45903815892997635,354.4979346970889,-23.445613690007868,11.70721872541306,0.9725870503619195,0.19992644079464988,-0.10560248963021243,0.046432050668764754
174.0,-0.10630212431156569,-0.04540519276160505,-0.028111723052714407,-3.9760660896931554,-1.6745554681353263,8.790645161290318,0.5393882769472855,-0.5547305271439812,0.34052911093627064,354.27630802517695,-23.922059402045633,10.764162077104643,0.9726012166247046,0.20394208346970893,-0.0982321222187254,0.0483442131628639
175.0,-0.09836911318421941,-0.04200854220523774,-0.02672586265033158,-3.9504346034243754,-1.6027518639241696,8.81921509122925,0.1776394664868308,-0.188246974635645,0.4897601251358136,353.853857573714,-23.76083464463677,10.284787006856241,0.9731877962024651,0.20224478665992282,-0.09505585665917349,0.05200667716009143
176.0,-0.10136000899179498,-0.03162189502079354,-0.0306800044958975,-4.042113446480087,-1.605069873740212,8.778163800532013,-0.2835248772994642,0.6329123112659698,0.592760668390094,352.69721301187667,-24.347593758195647,10.348186186354951,0.9715151404537109,0.20622267572177885,-0.09764912489528305,0.061712217919148785
177.0,-0.09755647971226256,-0.02725075868270204,-0.02592851522985276,-4.159435165411561,-1.6025018920235288,8.7258458656476,-0.16213517665130567,0.20972425162039635,0.4292088157056686,351.39740174590685,-25.102268554943613,10.401114139597617,0.9693761717602936,0.2114705226689146,-0.10047951329579259,0.07264706335296542
178.0,-0.10773024615038779,-0.02816747218163427,-0.030618860289985398,-4.213948896631823,-1.6115727398748647,8.698623955640482,-0.0017009478850548848,0.21729328237982837,0.13911758645236222,350.2492909594995,-25.45336677157094,10.491405810947509,0.9679033935725148,0.21336501099299385,-0.10337017396103554,0.08230609754351653
179.0,-0.12382263684387995,-0.03328987299089582,-0.03976025626615713,-4.249092465625117,-1.6074598553819643,8.682356824397738,0.03845912479862125,-0.033829755348244755,0.1353976995991158,349.8243553538646,-25.678281536847624,10.488341575812072,0.9672010330978229,0.21499269914087143,-0.10414727208594654,0.08588570080480311
180.0,-0.12388276947285601,-0.0372974036191975,-0.039984657749803316,-4.281135719905585,-1.6100279307631782,8.667053894571202,0.0371066089693155,-0.03936860739575139,0.03642309205350118,349.5353535601888,-25.885147029897716,10.524358280881195,0.9665991205051141,0.21647543708851297,-0.10498375829307632,0.08825301247678995
181.0,-0.13421125098347755,-0.037055468135326536,-0.04325354051927618,-4.3032193154996055,-1.6076968922108577,8.656347560975608,0.14062745869394178,0.018327104642014154,-0.09405241935483871,349.4612251671912,-26.03152906176239,10.516973593627064,0.9662673420700234,0.2176882556134933,-0.10511325942977967,0.08883480665538947
182.0,-0.13031864673485444,-0.032727183320220316,-0.040747836349331254,-4.31621911880409,-1.606856215578285,8.649822777340674,0.13038085169158142,-0.24927591463414636,0.08381441778127457,349.3818241050354,-26.113367918961448,10.519487608182533,0.9660473852594414,0.21829852559795435,-0.10530882083733281,0.08949356502360349
183.0,-0.1257209445419516,-0.022773537896669298,-0.039544306925699546,-4.326347979584014,-1.607957781072848,8.644350904799364,0.15003908692933082,-0.14085034875627914,0.018131102604450354,349.3287177028485,-26.189698072383948,10.531441746605742,0.9658708477778806,0.21884925882089612,-0.10549156638899312,0.08988608033003995
184.0,-0.1323685367871048,-0.01928193023865723,-0.04544554055962398,-4.3416739897920085,-1.6038377615041663,8.63794964594807,0.08651147894853639,-0.22342416631362344,0.10770466420545098,349.295936472392,-26.28184500393391,10.505816639431902,0.9656724919816821,0.2196605696201255,-0.10539047590417397,0.0901692059029232
185.0,-0.12009457523855635,-0.01753632310516654,-0.03781718412717627,-4.347630857995924,-1.601379935040046,8.63390401258851,0.09943689604389841,-0.27396129637475036,0.06081043595795759,349.2386940426476,-26.316915814319433,10.499171104924448,0.9655360687131069,0.2199581630398031,-0.10545628982856217,0.09069663993415236
186.0,-0.11992140248945912,-0.019637555730396022,-0.03805493352700279,-4.352710000201739,-1.5885184490306445,8.634422501966949,0.2217532631281648,-0.20176723355322884,0.01471875063043434,349.2835386027557,-26.352916011014948,10.41608830619944,0.965568317838064,0.22033033154350498,-0.10471960497328976,0.09030534648163163
187.0,-0.11509052028485545,-0.01918148439548912,-0.034531007282777554,-4.363687808912827,-1.590376455042466,8.628328481510618,-0.19230491839657848,0.07486382618168612,0.18251673172749094,349.2213572242732,-26.426113788355625,10.434834082289335,0.9653629919324074,0.22088387558685874,-0.10501592648743166,0.09081292513696058
188.0,-0.10862549173878835,-0.016601494885916602,-0.03316542092840284,-4.410906766325725,-1.6027771439811174,8.602035208497245,0.1672108575924469,-0.0170190794649882,-0.21923067466561763,349.2651037568843,-26.732411732887492,10.548144915420927,0.9647119476791896,0.22347473072974033,-0.10590039678383163,0.09036217196302124
189.0,-0.10278048780487806,-0.02016365066876476,-0.02865932336742723,-4.316251770259637,-1.5846184107002363,8.652231313926043,0.42029897718332015,-1.0519571203776554,-0.37486231313926044,349.678166797797,-26.115273406766327,10.376819433516918,0.9663516205774978,0.2186381768245476,-0.10359692506530292,0.08699996312667191
190.0,-0.10822423288749017,-0.03407238394964596,-0.03345082612116445,-4.259416994492525,-1.57206294256491,8.682781274586937,0.19063729346970887,-0.40959874114870176,-0.12553107789142406,349.8352527537372,-25.745677616050354,10.25866935483871,0.9672712920778912,0.21568168949095196,-0.10229697676160501,0.08578970900472072
191.0,-0.13235759244689224,-0.03719748229740363,-0.04291738788355627,-4.2465692368214,-1.56173564122738,8.691929583005505,0.12130704169944925,-0.1296616837136113,0.010208497246262785,349.886696007081,-25.662128737214793,10.1773775570417,0.9675387398981115,0.2150647763308418,-0.10153286502911094,0.08533361657159719
192.0,-0.13073426435877267,-0.03566404405979545,-0.047768686073957525,-4.262663060582218,-1.5685232100708106,8.682857002360345,0.019716266719118802,-0.3698318253343823,0.09155192761605035,349.8592606707317,-25.76573687057435,10.233186221479151,0.9672784013770651,0.21591108881058219,-0.102051858718332,0.08558864048092055
193.0,-0.11470833801655991,-0.02817457195309281,-0.033936570379528685,-4.269627037203552,-1.5708706680154356,8.679022395189392,0.07450627084035817,-0.24003784047057058,0.07086476949158892,349.76337529504326,-25.811213049342474,10.25268062034019,0.9671139307747461,0.21620341576377802,-0.10237604419979579,0.08637907952559852
194.0,-0.10493078191150576,-0.02764373758944963,-0.026629575512344995,-4.290785292795323,-1.5775724307819117,8.667055552433403,0.01865434509759844,-0.1106439202352853,0.11781645732643961,349.6556291797797,-25.946332331122846,10.305952205331385,0.9667373489639857,0.21726104230930837,-0.1030332283297366,0.0871709070571541
195.0,-0.11011861676220451,-0.036418642988273214,-0.030895432917462825,-4.309920872204113,-1.5788386347457943,8.657547937507022,0.04213967254879922,7.11850436476702e-05,0.009387059308381095,349.6178599527931,-26.069033101045292,10.328757352665694,0.9664483256957026,0.21826984314255743,-0.10330174447131991,0.08748398003664157
196.0,-0.12648889138660974,-0.037955190888314436,-0.038609793563373435,-4.312677194559965,-1.581158105728523,8.656080026975381,-0.12104267356037615,-0.050638089618223366,0.16291540219549658,349.5449105035405,-26.084457541868048,10.34577128058147,0.9663443836661048,0.21833835064917018,-0.10359626103424374,0.08812163979723502
197.0,-0.12184790753437488,-0.03744337042448767,-0.041000412123936916,-4.324886984376757,-1.5899614289460868,8.64840193323592,0.23058802592634223,-0.18825669233074818,-0.037862715896744226,349.51822629819037,-26.167548401146455,10.412042800007494,0.9661185082925332,0.21895893582419165,-0.1041936912527631,0.08837140716061594
198.0,-0.1191256884343037,-0.031483477576711265,-0.03552793076317862,-4.335894374508262,-1.5885938237608193,8.642927222659317,0.039056353265145574,-0.19542068253343825,0.10726052321007082,349.49951194925256,-26.234204120771047,10.409934352871755,0.9659764467726198,0.2195261392598348,-0.10421766881687647,0.08849315917348545
199.0,-0.11555605822187254,-0.0382173485444532,-0.041619394177812755,-4.315028520849726,-1.5862505900865465,8.653408339889847,0.07406815499606609,-0.28895431746656175,0.07491517505900866,349.4562364771833,-26.103480281274585,10.386500540912667,0.9662115830637293,0.21838807858772621,-0.1040632059917388,0.08889353000098346
200.0,-0.11204819040125885,-0.03541109362706532,-0.038176632572777355,-4.337300550747445,-1.5850688434303706,8.6430590086546,-0.0018772128245476,-0.1721233280881196,0.0558799665617624,349.42985714988197,-26.25226937450826,10.386874262391817,0.9659094811528324,0.2196024784470889,-0.10415360922167585,0.08911256247226593
201.0,-0.10678226310799088,-0.03665488510964515,-0.034748572696645094,-4.347555569004823,-1.5888464564546398,8.636110149488589,0.03324835078375597,-0.14575717686457262,-0.0482083055942222,349.4105648187375,-26.32328496641046,10.41765846597672,0.9657386280459157,0.22016669598708868,-0.10442862639609433,0.08925843243143901
202.0,-0.14919083932065835,-0.045260303818919094,-0.05095583068911159,-4.09426727534202,-1.7422888008922635,8.717413098048027,0.2948265657107121,-2.0444525740454145,-0.5135528433669662,350.0658569007703,-24.701561135559956,11.279548295593731,0.9683226782595917,0.20643073523250127,-0.10998601493777213,0.08385450871487651
203.0,-0.13227047866898378,-0.05281111178357443,-0.0372088358795676,-3.963144652619869,-1.6128202462368475,8.807384755160912,0.760267334782972,-0.9851737693201107,-0.10416528871731473,349.6769341545551,-23.852821283751652,10.368899836231169,0.9703700103060348,0.19932107941798155,-0.10299569335008196,0.08738365507340995
204.0,-0.13027292619523145,-0.0534315196998124,-0.037720074902805045,-3.9339814529818473,-1.52821814829545,8.839052723764567,0.3937597492168204,-0.3220715424098587,0.010889424878164036,349.35673025587704,-23.65906209742264,9.804404678147057,0.9709635740885014,0.19773034897177594,-0.09890218646969084,0.09016848076015108
205.0,-0.1488017856782609,-0.05650608243055136,-0.046041489064305746,-3.9506278232651173,-1.5008872999541762,8.83886103930164,0.10129015686647472,0.1607384223434577,-0.003149037560917972,348.68627843439015,-23.76430927451777,9.629042056815463,0.9703930843587669,0.19815463145766218,-0.0987017883517809,0.09582968174297879
206.0,-0.13832865010677758,-0.05067794387621297,-0.030564572327750936,-4.005820276497694,-1.506130268629876,8.813612266306997,0.11029677606683899,-0.15689979768461282,-0.12051604473418005,347.7754116556142,-24.114346127908284,9.690104810610318,0.9689463652730509,0.2003086743641677,-0.10092480816346333,0.10342425536956279
207.0,-0.14327891424075534,-0.02838119590873329,-0.05524940991345396,-3.7228654602675055,-1.873354838709678,8.848070416994494,-1.170193253343824,-0.31722069236821404,-0.7041724036191974,349.22995426829266,-22.337927812745868,11.91442269866247,0.9709342258154997,0.18517318396695515,-0.11628979286231314,0.09121146603225808
208.0,-0.17349607545614631,-0.025892107826608224,-0.05550732456633321,-3.8330387021842562,-1.77697058933723,8.829722893484696,0.25603896210333066,-0.5290992282042636,0.09770609709265299,349.90900297619044,-23.019777382825673,11.346424941927989,0.9710658456468755,0.1918944617047319,-0.11050199402959801,0.08543147015711289
209.0,-0.14326819901839574,-0.032337182945562176,-0.05061656550897307,-3.884051609156644,-1.6666788430557116,8.834083220935899,-0.020039994754786294,0.08918022460754566,0.19202341144955226,350.42388152841784,-23.34305401399348,10.66474472902851,0.9715789330048893,0.19545306765075304,-0.10406140233737965,0.08109518274791128
210.0,-0.11993248660597206,-0.03625326889213593,-0.042505863399647834,-3.9890661271589667,-1.6326136150762425,8.7962633846615,-0.05054419092578025,0.35391470907796635,0.07529597991832453,351.10614439324115,-24.012681240867707,10.501197969352965,0.9710722901879284,0.20188157635360232,-0.10158733518481886,0.07523940875298792
211.0,-0.10965546438874527,-0.030498782361095503,-0.03598149188865161,-4.091842268929602,-1.6328016934547227,8.749933423251285,-0.08381359821662734,0.19702029710389268,0.15787812371211268,351.50480803454343,-24.669794593683264,10.563467788767749,0.9701497156171746,0.20784938634753286,-0.10143409443347946,0.07179454149293771
212.0,-0.1059174253493687,-0.031870162226967896,-0.038738188902626355,-4.148906972387696,-1.6237454572702412,8.72697693979244,0.3525168830317335,-0.3208938640365666,-0.010606571503503054,351.585581633322,-25.028691553332585,10.53544652223596,0.9696180044568956,0.21102321657659884,-0.10109499009636207,0.07105952379918326
213.0,-0.11189880484058297,-0.03188362182008917,-0.027579539919823162,-4.148167003858978,-1.60710698362744,8.730946227192689,0.16857794996440745,-0.2449083375482372,0.029642950807388255,351.5397186200404,-25.024834447941252,10.426325411655613,0.9696878002507211,0.2109831242829231,-0.1003266108277509,0.07145080299790192
214.0,-0.10444133790416245,-0.0340184238132704,-0.028410737701847072,-4.176430276123039,-1.6084405885879134,8.717743274886669,0.1001911927241392,0.09213756509684912,0.03931744314562961,351.5403482213105,-25.208989804615786,10.450083068731033,0.96933388255278,0.21254301765759057,-0.10052269906710126,0.07143820291024128
215.0,-0.10701502379079089,-0.04383582480986102,-0.031060207560600954,-4.200174815480874,-1.6032727136487954,8.70776276647559,0.049037128620134124,-0.060685249709639955,0.015475253830879325,351.59965999775204,-25.3616017571466,10.428090929526807,0.9691052416433255,0.2139041275102469,-0.10024751863032483,0.07089718174141094
216.0,-0.10234228766250794,-0.04667007605559929,-0.028739387808624638,-4.232494960848225,-1.6089062230714473,8.690621745157543,0.2230630174965344,0.0934575325015923,-0.17332059495710164,351.77808039226704,-25.57028750327826,10.484221507249636,0.9687633153346447,0.21585526352302273,-0.10039195389108685,0.06938596748124835
217.0,-0.09995084485407064,-0.04281182795698927,-0.027487711213517674,-4.24865975422427,-1.6075192012288786,8.68315745007681,0.06410330261136712,-0.20600038402457754,0.07645929339477725,351.8545938940092,-25.674831989247313,10.483741359447006,0.9686107248655911,0.21681831713287253,-0.10023698771658986,0.0687696662795699
218.0,-0.0959585253456221,-0.040925883256528434,-0.02464247311827957,-4.218646313364054,-1.5950230414746547,8.699455069124426,0.2918202764976958,-0.49477726574500763,0.018260368663594467,351.8537562403993,-25.47830501152074,10.384007776497697,0.9690563939151304,0.21517120204569895,-0.09945050996044547,0.06876900284408602
219.0,-0.09726427447454196,-0.041908161927241394,-0.02858412011539471,-4.201956417893669,-1.5908364617286734,8.709027790266383,0.052717032426660676,-0.5620768704806863,0.13882874845453524,351.8181712702783,-25.369010270315833,10.341189445880634,0.96927595457037,0.21421108723832938,-0.09918326268409762,0.06910725677609494
220.0,-0.09553363493312352,-0.026116715372222852,-0.018417444082274928,-4.20582095088232,-1.587339889850512,8.707344348282195,0.3459425695927466,0.2964865263571991,-0.191571128844929,351.8469912610992,-25.397072339458994,10.322310832771345,0.9692531133184031,0.21449351646267467,-0.0989671273372485,0.0688203578993762
221.0,-0.09830664830841856,-0.030399526057472565,-0.023887518264583574,-4.2556553613577615,-1.5629638080251778,8.687466627327566,0.2958543493125023,0.10108920141620772,-0.1665590695365479,352.1461746234686,-25.719650818628,10.190175995653965,0.9689088996318607,0.21755502158548756,-0.09734051420225917,0.06624258221748905
222.0,-0.10057435090479937,-0.03333164737177327,-0.028380914915139943,-4.292535686186355,-1.5618568056648314,8.669560713349071,0.010587604435952191,0.0022128245476003214,-0.06702633846614964,352.26553543329214,-25.95964346596231,10.206815967929264,0.9685072355893372,0.21968809932018282,-0.09726789009385184,0.06520472923738338
223.0,-0.12006444119740738,-0.034473043347945015,-0.038787231651118366,-4.279532052002549,-1.5812049005282682,8.672103705368851,0.017894608669588995,-0.26766278895507845,-0.058282754486531044,352.29201790865835,-25.875583061706195,10.323070042336369,0.9686065853561125,0.2189335627975722,-0.09815408282342362,0.06499391442283915
224.0,-0.12089453373796413,-0.035257764789629484,-0.04274137349668429,-4.293804578322281,-1.5957102394065417,8.662401970701733,0.05539695028286688,-0.14357273987486416,-0.0670937769285527,352.3343252407179,-25.967433545015176,10.433255123449852,0.9683727225136189,0.21973594864898285,-0.09894954487119252,0.06459386612172642
225.0,-0.13041040050953506,-0.041440710351804,-0.04406346708628378,-4.289063579483723,-1.6079150275373717,8.663435240343187,-0.0935764864561088,-0.2502233899067101,0.1173555692930201,352.33298443295496,-25.934892847776403,10.510070342062868,0.968368690891986,0.21946681187134243,-0.09954550696939045,0.0646300257559477
226.0,-0.1357055936457982,-0.04054096886590988,-0.04555966430632051,-4.307497171331162,-1.6237482297403616,8.650753025364354,-0.004046307744183443,-0.0277916713498932,0.02154658873777677,352.31278450601326,-26.057228091866172,10.628854997939381,0.9680276480872203,0.22043515978460906,-0.10056162449649694,0.06484195880244276
227.0,-0.1232288786482335,-0.0369746543778802,-0.03954301075268819,-4.340598310291859,-1.6501612903225802,8.629304915514595,-0.16140552995391705,-0.164544930875576,0.07462557603686636,352.23267569124425,-26.2715821812596,10.821174155145929,0.9674224664055296,0.22211966099615973,-0.10227533201536099,0.06548097735637481
228.0,-0.10424116743471584,-0.044577956989247325,-0.032755376344086026,-4.400018817204302,-1.6819777265745004,8.592536482334872,0.013119239631336405,0.5056211597542243,-0.7445372503840246,352.3334077380953,-26.660152649769586,11.073317492319507,0.9665136870276498,0.2254605035817972,-0.10406140447926268,0.06449913860906296
229.0,-0.09070398261586303,-0.04851783372672437,-0.03401094938368739,-4.281459349593495,-1.696225094601176,8.64636865422802,1.7581491654490278,-1.364208499587876,-2.892846664137724,355.03268722368966,-25.88735037091154,11.096858023303735,0.9689256912376645,0.22113347778470271,-0.0992235356052883,0.04170935872821362
230.0,-0.0873761848563186,-0.05279923944400734,-0.012162732756359824,-4.232826448990295,-1.7080641602038136,8.663930294855945,-0.8819637237270992,0.9019431292383201,1.4095998534150087,355.98864703926415,-25.576134862875126,11.155233447135739,0.9697004839575422,0.2193594684246094,-0.09802719169377319,0.03372413894071972
231.0,-0.07076529541793114,-0.03835103592971413,-0.009485575662208236,-4.249389129294519,-1.6525621745157542,8.668723998726163,0.4977610079240191,-0.9894782534374883,0.8610308718294556,353.99740303379417,-25.681389618691693,10.790130861058033,0.9690936630258795,0.2186182199525683,-0.09869951843107228,0.05055709626864862
232.0,-0.06897411112359972,-0.034622606871230005,-0.012007343299239446,-4.263332546551272,-1.5867087033082314,8.676258439174255,0.14778085309654931,-0.12018845303660414,0.4261389606983627,353.37929381626765,-25.77163931662358,10.355509347720204,0.9691329095220863,0.21899935327368777,-0.09637647498550074,0.055781110058596546
233.0,-0.07714516129032259,-0.03246538158929977,-0.01262313139260425,-4.3121750590086565,-1.5784842643587729,8.654769472856017,-0.2178107789142408,-0.08920633359559402,0.4003909323367427,352.9628048780488,-26.089058811959088,10.329130605822188,0.9684327905837926,0.2213549358469709,-0.09693992924980332,0.05925098884893784
234.0,-0.09672364280094414,-0.04195653029110937,-0.025375295043273023,-4.333026947285603,-1.5886441778127462,8.643918961447675,-0.1794207317073171,-0.05699498426435878,0.3498069925255704,352.5946498819827,-26.22750540912667,10.408787372147914,0.9679742254728563,0.2221980621721086,-0.0983093468082219,0.06237993062824547
235.0,-0.13226907946498823,-0.04767584579071599,-0.043139260424862325,-4.323493312352479,-1.5936003147128246,8.647878835562548,-0.11602084972462628,-0.11574547600314714,0.19196498819826907,352.3626475216365,-26.166424075531076,10.4367525570417,0.9679935392525573,0.22143240588040913,-0.09893794915814319,0.0643481012415421
236.0,-0.13012116443745086,-0.051573564122738,-0.04943981117230528,-4.367104642014162,-1.6268922108575923,8.619416207710461,-0.1914240755310779,-0.03311369000786782,0.08871951219512195,352.2714004720692,-26.44774783634933,10.685562549173879,0.9672037404563336,0.22368766246734856,-0.10109256282140046,0.06511127568214004
237.0,-0.12072934697088908,-0.04502911093627066,-0.04473406766325729,-4.416451612903225,-1.6497427222659329,8.589942564909522,-0.04481215578284815,0.11462922895357985,0.06862706530291109,352.18824252557044,-26.770146538158926,10.872551140833988,0.9663890394563337,0.22630821707317073,-0.10271012453343822,0.0656432904177813
238.0,-0.1262136113296617,-0.038273013375295054,-0.042791896144767916,-4.445969315499605,-1.6577966168371354,8.573310385523211,0.02452055468135327,-0.12863149095200632,0.1316433910306845,352.156336054288,-26.964503835562546,10.95347167584579,0.965929158051534,0.227898127108576,-0.10341287468135324,0.0658908381593234
239.0,-0.13337903225806452,-0.03791935483870969,-0.04555645161290324,-4.456080645161289,-1.6710564516129023,8.565959677419357,-0.07434475806451613,-0.07202620967741936,0.043447580645161285,352.13634072580646,-27.032610887096773,11.037096774193547,0.9657179315403226,0.22839040369354846,-0.10414930809677418,0.06613852971774195
240.0,-0.127508064516129,-0.025451612903225816,-0.04105645161290324,-4.470137096774193,-1.6809112903225798,8.556322580645162,0.1452116935483871,-0.45257056451612904,-0.01869959677419355,352.16935483870964,-27.121471774193544,11.104233870967743,0.9654970734999999,0.22918046502419354,-0.10464723668548385,0.06584162440322582
241.0,-0.1137258064516129,-0.020362903225806462,-0.03513709677419356,-4.460387096774194,-1.6829999999999994,8.56110483870968,0.05569556451612903,-0.5901713709677419,0.10120967741935483,352.1415322580645,-27.055897177419354,11.112298387096773,0.9656110713790321,0.22857931787903224,-0.10475631195161292,0.06608059663709676
242.0,-0.10889516129032256,-0.021306451612903236,-0.0237741935483871,-4.425096774193549,-1.6545967741935486,8.584999999999997,0.4174899193548387,-0.49632056451612905,-0.020312500000000004,352.13810483870964,-26.82142137096774,10.902520161290322,0.9662305776532258,0.2266727574677419,-0.10307966600806452,0.06616619424999999
243.0,-0.09451829268292683,-0.018705350118017314,-0.020683320220298982,-4.404715184893785,-1.6379895751376874,8.598448465774982,0.03840234067663256,-0.30449449252557037,0.16681623721479147,352.11797551140836,-26.694513424468923,10.785047452793076,0.9665693749339102,0.22560132728127463,-0.10217246746400471,0.06632836386034618
244.0,-0.08931667977970102,-0.016922305271439814,-0.018757081038552323,-4.399838906372933,-1.6312718332022036,8.602245082612118,0.20839029307631785,-0.21174026357199055,0.06515538945712035,352.05697162667195,-26.664275177025964,10.732742427222657,0.9666283337136111,0.22532605917486231,-0.10190033765519275,0.06685053408064517
245.0,-0.09944866247049566,-0.02592716646060471,-0.02413871717058185,-4.408603208946835,-1.595537606309243,8.605246965269192,0.2982679671986812,0.040056807538121464,-0.09683138745269942,352.137319578697,-26.71948397868195,10.499896559233449,0.9667342142865294,0.22596080279461234,-0.09989062236311863,0.06619773973963133
246.0,-0.09215912667191187,-0.022516494323929423,-0.027698784234386133,-4.420753512419916,-1.5756388857667378,8.602278577048441,0.13717551094001723,-0.15740816192724139,-0.018036686055224613,352.2280851925743,-26.796315061724925,10.37753421096999,0.9667279004685008,0.22674784301847062,-0.09870567226908883,0.06539541496560639
247.0,-0.09160503540519274,-0.027256378554568965,-0.026350080551496766,-4.445753624817353,-1.565975422427036,8.591828706305495,0.045350024352778094,-0.11740146491326664,0.03172651830204938,352.26136384923757,-26.959658686448613,10.32770175340002,0.9664570854467802,0.22818737599940053,-0.09826058744483157,0.06510897741710689
248.0,-0.10254917387883558,-0.036586489828031935,-0.02965419055112211,-4.435214341913003,-1.578621857554982,8.594587838597281,-0.21881298939717508,-0.49466159004908017,0.2078134951856431,352.20892248323406,-26.889742797197556,10.398877430594581,0.9665108928665842,0.22751714312951926,-0.09895261531250235,0.0655745612073733
249.0,-0.10494361395226856,-0.03057210295605261,-0.036045296167247394,-4.414827956989246,-1.5800381401970705,8.604223783297744,0.04144842830916788,-0.2685036622831666,0.11217732569030758,352.06989902963545,-26.75700259450751,10.397161028061895,0.966695215736428,0.22626656667378517,-0.09919737194796,0.06678015250020608
250.0,-0.11340729084710202,-0.028023378666966404,-0.03586519800681879,-4.384135176651306,-1.581183432617737,8.619814656625833,0.5233547825109588,-1.2400170001123973,0.006943117530253645,352.02660658086995,-26.55612706530291,10.38818304859316,0.9670658372668315,0.22450815062414298,-0.09922055431422577,0.06720485091600165
251.0,-0.11308407328312914,-0.030663369675171415,-0.032298490127758435,-4.249716046607469,-1.484942808437301,8.70197787643775,0.706003193960511,-0.4781629341351017,-0.1634842971413585,352.2839926145517,-25.6848169795062,9.683398547263122,0.969374467577067,0.21753519311713687,-0.093003565426567,0.06512532191654491
252.0,-0.11157633226988065,-0.04208247666312184,-0.031235791090629815,-4.23230905116389,-1.4446786305092758,8.717314161644806,0.16227881661349405,0.02286589418645868,-0.003542442100909843,352.4408814471818,-25.5706295049037,9.407722771180431,0.9698819337813718,0.2168096318972882,-0.09051860484263854,0.0638560663191835
253.0,-0.12416719839300486,-0.052831560912206074,-0.039480798771121366,-4.27887226751743,-1.4342062507385085,8.697532080822404,0.12917368250029543,0.23721419709322936,-0.013590777502067823,352.5316554413329,-25.871403462129265,9.359884571074087,0.9694022528302019,0.21943096437203125,-0.08999625098180314,0.06307739851039817
254.0,-0.11663382211808651,-0.04956459466313913,-0.037699355588025944,-4.334363169088978,-1.4325330455670735,8.670702929250133,0.08644111797263844,0.046943194983615905,0.05590716079750305,352.5839809605226,-26.23325287189862,9.378370594704927,0.9687160914201587,0.22256290060289774,-0.09007060622298355,0.06259451376467795
255.0,-0.11726045944614003,-0.04152826507350506,-0.03479322618110975,-4.371770294221907,-1.4320447485899885,8.65260146462506,0.20635059930889985,0.1643486136208402,-0.06312504863350654,352.59052878671287,-26.471969177884795,9.397627837675046,0.9682394977584663,0.22462063395870693,-0.09018101399052401,0.06251440218475834
256.0,-0.1413414432407351,-0.044234178619701844,-0.04196420141620773,-4.385542597187758,-1.439989348181323,8.644585678549088,-0.05505242692005084,-0.2220739650789808,-0.05137819251951825,352.5987446160907,-26.565372069741166,9.455759963384374,0.9680270423554236,0.22539217152697255,-0.09062713973566139,0.06242986141880007
257.0,-0.1396144767899292,-0.0382974036191975,-0.04011113296616838,-4.336145161290323,-1.4567490165224237,8.66590656963021,0.32521882376081823,-0.9643403324154208,-0.016880163257277737,352.59472487214794,-26.243040666797796,9.53806918764752,0.9686036032281664,0.22259167686605036,-0.09128031750472068,0.06248049493686074
258.0,-0.1224996066089693,-0.029714004720692383,-0.033644374508261216,-4.290799370574351,-1.429039732494099,8.693171518489375,0.10155389457120374,-0.3377360346184107,0.057039240755310784,352.6227281667978,-25.949262391817463,9.328717545239968,0.9693252188359558,0.22021181344413848,-0.08953096209756096,0.06227415995239969
259.0,-0.11777616050354053,-0.038668961447679014,-0.03524862313139262,-4.261469708890637,-1.4304364673485441,8.706570023603465,-0.03503147128245477,-0.37195613690007867,0.07454637096774193,352.5917781274587,-25.761241148701806,9.317953383162862,0.9696944444691189,0.2185125312342644,-0.0895156549866247,0.06262012865833988
260.0,-0.12748052714398111,-0.0483811959087333,-0.041404012588513,-4.2422425255704175,-1.4260891030684495,8.716804091266718,0.19089422698662467,-0.1546862706530291,-0.05660282258064516,352.62409397128243,-25.636442761605032,9.28552198072384,0.9699674740499606,0.21751491396597167,-0.0891777858461841,0.062329572127655386
261.0,-0.11064752163650668,-0.044343823760818274,-0.03011329661683715,-4.251464004720692,-1.4270082612116441,8.71296656176239,-0.029074055861526366,-0.38571007081038555,0.09747983870967741,352.5893907356412,-25.696396784028323,9.295205546813534,0.9698358204604645,0.21797637418863103,-0.08933698938276949,0.06259646403560189
262.0,-0.10446892210857592,-0.046671911880409145,-0.02889535798583793,-4.256494099134541,-1.4452541306058218,8.70692682926829,-0.10279307631785994,-0.18741148701809598,0.07983870967741935,352.5432336742722,-25.72629819040126,9.423308418568055,0.969663452758458,0.2181700649047994,-0.09044919415106217,0.06296979344925253
263.0,-0.10600314712824546,-0.04336113296616839,-0.03116050354051928,-4.272117230527145,-1.462591660110149,8.69709205350118,-0.13581825334382375,-0.22503933910306845,0.07578186467348544,352.50146538158924,-25.82811270653029,9.541065106215578,0.9693683382533438,0.2189829709693155,-0.09146636347678994,0.06325753692132177
264.0,-0.11156726986624704,-0.03613926042486233,-0.029566876475216372,-4.264750983477576,-1.481748229740362,8.697101494885917,-0.06122147915027537,-0.2181992525570417,0.050100806451612905,352.4094020456333,-25.77606953186467,9.659065204563335,0.9693327809756099,0.21846010490007864,-0.09257859527104642,0.06396470988080252
265.0,-0.11274665617623918,-0.035272619984264376,-0.03189988198269081,-4.274838119590875,-1.4902407553107788,8.689852871754525,0.157036782061369,-0.15345446498819826,-0.03172083988985051,352.3806205743509,-25.844958448072383,9.725824891817465,0.96914922352085,0.21894487574272226,-0.09316732304071595,0.0642214505304878
266.0,-0.12540558615263572,-0.03595082612116446,-0.035115263571990574,-4.262052124311566,-1.48995102281668,8.696749016522421,0.007550649095200632,-0.30308811959087334,0.09716881392604249,352.3248869000787,-25.76307902242329,9.708703776553893,0.9692800631313927,0.21825027815361914,-0.09314142654051927,0.06469079990637291
267.0,-0.13573815287780672,-0.044852377493998286,-0.04330949282817892,-4.242991426092923,-1.4829878149649982,8.706439231172713,0.27914753298432493,-0.4470013075208295,0.07737821899776069,352.2916824905687,-25.64056491960701,9.649814305563961,0.9695282514920819,0.21723673427170204,-0.09275229774523894,0.06499818332456775
268.0,-0.14644991829570903,-0.029593970021586084,-0.06492648126853477,-4.106929820048822,-1.4301730970969757,8.778562554217352,0.32480377731041576,-0.7931081232726099,0.13427882724081583,352.27208411507195,-24.76174710378462,9.248459596723757,0.9713892923001322,0.20984375213585102,-0.089411459237588,0.06529962062766548
269.0,-0.1364204744901047,-0.037735812705521614,-0.04900208799854748,-4.101188454477597,-1.4393002582259071,8.781363200790816,0.041111443139865644,-0.2742469461760375,0.06120351177147007,352.19610303314573,-24.722127362867923,9.301545888055035,0.9714073699172773,0.2094391244680042,-0.08999945988236599,0.06593325992388388
270.0,-0.12920000907825455,-0.039591745849220296,-0.04420049325183079,-4.113510828340294,-1.4415801055094914,8.775263819120818,0.12496661850148277,-0.23093248174262138,0.10908326650729286,352.1680308635438,-24.80054047136315,9.321322707992898,0.9712480547226041,0.21007155342046943,-0.090219289695707,0.06619892303432591
271.0,-0.13645887550686922,-0.04384829227944888,-0.0425236337226896,-4.1070497690088565,-1.4450521495289395,8.778603683753953,0.01966576892816075,-0.141953136032601,0.09927449615687224,352.1117876091912,-24.774715800197704,9.342440587867417,0.9712790444056567,0.20974198153684764,-0.09043417921075675,0.06668454842845327
272.0,-0.1368646734854445,-0.04002753737214794,-0.04302360346184109,-4.133506687647522,-1.4499512195121955,8.76550118017309,0.21259343036978756,0.03101888276947285,-0.07387391817466561,352.1161191974823,-24.943395948072386,9.383482494099134,0.9709360875609756,0.2111590710157356,-0.09082406213060581,0.06664527196774195
273.0,-0.1374063729346971,-0.04106018882769475,-0.04388473642800946,-4.151967348544454,-1.4571612903225803,8.755950432730131,-0.0034397128245476083,-0.2270505507474429,0.10116787962234461,352.1006540125885,-25.05401012981904,9.431709775767112,0.9706805933178598,0.21207898666915811,-0.09131933767977969,0.06680521213414634
274.0,-0.12860483870967743,-0.03928225806451615,-0.03754032258064518,-4.171266129032258,-1.46816129032258,8.744467741935484,0.08996975806451613,-0.11078629032258062,0.029788306451612897,352.070060483871,-25.175957661290322,9.523639112903226,0.9703764875967743,0.2130599477822581,-0.09209117243548388,0.06702624978225803
275.0,-0.13044256490952005,-0.03244551534225021,-0.03890814319433518,-4.193547797010227,-1.471993509047993,8.733623918174668,0.02028914240755311,-0.13896538158929975,0.04475806451612903,352.0649193548387,-25.32230281274587,9.56294379425649,0.9700690226565698,0.21430776884323371,-0.09241380745869396,0.06700985530959871
276.0,-0.1253457907159717,-0.035845987411487035,-0.03969374508261213,-4.21466719118804,-1.4844154209284022,8.72220161290323,0.015489771833202205,-0.1620512883556255,0.07515489771833202,352.0637096774194,-25.453479051927616,9.64917019079465,0.9697487348457906,0.21538839575137692,-0.09318144305448467,0.06709939295672696
277.0,-0.13588939659868066,-0.042077977163146346,-0.04534470132542519,-4.217739716354981,-1.4684424085618026,8.72284656741109,0.0863364388529121,-0.11370050459964898,0.05133365233311142,352.07946650124074,-25.472862354747924,9.549251012477555,0.9697927464642517,0.21560472646998122,-0.09235098541196111,0.06693606864378945
278.0,-0.13633238516007992,-0.05171906332586901,-0.04257557646916421,-4.198112777138937,-1.4624305866569833,8.732906564586738,0.10306753590954024,-0.7749099739756703,0.06531633934515524,352.05636754448346,-25.347686463565935,9.50086530265892,0.9700505241302375,0.21454371212720147,-0.09197809284189717,0.06710927183881055
279.0,-0.13203716032197543,-0.05634743488874096,-0.04542891726684019,-4.174221711150114,-1.445953196554298,8.746606508099823,0.04798034053541528,-0.038463051503964174,-0.023944652908067535,352.0516968770804,-25.192719239847484,9.378532449716557,0.970412337932054,0.21329698666440716,-0.09098854461449696,0.06717693433876011
280.0,-0.13034194758821038,-0.05420440194476388,-0.04103310536827455,-4.192059714741067,-1.4508011458774637,8.738397667897278,-0.03099114365833485,-0.06813986564183261,0.04830993161048236,352.05709843854027,-25.30117866004963,9.42403215719502,0.9701808689117387,0.21423524502535862,-0.09132038498545464,0.0671092534958946
281.0,-0.13870362524965196,-0.05433587524460854,-0.048250620347394566,-4.200292642579031,-1.4532817688474657,8.733700014121732,0.09244600960277592,-0.017434409610845497,-0.02915443624039218,352.0597992192701,-25.353662697452037,9.439853411406322,0.9700733747257355,0.21470730029080676,-0.09149246505842362,0.06705152805479231
282.0,-0.13195121951219513,-0.04628442171518491,-0.041308025177025975,-4.184608182533438,-1.4549984264358777,8.740249409913453,0.034119295830055074,-0.5711226396538159,0.09290175059008654,352.00081136900076,-25.257196597167585,9.451871066089693,0.9702259055861526,0.2137924603363494,-0.09161468775727771,0.0675613443595594
283.0,-0.11912352478363492,-0.038807828481510626,-0.03317014162077105,-4.1513678206136895,-1.4605220298977186,8.755170338316285,0.15238616247049566,-0.49593209087332807,-0.27992599331235246,352.0409692171518,-25.052477134146343,9.467020308811957,0.9706338059520062,0.21200458452537374,-0.09165530093764751,0.0672336761404406
284.0,-0.10989240755310778,-0.029270849724626277,-0.03323426435877262,-4.155562942564909,-1.4795674665617624,8.749980330448466,0.05121828284815106,0.03547649488591659,-0.44301239181746654,352.33585759244687,-25.077120623524785,9.59210390440598,0.9706574152582612,0.21243030357317078,-0.09212303825511406,0.06472653115086546
285.0,-0.09403402832415421,-0.03105507474429584,-0.027354051927616058,-4.192852281667978,-1.511512195121951,8.726772226593233,0.1335636309992132,0.07599945908733283,-0.16362608182533434,352.66652734067657,-25.31674739378442,9.819493754917387,0.9702276550200629,0.21465962867505903,-0.09336016039811171,0.061908858824940974
286.0,-0.09049531677344422,-0.024856262410550382,-0.019917425349368703,-4.194064965718782,-1.5223021805102848,8.725092334494775,0.03268283316473718,-0.39791256884343035,0.06188895601513622,352.81689462271925,-25.323788683451347,9.892277359409539,0.9702517584351465,0.21479973638361247,-0.09367087157693604,0.060656507424375256
287.0,-0.08992114383125398,-0.022506809411412095,-0.02198467648270953,-4.188948297178824,-1.5380354332921211,8.72476882657076,-0.007753784047057066,-0.17505777930763178,0.04252492647334309,352.764933345978,-25.29604068318909,9.99177203926417,0.970213251459902,0.2144832168778802,-0.09457128972237831,0.06107030834240004
288.0,-0.10568234610917537,-0.024668727286351215,-0.03122620920909671,-4.203893503428121,-1.534795942452513,8.717590058446671,0.2103872208796973,-0.027019817073170735,-0.05567806095687684,352.7666652616987,-25.386578809336477,9.98005940672886,0.9700514425081768,0.21529170235829492,-0.0944702511434472,0.06102558689700649
289.0,-0.12281697950620062,-0.03083436364317561,-0.041649394927129005,-4.178729009778577,-1.5310028099359343,8.730258738900755,0.06323292495597768,-0.44609559402045634,0.11959040500543255,352.68313101794615,-25.221515211119854,9.944818009816043,0.9703445262742497,0.21382748236866356,-0.0943049210434978,0.061740372738825836
290.0,-0.10808433554381626,-0.02771851935109213,-0.03482155033531903,-4.161193773181971,-1.4822401933235925,8.745396875351243,1.1518220092915215,-1.3027094807238395,1.4607590105278931,352.36135799520434,-25.099496787306585,9.610808886890712,0.970562938660335,0.21270994907182195,-0.09217124268933347,0.06454226397366154
291.0,-0.13555906485332134,-0.032219474729309514,-0.04717267992956428,-4.157563092428158,-1.3611008954329173,8.766066333220936,-0.2280444485032408,0.25395919973024617,-0.3032466468097861,351.98043418193396,-25.084310605634858,8.821581478775617,0.9708501007433779,0.21263133877938256,-0.08657211127938255,0.06777500571186917
292.0,-0.12926261661234123,-0.03100745569667679,-0.04434165074369639,-4.192392875875761,-1.4104717695103215,8.742447013974747,-0.13214279860252523,0.2369323929414409,-0.19851061687460195,352.4189149666554,-25.31010376859241,9.161798803903938,0.9704938389436795,0.2147279366674254,-0.08852472746895958,0.06400960083783859
293.0,-0.1194538889513319,-0.025132760106402918,-0.04655792214604174,-4.210652083099171,-1.4392762073358054,8.730316248922861,-0.03580426220448843,-0.1323906583679892,-0.01104966327601066,352.6748304671987,-25.429119424618786,9.355042547113259,0.9703109767984526,0.21583404874903528,-0.08962056682318945,0.06183509282617736
294.0,-0.12088027367334997,-0.038975188986203946,-0.03925559465449316,-4.19323495387382,-1.4279243939904833,8.74053570924224,0.285335953058219,-0.4590852433692717,0.21928066360599796,352.62798595320237,-25.312055705899134,9.27296301259716,0.9705557412104339,0.21484313636397176,-0.0890465740628561,0.06226766194555354
295.0,-0.12767459789096297,-0.03708790920592652,-0.03957272258295075,-4.188167437597807,-1.4241942977033455,8.743993267681702,-0.051372149356020316,-0.12662169328180342,-0.14112186331895224,352.8085592629898,-25.278839615341383,9.247294842254519,0.9707454532566727,0.21469885064854766,-0.0885039433846932,0.06073616963131334
296.0,-0.11396402705608055,-0.04044871650772517,-0.03507053947887938,-4.19812365735497,-1.461597916900828,8.733164068556675,-0.2877828488715586,-0.35768968688667746,-0.033790578356864755,352.8202022505425,-25.344776950527837,9.495431215290086,0.9704724608218848,0.21515356694869778,-0.09050147830140956,0.0606397876036751
297.0,-0.1100268601055383,-0.04051940152687597,-0.032861784294907825,-4.222814779110216,-1.5030530890562357,8.714386912327118,-0.19680251806284457,0.11039591186744019,0.0561525078317958,352.76771815910286,-25.50613159092088,9.779850737464084,0.9699468757177874,0.21640563627135911,-0.09288601311608638,0.061011621614583435
298.0,-0.10008787174011408,-0.03384096627212285,-0.030735482718173515,-4.25104696771888,-1.5272875039987548,8.696448212160249,0.08737081499670012,-0.2827550269033353,0.22887882835758522,352.64768248732645,-25.68843916704853,9.955733241974391,0.9694208179602168,0.21777634153725112,-0.0945137488504336,0.061999553636489416
299.0,-0.08923039457264476,-0.033649775349224614,-0.03069504846058741,-4.238827867647695,-1.5180062712006066,8.703922440004263,0.025034367677955395,-0.293816808028059,-0.09778955309049721,352.6900345261871,-25.60842480035045,9.88840735713277,0.9696487052515252,0.2171548341799454,-0.09388414197159514,0.0616428836627443
300.0,-0.08728238847436329,-0.03791458082960837,-0.02931290581959347,-4.2490362784343905,-1.534447667464976,8.695651227869952,-0.012413972730652516,0.07437405074600198,-0.04950945003069314,352.733933470804,-25.675671880899063,10.004712136473547,0.9694592448720256,0.21774873447785625,-0.09475833692600213,0.06122703397141936
301.0,-0.10418098292999944,-0.04406097705074889,-0.03592766792609437,-4.26532711977244,-1.5414099826216265,8.686607787701416,-0.035782732871639245,-0.15826099549545652,0.04276452304579763,352.7711444076511,-25.778271738096677,10.060038784320845,0.9692406002894092,0.2186426864980417,-0.09514279863993336,0.0608957450370191
302.0,-0.10417782427381168,-0.04151042558280955,-0.03681906606375529,-4.285069539429886,-1.5584799716412618,8.672846773473049,-0.0662194545554105,-0.0052123230821106425,-0.004242246738312826,352.7425155555171,-25.909892163304832,10.184902358328793,0.9688817288449406,0.21969571104209717,-0.09619698920037582,0.06117932270576368
303.0,-0.11997145969687276,-0.056317661095788556,-0.042421112849909084,-4.330479352014364,-1.56457910906298,8.649694685330406,0.01646636866935844,0.4110104637691183,-0.09450118953954516,352.7819019051366,-26.207815188352168,10.246943528213198,0.968276569426606,0.22223854247307506,-0.0966354775861267,0.060825387378522874
304.0,-0.11908634428776052,-0.053545159272932685,-0.040457100203756396,-4.400449353426536,-1.5861290322580646,8.609998648348766,-0.060833635941818474,0.09614943311343782,0.11560942827170206,352.75744000786784,-26.662490543484836,10.432309129697996,0.9672266940819665,0.22605212661364965,-0.09813746473545965,0.06097591639893886
305.0,-0.11126622485827835,-0.04888115556093528,-0.03487843208456899,-4.435012245556697,-1.5796970889063733,8.593866358006014,0.3497464393068248,-0.2232667468579152,0.03678288093364804,352.71226642407555,-26.892688033347454,10.409776712764025,0.9667720621196616,0.22795394209518038,-0.09804320266670702,0.06132792750710121
306.0,-0.1053026639633642,-0.04390163206842988,-0.034634337993504016,-4.434307853698883,-1.5584834775767111,8.598428064919613,0.15483486402792068,-0.3861465520284855,0.06977814384998687,352.66568277930764,-26.887532057586395,10.263823250166435,0.9668647615515695,0.22793215303421488,-0.09697989158118986,0.061713762459294115
307.0,-0.0993097702192903,-0.04272225584538726,-0.033077397163549814,-4.44162953660554,-1.55951140833989,8.594969244890958,0.17103343319413342,-0.09732128447214992,-0.10914798059270917,352.69347216758456,-26.933452422380924,10.275749523391637,0.9667863806954345,0.22834151421773688,-0.09700835038815593,0.061412949947487354
308.0,-0.10890715971675846,-0.03881687647521638,-0.03809618410700237,-4.442672501966955,-1.5732718332022033,8.59135228166798,-0.020247344610542894,-0.5394743312352478,-0.14462775373721481,352.79008285798585,-26.941958841463414,10.372505654996067,0.966752472187254,0.22846804777222662,-0.09757772272757673,0.060604251052321007
309.0,-0.18921164437450827,-0.010339889850511413,-0.01739889850511409,-4.339678992918962,-1.6976601101494884,8.61388985051141,-1.8176337529504327,-3.9863198269079465,-3.3110739575137687,353.1090283241542,-26.265863493312352,11.145249803304484,0.9674971036097559,0.22268832823288748,-0.10330905567427223,0.05790734159874115
310.0,-0.03165538945712037,-0.04561919748229741,-0.0015177025963808016,-3.973598741148702,-2.022693941778128,8.70002202989772,-0.6263129425649094,0.19574645948072344,0.9362559008654605,299.7969217151849,-23.951008064516127,13.028624114870182,0.9704750955476003,0.20510440250668763,-0.11497959762706529,0.037449274574350905
311.0,-0.01421479150275373,-0.06211479524933497,-0.029693323592222102,-4.060989547038327,-1.9689131917125622,8.68371863174853,0.4048652869881233,0.48145875482372313,1.194566637630662,326.3960607039826,-24.489434289648194,12.742065560488555,0.9696336492814244,0.20840327093544636,-0.11449250312322506,0.04825300368034169
312.0,-0.030887096774193556,-0.06690476190476191,-0.020399769585253455,-4.146165898617511,-1.8601827956989248,8.673832565284181,0.34310435867895545,0.3134624615975421,0.6582589285714286,338.32752976190477,-25.022947868663593,12.081708429339479,0.9683449246824116,0.2111662315652841,-0.11263041258678955,0.06521946526267282
313.0,-0.049524193548387094,-0.07080721966205838,-0.021373271889400927,-4.177832949308756,-1.7988252688172037,8.675803379416283,0.23931931643625193,0.018449980798771054,0.4150921658986175,343.47530721966206,-25.213313652073733,11.690627400153609,0.9672700306597541,0.21113923513748079,-0.11273425882565283,0.08062503226036866
314.0,-0.07197580645161289,-0.07359715821812597,-0.030847926267281115,-4.204597926267281,-1.7538763440860214,8.673474270353303,0.34476046466973886,0.3738671274961597,0.20215293778801846,345.7899721582181,-25.39236751152074,11.408594950076804,0.966429918950845,0.21162090906874037,-0.11261791700153609,0.09048932138018431
315.0,-0.10861290322580644,-0.08080261136712752,-0.043891705069124445,-4.239940092165899,-1.7155913978494626,8.666096006144395,0.09624615975422425,-0.019114823348694326,0.1499423963133641,348.11429051459294,-25.618663594470046,11.173324692780337,0.9653668517334869,0.21250047407066053,-0.11287683416205833,0.10024752545622122
316.0,-0.11687136113296619,-0.08069531864673488,-0.04317997639653817,-4.247600708103857,-1.712195121951219,8.662959677419355,0.15237755704169945,-0.33834333202202993,0.13719020456333597,347.41106781077895,-25.66909667584579,11.168220151455547,0.9646944486323759,0.21219343107395752,-0.11408455170318643,0.1061676288737215
317.0,-0.11165007867820614,-0.06060700236034619,-0.03789142407553109,-4.2574282061369,-1.7087625885129816,8.659059795436661,0.06304828874901652,-0.13770898898505113,0.09672870771046421,346.99122492132176,-25.73321080841857,11.152629573170731,0.964207247082022,0.21234505707120382,-0.11475070838237607,0.10965726326848939
318.0,-0.1003774586939418,-0.05053737214791505,-0.03070377655389458,-4.2814761998426425,-1.7332724232887484,8.642255704169942,-0.0454919846577498,-0.10035651062155782,0.05786536191974824,346.74147939614477,-25.889967299370575,11.324323859166011,0.9635244978837529,0.21328671769689228,-0.1166932566186074,0.11179330899311568
319.0,-0.10535405192761606,-0.04705094413847367,-0.028916404405979555,-4.306290519276159,-1.744438630999213,8.628514948859166,0.16795461250983476,-0.15390809402045633,-0.16854715774980328,346.6631540125885,-26.051863690007867,11.414581284421715,0.9630800265991345,0.21451320234441384,-0.11759827809559403,0.11237388769413847
320.0,-0.10446238576529684,-0.049637031209021784,-0.028794327099598553,-4.3018819221690965,-1.7566682402307898,8.628203917771188,-0.05867868526700157,-0.20746673828400813,0.08536623191914303,346.5968970021586,-26.01971544715447,11.501643542334929,0.963008920679013,0.21413692023165687,-0.11836463250912871,0.11290315424791703
321.0,-0.11208563820129516,-0.04794204038814584,-0.03195813915955538,-4.321979513405555,-1.7688809336480469,8.61577780467631,0.056395315116302504,0.126474144626682,-0.07484245445742298,346.57340424458835,-26.15474855756622,11.593760402166676,0.9626533123930076,0.21518097882157194,-0.11921286564480824,0.11304977541664146
322.0,-0.11238821642558858,-0.04180736952530817,-0.0314511388165991,-4.368684485262968,-1.7826741410962494,8.588616675744921,-0.09977736211140027,0.08184938545260141,0.146538253495128,346.5234251750086,-26.45525095069499,11.719406754977909,0.9619148116489038,0.21762321387970807,-0.12039341466740805,0.11336417721264802
323.0,-0.12321522956456081,-0.035841088756509695,-0.03685191349432107,-4.397953801771268,-1.7874837679367575,8.572244589792584,0.15522004590282518,0.0428268144620918,0.006070826056319756,346.4930393924198,-26.649598881645495,11.776546455445942,0.9614544980875088,0.21921639509288782,-0.12100164492875008,0.11357761922786778
324.0,-0.13354723430254511,-0.03374539963052946,-0.03995097742540703,-4.428988480703664,-1.7866716813215626,8.556608854036073,0.008624161702446509,-0.024388262537357736,0.14826843101823428,346.4711423182116,-26.85434607026857,11.786430279005023,0.9610233026111655,0.22092604664631982,-0.1212226101453097,0.11368085775919859
325.0,-0.1294135735756507,-0.022936166901548496,-0.038256773386592446,-4.454941798301357,-1.7963911776657646,8.541708066389415,0.063910191565581,-0.06856315727283468,0.03330098304527886,346.42017620459796,-27.023103077095996,11.85920383707559,0.9605669805925366,0.22227173792442279,-0.12198405147695997,0.11410491086612315
326.0,-0.14316233360135802,-0.021543614528665676,-0.044880550343965,-4.475289152494502,-1.7981468083450767,8.53128755011052,0.11060379759238925,-0.0814885023185574,-0.036211428225590314,346.4034594634319,-27.15475570849292,11.882493342613326,0.9602765163261662,0.22336611939415474,-0.12221638122785844,0.11417467262424959
327.0,-0.13321373957801969,-0.022278494911854477,-0.04308937037261193,-4.493868022352679,-1.8001827668790686,8.520018283316467,0.018396902730104935,-0.28290101748500646,0.1138032158636014,346.3623562069323,-27.274565108377068,11.918921730315317,0.9599617936469538,0.22434526693940623,-0.12260708882400001,0.11449066007294306
328.0,-0.11960553975266802,-0.025254211301418236,-0.03421646593637154,-4.508870806350743,-1.8041359115576268,8.511841594544974,0.08311381609473663,-0.16901188242651657,-0.0409315802215094,346.31843352195926,-27.369951103512275,11.954449227339667,0.9597132140392983,0.22504138784439875,-0.12298544926026349,0.11477999561419437
329.0,-0.12975727773406767,-0.027971675845790724,-0.034297403619197496,-4.483998033044846,-1.7965212431156568,8.52662234461054,0.24729789535798583,-1.1616591266719118,0.06567171518489379,346.29113640833987,-27.204914929189613,11.891755999213217,0.9600701510920533,0.22361680028363495,-0.12250576068371359,0.11503582513768687
330.0,-0.1445678599527931,-0.035421715184893794,-0.044383162863886716,-4.373690597954367,-1.7685989378442168,8.588358379228954,0.08101519472856018,-0.3499827891424075,0.1842176435877262,346.0309438926042,-26.487857739968526,11.629296567663257,0.9614146708725411,0.21742875352104646,-0.12061943753304481,0.11746214318253342
331.0,-0.139203476827395,-0.04084373009628715,-0.04312015286051479,-4.407747180697614,-1.7623146378929224,8.57292458131954,0.02490539882357349,0.17649910082050127,0.05777462440523023,345.98149657187815,-26.71293928665093,11.608913116780938,0.9609389706290509,0.21931557520887188,-0.12067250897043943,0.11788739499756473
332.0,-0.1402642089093702,-0.0443022741748155,-0.04593143756322358,-4.439659585628115,-1.7700290734704582,8.555647971226254,-0.0975591023191338,-0.012266775317522752,0.1407136300625679,345.9225834550972,-26.922220036716496,11.672178824322806,0.9604140381312055,0.220964546539133,-0.12144232419647068,0.11837737957588701
333.0,-0.15447356786931926,-0.05085609381439439,-0.057645498482634616,-4.45220508785733,-1.7672151661608781,8.54902776216702,0.16161580682627102,-0.07865994155333259,0.006543872466374431,345.896283859728,-27.004737083661162,11.663754636394291,0.9602230428720542,0.22168374582818173,-0.12146389706755083,0.11857251631194038
334.0,-0.14917226780562737,-0.0486743096924057,-0.05471574688097114,-4.434569892473117,-1.764175639728748,8.558683826008764,0.7325044022329623,-0.4854599865123075,-1.551168465025664,346.0083061706193,-26.88721315237346,11.635462093964257,0.9605938994171443,0.22082199512022774,-0.1209428084857817,0.11760815941639505
335.0,-0.14467818740399385,-0.07643471582181259,-0.043907834101382506,-4.165575268817204,-1.707270353302612,8.69833640552995,0.8401113671274961,-1.8023041474654378,-0.1230222734254992,347.72609447004606,-25.150638440860213,11.105083525345622,0.9657818677227342,0.20797830719662053,-0.11291820758986174,0.1035126394155146
336.0,-0.12539516129032258,-0.06780645161290322,-0.03430645161290324,-4.0847983870967735,-1.6637419354838716,8.747548387096767,0.3494959677419354,-0.9,0.4742943548387097,347.52681451612904,-24.620514112903223,10.766280241935483,0.96694931541129,0.20359369040322578,-0.11027438241935483,0.10538659881451613
337.0,-0.1093367895545315,-0.04518817204301075,-0.026324884792626735,-4.073115207373271,-1.6396831797235027,8.759083333333333,0.1997311827956989,-0.12404233870967746,0.28958573348694316,347.1278921850999,-24.543805203533026,10.594671658986174,0.966923103787634,0.20271596323655916,-0.10951751392242703,0.10872760790668204
338.0,-0.12230145929339478,-0.048392473118279586,-0.033355990783410144,-4.128130184331795,-1.6374262672811066,8.734166666666663,0.036760752688172034,0.09591733870967739,0.2162394393241167,346.9730942780338,-24.89612135176651,10.605148329493087,0.9661495216155911,0.20559985131989245,-0.11004307169508448,0.11000032649769585
339.0,-0.14076766513056838,-0.04706720430107529,-0.04591589861751153,-4.141706221198156,-1.6317131336405537,8.730059139784942,0.04620295698924731,-0.0515625,0.27918826804915514,346.8329181067588,-24.98551027265745,10.577347350230415,0.9658965390618282,0.20621614648655914,-0.11008371301689711,0.11121553491013826
340.0,-0.13985560675883257,-0.039432795698924744,-0.05028456221198158,-4.197494239631336,-1.635255760368664,8.702448924731183,0.09623655913978495,0.24369959677419353,0.04969998079877112,346.701464093702,-25.343737999231948,10.638673675115207,0.9650644518091397,0.2091163691263441,-0.1109633251858679,0.11222582365668204
341.0,-0.1439439324116743,-0.040317204301075285,-0.05144470046082951,-4.23536405529954,-1.6392972350230417,8.682494623655913,-0.010954301075268812,-0.17933467741935483,0.13233486943164363,346.66630664362515,-25.586712749615973,10.697335829493088,0.9645263627150538,0.21113427934946233,-0.11159881243164362,0.11247813994930878
342.0,-0.1374144374508261,-0.041056845003933924,-0.040139850511408344,-4.228395751376869,-1.6466315892997638,8.684812745869392,0.11894915420928402,-0.43570392407553105,0.02586300157356413,346.6129339594807,-25.542146931549958,10.740864722659323,0.9645217849380407,0.2106627299199449,-0.11203131719236821,0.11295428528009442
343.0,-0.1206431714635976,-0.04213935648546284,-0.03992973395787972,-4.246614979964503,-1.6529302920242248,8.674577415695385,-0.17281982462078932,-0.046421799809708536,0.047523351874554004,346.60131705944775,-25.66373334949591,10.78608021860648,0.9642431829109744,0.21165607424251182,-0.11249816630229811,0.11302409413985964
344.0,-0.1087445794375423,-0.03644507163376211,-0.03362802590891626,-4.291874169761953,-1.681996125555779,8.646666756628182,0.0009843638501088603,-0.03222078385450021,0.008916081916820669,346.4644370505736,-25.954505099216874,11.00362417204911,0.9633865660794052,0.21385268854847858,-0.11459579740252594,0.11404711269394635
345.0,-0.11084003165425504,-0.02696447130075202,-0.03594304521252266,-4.336606439719686,-1.6959779014875667,8.621272894443125,-0.040964471300752016,-0.08188660160466946,0.13727054095841035,346.41921449302873,-26.246078154447147,11.124443134411651,0.9626781739066379,0.2162071334516586,-0.1157968473988436,0.11435058084294093
346.0,-0.11395630614970817,-0.033324977585859894,-0.0363626516385194,-4.365702413408229,-1.709880079776041,8.604015479479628,-0.005663687263279234,0.030553675004116883,0.03975422209210839,346.2861949481272,-26.437101577223572,11.234852615592922,0.9620858675581578,0.21760467336292605,-0.11700890539297018,0.11546942632872854
347.0,-0.1192724095658061,-0.032126690209137665,-0.03926944541013304,-4.40993460560262,-1.7184734781256283,8.579531736592687,0.05535560719448155,0.1556141703108704,-0.041014903116022905,346.2436777258339,-26.724712275629884,11.316226465152873,0.9614174165705818,0.2199431928616361,-0.11785255101355825,0.11575487748222421
348.0,-0.13342840283241542,-0.032781274586939434,-0.046735247836349345,-4.406409913453974,-1.7158398898505114,8.582127458693947,0.08579858379228952,-0.44786339496459476,0.12189221085759246,346.1759367623918,-26.699124704956724,11.294797403619198,0.9614170385531079,0.21966817354484655,-0.11782228110542878,0.1163395537403619
349.0,-0.1284411880409127,-0.030741542092840298,-0.0415422895357986,-4.39801219512195,-1.7129435483870967,8.586555468135327,0.13453481510621557,-0.19914806254917386,0.043194335169158146,346.1147681451613,-26.640425845790716,11.273185483870968,0.961462804740755,0.2191456738928009,-0.11783410147324941,0.1169464656664044
350.0,-0.138514948859166,-0.033273996852871766,-0.04298485444531866,-4.402602871754522,-1.7137016129032259,8.585043863099921,0.09670289142407554,-0.20337947482297403,-0.007485493705743508,346.08427419354837,-26.67328751966955,11.282913306451613,0.9613767860155389,0.21938443526494888,-0.11794026150275373,0.11708608040578283
351.0,-0.1312559383312727,-0.023369141283578736,-0.04350298789854259,-4.367287803004758,-1.71314400921659,8.602772123562248,0.22843977136487953,-0.6205273430182459,0.10456538486755836,346.0417194700461,-26.445220708759507,11.260613479262673,0.9618046476823086,0.2173989502186879,-0.11770180505590835,0.11749275298188526
352.0,-0.1252932917462815,-0.025503119028886148,-0.03927165523959388,-4.349986643437863,-1.698947004608295,8.614946545652094,0.21308581310179459,-0.2441598408639616,-0.12158323498557566,346.0424323156682,-26.32883515276685,11.152433755760368,0.962117203308896,0.2164998177786988,-0.11679662179005093,0.1175355859909426
353.0,-0.11454426585740511,-0.027942845903113415,-0.03249037128620136,-4.3508475703420615,-1.699665673822637,8.614476714997569,-0.016996014574201038,-0.3166824725562924,0.03621738132703908,346.05935111554453,-26.331035274062415,11.154645526581994,0.9621337608803526,0.2165446189199356,-0.11677578605936458,0.11733624307051063
354.0,-0.11395584654003221,-0.02974640328200518,-0.03731520924656252,-4.349436373684014,-1.7078540800269755,8.614040088419323,0.005073983271514749,-0.20945748332771347,-0.022238476921059527,346.06407268601777,-26.323119918699184,11.213337712150164,0.962105187867399,0.21643988421606536,-0.1171829968809805,0.11734485319536542
355.0,-0.01960282492225844,-0.037845172530066314,-0.06930502791203028,-4.1095032969914955,-1.9441377992581768,8.658639241691958,-2.0526330270503164,-2.901584686785808,-4.558725085234723,347.21038938687195,-24.789923452661945,12.604735093289873,0.9642136813673149,0.20365300350457083,-0.12623613641364131,0.10772177952116815
356.0,-0.15546774193548388,-0.008117820613690006,-0.062144177812745865,-4.075803501180173,-2.1934744295830053,8.617800944138475,-0.726685434697089,0.9036769767899286,2.2947752753737216,347.24556328678204,-24.591108133359562,14.24773185483871,0.9631666349960661,0.20080338905999215,-0.13909465980389457,0.10736437295023601
357.0,-0.13737327188940093,-0.010984601551084636,-0.051025813944775386,-4.236963770559363,-2.2196511932861265,8.541400472069235,0.6987912592259563,-0.28153684762654096,1.260408471020194,345.83090976359074,-25.616633415758116,14.543106758832565,0.9598011430433481,0.20757867320107903,-0.14412394210183205,0.11897587731632384
358.0,-0.1251500505788468,-0.008777115881757894,-0.04572927203926417,-4.2294810984976206,-2.3119145030159975,8.524162077104641,-0.15269426023753319,-0.1971216889588252,0.37211513244164696,344.27454713199205,-25.558095425424302,15.160002435277809,0.9576524408883144,0.2044756630875576,-0.1516533516567382,0.1319704522891611
359.0,-0.12992769098197893,-0.026984002098085498,-0.045536697763291,-4.267140983852235,-2.2019534674609416,8.53717208047657,0.38396603724101763,-0.0501362818927729,0.427735472631224,342.54784150088045,-25.799180903675396,14.449664680978607,0.9558896499213219,0.20505249984713947,-0.14919951910306845,0.14644238882544675
360.0,-0.13225102094338914,-0.030433779176501453,-0.0407762167022592,-4.348694016709752,-2.1330113521411707,8.51601326289761,0.2731150013113035,0.3955012925705293,0.22535967179948294,341.2290004121239,-26.328391592671686,14.049645479749728,0.9536488371911882,0.20826724254827472,-0.14873371824075526,0.1573888715771608
361.0,-0.1398336143269267,-0.03670862837660636,-0.04479723502304149,-4.399069274287212,-2.0930218051028437,8.500937394627405,0.11088873590348806,0.02225890749690905,0.09302011914128358,340.1227122438275,-26.65210393953018,13.820864242628602,0.951764353376082,0.20983207173519164,-0.149134579490952,0.1665067428743397
362.0,-0.1392186504814357,-0.03605938331272715,-0.05078955453149003,-4.436112210108277,-2.08721520362669,8.483662245700799,0.039089721254355406,0.0581724645011427,-0.07217273612828294,339.561077704095,-26.89412512644712,13.812525055262073,0.9505123381941856,0.2111645448722041,-0.15026866440215803,0.17112661368217752
363.0,-0.12934968716046608,-0.03251434940616688,-0.04564654752538311,-4.48115996028624,-2.0949726686898194,8.45805456895583,-0.06378027705968303,-0.1467595584654003,0.06865399385560675,339.29755301412456,-27.19271067494661,13.902746595294293,0.9494819242977224,0.21324752000101158,-0.1516529216660672,0.17315593524392114
364.0,-0.12029405979543667,-0.02950845790715973,-0.0377033831628639,-4.477466758457908,-2.1071205743509047,8.45728933910307,0.01901185090479937,-0.2038761309992132,-0.04714299763965381,339.11518489378443,-27.165980281274585,13.978064761998425,0.9491934145595985,0.21267672755782852,-0.15256278737765533,0.17467962536211645
365.0,-0.12569138473642805,-0.03162116443745084,-0.041593627065302924,-4.485487411487016,-2.112862706530291,8.451914830841853,0.06865411093627066,-0.23734633162863886,0.05147890440597955,339.08143317269867,-27.214466955153423,14.030841856805665,0.9490042470015732,0.21299195914181746,-0.1530771065436664,0.1749194049189614
366.0,-0.13730133752950435,-0.038375098347757694,-0.05458713611329662,-4.483179189614477,-2.1120361919748225,8.452525963808025,0.11225044256490951,0.01275324547600315,0.009786831235247841,339.04840307828476,-27.203251622738,14.025753589693155,0.9489891322265931,0.2128978536797797,-0.15304407928796226,0.17513840191109362
367.0,-0.1306829268292683,-0.0329496459480724,-0.05399921321793864,-4.498642014162076,-2.11527616050354,8.444674272226592,0.04995082612116443,-0.34357297403619197,-0.09311565696302124,339.0908094020456,-27.30694335169158,14.059928206136899,0.948814466274587,0.21376908450118015,-0.15333606311172301,0.1747674714555468
368.0,-0.11452714398111724,-0.035908339889850524,-0.04535523210070812,-4.49061526357199,-2.122685287175452,8.447203383162861,0.08550845790715972,-0.30706382769472856,-0.030699252557041694,339.0799247639654,-27.254327301337526,14.09455399291896,0.9488608981805663,0.21322507224272225,-0.153638429077498,0.17492546125491737
369.0,-0.10430133752950434,-0.03879209284028325,-0.03578540519276161,-4.455280094413846,-2.117471675845791,8.466953383162863,0.20672452793076318,-0.7159827399685288,-0.05001721085759244,339.1344254032258,-27.01925157356412,14.037171764358773,0.9494616437086938,0.21138401604268292,-0.15284534421616836,0.17456508453383157
370.0,-0.09157985837922894,-0.03320259638080253,-0.02647836349331236,-4.433977183320219,-2.120672501966956,8.478017112509834,0.11487263965381589,-0.3808357100708104,0.011325973642800947,339.0879069138474,-26.877398455940202,14.038694925255705,0.9496586524795435,0.21012569177950433,-0.1528623745021636,0.17499334612588507
371.0,-0.09461250983477576,-0.04064968528717547,-0.029061762391817472,-4.398286978756884,-2.1185660896931546,8.496585169158141,0.314694384343037,-1.2992636211644373,-0.16815253737214791,339.1274464004721,-26.638169994099133,13.996615607789142,0.9502193115139652,0.2081948845953973,-0.1522632585373721,0.17475873436939415
