time,linaccel_x,linaccel_y,linaccel_z,gravity_x,gravity_y,gravity_z,gyro_x,gyro_y,gyro_z,euler_x,euler_y,euler_z,quaternion_w,quaternion_y,quaternion_x,quaternion_z
0.0,0.020250000000000004,-0.12375,-0.021249999999999998,5.285750000000001,2.1030000000000006,7.977249999999998,0.2859375,-0.4,0.090625,13.6296875,32.6234375,-14.7625,0.9456146229999998,-0.29468536349999985,0.07839660649999998,-0.11321105949999999
1.0,0.019916666666666666,-0.12558333333333332,-0.019083333333333334,5.3174166666666665,2.0979999999999994,7.957583333333331,0.20989583333333334,-0.3520833333333333,-0.012499999999999997,13.550520833333334,32.84010416666666,-14.758333333333331,0.9451700839999998,-0.2964289349999999,0.07818399966666668,-0.1125427256666667
2.0,0.023637755102040813,-0.12892346938775512,-0.026409863945578226,5.319028911564625,2.162408163265306,7.93937244897959,0.29998937074829934,-0.014838435374149667,-0.6465136054421768,14.237638180272109,32.842187499999994,-15.22721088435374,0.9439900708299318,-0.2974918184013604,0.0798534576802721,-0.11812656936734693
3.0,0.01343095238095238,-0.14843095238095239,-0.04552460317460316,5.305946825396825,2.1475238095238094,7.950773809523808,-1.3808382936507937,-0.8527579365079365,-0.4633730158730158,14.27173115079365,32.7671875,-15.09686507936508,0.9442502163873014,-0.2967128164539682,0.07894707585079366,-0.11846557650476189
4.0,0.03205352927953242,-0.14244298639991004,-0.0203915271065153,5.228982924955978,2.230753062830167,7.9781950376531405,0.784252123843243,1.2348968285189765,-1.0644959911580683,15.120467866040986,32.22959898701809,-15.609419373571615,0.9440447485430294,-0.2935479746020381,0.08175826628500243,-0.12556925000033717
5.0,0.17494484095762616,-0.09276604473418006,-0.07934161327788392,5.062675667828108,2.212535068000449,8.078339355962685,-2.0790475956314864,8.537354000412124,4.400987399778952,15.215301915907984,31.080353806058223,-15.315621370499418,0.9466107414064477,-0.2837939005411843,0.08120424833270577,-0.1266380388162583
6.0,-0.2581610280618934,-0.11672365216739726,-0.12196112921958713,4.238374508261212,1.7313938780862461,8.465941759394553,6.005323072383949,-20.683787957551232,8.000298087370275,76.11553906279269,26.13087030740699,-11.901373473268142,0.9594173638641302,-0.23442800641824962,0.06986901011009328,-0.08175974944365141
7.0,-0.11021338653478698,-0.015074575699674027,-0.012908367989209815,6.208492169645199,1.672190794649882,6.114107592446893,-5.507107089000037,10.46378958497246,-4.9510318318909,177.81597805674198,43.819875437881684,-23.621073641395974,0.8930859895511125,-0.3738853755286332,0.09813722965182084,-0.030288259380043828
8.0,0.06443362931325161,-0.0775130943014499,-0.02725660334944361,5.447883181596793,1.9024421715184896,7.223106215578285,-1.0503025364355025,3.0663453973249397,-3.716594544977708,96.5410283428871,36.202654452811814,-19.001943070697987,0.9231394334247498,-0.31785347502641337,0.08874729882994267,-0.07912373962953805
9.0,0.053611779251433046,-0.12222704282342359,-0.02271170057322692,5.287218538083998,2.056176239181747,7.636780487804877,0.35123543516541156,-0.554602675059009,-2.7796190663519535,56.28073742085346,33.86946255292046,-17.187424131729795,0.9340077438988422,-0.30303499610408,0.08388160042598627,-0.10616181897763288
10.0,0.040838147690232654,-0.1351536472968416,-0.027311790491176793,5.262787081787868,2.1965814319433523,7.7904358772619995,0.3384570173466712,1.2086841070023602,-0.8367017440335693,36.85887284103256,33.08161365254205,-16.789006125660336,0.9372169626535912,-0.29988723985377097,0.08261948276610094,-0.1253524411213892
11.0,0.031084279345097592,-0.13266346333970253,-0.013970608070135995,5.1208837248510735,2.2476757146603727,7.963607096024878,0.3533963929789068,1.491274329361957,-0.3548732484732683,24.17632617267993,31.777819653628562,-16.265469048555694,0.9425608987602938,-0.2897484519012401,0.08416050348357125,-0.12788721477466186
12.0,0.01565940113077049,-0.12595279765063216,-0.009671779225294127,4.962602670484695,2.2549700153696963,8.14035854390427,0.41918739021645657,0.1793605508846724,-0.18746926632572775,15.496478892970192,30.41315472732512,-15.48190998778658,0.9479104381098293,-0.278649518432044,0.083513625598732,-0.12924043192900206
13.0,0.0026724425008691193,-0.11025462463176769,-0.009315728322324484,4.9521037545971875,2.2566987173622675,8.146687336468265,0.249739864463067,-0.14507274875121218,-0.3289916896144768,15.481530777130256,30.336995710436753,-15.482865276151355,0.9481221379500758,-0.27803128629666707,0.08379430850097891,-0.12914916697659778
14.0,-0.0003895852011783434,-0.1065144090900774,-0.009794960935355791,4.959801877298592,2.2869783909391987,8.135133990814776,0.23799997255411415,-0.06535391469818674,-0.04375491738788356,15.63000429985545,30.38636579876676,-15.698766307430516,0.9476344959347155,-0.27882931841849484,0.08497877063758623,-0.13035054768184728
15.0,0.010025319047531922,-0.10081293494105233,-0.009492287706072858,5.019725036659861,2.286207152833505,8.097846865026359,0.19312492539511183,-0.7842306177589694,-0.07854332921209395,15.697684983092461,30.799424235414254,-15.760059973617096,0.9465862075151454,-0.2823578587941262,0.08441482851912281,-0.1307529944918921
16.0,0.010669435215946849,-0.10949998213839171,-0.010431393562676382,5.105337959489871,2.291549494516487,8.042929464508981,0.43031494480763044,-0.049068963669488874,0.3086885560675883,15.52533222591362,31.382740104669022,-15.894662728182045,0.9453279279659201,-0.2871986139742614,0.08460681778190976,-0.12912208905910405
17.0,0.005912362019076199,-0.11258194905869323,-0.011539777801593255,5.081896286571643,2.297901528953667,8.055429473439787,0.07559914532204479,-0.3294857196441968,-0.34746086075090205,15.5381959329118,31.225691132604577,-15.913971461615402,0.945632715738399,-0.28596873134196943,0.08507261552261279,-0.12927438168259026
18.0,0.01111113492658879,-0.11139389311613618,-0.012490319008323508,5.164159164791197,2.2924342514199987,8.004148492480263,0.3859250526917444,-0.3641764235701783,0.28491492292716036,15.492871487961276,31.789141649251597,-15.975073288411387,0.9443369960473869,-0.29066826899414144,0.08443042428934018,-0.1286895429751277
19.0,0.011363555174507912,-0.10377701568249204,-0.010991319258386022,5.20491944414675,2.2639175865394923,7.986969599542742,0.26610000714464327,-0.3423824706176544,0.3715605240595863,14.986447504733327,32.06517254313578,-15.820971984067445,0.9444235481607901,-0.2923743487128925,0.08398076159129066,-0.12444313322009071
20.0,0.009859964991247812,-0.10529710999178366,-0.0168182402743543,5.272068017004251,2.2430732325938623,7.947917979494871,0.2741982370592648,-0.29052687278962597,0.33202162147679776,14.630877362197692,32.526230664809056,-15.750198933661984,0.9437831595312398,-0.29585446731650766,0.0833740636904226,-0.12140811744107455
21.0,0.00538275683903554,-0.10952446822507021,-0.014648770206488904,5.284272740659032,2.2213737336773214,7.945994132679508,0.37725790332600573,0.1539040030042354,0.05891068803786312,14.229129157289321,32.61073953157279,-15.608164334202016,0.944161425034999,-0.2960501206230547,0.08318736938352007,-0.11810737942939042
22.0,0.009754394173456256,-0.10511107132183742,-0.01780825607098639,5.32023464489816,2.2230799651132287,7.922153105349504,0.33179755631416563,-0.11465058664491909,0.35074660433401034,13.771705426356588,32.85954737268812,-15.666680629216536,0.9439866611934185,-0.2978236485373338,0.08429409483429567,-0.11425101386323233
23.0,-0.002872418888694297,-0.10694493658257767,-0.011638383027812702,5.3529207018653615,2.1849616415427895,7.91073477080071,0.0028563434412609834,-0.08228689086470224,0.21046354794273484,13.4922995257743,33.09413620554528,-15.43289868634406,0.9439454269177538,-0.29926103278633204,0.08279674201008178,-0.11194623376725366
24.0,0.001996202230000009,-0.10649781391340868,-0.013665581682877168,5.375216111301345,2.142837963628538,7.907649259440293,0.08206853270373342,0.05504991094245686,-0.05282314154322551,13.257910515575322,33.24412071413977,-15.1571895505453,0.9440877523943607,-0.30001902249378043,0.08105605291825133,-0.11000464395889567
25.0,0.004340843050483875,-0.12017632631154307,-0.016667468260793423,5.375168539521639,2.1739955947174945,7.898961726494341,0.6809032179647699,0.08274168934219617,-0.36239947399741923,13.280190136819918,33.24653112319892,-15.388524210756522,0.9438338206649222,-0.3002780903476967,0.08271653550751276,-0.11016808649557686
26.0,0.005376558425320616,-0.13773489801021685,-0.00361697567248955,5.201053191869395,2.271599685635694,7.984551673632693,0.25680192369520954,0.28087713892758903,0.17663857928767907,13.198562810345443,32.034221501804026,-15.87033901332476,0.9462002681522881,-0.2908395587371843,0.08893103249883899,-0.1097326696883864
27.0,0.018791054906583796,-0.13229205515664627,-0.013237595113063976,5.330432822491337,2.2486843139356263,7.9060867895545295,0.22758982156253352,-0.6912380997034974,0.219062913049691,12.87028665648555,32.93651247633337,-15.868988899010468,0.9443970354264817,-0.29801884228682174,0.08796815160950955,-0.10681647886519846
28.0,0.01774038152395242,-0.12202544386096525,-0.01684921230307577,5.447612724609725,2.200674722251991,7.838999615975423,-0.047351402582788554,-1.0351111773479085,0.09340242426678098,12.719369518718967,33.75994690636945,-15.67587789804594,0.9427574460427339,-0.30446193261422505,0.08527426545913265,-0.10537894866839034
29.0,0.020968145128616653,-0.1228790673278076,-0.01811953140724206,5.554596094798962,2.170901877255028,7.773844123487317,0.051619956655104535,-0.7320477454402798,0.0317443622120687,12.697260364198193,34.514224289140664,-15.607743728723992,0.94101115294141,-0.31055454576659314,0.08327027432555378,-0.10497309869306615
30.0,0.027536491919147046,-0.12910082398648445,-0.018805733445556517,5.616173047399478,2.1720678741113844,7.729970448840433,0.3540609863920684,-0.35551480013949477,0.0004235923963569234,12.652914456292644,34.95003049134453,-15.697067428878125,0.9398846073698984,-0.3141955182542642,0.08318863468293818,-0.10447983904008144
31.0,0.03947389112086386,-0.14490525070291965,-0.02283431833568149,5.656937330151353,2.193582324152466,7.694626353452472,0.15843170287345357,-0.2798995371665216,-0.0011994941244021819,12.562898760404387,35.24066544728517,-15.907001456374546,0.93903720175753,-0.31676218313519666,0.08431983719630777,-0.10368965147165364
32.0,0.04142036641564574,-0.143968004196171,-0.02524311565696303,5.688593196208458,2.1757296466973886,7.674829305758495,0.04614195796335844,-0.1403764377505526,-0.013854623281255855,12.47470238095238,35.466075409314,-15.808930210557866,0.9386520243266271,-0.3184069462525197,0.08347414865216743,-0.10285571647926264
33.0,0.03800511408339892,-0.14269905586152637,-0.022492525570417,5.702118410700237,2.1628225806451615,7.670318646734853,0.19277143981117228,-0.01151406372934697,-0.03389063729346971,12.42056451612903,35.56459972462628,-15.720195712037764,0.9385392002140045,-0.31909377991581434,0.08285864517938632,-0.10229909599999996
34.0,0.038636703383162885,-0.1394809205350118,-0.023272226593233684,5.701185090479935,2.170797600314714,7.669435483870966,0.262322974036192,0.037835611723052706,-0.08163355625491739,12.340814319433516,35.56453333988985,-15.766347856018882,0.938557198596381,-0.31905504400196694,0.08347164578009443,-0.1017390000338316
35.0,0.03628009441384737,-0.1310051140833989,-0.024413650668764757,5.732953579858378,2.168441974822975,7.645436664044057,0.31775668764752163,-0.4582501475216365,0.16533979150275374,12.20349872147915,35.78932066286389,-15.8103842938631,0.9380350813259247,-0.3208918796833202,0.08366471172482298,-0.10053955713158927
36.0,0.027026750590086548,-0.11968804091266719,-0.02148465774980331,5.801442564909522,2.1494099134539733,7.5978906372934665,0.1524525472069237,-0.013745328481510666,-0.19851371951219512,12.118962677025964,36.27985960857592,-15.78125,0.936849983565303,-0.3248274771125098,0.08264675224429582,-0.09970459915892996
37.0,0.016092840283241545,-0.10336782061369,-0.017851888276947284,5.832478953579859,2.1132887490165224,7.5842480330448465,-0.018041896144767908,-0.10674911487018098,-0.05649341070023604,12.114524734461053,36.50069089299764,-15.56161609952793,0.93649427031845,-0.32639198462136115,0.08061301736073956,-0.09964467878304484
38.0,0.008338243097359706,-0.09766984429034087,-0.019290066419043784,5.871572466287304,2.077750901139919,7.563640239328121,0.058606114943369994,-0.3501077251020072,-0.08440410407479919,12.121756811154007,36.78297508828426,-15.351722458053537,0.9359353658327996,-0.32850834558102937,0.07848265074469835,-0.09963756894150366
39.0,0.00568367701681518,-0.10278850200354966,-0.015427881360584048,5.929189065559072,2.0722664812544593,7.520392110222674,0.08226332497758586,-0.42640614421898154,0.018060536475582305,12.070614833586443,37.21143738678572,-15.400512094487036,0.9348044158038897,-0.33196713732237937,0.07810235089162534,-0.09911079555651109
40.0,0.009391799169304523,-0.12528252794906047,-0.01272416884708982,5.973599253471902,2.069579346056025,7.48691124000512,0.08012163101751046,-0.2224969352094121,-0.043354664885733626,12.066213199641373,37.53245453131576,-15.451028077141236,0.9338933878539512,-0.33464457146370735,0.07778845448121788,-0.09894851786716194
41.0,0.015747827200702613,-0.14009287687775604,-0.013672076555724296,6.000607651912977,2.071609499935959,7.464969388688633,0.1685079044151282,-0.2961127476991199,0.030648592026055292,12.0524811080819,37.7294992955556,-15.51319598192231,0.9333149531567158,-0.33628706649581896,0.07790207949316597,-0.09877683465584691
42.0,0.022248421861562957,-0.14036901908403937,-0.02283918540610763,6.033171646570176,2.0569259144054297,7.442653852487512,0.08722897187711562,-0.2715811574844931,0.0667109993961905,12.006226785354876,37.97403859348984,-15.446802554297111,0.9327437071959819,-0.3381799155256435,0.07707287282683475,-0.09832939261903278
43.0,0.030610149488591674,-0.14118646734854448,-0.03210857592446893,6.054130605822183,2.0393092053501185,7.429278914240754,0.17037273800157357,-0.046302124311565704,-0.011282946498819828,11.936393587726199,38.13814663650669,-15.329445318646734,0.932446118742722,-0.33936744463847346,0.0761454958202203,-0.09780928135169159
44.0,0.031729150275373735,-0.14311093627065305,-0.029960660896931564,6.06241935483871,2.036271439811172,7.421354642014162,0.13608133359559402,-0.05624508261211644,-0.010608035011801732,11.867832907159716,38.2002446400472,-15.329602675059009,0.9323323401738788,-0.3398388374451219,0.07621580776455547,-0.09722239492840282
45.0,0.02828796223446106,-0.13253933910306845,-0.027327104642014176,6.0802096774193535,2.0145550747442957,7.414761998426436,0.09808098937844216,-0.01768907356412274,-0.025641719118804092,11.782908389063728,38.32842373131393,-15.183954563335956,0.9321972268611329,-0.3406375799765933,0.07514817056372936,-0.09650797023839494
46.0,0.03481195908733282,-0.1321494885916601,-0.033315499606608984,6.090599527930762,2.000772619984265,7.410029897718335,0.1968823760818253,0.05337332808811959,0.02279701022816679,11.725599921321795,38.40046223446106,-15.106992525570416,0.9321164024673487,-0.341114587642801,0.07458729449881984,-0.09604394213217937
47.0,0.04250826121164439,-0.13432808811959085,-0.0384319433516916,6.091550747442957,1.9981754523996853,7.4101487018096,0.16846479150275373,0.12033831628638865,-0.052404602675059,11.657228560188827,38.408334972462626,-15.07884539732494,0.932179848082612,-0.34109254535169153,0.07457196078206137,-0.0955001904287962
48.0,0.038463114907646784,-0.11552791203027238,-0.039941497133865356,6.113344591809971,1.9875430107526884,7.395412292533063,0.18158262616612342,0.016954685099846385,0.013650785845416055,11.499601223258775,38.573978471207525,-15.034493602712523,0.9318958681018508,-0.3422829733931288,0.07442357495961184,-0.0941167681710127
49.0,0.03137366528043161,-0.09796215016297628,-0.036488675958188166,6.127713845490987,1.9745378685699297,7.387008907496907,0.2427538191712562,0.11267445018920236,-0.03301481538720917,11.37504296860365,38.68249005985164,-14.96040296822899,0.9317716156177458,-0.3429966832967292,0.0740484802262373,-0.09308926862055561
50.0,0.03748521973699001,-0.09796897830729459,-0.04288546701135216,6.14425611629388,1.981668127833352,7.371540744071035,0.1082972724888539,-0.041545839421527855,-0.002923738338765877,11.267208984301824,38.8059879734742,-15.045473661533851,0.9314381068693569,-0.34400756543868705,0.07475383545989285,-0.09211562237076168
51.0,0.05124693716983254,-0.1148483758570305,-0.04882117567719458,6.1580226293507145,1.980676707504402,7.3597286725862645,0.004242066614214529,-0.11286575999400547,0.05060835112959424,11.219412910718969,38.90695740137125,-15.062297216290135,0.9311679587729949,-0.34483623688928844,0.07486219925315649,-0.0916345959556405
52.0,0.06495391705069126,-0.1286405529953917,-0.05829493087557606,6.171858678955451,1.9799339477726567,7.348981566820276,0.16041666666666665,-0.018106758832565288,0.018375576036866355,11.145180491551459,39.00414746543778,-15.07371351766513,0.9309369763149005,-0.34561522805990774,0.07495390034254992,-0.09100881771582184
53.0,0.05932411674347159,-0.12270737327188941,-0.060798771121351784,6.198559907834101,1.9583655913978497,7.331649001536098,0.01866839477726573,-0.050792050691244234,0.014900153609831027,11.015346582181259,39.21004704301075,-14.955491551459293,0.9305636456766514,-0.3470791112419354,0.07405013467972349,-0.08999706870430109
54.0,0.06629877112135177,-0.1251862519201229,-0.06767588325652844,6.215606374807988,1.9453149001536099,7.320860599078341,0.10292098694316434,0.15122647849462367,-0.046947004608294936,10.956578821044547,39.33286530337942,-14.884999039938556,0.93032755212404,-0.3479741694151305,0.07349531735368663,-0.0894656829358679
55.0,0.08058486943164364,-0.12551651305683562,-0.0793782642089094,6.204339477726572,1.95102841781874,7.328853686635947,0.13248367895545315,0.045598118279569895,0.011607142857142858,10.917377112135176,39.24443164362519,-14.906562019969277,0.9305811325983104,-0.34726660655030706,0.07391405828571429,-0.08921319640745008
56.0,0.08570775729646696,-0.12385906298003072,-0.08707219662058371,6.201113287250383,1.9428045314900149,7.333882488479264,0.08539506528417819,0.09417002688172042,-0.0837629608294931,10.866954685099845,39.226399289554536,-14.83508544546851,0.9307536997427035,-0.34697194096466966,0.07359791036059907,-0.08883328782872503
57.0,0.0812536622831666,-0.09790425611629389,-0.08513051215765613,6.227522516953279,1.9170947323067704,7.318805721029564,0.15412615675695926,0.018262359034880674,-0.09510544284590311,10.794379191487767,39.423480058821326,-14.67149261455172,0.93039932469885,-0.3483575138415008,0.07232549043059458,-0.08815036773438611
58.0,0.08785857592446891,-0.07766817466561762,-0.08976927616050354,6.225862903225805,1.9065481904012587,7.323237018095989,0.08518145161290322,0.281128294649882,-0.12644694138473642,10.722558516915814,39.411516522423284,-14.58573342840283,0.9305693421467347,-0.34811812061703373,0.07200032288867032,-0.08755908110877261
59.0,0.07515912667191188,-0.07512037765538947,-0.08318705743509047,6.221096774193547,1.8962861919748228,7.329614476789931,0.1532258064516129,0.1180087037765539,-0.0856781077891424,10.850644177812747,39.38181672895358,-14.502266915814317,0.9306290816620773,-0.3478789406835169,0.07105297183143193,-0.08862701708261211
60.0,0.0674402953458815,-0.06452669006838953,-0.08050988521051464,6.246409429280396,1.903696342472109,7.3049385452601445,0.26764112903225806,0.04101363125138695,0.0751587748895479,10.736069607516795,39.57891950488208,-14.604135680818656,0.9300612840628415,-0.3494969295858651,0.0717271850522958,-0.08765638868564023
61.0,0.06349434122132785,-0.07119076438903348,-0.07706945873428958,6.258995037220842,1.9064288163973437,7.294739433920395,0.13004032258064516,0.10949371078698379,0.03226184712219331,10.645000529564848,39.67088616373136,-14.64443175169965,0.9298402314346468,-0.35021215891793256,0.07211542470759948,-0.08690220647991688
62.0,0.0733089330024814,-0.0805993161048236,-0.07924676713268375,6.248427495006958,1.9103583893159024,7.302452329076639,0.17939860346184106,0.3168190426476225,-0.023896613811051265,10.589981578708468,39.589278644414854,-14.660704270814419,0.9300988868896286,-0.34955233520640927,0.07254153673224191,-0.0864343558127358
63.0,0.0702484869575743,-0.07302113720268716,-0.07643927656398153,6.2465339678024545,1.915286983800359,7.30259201819686,0.1967606707317073,0.10479032384151385,0.0018007096168976555,10.474691812170914,39.575294318273514,-14.697115510702254,0.9301907152874579,-0.34940296469840526,0.0731762678633672,-0.08550275268606894
64.0,0.07346698541427102,-0.08279685892392423,-0.07814705763682947,6.258609725836713,1.9131354273840495,7.2911790736145585,0.08998819826907946,-0.036591733240533386,-0.028988758094776978,10.397401349633842,39.665797360749664,-14.703698884383385,0.9299531622243739,-0.3501320012725897,0.07329775380668362,-0.08491798185513123
65.0,0.07975334382376081,-0.08449272226593234,-0.08310247836349333,6.267155979543669,1.9166876475216366,7.283104838709676,0.22684893784421714,0.12181476199842645,-0.04966807631785995,10.382090873328089,39.72956948269079,-14.72825039339103,0.9297826148284816,-0.35061658913257276,0.07345265109854446,-0.08468757958182532
66.0,0.09141699449252555,-0.08896813532651454,-0.09712785208497246,6.273235247836351,1.915150275373722,7.278483870967742,0.05868656569630213,-0.004843627065302898,0.01009539732494099,10.354553501180174,39.776957120377645,-14.725617132179387,0.9296866724303697,-0.3509326255420928,0.07345578031943353,-0.08441721763768686
67.0,0.07779032258064515,-0.0792983870967742,-0.08879838709677418,6.300387096774197,1.8957419354838703,7.260177419354841,0.12565524193548389,0.05151209677419355,-0.022681451612903226,10.274193548387096,39.98266129032258,-14.622127016129033,0.9292369725645157,-0.352475517,0.07252738667741937,-0.08375534560483872
68.0,0.051771636506687646,-0.05823485444531866,-0.0695116050354052,6.315195908733282,1.8845902832415415,7.251204563335959,-0.03493804091266718,-0.06409938040912666,0.041020849724626274,10.227923387096773,40.093688532651456,-14.550328235641228,0.9290136927153811,-0.3533047223629032,0.07193544570456334,-0.08332208304484656
69.0,0.02730279509370776,-0.054234052532833046,-0.045777204502814264,6.354152544937359,1.8651323004297047,7.221640949988904,-0.10912922517097379,-0.31626637237991484,0.14140191576388467,10.216821753515301,40.39671761206601,-14.46153263002078,0.9282115494580834,-0.3556532758972292,0.07079923993354718,-0.08316268659376322
70.0,0.00040542980491839464,-0.04896783271802943,-0.026505537735278098,6.36824562730739,1.8546306663438847,7.212316442736388,0.004079540640319554,0.25928112832617156,-0.024283921150315718,10.161233457402812,40.50332352377494,-14.39928950049426,0.9279820926524287,-0.3564426999687759,0.07028199945870908,-0.08276223101865579
71.0,-0.030391993988178094,-0.036957165768928164,-0.015129244084004114,6.2297250953216725,1.7698434606306361,7.345196675341445,-1.6004951431338135,3.1009217895761463,2.437600491234441,10.06420863468095,39.4559509534689,-13.560149520113377,0.9316300129643929,-0.3471781006111583,0.0663537816102554,-0.0822555396870423
72.0,-0.09843390021989548,-0.026764873207044723,0.02444344247412698,6.001624644435029,1.5094781819282215,7.579243498961046,0.48049839617502854,0.03481069317516994,-1.2802924963182636,9.090899680243702,37.76398858157316,-11.332922542314753,0.938521216740261,-0.33112745812009525,0.05588103326883738,-0.07478560676287599
73.0,-0.10315479432709959,-0.01402759789384494,0.03331141439205956,5.979293832839071,1.6586926708224905,7.5728278863806,0.34469451673424917,-0.7413476038451451,-0.4167739035485889,9.713944135951905,37.5902702545946,-12.37852362363574,0.9379889753016806,-0.3308350227146504,0.062226835336228296,-0.07991195299591479
74.0,-0.12107946498819826,-0.0032147915027537365,0.04220161290322581,6.014207710464202,1.7450932336742726,7.530367623918176,0.33570023603461835,-0.8794465479937057,-0.4451994000786782,10.233424714791502,37.839975904799374,-13.062116443745083,0.936491620929583,-0.33371526557651454,0.06534741594354837,-0.0840896196890244
75.0,-0.10984618410700234,0.006344217151848937,0.040096774193548394,5.934668371361132,1.8557966168371363,7.567679779701024,0.34083398898505113,1.2890317663257278,-0.17282651455546816,10.761646833202203,37.24685287175453,-13.77863886703383,0.9371284635535012,-0.32982686548583795,0.07012864564516127,-0.08851882312273801
76.0,-0.13659893784421714,0.02614221085759245,0.04735365853658536,5.738671715184893,1.9197708497246266,7.700968135326516,0.16390145554681354,1.0434635621557828,-0.18896538158929976,10.684865509441384,35.831702399685284,-13.995485837922896,0.9407912671386705,-0.31829427590578285,0.07448436593036979,-0.08823877076278522
77.0,-0.13626855494361395,0.03683704244876551,0.044836967517140607,5.612434359896594,1.968238919485969,7.783244820351429,0.22846570473193212,0.13585548499494216,0.00745183301487393,10.590636239743734,34.93105857311453,-14.185319723876962,0.9430751284739053,-0.3109790003935596,0.07776121074053051,-0.08765050630727586
78.0,-0.11770660522273427,0.04057767599565398,0.030633050466449367,5.566110215053763,1.976738507362032,7.816443323592221,-0.04178064469296766,0.01492298433929043,0.07964336058971189,10.42590286753962,34.59336029701022,-14.185130170282118,0.9440908491670789,-0.30810121399506385,0.07881653723550072,-0.08638128460674946
79.0,-0.10455491551459292,0.039808999288149585,0.023046363942902104,5.556155913978493,1.9704337698100485,7.826048274699336,-0.12026028202390318,-0.3037784271851935,0.29307268835937206,10.43092018376981,34.521352527537374,-14.127796939979767,0.9443442254706362,-0.3074811522676932,0.07850143392016971,-0.08645994139611667
80.0,-0.09717665130568356,0.04342062867633287,0.018289311003709115,5.5582150537634405,1.9824628526469605,7.822177363156119,-0.04624405230227417,-0.2635827619796935,0.02652626353452474,10.481538720917163,34.531215578284815,-14.214856131280207,0.9442037864167696,-0.307694768375782,0.07902521153669777,-0.0868761371053164
81.0,-0.09019336105803455,0.045427859578134965,0.013456221198156683,5.605810910044583,1.9837097898167917,7.78780780038215,-0.11733917800007493,-0.5743808774493275,0.043972219100071194,10.579823255029785,34.867397718332015,-14.28568337641902,0.9432092859267169,-0.3106104447386384,0.0786738613820389,-0.08758360596021131
82.0,-0.09740064066539282,0.045520962122063635,0.020891311678093737,5.634548143568992,2.004928590161478,7.761536997489791,0.08813375763365927,-0.3570524708703309,0.23918069293020117,10.751993298302798,35.06783466336967,-14.476104187741186,0.942381013137106,-0.31258111949644074,0.07924052222215355,-0.08894880428176163
83.0,-0.09367343861226632,0.04578659473230677,0.02036885092353228,5.63972414858941,2.0158168296429513,7.754923644674236,-0.09017371258101983,-0.3942520418867783,0.04096131420703607,10.743484168352628,35.108802124311566,-14.561856817372897,0.9422167150785377,-0.3129695643488349,0.07982581055424115,-0.08884637458327713
84.0,-0.09404215768495863,0.04279321465316745,0.01746172074712594,5.651571027975432,2.0235080839695323,7.744246148226282,-0.0355212287057291,-0.7981431321923552,-0.1832356115069038,10.783087333349183,35.19788353734189,-14.636438515179417,0.9418950143514071,-0.31378939748655554,0.08009317330906846,-0.08916575952271796
85.0,-0.10144043368118899,0.047880478294325665,0.021662311986466197,5.731946804310297,2.0516008161783135,7.677360977338947,-0.17642996919157425,-1.0827661225477905,-0.25726800736635513,11.095500319900399,35.77537826060643,-14.959222281783259,0.9398304553652196,-0.31909060600940675,0.08047147432388907,-0.09153808670893962
86.0,-0.09755341904358425,0.04407399209759558,0.021244216575451825,5.813199995388823,2.058148952542343,7.613888985915736,-0.0010296974203347214,-0.7105657914076481,0.35902335272909625,11.399958067109917,36.36506914603885,-15.120690999270858,0.9378828641381567,-0.32429028264671755,0.07966538496288869,-0.09388333120655479
87.0,-0.10510637120550571,0.04786311721323523,0.025515892709441098,5.816820296671594,2.0459155462947756,7.614894925688001,0.009664144208794082,-0.006492573123178913,0.2482321720372468,11.122776043783125,36.3876879955214,-15.02897256493834,0.9381366374073945,-0.3242144184909434,0.07977847361441051,-0.09160818681098787
88.0,-0.12311002124023365,0.04617042189386801,0.03468190948836111,5.78516130040953,2.0226735949599837,7.645561902168117,-0.1167837113057412,0.017395034482957403,0.07272879723214104,10.995239788404618,36.15803370590202,-14.810737242530614,0.9390560622981672,-0.322016294671739,0.0789813165422283,-0.09065628381640023
89.0,-0.12029115619497208,0.04450870143494064,0.033492319508448554,5.750060385523209,2.036288823948147,7.668064656625827,-0.22230831553707242,-0.252846113858604,-0.10428386441122475,11.091798967816866,35.90459067429096,-14.867615312745869,0.9395986269050801,-0.32003753389831785,0.07961383198823575,-0.0914913531042299
90.0,-0.09723832003296991,0.03908096362069613,0.02227035330261137,5.784114870180959,2.019999250683751,7.646536360570977,-0.13121464163950394,-0.3533887827357536,0.2483116968266457,11.1284599677794,36.15232053875839,-14.791040519276159,0.9389924338799596,-0.3220286153362557,0.07849621531669851,-0.09172589576179238
91.0,-0.10690790903300738,0.049855194634895655,0.02767333558128208,5.807777340676633,2.0311522610617807,7.626356299876361,-0.029685802330373524,-0.4361357761043048,-0.014637424600052448,11.129705003559252,36.32129205537447,-14.907961250983476,0.9384311477936382,-0.3235523691158068,0.07900975046716122,-0.09168162209804803
92.0,-0.10681707317073172,0.05187019969278035,0.02810327451200779,5.817404274849201,2.063209227829605,7.609664418717919,0.06840730489678169,-0.6374882919336106,-0.07035494174066165,11.595729014461803,36.395021613090556,-15.165581680154357,0.9376022871509122,-0.32474315493406014,0.07939772760872577,-0.09546353997206924
93.0,-0.12731865610130755,0.06096835075493612,0.03979243003259525,5.8675416338840805,2.0818289404668233,7.566051159566895,0.07511866125285677,-0.613432664568581,0.3952988601026563,11.60455730630175,36.7592597340864,-15.37887905801581,0.9364259945204376,-0.3279467621963395,0.08019686845134126,-0.09541170800971302
94.0,-0.1166149732119441,0.06643982053875838,0.0324163763066202,5.883815171780748,2.0584426960398634,7.560380418493127,-0.08474409679292645,-0.31004294518751635,0.2167522526319733,11.47443087089281,36.8749675686561,-15.222226827395001,0.936382523090864,-0.3286363883239762,0.07921726878615451,-0.0943587891863081
95.0,-0.10173893821887528,0.0800223296242179,0.011119478475890746,5.87207290847102,2.07389876737477,7.565468435053014,-0.07949402420291483,0.2962890112772096,-0.6210089543291746,11.605410999962533,36.785114832715145,-15.32431905885879,0.9364003132349481,-0.3281075368676333,0.0797855919374321,-0.09543145132299277
96.0,-0.11377505526207335,0.06665632610243155,0.030580982353602338,5.738856281143457,2.0878699186991865,7.661369150650032,-0.006274352778089992,0.5467528848675584,0.2901298658723915,11.551933470083549,35.82234695215615,-15.235030300475817,0.9390423130439101,-0.3200863565423926,0.08114610248169796,-0.09524950190618561
97.0,-0.1121955153422502,0.06497639653815895,0.03031353265145554,5.676352871754525,2.109010228166797,7.702526357199055,0.03618214004720693,0.06920977576711251,0.2985739575137687,11.425582710464202,35.37301583398898,-15.305293568056648,0.940251672244689,-0.3163886452289536,0.08286444726081826,-0.09436254322344612
98.0,-0.08984677419354838,0.05465971675845793,0.012064712824547599,5.663978953579859,2.099890637293469,7.714622738001571,-0.1199645948072384,-0.32598716561762386,0.19725609756097562,11.380302173485445,35.282692023996844,-15.221490214398113,0.940614665264752,-0.31554309956569626,0.0825596664038159,-0.0940093548650669
99.0,-0.08308064516129032,0.05276534225019672,0.00730251770259638,5.682469315499605,2.111566286388669,7.698617820613688,0.02787052517702597,-0.5601962037765538,0.24252925845790718,11.495166207710465,35.41314540715972,-15.33476224429583,0.940086907116247,-0.31680214421833197,0.08282579984303698,-0.09488205679543665
100.0,-0.07808064516129032,0.05832218725413062,0.004320613690007868,5.68208949645948,2.0996742722265926,7.702143587726198,-0.3437512293469709,-0.27863640833988984,-0.025585169158143184,11.531151652242329,35.409218872934694,-15.241499065696303,0.9401589923363495,-0.3166911972462628,0.08205773640538946,-0.09521499241384737
101.0,-0.0845,0.0550078678206137,0.013619984264358776,5.68432297403619,2.0985468135326517,7.700870180959874,0.05204071597167581,-0.013612559008654573,0.16694531864673487,11.552874213217939,35.42701367033831,-15.237004573170731,0.9401004306278522,-0.31684681136506687,0.08195013556963023,-0.09538040215047205
102.0,-0.08717112509834776,0.05619669551534226,0.016396931549960664,5.706158143194335,2.1152966168371363,7.679790322580644,-0.2333546420141621,-0.8843700826121164,0.0063508064516129,11.79366886309992,35.586895161290315,-15.39567023996853,0.9393179932435091,-0.3185115402214791,0.0820948667368214,-0.09730678160660897
103.0,-0.10048957513768686,0.05456176239181748,0.023501376868607395,5.728401652242328,2.114843430369788,7.6630029504327295,0.023714103068450038,-0.5289769374508261,0.18929853461841067,11.87910724822974,35.75123180566483,-15.421207464594808,0.9388059649891818,-0.3199293543042879,0.08172052170043273,-0.09795017972541306
104.0,-0.10451416207710462,0.05855094413847366,0.0255456333595594,5.743167387883556,2.1209384343036985,7.650498819826906,-0.2724318941778128,-0.27252040715971676,-0.05226937450826123,11.893265637293469,35.856305320613686,-15.48917437057435,0.9384640131593232,-0.3208540042293469,0.08196722426081826,-0.09802798927065302
105.0,-0.10023288749016523,0.05752143981117232,0.022305074744295827,5.77069256490952,2.1066667977970095,7.633805861526356,0.054031028717545226,-0.4294809697088906,0.3525447482297403,11.887409028324154,36.05887342643587,-15.421905733674272,0.9380123029828875,-0.32242097630822186,0.08109106817073171,-0.09792454171597167
106.0,-0.10256805664830841,0.05502281667977971,0.01786624704956727,5.747600314712823,2.109696302124311,7.650495672698659,-0.2550157356412274,0.18256294256490946,-0.02831431943351695,11.860287175452399,35.8854346970889,-15.409667584579072,0.9384877619228953,-0.32098531754523985,0.08144578284343036,-0.09773888529346972
107.0,-0.10257041699449251,0.05062706530291111,0.020451612903225808,5.7303265145554665,2.1024445318646734,7.665047206923681,-0.08246459480723842,-0.28706235247836354,0.01957612116443743,12.051111329661683,35.763085169158146,-15.33288257277734,0.9387156899150273,-0.3200499862745869,0.08058076942722266,-0.0993445566357199
108.0,-0.09088488629125922,0.0478125023416133,0.01527975722153535,5.7286472031771005,2.1255795399198227,7.660004964220147,0.10505179648570678,-0.2702581160316212,0.3602865900490802,12.022600548874152,35.746526333782924,-15.50193475797085,0.9386105578701058,-0.320088898067045,0.08192416112270054,-0.09910728875414931
109.0,-0.09854629837773032,0.04909665242965795,0.02075553557378892,5.7153503521786355,2.1110667172455133,7.674401380615189,-0.20076875163912927,0.15341342821550336,0.1805612729946424,11.815366954216778,35.65149389073096,-15.372687481267095,0.93916131675488,-0.31902420450401814,0.08176017892641714,-0.09745037094749165
110.0,-0.09909169757596192,0.047633003634183824,0.022724541980442846,5.711824369637705,2.099593842493724,7.680236980630172,-0.06968881130343561,-0.1439838100857967,0.1487735800457083,11.884750009366453,35.6251673082687,-15.280723780956128,0.9392545535145367,-0.3187825547399123,0.08094870918901502,-0.0980353408527781
111.0,-0.09521520362669064,0.051227792139672566,0.01939856131280207,5.711085571915627,2.1144380502791194,7.676308006444119,-0.3343151717807501,-0.5200261792364468,-0.221832968041662,11.97826210145742,35.62140421865048,-15.392100801768386,0.9390792305879134,-0.3189201205151174,0.081509422336443,-0.09878566317638904
112.0,-0.08712373084560338,0.048277153347570365,0.012602506462852648,5.721691487767412,2.1149570267131246,7.6686024689970385,-0.06367115788093367,-0.1867440101532352,-0.20946093720729836,12.320513820201565,35.69371745157544,-15.407350558240605,0.9385753670327451,-0.3197858019137349,0.080527087198906,-0.10156408409016147
113.0,-0.09035582218725412,0.0464459087332809,0.017835759244689227,5.720345200629425,2.1589527930763177,7.656706726986625,-0.07430541896144768,-0.20811983674272228,-0.3432471970889064,12.786655438630998,35.68590676632573,-15.73978412667191,0.9378348272604248,-0.32042733107572774,0.08163974430605822,-0.1053441500218332
114.0,-0.10766561762391814,0.049469708890637315,0.027125491738788355,5.717539339103068,2.198753540519276,7.647465381589298,-0.04312426239181747,-0.5756847462627852,-0.3689798878835563,13.390060729740362,35.67052271833202,-16.03457415420928,0.9369970966370966,-0.3210744527795043,0.08213416135365853,-0.1102690064695122
115.0,-0.10900216365066875,0.057847954366640454,0.029532651455546816,5.7741784028324155,2.2200619590873325,7.598459677419353,-0.057314614476789934,-0.9454907553107789,0.26020972659323366,13.62578801140834,36.076658389063724,-16.28520849724626,0.9354585661534225,-0.3248692303420535,0.08238903362529504,-0.1120197165037372
116.0,-0.1262624105503728,0.07240343186842008,-0.057626915439661294,4.64210782660822,1.8621786369937428,8.177603686635946,-0.4322407365778727,14.60384352403432,9.679494024202913,92.70663800532016,28.740305721029557,-13.197519763216064,0.9525773739515191,-0.25703045190700985,0.07399887404555844,-0.07073251569330484
117.0,-0.19075118953954517,0.09161477651642876,-0.027405117829980143,4.687017721329287,1.7644528118092238,8.252751489266045,-1.4955509347720204,-7.539467891798732,-4.140681784121989,73.16581900266007,28.941258289311,-12.32884446067963,0.9550996913423999,-0.258204320379154,0.0707350469795062,-0.07015055777977594
118.0,-0.182370087295343,0.08814019707017345,0.011738039039376565,5.229956539657563,1.8546850998463895,7.963791165561425,-0.14077310703982615,-4.280576786182607,-1.922401277584205,42.509050335319024,32.50411655614252,-13.272826046232812,0.9471124392825296,-0.2897361028016934,0.0715776018493125,-0.08392184397250008
119.0,-0.2116979506200591,0.21686486081450673,-0.0983076692518078,4.813932037016222,1.6280206811284699,8.21689183619947,-0.6260115769360459,0.3165650406504068,0.04957897793263599,64.54231061031808,29.725406035742385,-11.467280637668127,0.954569860191825,-0.2641865495511595,0.0636004574984077,-0.07079791367052563
120.0,-0.21472781087257872,0.14816099059608107,-0.004094825971301223,5.105616687272864,1.7821220636169497,8.081152448390842,0.6566047544115994,-0.7037109887227904,0.17919546850998444,37.965933039226705,31.562668596156005,-12.584053379416282,0.9506623650408377,-0.28132079843018243,0.06918066005919597,-0.08273011233880334
121.0,-0.18740399385560674,0.10907496909070472,0.026265033157244003,5.389562399310629,1.9295833801655986,7.9081933985238475,0.11619553407515645,-2.319033101045296,-0.5547094526244802,22.325751189539545,33.43759834775767,-13.791865703795287,0.9457479734903151,-0.29864707269454127,0.07467084363793039,-0.0907348212757109
122.0,-0.1616736727735941,0.08336360570978982,0.04069821288074632,5.538213929789066,2.0223282754486522,7.804627777153346,0.2665261698699936,-0.4143306732606496,0.14773378666966389,16.685544752912968,34.43413650668764,-14.56796766700386,0.9425662093045597,-0.30810846473200704,0.07756385646570005,-0.09677795189749352
123.0,-0.136565921096999,0.06896927803379417,0.03133988985051141,5.603211719306132,2.0841814469296756,7.752243265520214,-0.01316501817091903,-0.86389653815893,0.01263019369825033,14.49731065715035,34.86902490539882,-15.06988076505189,0.940990455890525,-0.31245657643741337,0.08003886164504889,-0.09917003123498558
124.0,-0.12475321269341727,0.06392855269566522,0.034642913341575814,5.651928065640103,2.1030653029110935,7.72192574275973,0.20906368251470533,-0.5751496290884568,0.15273383350192948,12.174498192274548,35.19770334569705,-15.238075334382374,0.94013959387404,-0.3153980669987262,0.0806206592249822,-0.10051991152313514
125.0,-0.11643021992431905,0.05477571091379118,0.030521037053688513,5.667234873178224,2.089276272900978,7.714206661421452,-0.5655196274024952,-0.7300343514667865,1.0849301965081861,11.81016482615863,35.312827123374916,-15.148568923045222,0.9402475099133041,-0.3159733619398486,0.08077324252602,-0.09749412336600352
126.0,-0.1149310009424093,0.06674723329385014,0.0249011205159907,5.604107964943527,2.088537851998513,7.758841211240897,0.31236138099705174,1.3145015254709884,-0.6642518014211071,11.92746787576769,34.85956535514708,-15.063435316895928,0.9413575879802152,-0.31224011835568954,0.08075371161030367,-0.09857940904980358
127.0,-0.12140904885830144,0.06957926180821539,0.022813463483801803,5.58266688569757,2.1068898937411924,7.770259315297867,0.2299458114662678,0.42184249660646195,0.395621075095898,11.626863978206424,34.70412743563806,-15.167579553609254,0.9419002256191398,-0.31087307365768346,0.08262209293418409,-0.0961267545249018
128.0,-0.11900559969796792,0.07324969234804012,0.021360648792592148,5.513149111051549,2.103703011386725,7.821467599277199,0.16089264459642116,0.25694659392535074,0.10281245767083685,11.331236328580939,34.211299508909654,-15.05022122841753,0.9435102914747003,-0.3064839693941259,0.08346812223514119,-0.09384546321790405
129.0,-0.11943391067547106,0.06710304499201725,0.02051116625310174,5.452601397602145,2.084443220695284,7.869357114003776,-0.38411417758285726,0.009032804217537882,0.1096155220123712,11.273394155544379,33.78289242640331,-14.835302300849937,0.944837426268611,-0.3026945005346199,0.08280482524735304,-0.09351158955746355
130.0,-0.10991027892995764,0.060871218273611555,0.014959884201819686,5.4162157450713515,2.0513921172600846,7.903295225541845,-0.49071054407598147,-0.22469709682345537,-0.11298756326042111,11.438701967060712,33.52871216895453,-14.543617651305414,0.9456121263438142,-0.3004126910968031,0.08069087411172493,-0.09497186771502115
131.0,-0.1084918257003275,0.05019291713172197,0.024399488591660107,5.413101517757488,2.0532476533767587,7.90511157210034,-0.05287547115437399,-0.7857167321555998,-0.20648672076555724,11.66609378144841,33.507361415430076,-14.554283759583189,0.9454709329182204,-0.30040599268814616,0.08021922329464073,-0.09684945570624667
132.0,-0.11243542897919602,0.0549029101787642,0.031848937844217155,5.475643500814229,2.0598415686238636,7.85985014088888,-0.28293975170621927,-0.6696476805939289,-0.32128771522148825,12.011953140724204,33.94932082868279,-14.679233613662563,0.9439641823623361,-0.3044158247271376,0.07938826997796553,-0.09958033507892979
133.0,-0.12169352094121089,0.05951193896034984,0.03624704956726987,5.503712879439371,2.0788603004409643,7.83555007044444,0.09673576930818067,-0.18883089674857742,-0.0963293414817119,12.26041205423307,34.14371283369623,-14.851688379411925,0.9431030856287486,-0.30636743373856884,0.07965018454946662,-0.10153414895478746
134.0,-0.11871046420141619,0.05998898505114083,0.03504720692368214,5.558221872541305,2.1179205350118018,7.785899291896143,-0.20402734067663253,-1.0733084185680566,0.054484657749803295,12.649847560975608,34.53055664830842,-15.21096577498033,0.9414196143690007,-0.3102621558843431,0.08046715511565697,-0.10458571909992131
135.0,-0.10624665617623917,0.058665617623918184,0.0235558615263572,5.644320220298976,2.107282848151062,7.727107002360343,0.1474601691581432,-0.4169354838709678,0.28068941778127454,12.635422403619197,35.142859952793074,-15.241355232100707,0.9398573137643589,-0.31528641097442967,0.07955861484972462,-0.10430372072934696
136.0,-0.12176219512195122,0.05964358772619986,0.028737018095987412,5.6596502753737195,2.109007277734067,7.715681746656174,-0.34591979740361917,-0.1292240361919748,-0.12521882376081825,12.644299518095988,35.24722659323368,-15.27619000786782,0.9395549742976004,-0.31620178450373726,0.07956813028481513,-0.10436297078560189
137.0,-0.11615932336742721,0.07053147128245477,0.03219512195121951,5.696357395751376,2.0909512195121946,7.693236034618409,-0.006150422895357971,-0.5694507277734068,0.1717151848937844,12.793495525177025,35.517212086939416,-15.197470003933908,0.938818511927026,-0.3183923061913848,0.07803809462627853,-0.10549237172344611
138.0,-0.11687804878048781,0.0700963808025177,0.03248465774980331,5.725577891424075,2.097185287175452,7.67040833988985,-0.20088267112509833,-0.6788281864673484,0.3492648505114083,12.882004819040127,35.726826809598734,-15.28386605035405,0.9381074005562546,-0.32027959634972464,0.07798517107120378,-0.10617202998269078
139.0,-0.11708654602675059,0.05820161290322581,0.03583241542092841,5.716626081825334,2.0746225413060575,7.682595987411486,-0.18726765342250196,-0.3078985542879622,0.017330104248623107,12.917885769079465,35.667116197875686,-15.105785306845004,0.9384110695385524,-0.3196018133416601,0.07671923173623131,-0.10648405477419354
140.0,-0.11921439811172305,0.05624980330448468,0.035472462627852086,5.704973249409912,2.0792214791502746,7.690418174665616,-0.08616984657749804,-0.35257425255704167,0.21016178206136898,12.843619689221086,35.58065991345397,-15.12375590086546,0.9386863215216363,-0.3188731970011801,0.07723923561172305,-0.10589833447836347
141.0,-0.12094116930800644,0.05173473268142821,0.03021553145254955,5.706216720992094,2.0643960604698206,7.693073723352441,-0.22218906888089618,-0.24190381355138435,-0.00855643053838373,12.881701521580307,35.58819604454685,-15.017292462815181,0.938728667359859,-0.31886588275820504,0.07631600129336666,-0.10622756276145515
142.0,-0.10384558465400322,0.056952043760068946,0.027434378629500582,5.722285779850886,2.088185933460716,7.675129603611703,-0.04670441347270615,-0.6089307374208535,0.21762198634371133,13.092085639822411,35.70226334485407,-15.21817244108501,0.9380365875912197,-0.320178451512167,0.07694303643297368,-0.10790390896943727
143.0,-0.09364475853283877,0.05660236596605599,0.017608894383874717,5.744781330785658,2.088633481323292,7.658096483833499,-0.36302674590685996,-0.92977378844929,-0.4002483866284516,13.484561685118578,35.863724078341015,-15.25459553313851,0.937189945171378,-0.32178348667678236,0.07575694669382937,-0.1110866856872916
144.0,-0.0958989921696452,0.0573536023378667,0.015659285901614778,5.762705181521862,2.0941352890487424,7.643366790303844,0.1601700947885055,-0.18829919261174188,0.10226995991158064,13.573656850623806,35.99259792626728,-15.31928365366603,0.9367152027429471,-0.32296471891903644,0.07574150904046306,-0.11173393227106516
145.0,-0.09422014911393353,0.05461307182196247,0.017849312502341612,5.808236933797909,2.1067647334307438,7.605003615450899,-0.22014606983627438,-0.47908271983065454,0.12484662433029857,13.734384483533775,36.32773090648533,-15.490114879547413,0.9355229689403171,-0.32599167433756693,0.07577159308042036,-0.11293423677282605
146.0,-0.09661168558690195,0.055995607133490694,0.018210745195009554,5.841760555992656,2.0968644393241163,7.581941693829381,-0.039556521861301555,-0.49246662030272376,0.28653853358810083,13.768317621108238,36.57022316745345,-15.456376330036342,0.9348794343641303,-0.3279642128077629,0.0749595248012345,-0.113125935199852
147.0,-0.09989219212468621,0.0539251245738264,0.020661234123861977,5.854736296879099,2.103671893147502,7.57002365966056,-0.040828369113184215,-0.2989323414259488,-0.3186480227417482,13.635175480499043,36.663405618935215,-15.528430346371437,0.9346912128602711,-0.3287308158271702,0.07567580340307595,-0.11199247474892285
148.0,-0.0942602281667978,0.056500196695515356,0.025289142407553106,5.8817122344610535,2.1127145948072377,7.546279110936272,-0.04751671911880409,-0.18357715381589296,0.23374434500393387,13.911164929189614,36.86201194925256,-15.63690622541306,0.9337903811544059,-0.3306275879350905,0.07522023760169158,-0.11417146986447678
149.0,-0.09551376868607396,0.059797010228166816,0.024369787568843435,5.878343036978757,2.1261494885916603,7.545326514555468,0.10570416994492526,-0.19642014162077104,0.12252163650668763,13.838640833988984,36.835297010228174,-15.731835169158142,0.933843269389457,-0.3304796796160504,0.0761612239559402,-0.11358387108418569
150.0,-0.1009352965419055,0.057324791128095624,0.02696965269191863,5.874145105091603,2.164761267843093,7.537743621445432,-0.16205064441197406,-0.6896769978644487,-0.3398645610880072,14.237250618185904,36.80462468622382,-16.01373543516541,0.9332235147679742,-0.33086773405102843,0.07710157906294257,-0.11681123523412387
151.0,-0.10361871042673562,0.05870960248772997,0.024385691806226822,5.911474598179161,2.2120423176351585,7.494312408677082,-0.16486678562062118,0.1525061116106552,0.196118073507924,14.818566300438349,37.07746969952419,-16.435786875725903,0.931468208871005,-0.3339675643347195,0.07779276940558616,-0.12131185386804538
152.0,-0.12883138511108613,0.04802513956015138,0.03410079240193324,5.8107766381926504,2.143011717432842,7.590456755085982,-0.1377048326214829,0.8761891297628412,0.4710429077217039,14.1270988465213,36.34604700554494,-15.764166057847213,0.9347630365755497,-0.3267431595513094,0.07653101722442958,-0.11599786189861751
153.0,-0.11614956352328498,0.047964182683301514,0.028191525233224685,5.700868157806003,2.1149776329099685,7.680804990446215,0.014590124011839178,0.03655726649432389,0.5809851635382712,13.661508092615488,35.55966664793376,-15.396095125697801,0.9376437630297101,-0.3195513160982353,0.07685695541463414,-0.11255934043317972
154.0,-0.12090011614401855,0.04877359409538798,0.028173654040687876,5.647983252781838,2.072806676407778,7.732223895695175,-0.2301459293394777,0.17692340114645383,0.20534801056535912,13.243460576598853,35.177630334195044,-15.004297562848901,0.939428339861826,-0.31567352247870073,0.07597402173485446,-0.10934744801438687
155.0,-0.12519276160503537,0.04737450826121166,0.03425963808025177,5.644938630999214,2.0664563335955943,7.737024390243899,-0.11693548387096772,-0.29428599527930754,-0.04696597167584579,13.327994689221086,35.15059992132179,-14.95174075531078,0.9394888342273802,-0.31545279092368217,0.07547133472226594,-0.11003187426986624
156.0,-0.1220653029110936,0.04474940991345399,0.03792840283241543,5.640549567269865,2.082634146341463,7.736950432730135,-0.30374704956726983,-0.30956431943351687,-0.5205817269866246,13.619421223446103,35.11636014948859,-15.057572777340678,0.9391885419405979,-0.3155093817639654,0.07556749910385523,-0.11243510831904013
157.0,-0.10741738788355626,0.03951475216365068,0.027205743509047996,5.671041896144767,2.114755310778915,7.706795436664045,-0.17294453186467348,-0.7359682336742721,-0.22744271243115655,14.30973519866247,35.33330792682927,-15.334672501966955,0.9376508910253737,-0.31810631558300556,0.07520367896184108,-0.11795031690145553
158.0,-0.10495062942564909,0.03910818253343826,0.026659323367427226,5.693573367427221,2.128087332808812,7.685212234461054,-0.10355895948072384,-0.3650607297403619,0.09446916797797009,14.490729494492525,35.497399931156565,-15.468949154209284,0.9369138052022027,-0.3197545162915028,0.0753411313599528,-0.11935477749508261
159.0,-0.10207612116443746,0.036878326171599196,0.02836191974822974,5.6827228913232055,2.109814551433356,7.698257998950956,-0.23390895141116422,0.2981309513002078,-0.003055557657003369,14.558295759446427,35.41724641408945,-15.318697075036816,0.937195900381912,-0.3189233615101021,0.07420268891777622,-0.11998308660206984
160.0,-0.13116443745082612,0.04878682240916701,0.034936270653029115,5.671161209626984,2.099185599870887,7.709890112772094,-0.042719744194960566,-0.142868778873893,0.22619706873247392,14.533494850612279,35.33719323064818,-15.226370690350825,0.9375319670646776,-0.31813210343178194,0.07377913157503682,-0.11979685688640078
161.0,-0.13734775767112511,0.05828562206217594,0.041581431943351704,5.605679739353224,2.1186305654743887,7.751976527668502,0.12590114285137888,0.5025182069438561,0.16455899856765316,14.420686253000868,34.86452501815651,-15.27826697381428,0.9387991767565715,-0.31425096635633154,0.0754895285475499,-0.11899962971070628
162.0,-0.12706884343036978,0.06056295265185902,0.03221872541306059,5.574885503036173,2.1312547005184683,7.771554746918436,0.021177361354879055,-0.25299443704734814,0.20206706812725694,14.371240058050395,34.64796372859045,-15.330149419243881,0.9393558130321016,-0.31250216694685184,0.07647200289690634,-0.11866105728650972
163.0,-0.12317151848937843,0.05855566987431661,0.03065774980330449,5.575176622485829,2.1202765438076208,7.773862050878572,-0.151860916096754,-0.19474318626560955,0.1490174050313704,14.34728837579939,34.64678932397264,-15.251591846718716,0.9394576041007283,-0.3124042641266517,0.07595585165409832,-0.11849065007873874
164.0,-0.12023092053501179,0.06148544453186469,0.029425649095200637,5.572527930763179,2.1130133752950435,7.777619197482299,0.06144030291109362,-0.5560926435877261,0.29551780094413843,14.245087529504328,34.6319089299764,-15.19350167191188,0.9396721026872541,-0.31210414061998426,0.0758333535177026,-0.11766660611132965
165.0,-0.10626416207710462,0.054948072383949664,0.02600314712824548,5.591224626278522,2.109095200629425,7.7652690794649875,-0.1604187155782848,-0.24256736821400474,0.30051755507474426,14.232889948859166,34.76542830448466,-15.190672944531865,0.9393530962098742,-0.313179853122738,0.07556389091306058,-0.11753137942859951
166.0,-0.10986978756884343,0.05308103855232103,0.028970102281667985,5.602440204563336,2.1026919748229735,7.758719512195125,-0.03342840283241542,-0.5025693351691581,0.13732297403619195,14.317006785995279,34.84650619590873,-15.15773259244689,0.9390812401184107,-0.31388170030723833,0.07494231637686861,-0.11821666729307628
167.0,-0.11008831628638865,0.051599527930763195,0.02494531864673486,5.607707120377656,2.097113099921321,7.756397521636506,-0.16566188040912666,-0.42381122147915024,-0.04055369787568844,14.267079317466562,34.88307803894571,-15.125311024783635,0.9390734164518095,-0.3141206641662077,0.07475247375491739,-0.11779125923269078
168.0,-0.0966127065302911,0.04863847364280095,0.0219404012588513,5.640309205350118,2.089617033831628,7.734638276947285,-0.18580473052714397,-0.47024734461054285,0.04333202202989772,14.523333005507475,35.1144976888277,-15.116108133359559,0.938227568375098,-0.3161670236032651,0.07344442123229741,-0.11984137487037766
169.0,-0.09300078678206136,0.04910149488591661,0.017941778127458695,5.631542092840284,2.088303697875688,7.741847364280093,-0.15208497246262787,-0.23621164437450823,0.07775373721479151,14.528225806451612,35.04969512195122,-15.091266719118803,0.9384096212966168,-0.3156309356396538,0.07341081953894571,-0.11987982778914241
170.0,-0.096213217938631,0.0456679779701023,0.01677970102281668,5.648568056648307,2.0846357199055854,7.73040833988985,-0.21490952006294256,-0.4281225413060582,0.051981707317073175,14.704169944925255,35.17342643587726,-15.083546420141621,0.9379144961990559,-0.3167348073005507,0.07261667595751378,-0.12130456806451613
171.0,-0.10089575137686863,0.0457922895357986,0.017182140047206928,5.6466325727773405,2.0795169158143185,7.73360306845004,0.07820121951219512,-0.2506958103855232,0.4472880605822187,14.54787077104642,35.15737608182533,-15.045952989771834,0.9381565121081824,-0.31646596213965383,0.07278920944217153,-0.12001478379622345
172.0,-0.09562096774193549,0.04839181746656178,0.016057631785995282,5.673996852871754,2.0678387096774187,7.716290125885131,-0.16155340283241543,-0.5521771734854445,0.0027057926829268386,14.478080743509047,35.35715971675846,-14.996938926042485,0.9377634512547206,-0.31798594765125887,0.07220466514988198,-0.11940446727183318
173.0,-0.09466561762391816,0.04598741148701811,0.016278520849724625,5.6985601888276936,2.066569630212431,7.698339889850513,-0.04907553107789142,-0.4457612116443745,0.1755507474429583,14.494197482297404,35.53211054287962,-15.023455940204563,0.9372722343981117,-0.31945483871754526,0.07198969349331236,-0.11948733867820611
174.0,-0.09975609756097562,0.04648308418568059,0.021628638867033836,5.712258064516128,2.0696380802517704,7.687285601888278,-0.14162077104642015,-0.27670141620771044,-0.12898308418568055,14.45898898505114,35.62760621557828,-15.06648308418568,0.937026749032258,-0.32026519904799367,0.07219003910306845,-0.11912621830841855
175.0,-0.10308493499681541,0.043325090854595204,0.023707616799670303,5.716542280169344,2.0593076317859955,7.686561387733695,-0.16536472968416321,-0.0772287475178899,0.32280778164924506,14.570466168371361,35.66020381401971,-14.99125641602038,0.9368986058843805,-0.32050826929339477,0.07128669772057997,-0.12001275685886627
176.0,-0.10686111423326214,0.04345247461691208,0.021759394552470876,5.713082312389944,2.0479543666404414,7.692175265070624,0.03892463751826457,-0.20312558540331946,0.24502407178449664,14.378048780487804,35.63871717058184,-14.89865731894646,0.9372521988037168,-0.3200734905278933,0.07119409413959762,-0.11846538045146304
177.0,-0.10641482147540368,0.05083953392529318,0.023022891611404597,5.703726049979393,2.057762391817467,7.696850024352779,-0.26444307069798806,-0.6082012663444607,-0.29951294443820015,14.567210857592446,35.56715559551909,-14.964606983627439,0.9371489347842343,-0.319743995518864,0.07128511450488928,-0.12004023455854032
178.0,-0.10021685212243828,0.05426398411449554,0.018469746356449743,5.711839421527856,2.0448512981904017,7.694207860327452,-0.09520343936158254,0.1417785957813495,0.10763927915776852,14.736536191974823,35.624785508223745,-14.878241729421902,0.9369199020884191,-0.3201742040104155,0.07005910544677982,-0.12141344118092239
179.0,-0.11319890599827656,0.06095339252931701,0.022612528567681995,5.66439256678281,2.048858379228954,7.72841785620621,-0.13905038215128696,-0.06370452587014347,0.24520929339477726,14.626706333595592,35.290623477951364,-14.841407450076805,0.9379396446988125,-0.31730599563620693,0.07082747389412161,-0.12064246638589787
180.0,-0.10259716758457905,0.055130605822187276,0.021469708890637297,5.646515342250196,2.043260818253344,7.742996066089694,-0.15612214791502754,-0.24746508654602672,0.07586546026750589,14.725553206136901,35.16345397324941,-14.779568253343824,0.9382245124689221,-0.3162481877600315,0.07037982086270653,-0.12149890875727773
181.0,-0.09898937844217151,0.05770298977183322,0.011549173878835563,5.636754917387882,2.042798780487805,7.749837922895357,0.19883703776553896,0.15682902242328878,0.6013916207710465,14.520182189221085,35.09483182533438,-14.762202498033044,0.938626948256491,-0.31552771075255703,0.07094176970751376,-0.11984298673505114
182.0,-0.10972856018882768,0.05636605035405194,0.021249016522423295,5.623021636506686,2.0111250983477578,7.767695712037762,-0.26129646931549955,-0.42224626278520844,0.22598347757671128,14.240988886703382,34.9953420043273,-14.509286487018096,0.9393998426978756,-0.31425350042289546,0.07006044427596382,-0.11762007488473643
183.0,-0.09754997074784642,0.05174268191813433,0.01860383001472695,5.615927691702476,1.996428140571728,7.777529100849319,0.0029894566160302005,-0.31669462642982504,0.08823341579414554,14.202026184460045,34.94364714463677,-14.393931911829974,0.9396842254335118,-0.31366513732166285,0.06945198711161714,-0.11733364335386534
184.0,-0.10249272730940709,0.04724230870100267,0.020870463394460248,5.608282394238335,2.010512457382638,7.779603260102077,-0.19472502975650102,-0.3927979180536222,-0.1285899453287337,14.22014111642357,34.889086677157096,-14.48706172204402,0.9397218295191753,-0.3133426079753475,0.07018481071306662,-0.11748480167290043
185.0,-0.09708822046036836,0.04007670116403399,0.019546167967883155,5.653106578708466,2.012069761342775,7.74583231455143,-0.28024017026770764,-0.640537432669612,0.025693225604712627,14.50518267465553,35.20956595856281,-14.55757983820533,0.9385324956565191,-0.31623588281930237,0.06924724130460568,-0.11973371327547461
186.0,-0.10792648631200952,0.055581230204361606,0.030382840081502552,5.694181141439206,2.0655274062418045,7.701385866166353,0.08792377796606751,-1.5255696604732796,-0.7003713258286429,14.968267969900541,35.49903455284553,-15.012611712965764,0.936828247281446,-0.3194977516771571,0.07062521437378197,-0.12336017878958624
187.0,-0.09948645322681514,0.05572924610139403,0.029676077790554575,5.786630303213702,2.032169682664569,7.640441162823537,-0.35282213934112044,0.07948995339829323,0.567595611672618,15.06972112106357,36.169855592709155,-14.888091851762189,0.9350949312174341,-0.3248415065938893,0.06798123049137567,-0.12394003046875063
188.0,-0.12939417781274587,0.06684146341463414,0.03290420928402832,5.553890833988985,1.9295149488591656,7.83015027537372,-0.0007855527143980912,1.4918076317859952,0.2641534716758458,14.481862214791501,34.5153041404406,-13.857031864673484,0.9407932274284027,-0.3096780030281274,0.06533908397521636,-0.11976854620790715
189.0,-0.1241164437450826,0.06549331235247838,0.03130291109362707,5.439118804091267,1.9510558615263571,7.908284815106214,-0.23690991345397322,0.31707317073170727,0.02116443745082612,14.4514653815893,33.69976396538159,-13.860975609756096,0.9429089636254916,-0.3029924417922895,0.0672336767537372,-0.11980379045476003
190.0,-0.11683713611329662,0.06665932336742723,0.02684028324154209,5.491561762391818,1.9632958300550745,7.871151848937842,-0.12474921321793862,-0.6725363886703383,0.14328776553894573,14.727488198269079,34.06576514555468,-14.000953973249409,0.941616166179386,-0.30635434061762395,0.06684277839811173,-0.12199834236506688
191.0,-0.10938630999213218,0.06378599527930764,0.021586939417781274,5.498208103855234,1.9621435877262,7.868675845790713,-0.18149832808811958,-0.472750295043273,0.2688311369000787,14.678751966955154,34.110626475216364,-13.997624901652241,0.9416136615397324,-0.3066540321656176,0.06690483874272227,-0.12155764389299761
192.0,-0.10419354838709677,0.06208575924468923,0.01674547600314713,5.52623229740362,1.9420749409913451,7.854660503540517,-0.10709947875688434,-0.43685705153422505,0.11998303501180174,14.692444433516915,34.307870279307636,-13.886818941778127,0.941224492799764,-0.3081532069325334,0.06565814092132179,-0.12161377720220298
193.0,-0.10019431643625192,0.06175178899254431,0.015910756434753287,5.536744988947586,1.937867923644674,7.848849068974561,0.03914059280281741,0.06270506678281063,0.3325109587501405,14.506770891873664,34.37711102291034,-13.863294743546515,0.9412816930780693,-0.30857683779518374,0.06588566079207411,-0.1200562615903488
194.0,-0.09399231950844854,0.055271055786594754,0.01315699112060245,5.548162817054438,1.9373492844029823,7.841005179648571,-0.2188117600502042,-0.592916619834401,0.12069096324603798,14.554746333033606,34.45879240661646,-13.872171565321644,0.9410260226317765,-0.3092743265548499,0.06565381060974673,-0.12039864403710987
195.0,-0.09401228878648232,0.05275246337716835,0.013058334269978645,5.562391892398188,1.9322754486531042,7.832014686598477,0.04984311191038178,-0.3119825034655876,0.18433741710688997,14.437907440710351,34.560595800082424,-13.854533363305983,0.9409066778360495,-0.3100224819629088,0.06563219408309917,-0.11943093865565171
196.0,-0.09167648270952755,0.05351785245963061,0.013737664381252105,5.575390281368252,1.9234626653178966,7.824720954628898,-0.0756193567120003,-0.24975108650856093,0.2439438855794088,14.33421237495785,34.65278511483271,-13.809691937357162,0.94082165858915,-0.3106616219476228,0.06538942231771008,-0.11857379243797533
197.0,-0.1046698699936308,0.05335609381439438,0.015731932111947844,5.5030491926117415,1.9265700423363676,7.874775898242853,-0.06050342343861227,0.12841910662770223,-0.17823458750140495,14.371079436888838,34.13928594844704,-13.743531059158517,0.942121826883088,-0.3063865560013488,0.06582421922337117,-0.119040242080514
198.0,-0.10702340676632574,0.05715086546026752,0.014410306845003934,5.477708890637293,1.9412435090479936,7.889228363493312,-0.0883986526357199,-0.1096417682926829,0.11875122934697088,14.45515833988985,33.96171567663257,-13.816615853658536,0.9424187956260817,-0.3050695533623131,0.06650345244728559,-0.11975608210896929
199.0,-0.1068402832415421,0.05686054287962236,0.0128184500393391,5.47189437450826,1.9396469315499605,7.8938558221872555,-0.09630827104642015,-0.21033880802517704,-0.07205325531077891,14.476016669944926,33.9162962234461,-13.799286978756882,0.9425184880796615,-0.3047100234801337,0.0663989106093627,-0.11996701471498819
200.0,-0.09847659323367426,0.05057946498819829,0.009292289535798581,5.477757671125098,1.9514887883556258,7.887069040125884,-0.11924788552321006,-0.24418150078678208,0.23657921911880403,14.53087627852085,33.962079563335955,-13.893242279701022,0.9422734764632178,-0.3052003578570023,0.06685519987726199,-0.12039905818410698
201.0,-0.1001976638624947,0.050614174181444066,0.006926748572696644,5.4769044765881905,1.9518181121265306,7.8876986019488005,-0.12998749218261413,-0.4862366095745325,0.06788315277693717,14.583260202949424,33.95688888216426,-13.892376283564325,0.9422275391086767,-0.3052107716928725,0.06674697434557887,-0.12082411174217755
202.0,-0.10080656112835501,0.047548479320312545,0.010922068228126448,5.5139572774458685,1.963774066741022,7.858595095436954,-0.05734369551246027,-0.6901873074473389,-0.073434271275538,14.4999470435151,34.22056022917549,-14.02275538354905,0.9415330346318926,-0.30749097882047244,0.06739445316244887,-0.12004733754431196
203.0,-0.09711059763734822,0.04154764642648201,0.011291089188807522,5.564224901508144,1.9656163803414,7.822995423406912,-0.03245823642656845,-0.385612929884173,0.3750895126706496,14.671762467469588,34.57450611773487,-14.098956369980662,0.940396509038999,-0.3105813259208578,0.06673474979129525,-0.12133074604595613
204.0,-0.11303759622229333,0.04102638025494046,0.019400068591256633,5.5570030880475425,1.9674203066144451,7.82697214128646,-0.14661857533366185,-0.2776461580970826,0.01750640070983306,14.556042524057373,34.52289428624745,-14.104557846674044,0.9406448592126544,-0.31010304285027945,0.06720902539997492,-0.12039037177199458
205.0,-0.1068050884337273,0.036311577224244426,0.020183905263370258,5.5746547698302225,1.961996443629804,7.815961877094845,-0.1647911425055406,-0.34250251453241226,0.1388187245484649,14.636438600738364,34.647283836672116,-14.081588399143474,0.9402703437918111,-0.3111292200299784,0.0665899040628907,-0.12101831888599729
206.0,-0.1080354801243865,0.03647146978382228,0.02335719905586153,5.575801431194035,1.964667753175228,7.8142703533026125,0.13076247611554456,0.02039826158630248,0.22740062193248659,14.612649160765802,34.65447810123263,-14.109480021355512,0.9402548631300436,-0.3112075339000786,0.06682312967382263,-0.12081168762522945
207.0,-0.1004622344610543,0.03727773406766328,0.02226278520849725,5.581699842643589,1.9711671911880404,7.808878835562551,-0.11500786782061366,-0.4048682140047207,0.053619197482297404,14.644214693154996,34.699075531077895,-14.162657356412273,0.9400716504067663,-0.3116433498630999,0.06704409395318646,-0.12100732622541302
208.0,-0.10684252182383576,0.039066539282904364,0.027286650931025443,5.584552105578661,1.9753005413809894,7.805568075381217,-0.02891400659398298,-0.37612327188940087,0.1634989322243453,14.67885798349631,34.718386347457944,-14.196160222546926,0.9399505428366677,-0.3118694382298527,0.06716350198146379,-0.12130914551445243
209.0,-0.10451400284740175,0.037194559964032835,0.02249816417519014,5.588352665692556,1.9711301094001714,7.804058231238996,-0.23613039039376568,-0.3900777649769585,0.04687043385410813,14.68713564497396,34.74785244792252,-14.169047853208948,0.9398974912409146,-0.31206434667137795,0.06688706054315124,-0.1213661934951294
210.0,-0.10212393690757185,0.03898437675620998,0.023305533700498295,5.588676332846278,1.959165861151698,7.806944438200142,0.05501948222247201,-0.028052995391705082,0.23926182983027985,14.58207588700311,34.75137078041287,-14.082810216927054,0.9400884518744894,-0.31190894829133414,0.06654985997722078,-0.12047175693304857
211.0,-0.10368588662845155,0.040294706080701376,0.022691319171256233,5.583303548012439,1.9558221123225055,7.811666554269229,-0.24973258776366564,-0.43271748904124985,-0.0017056311116106504,14.52857236521674,34.712329764714696,-14.047183039226706,0.9402657926799669,-0.311527829236147,0.06650698833636806,-0.12008963698344009
212.0,-0.1024566333220936,0.03765718781611781,0.02649121426698138,5.601187572590012,1.9761329287025584,7.793048068637369,-0.08776460230040087,-0.4681044172192874,-0.2569257895919973,14.87586171368626,34.83919989415908,-14.220778773743957,0.9394024397664192,-0.31300392308778235,0.06657609609580009,-0.12289899995120074
213.0,-0.09057931512494849,0.04176638192649208,0.022197220036716495,5.631507764789629,1.990247723951894,7.767614664118992,-0.20529263141133716,-0.6963217938630999,-0.1838344385748005,15.128359044247123,35.055856667509644,-14.367853864598555,0.9384476335506442,-0.31509574459304635,0.06648137522531938,-0.12487974698788917
214.0,-0.1053057865947323,0.04856867483421379,0.03313086808287438,5.624935334007718,2.0222367652017534,7.763750880446594,0.03666820042336366,-0.38530807435090475,0.07385899039001909,15.418413393091303,35.00829627730321,-14.592949109718631,0.9380370419729027,-0.3151735015949102,0.06743309933846614,-0.12723518909475104
215.0,-0.1124633771683339,0.047244014836461734,0.03088801468659848,5.645677344423213,2.0265458019557148,7.7475246337716825,-0.1611769884979956,-0.4081530291109363,-0.05140215803079691,15.586878067513393,35.157298340264504,-14.653757820988346,0.9374143448937096,-0.31655156052729383,0.06709458491116856,-0.12856116641834325
216.0,-0.11685481997677119,0.04785646847251884,0.033924731182795695,5.666293432243078,2.035064403731594,7.730660035217862,0.03835328387846089,-0.5782651455546813,0.24003456221198155,15.660718734779511,35.303290200816754,-14.74518142819677,0.9368734536805289,-0.31791598301266344,0.06723983689618222,-0.1291037030518152
217.0,-0.11163748079877112,0.047877880184331825,0.03493010752688172,5.691952380952381,2.02263133640553,7.715017665130567,-0.24148425499231954,-0.39375,-0.0017569124423963411,15.604459485407066,35.48617991551459,-14.683256528417818,0.9365258428072195,-0.31928989398233487,0.0665660617250384,-0.1285768757281106
218.0,-0.11548463901689708,0.044461213517665146,0.033021889400921656,5.694662826420892,2.023178187403994,7.712697004608295,-0.004358678955453152,-0.3335637480798771,-0.0046706989247312,15.715776209677419,35.505474750384025,-14.687538402457758,0.9363555747945467,-0.31950912375,0.06623402294777267,-0.1294747345998464
219.0,-0.11334440448091115,0.04727987898542582,0.03129723502304147,5.71125057135364,2.018563326589487,7.702087585703044,-0.15737455977670375,-0.27635725759619345,0.15932131851560452,15.720697285601887,35.62325579080964,-14.673953357405116,0.9360571555374189,-0.3204526973668371,0.06586805041015698,-0.12948632853674458
220.0,-0.12307850024352776,0.04870848787980969,0.03829185867895546,5.6882643025739,2.046061041174928,7.711682233711738,0.3422708614326927,-0.3627838035292795,-0.05988307154096886,15.664474506856244,35.45903932973661,-14.851157986306244,0.9363697230492394,-0.31931707086295,0.06767238335254394,-0.12906937528200518
221.0,-0.10214084335543816,0.050263665655089745,0.02636209771083886,5.731786163875464,2.1018067794387623,7.664276600726838,0.14329256584616537,-0.5367223502304148,0.17429909660559736,15.589315218613015,35.7741990511783,-15.32516654724439,0.9351744470687778,-0.32245865177136485,0.07060753099068975,-0.12828552268132515
222.0,-0.0992072234086396,0.05143100670638044,0.02846596230939268,5.751914128357875,2.1182205612378713,7.644596305870893,-0.1185078771870668,-0.4127479768461279,0.11166334157581206,15.618797066426884,35.921906026375936,-15.479586986250046,0.9346193419341726,-0.3238640416844629,0.07129311445580908,-0.1284703415994155
223.0,-0.11074032445393578,0.051840695365479014,0.03131055411936608,5.702424038065267,2.1308729534299955,7.678135326514554,-0.07195075118953954,0.5909810422989022,-0.17671921246862238,15.864650069311752,35.56245550934772,-15.503690382525944,0.9352356262320635,-0.3211344905657338,0.07158923255816568,-0.13060012137574462
224.0,-0.11847559102319133,0.051690607320819766,0.03646172867258626,5.656689595743885,2.157966767824361,7.704137686860737,-0.1602869412910719,-0.23088143007006112,0.013686027125248204,15.946452690045334,35.237413828631375,-15.641125285676818,0.9358349731490765,-0.3187355597313327,0.07307702249780824,-0.13138104262099584
225.0,-0.1222639091828706,0.04710336817653893,0.040992769098197906,5.662776441497135,2.1456907571840693,7.7030097036454235,-0.36651539844891534,-0.33966786557266493,-0.11210379903338204,16.10852300400884,35.2833094488779,-15.554952043760068,0.9356252477312204,-0.31909082080499046,0.07193722338945713,-0.13267374090419992
226.0,-0.11425390581094749,0.04607253381289575,0.03625248211007456,5.677768236484209,2.14907275860777,7.690795174403357,-0.12039872990895806,-0.5228679611104867,-0.17478714735304035,16.41361929114683,35.38974186055225,-15.607826139897343,0.9349398907625417,-0.3202371271499382,0.07119558736900078,-0.13510387519403544
227.0,-0.10240783410138246,0.05199692780337943,0.028211213517665132,5.73110599078341,2.1466213517665125,7.6510215053763435,-0.249971198156682,-0.8293922811059907,0.19745103686635943,16.649635176651305,35.77299347158218,-15.663556067588324,0.9336076122388632,-0.3235813873294931,0.07003796806451612,-0.13688439358678955
228.0,-0.10883448540706604,0.05612903225806452,0.029040322580645157,5.7547542242703535,2.115541858678955,7.642634408602149,-0.1592597926267281,-0.2781754032258065,0.42781057987711213,16.579713901689708,35.93836405529954,-15.460402265745007,0.9334635628513825,-0.3246157552354071,0.06840226124423965,-0.13626786538786484
229.0,-0.1150798115469634,0.06348878835562549,0.02518450039339103,5.744869441010078,2.0646907759169753,7.6640516653553625,-0.08582580504664493,0.21263891620771047,0.4206242858079502,16.252575774605674,35.86672825109587,-15.070290137593195,0.9344197592971508,-0.3232979859427429,0.0666717361752276,-0.13366074402674122
230.0,-0.12324555093477202,0.0638290715971676,0.028503540519276158,5.7629387527631035,2.071256678281068,7.649340348806715,0.13579173457345173,-0.47112509834775773,-0.19792878451537976,16.221449177625416,35.99420081909632,-15.14555333492563,0.9340342205235754,-0.3244353168463715,0.06701543662793638,-0.13340496134804802
231.0,-0.11002344423213817,0.0683208103855232,0.03238276947285602,5.763017271739538,2.092208787606309,7.643070351429323,-0.17479996768573675,0.1967569826907946,0.15945601981941473,16.307447149788317,35.999430636731475,-15.306755203064704,0.9337773036047263,-0.3247164963112659,0.06791493625132065,-0.13406564655885878
232.0,-0.12580607695477874,0.06268607395751376,0.031848151062155786,5.727132554044434,2.0767677494286465,7.673965643849988,-0.1890651343149376,-0.554066679779701,0.28638492375707164,16.325744867183694,35.74075460829493,-15.139474916638566,0.9345886800459706,-0.3223972199880484,0.06726136531999549,-0.1343385912965419
233.0,-0.12071007081038551,0.05089457120377655,0.030798190401258863,5.73640833988985,2.0416514555468135,7.6760452399685315,-0.4191802714398112,-0.2317196105428796,0.33691237214791503,16.280741050354052,35.8069974429583,-14.892373131392603,0.9347151764976396,-0.3225716675515342,0.06543711648347758,-0.1339661501439811
234.0,-0.11428894571203776,0.05238670338316287,0.03594197482297405,5.722610149488591,2.0173717545239964,7.693396341463416,-0.2832280192761605,0.11678181549960662,-0.014347708497246286,16.409818794256488,35.70345938237608,-14.688810483870967,0.9350272275289142,-0.3215201425680566,0.0638437987413454,-0.13508140619708892
235.0,-0.11141463414634148,0.04542722265932338,0.03409598741148703,5.6474744295830055,2.0164358772619986,7.748815106215578,-0.27838316286388665,-0.1523701809598741,-0.02171518489378443,16.486487018095985,35.1662962234461,-14.57782258064516,0.936411452292683,-0.31705592199370575,0.06402978823760817,-0.13591873296144769
236.0,-0.10601258851298188,0.038198269079465,0.0296270653029111,5.6159795436664055,2.0035342250196697,7.775342250196697,-0.17118410700236034,-0.18691974822974033,0.07311172305271439,16.58191384736428,34.941384736428006,-14.445780881195908,0.9369959193139259,-0.3151121030605821,0.06328582259795436,-0.1368229368922108
237.0,-0.09874822974036192,0.037146341463414646,0.01947521636506688,5.584406766325729,1.9661557828481513,7.807059008654602,-0.06125590086546026,0.3823269079464988,0.43949645948072386,16.390799567269866,34.71177222659323,-14.133448072383949,0.9380874639362706,-0.3127219552321006,0.062000899743509044,-0.1353798418646735
238.0,-0.10312234461054286,0.03999645948072385,0.018935090479937057,5.538871361132967,1.9731258851298186,7.838419354838708,-0.2083521833202203,-0.30315204563335957,-0.260006884343037,16.57936909913454,34.38928009441385,-14.127778324154209,0.9386792265810384,-0.3101825220708103,0.062171766693154995,-0.1370075433603462
239.0,-0.10439516129032256,0.04944354838709679,0.016040322580645163,5.531024193548387,1.9722096774193547,7.84440322580645,-0.14138104838709678,-0.9567540322580645,-0.547883064516129,16.799042338709675,34.33568548387097,-14.11320564516129,0.9385693945887095,-0.3098228208387097,0.06159180666129033,-0.13882018033870966
240.0,-0.11985483870967739,0.046024193548387105,0.0315,5.569596774193549,2.026209677419355,7.803120967741936,0.028578629032258066,-0.17686491935483867,0.21885080645161292,17.311592741935485,34.61179435483871,-14.552721774193547,0.9368372766532258,-0.3129514633548387,0.06279626690322582,-0.14285824711290324
241.0,-0.11430645161290322,0.04778225806451615,0.029919354838709677,5.565991935483872,2.00816129032258,7.810387096774196,-0.10624999999999998,-0.2378024193548387,0.489616935483871,17.184526209677422,34.57918346774194,-14.414264112903226,0.9372008787419357,-0.31245466675,0.06220402899193549,-0.141867803766129
242.0,-0.11410483870967741,0.05233064516129034,0.02860483870967742,5.585879032258067,1.9967741935483867,7.798830645161292,0.15992943548387098,-0.5105342741935484,0.1481350806451613,17.06154233870968,34.72646169354839,-14.358618951612904,0.9370394309596777,-0.31349959856451615,0.06181625868548386,-0.1408207062983871
243.0,-0.11007454760031471,0.05153402832415422,0.030239181746656178,5.6058619197482304,1.9956723052714391,7.784791502753737,-0.16357321990558613,-0.3334960169158143,0.025131540125885143,16.930136211644374,34.87028791306058,-14.373762047600314,0.9368238919179781,-0.31461945919787565,0.06196404767918962,-0.13969791310011803
244.0,-0.10884697088906373,0.047982297403619215,0.02697875688434304,5.63504386309992,1.988594610542879,7.765343823760818,0.020156372934697103,-0.2370242427222659,0.35309795436664043,17.02009244689221,35.07744885916601,-14.35818376278521,0.9362060536807634,-0.31633075709303704,0.06114433277084974,-0.14035265854602674
245.0,-0.10902832415420928,0.047391686336218215,0.02711725862650332,5.646037868569928,2.0217909688659095,7.748982971788243,0.0985022456071335,-0.42417768395713906,0.1358303711925368,17.061143093645796,35.15738322374583,-14.615721825709041,0.9357097859050899,-0.3173728845244371,0.06275411219514068,-0.14060060987324374
246.0,-0.11545495672698664,0.047830776291633896,0.026698578172417668,5.654705303285751,2.035096802292907,7.73922122625604,-0.08069638408077628,-0.20889930126259787,-0.06522001798358998,17.091996482896857,35.22043900565733,-14.72666377477427,0.9354175889536268,-0.3180285153419786,0.06333001632022967,-0.1408208939642576
247.0,-0.10512195121951218,0.051458169420403904,0.020219175002809935,5.653342325128319,2.0589749353714732,7.733663032482858,-0.26260490427484917,-0.6536309055486867,-0.06303388782735753,17.302276516428755,35.2076378741898,-14.899188865160541,0.9350040366655428,-0.31832812912742126,0.06403896797984338,-0.14252830851635384
248.0,-0.12362391817466563,0.05910831366378181,0.025215016297628415,5.689284852572027,2.008936720242778,7.720417668877149,-0.33157290847102017,-0.45695412311265965,0.19708750140496797,17.306827675995656,35.46855634858191,-14.576512213854857,0.9346419866112923,-0.31998070470218426,0.06107204078850548,-0.14250757246195345
249.0,-0.12176681278333522,0.05365366602974787,0.028942602375332513,5.723183132891236,1.9618834063916673,7.707574800494546,-0.20503189277284478,-0.2892501217638904,0.41012817991083134,17.094857114757783,35.71250702483984,-14.272094292083473,0.9345673321535723,-0.32139644959698027,0.05889180245093852,-0.14071807534772018
250.0,-0.11794792252069987,0.04865479000412126,0.03363489565771234,5.738245176276647,1.9352688921359258,7.703374957850959,-0.25859793563373423,-0.308747564722191,0.26392065677569215,17.01075901052789,35.81873431119104,-14.100942499344347,0.9345553123586602,-0.32197076160878196,0.05761740916248924,-0.14003106752178635
251.0,-0.11120842231463787,0.04665139934809488,0.03003313851110861,5.769902064366265,1.9188339140534258,7.683718125960059,-0.09055697613427749,-0.5467977267618298,0.1856699121426698,16.951977843655165,36.04648383350193,-14.021882493162488,0.9341041035349931,-0.32368317090817134,0.05669645363261025,-0.13947240033801656
252.0,-0.10462022923313244,0.04321413801252512,0.0266990724329434,5.794376580408838,1.9037385088030248,7.668877259836934,-0.33134563688999175,-0.254214115857261,-0.1633697787427626,17.066451206723386,36.2200187581236,-13.939459448481626,0.9335869162981507,-0.32503193615502773,0.055380345165071496,-0.14033851790358032
253.0,-0.09997140493914689,0.04544174642561741,0.02782937492614912,5.774188290204418,1.899482157627319,7.685192662176531,-0.29626757650951197,-0.30681975954153373,-0.0057020264681554855,17.312333466264917,36.07684405648115,-13.878474683918233,0.9337166618385917,-0.3238896722871913,0.054575912598664775,-0.14240761498404825
254.0,-0.1011814238737921,0.03629604836548189,0.02711389318785071,5.78204459656525,1.8973283741566591,7.680065421792996,-0.22096322982682146,-0.6179795146664245,0.02485788208644228,17.489964876701453,36.13389194319318,-13.868762977941284,0.9333489098225778,-0.3244259536246754,0.05387652332679482,-0.14384688731321849
255.0,-0.09997780871108959,0.03331334676338611,0.028298882077796326,5.813760201508433,1.9081278967557487,7.652996420573917,0.16688733669949246,-0.47615205572030905,0.1049692636238663,17.608162881899112,36.36689556837078,-13.992294795422254,0.932486990629031,-0.32651959212282156,0.0539441279335587,-0.1446798355840286
256.0,-0.10726309790393188,0.03812825556295267,0.030884464080372827,5.866410054671267,1.9122106457665073,7.611495138090336,-0.22489446529080676,-0.5508112429139179,0.0985051771268333,17.685528253545563,36.75130972734975,-14.091788718755673,0.931275311043394,-0.3298080632972019,0.05353579196908349,-0.14515973474516325
257.0,-0.10572915027537372,0.029511605035405203,0.03055389457120379,5.879566483084185,1.9089018489378433,7.601869984264354,-0.14361968922108576,-0.4609411880409126,0.15164609559402045,17.785655979543662,36.849755359952795,-14.087116443745082,0.9309009426011016,-0.3306233561184107,0.052983080563532646,-0.1459411974685287
258.0,-0.10581235247836349,0.02971321793863101,0.03268489378442173,5.911666404405979,1.9110413060582219,7.576130999213216,-0.11945318646734857,-0.44345003933910304,0.18652389850511408,17.78206874508261,37.08145161290322,-14.151708792289536,0.9302184337922897,-0.33260255345515344,0.052892768701416196,-0.14581903421597164
259.0,-0.10399193548387095,0.02674488591660111,0.02850216365066877,5.899318646734855,1.8812916994492528,7.593895554681351,-0.3209874114870181,-0.08283339889850513,0.0653311860739575,17.93219290912667,36.98860149488592,-13.915990116050352,0.9304906861329663,-0.33157998983536585,0.05098285305251771,-0.14706932159264358
260.0,-0.10591050354051926,0.03100393391030685,0.027618607395751386,5.881955743509046,1.874733674272227,7.609206530291111,0.06938311369000788,-0.16898972265932338,0.14301362116443744,17.98113812942565,36.85633728363493,-13.842909126671913,0.930833922098938,-0.3304578090391424,0.05058892308910305,-0.147579309850118
261.0,-0.10491896144767898,0.0335180959874115,0.021402045633359568,5.879248033044845,1.8643990952006297,7.613812942564913,-0.3121582415420928,-0.3235321597167584,0.09501991542092841,18.06498942761605,36.8417523111723,-13.756383998819826,0.9308497737551145,-0.3302287860397325,0.04976530157277732,-0.14827425248957515
262.0,-0.10484657749803304,0.036670338316286404,0.023378442171518493,5.89442643587726,1.860824547600315,7.60299921321794,-0.13465774980330447,-0.45435680566483083,-0.36995476003147126,18.345171125098346,36.95184893784422,-13.747924862313138,0.9301931555751378,-0.33122494256018886,0.04866034757671125,-0.15048509295043272
263.0,-0.08749409913453975,0.04248859166011016,0.012549960660896933,5.861893784421715,1.9066593233674272,7.616416994492526,-0.06167387883556254,-0.10340774980330449,-0.3498082218725413,18.777080055074745,36.717540322580646,-14.052119394177812,0.9299697313941779,-0.32997295327301335,0.0501515069913454,-0.15403377553501177
264.0,-0.09487293469708893,0.04795554681353266,0.015171911880409127,5.889335562549173,1.960088906372934,7.581665617623919,-0.17421321793863098,-0.9136531274586939,-0.6611649291896144,19.728562647521635,36.91564958693942,-14.497253638867033,0.9276766530196694,-0.33268416071046414,0.05002557588119591,-0.16155213957317072
265.0,-0.11380546813532653,0.04078343823760819,0.033085562549173886,5.905069040125884,1.9816416207710457,7.564251376868606,0.13911782061369,0.0020886605035405625,0.37634121754523997,19.88756515538946,37.026864919354836,-14.680963562155782,0.9270235147985837,-0.33392142483988985,0.05061297785405192,-0.16276285172993704
266.0,-0.10993095987411487,0.04109736428009443,0.03306294256490952,5.90108693941778,1.975078874901652,7.568948269079465,-0.1604310090479937,-0.2524586939417781,0.219647423288749,19.723041650275377,37.000756048387096,-14.624579563335956,0.9273902172138079,-0.33355973981510617,0.05078290741896145,-0.16145433253029112
267.0,-0.10435950392382334,0.03950205269422422,0.02988362182008917,5.909265140511206,1.966393345639411,7.564748017914423,-0.02625497412697452,-0.34932824068470214,0.161652444067865,19.736847153715026,37.06478882340777,-14.56859664684581,0.9272604790280166,-0.3339843329544927,0.050216927429497266,-0.16155956261254012
268.0,-0.10692355605317841,0.04667559361697836,0.03126252294781012,5.918809301176138,1.9654778490588871,7.557760515644858,-0.15644783029716156,-0.33410120236438096,0.1299263400512417,19.679703449988907,37.130812856825834,-14.576818361778532,0.9271599820680011,-0.33450289859890253,0.0502679203936432,-0.16108675940324096
269.0,-0.1004042445883516,0.05043752143476771,0.02415289798059271,5.924130948778469,1.9437033226411669,7.559561217696546,-0.0553900245112873,-0.09774985373923217,0.3555586656983195,19.618555132744255,37.16361404052936,-14.413103073493513,0.9273025553678911,-0.3345053879587746,0.049219911451935675,-0.1605873523240634
270.0,-0.1013641993988178,0.05241781657891022,0.022620902176763706,5.910210242288526,1.946964171155359,7.569502087998551,-0.1349973332627247,-0.3534087584982549,0.03944829429683876,19.592612538834757,37.06527476220016,-14.41895810637697,0.9276073383999173,-0.33369335630747543,0.04958946437821018,-0.16040333658453365
271.0,-0.10368209969940888,0.04773713409590673,0.022270128507736693,5.8993551211442625,1.9433369242873573,7.578444592386372,-0.13254402953458816,-0.17982937924912745,0.06549027618067743,19.733176229094795,36.98553556658395,-14.378178649962678,0.9276594865789909,-0.3330506014642216,0.04906993895523413,-0.161586684014041
272.0,-0.0930833988985051,0.053450039339103084,0.02076947285601888,5.887400472069237,1.942077891424075,7.588681353265147,0.07718332022029896,-0.01813532651455546,0.09604642014162076,19.70022128245476,36.89556451612903,-14.345721872541304,0.9279676918064516,-0.33227687985287174,0.049178517186467346,-0.16138728708890637
273.0,-0.08556923682140047,0.05385955940204564,0.016583005507474425,5.86735562549174,1.9672301337529503,7.59716050354052,-0.0875786782061369,-0.14774783634933125,-0.09448269079464987,19.962881097560974,36.7538257277734,-14.507897324940991,0.927807013018096,-0.33151117427104637,0.04992680093076317,-0.16358395709913454
274.0,-0.09662096774193549,0.05328225806451614,0.01717741935483871,5.842177419354838,1.9741209677419347,7.614822580645162,-0.0008064516129032279,-0.24939516129032258,0.1006048387096774,20.056602822580643,36.57379032258065,-14.53266129032258,0.9281448865806452,-0.3301132695564516,0.050283419048387096,-0.16440528101612906
275.0,-0.09221557828481511,0.05044767899291898,0.017423485444531865,5.827958497246262,1.9926223446105424,7.621101888276947,-0.21915076711250983,-0.6010695318646735,0.06809352871754523,20.101957120377655,36.468702055468135,-14.645584185680566,0.9282494113341857,-0.3294900759238788,0.05122573547738002,-0.16478367077380016
276.0,-0.09739575137686861,0.04819669551534227,0.022074350904799374,5.849180369787568,1.9801504720692362,7.607991148701809,-0.1379917387883556,-0.42606707317073167,0.14194777734067662,20.26641424075531,36.61939417781275,-14.583180074744295,0.9276694849217153,-0.3306881624016522,0.04992803816915814,-0.1660497307283635
277.0,-0.10453038189190825,0.049887636425992074,0.026471211846113504,5.8769502965563145,1.9822883253646428,7.586165859710706,-0.06691512084165507,-0.44747315610563054,0.10369721373237305,20.25434804262745,36.820942177822836,-14.642114747876697,0.9271065050634217,-0.332381320786434,0.049857596392271365,-0.16581885257561685
278.0,-0.09265897536766932,0.04685402671024231,0.026117982004882086,5.8991046722750085,1.9775597803062397,7.569981434969437,-0.2103347732453751,-0.4544985273053723,0.023214042546753008,20.363815937128045,36.984107128447214,-14.636810840696807,0.9265262272890868,-0.33370709633411,0.04908810451261877,-0.1666405499958139
279.0,-0.09221255219996369,0.052253626258346966,0.020127539389537822,5.913608787750407,1.9665339224111844,7.561664104581494,-0.07507666081623594,-0.41857990881397644,0.019621134176602315,20.423314218564023,37.094976951320376,-14.56923707357421,0.9262123124953499,-0.33448458638479694,0.04817327125630938,-0.16709617039306823
280.0,-0.09823058766567816,0.05232350864451574,0.02229272327462729,5.949831144465289,1.9638916661623198,7.533576348120802,-0.20883061994391655,-0.5054101353668623,0.10533574411426497,20.520857542012145,37.361478444188904,-14.603191510823297,0.9253231285867778,-0.3367185681113599,0.047443795807541,-0.16773610437749398
281.0,-0.10500750469043152,0.05613185660392585,0.029685307349351417,5.981641772075288,1.9591260061732134,7.50971342976457,-0.011520935463697063,-0.3382872864088442,0.16618577134902862,20.54812054913353,37.59082970203151,-14.612640208598116,0.9246495035058201,-0.3386013942232645,0.04683733293681535,-0.16784245766396336
282.0,-0.0911262785208497,0.06310778914240756,0.020518882769472856,6.0020649095200636,1.9868855232100708,7.485422895357985,-0.2844880999213218,-0.8392997639653815,-0.5450580251770258,20.93527242328875,37.74440892997639,-14.861688630999213,0.923398158811959,-0.34040792175727774,0.04698769911290322,-0.17088819940007868
283.0,-0.09690617623918174,0.058841856805664845,0.03875354051927615,5.999757867820613,1.9844522029897722,7.485753933910306,-0.030943892604248638,2.00625,-0.0811737804878048,20.933524291896145,37.72008998819827,-14.848060090479937,0.9234340125129818,-0.34019450127753736,0.04689270681294257,-0.17086225293686075
284.0,-0.11290066876475216,0.0843644767899292,0.03682435090479937,5.7801894177812745,1.9740930369787568,7.656493902439026,0.07306131982690794,0.6939516129032258,0.4098163355625492,20.445441581431943,36.13212160700236,-14.465108674272226,0.9286705795468135,-0.32662124427183326,0.04959698897501967,-0.16770346523052715
285.0,-0.11545357985837922,0.07167781274586939,0.03149075531077891,5.6708615263572,1.981982494099134,7.737720102281671,0.15067614083398898,0.06323392014162083,0.5103277439024391,20.350679828874902,35.343341856805665,-14.369349921321794,0.9309821238605429,-0.3200840474242723,0.051250076564909514,-0.1673295073776554
286.0,-0.11282548424562587,0.06166878348506988,0.027318534337417103,5.597128919860626,1.9874200104904278,7.792428215503354,-0.19251187197931885,-0.13532452418418195,0.10404420029223335,20.133883261211643,34.80950694990821,-14.30295933086059,0.9327362531685587,-0.3155989749339104,0.05275070348445168,-0.16584372690004123
287.0,-0.11620424487655015,0.05703030047581583,0.025425592896481962,5.579599078341014,1.9830412404930498,7.807166114045934,-0.27874020034843205,-0.6696242998576298,-0.09124599584129482,20.220831284421713,34.684577432467876,-14.247860467947998,0.9330000963521787,-0.3145539998823761,0.05245498680910232,-0.16662913093231801
288.0,-0.10652147727698476,0.051898214754036956,0.016583764190176466,5.601751152073733,1.9998149750852345,7.786675798958454,-0.0394457050129257,-0.6684563031546213,-0.05640928824322806,20.435944876081827,34.84264153881458,-14.397670153328837,0.9321610534502829,-0.31617508931215577,0.052561259110196316,-0.16827744714357837
289.0,-0.0964905773481698,0.04691281705443784,0.015997527256378555,5.652036866359447,1.9970123262522947,7.751099996253421,-0.2418750702483983,-0.4114710951256978,0.2681915252332247,20.582916994492525,35.20234395489116,-14.440846165374097,0.9309925231848188,-0.3192169607568844,0.05156102182525944,-0.1693140718580795
290.0,-0.08650650031845941,0.04982540931400099,0.010976733730470945,5.674138024053052,2.0209648570679253,7.728067700723091,0.09990235472631223,-0.752032754486531,0.3958974935371473,20.560169158143193,35.360957579333856,-14.646981894646135,0.9304230165491366,-0.32083008462313145,0.052744243752912964,-0.16902973544516878
291.0,-0.09321100745569666,0.04791577685362109,0.011621239369075718,5.720640440597954,1.9876368064141468,7.7026244801618535,-0.21980208684575325,-0.12493630811884154,-0.010960623431119088,20.35175316586115,35.693463620696114,-14.456963489565771,0.9300640479481473,-0.3230736402800757,0.051136996073845115,-0.16721009735008052
292.0,-0.09593280506537784,0.04954010715222361,0.013745316773444233,5.71080409126672,1.9785351616649807,7.71249241317298,0.0723127646023004,-0.02647287475178899,0.2293495466636694,20.327774694653627,35.619671424824844,-14.378339140534262,0.9303629987537747,-0.32235626946340523,0.050798779630156235,-0.16706812770729834
293.0,-0.10730511221010829,0.049431343898692456,0.016787980967367278,5.69173269079465,1.9790820969615226,7.726738142070361,-0.12432748866659174,-0.17452675995653966,0.22289049913828632,20.319381298939717,35.48589418015436,-14.360842957363905,0.9307375891107581,-0.3212323478647671,0.051025566194110375,-0.16706827955526204
294.0,-0.10636461152275473,0.05576778113048768,0.022164048382773797,5.6903362585486885,1.9590791998455255,7.7329177683056525,-0.07516002224892862,-0.436898925883977,0.13482782297691817,20.302145674283754,35.478356648596616,-14.209204305398247,0.9309281100219835,-0.32091656923118417,0.04998856757637694,-0.16695148077825134
295.0,-0.11638057484084237,0.05887916987287563,0.02507494315283458,5.723362464443503,1.969527798191842,7.705373124908135,-0.1917155343345351,-0.7660006037759775,-0.03705599409769354,20.50131378914817,35.71746805679241,-14.330310256554355,0.9299039933587494,-0.3231336153118942,0.049723942824380446,-0.1684296424583625
296.0,-0.1267425147629711,0.057941889083903256,0.03125866973309931,5.7527411400558535,1.9956817178363198,7.6766765778150505,0.0917862420493223,-0.6164872450523512,-0.26992008614254875,20.73155167183983,35.92442623269728,-14.567156856387777,0.9288076527469633,-0.32529427058605465,0.05021502346288147,-0.17016811880214594
297.0,-0.11967731560335809,0.05810548427444573,0.030979452883858866,5.771358768297007,2.018218514307617,7.657217124470073,-0.07369775230342696,-0.40396057767959814,0.21584640854162884,20.672424144338486,36.056528615955244,-14.757147468319774,0.9283786301106962,-0.3266358029641524,0.05141147935929282,-0.16959508467644668
298.0,-0.12066496053120757,0.06028485545401361,0.03224717061066393,5.801250724098876,1.9969797079395812,7.640486767363242,-0.16013968984071264,-0.2090948980209405,0.24681252395650508,20.68089647043227,36.270445346025596,-14.638437257733088,0.9279285335978418,-0.32815267606375526,0.05000819028076303,-0.16958576703942266
299.0,-0.10804192136214166,0.0609778288849886,0.027851105097367886,5.7644396123153,2.0039920399558477,7.666182176072027,-0.07560925175008573,-0.09814457768824408,0.21146605165094545,20.610602140450684,36.00394165564307,-14.638357823005737,0.9287240222686125,-0.32597709908646827,0.05088617452298816,-0.1691366404817815
300.0,-0.1041232423490488,0.05756601908450847,0.024814616278030915,5.752743016228459,1.990328042007822,7.678272047910129,-0.1653862545139099,-0.2556517538323203,0.05129754195450498,20.64106031491456,35.92344014332114,-14.521775292305387,0.9290000371531892,-0.32515041184850557,0.05017358677762311,-0.16944020185379396
301.0,-0.10223705484130347,0.06412394843551414,0.023271457103085744,5.745199764829977,2.021029387606885,7.676236357400796,0.153256607672422,-0.14201254096021995,-0.08587758622180339,20.69567709369047,35.867626439912044,-14.742289968096419,0.9288636204344307,-0.32508161501926613,0.05175613705184404,-0.16984364292391846
302.0,-0.10440570287305143,0.0650611874356957,0.02805114947994571,5.753582573209638,2.0128608779104447,7.671787730234623,-0.19158078349659782,-0.08819254113313908,0.03942253655078201,20.617940828513213,35.93110865662006,-14.690067092624133,0.9288587974729194,-0.32547256254110435,0.05144741468642555,-0.16922181182151863
303.0,-0.09470905491047113,0.06157112308095787,0.025535086733355816,5.73865232878844,2.008274938541657,7.684417438318304,0.06702495151059273,0.21104744324649913,0.33122905156736787,20.63302438447993,35.82514903467893,-14.64029305830545,0.9291623617761618,-0.3245259157329178,0.05131770698754694,-0.16939366047651613
304.0,-0.11239139381468256,0.05508126046521012,0.033806713873590355,5.682641832596985,2.0170276382416423,7.723154955718293,-0.004510757731646796,0.6048612792269361,0.384604541144667,20.411145448768384,35.421781506586775,-14.632718533761018,0.9305231233366216,-0.3211587853126955,0.05285662076412677,-0.16778292378434104
305.0,-0.11952378502693214,0.05977115737658617,0.031151980068187788,5.601903135023906,2.0183289253363994,7.7809755895822,0.03413329147249289,0.41329314944824386,0.20825919425447356,20.16011147340071,34.847126984607314,-14.537174569791603,0.9324117779861705,-0.3162817091354979,0.054308075468609406,-0.1660200265892594
306.0,-0.12094206560551958,0.05355198309427264,0.02642178075006557,5.567112071052472,2.0142628104258713,7.807509824688819,-0.3579087673243358,-0.08065181237265226,-0.14390344771934072,20.314123399957634,34.59717187153261,-14.46085715114285,0.9328896497680657,-0.3142262613537442,0.05397075351715286,-0.1674048509657548
307.0,-0.11955177631180779,0.050263107990881406,0.022879360083923425,5.526548659444411,2.0154729669753273,7.83624645443725,-0.0854889774859287,-0.39532135760253384,0.07225313451955856,20.389072051080312,34.30724053844136,-14.419837751417216,0.9335490628459724,-0.3118634970158768,0.05420356073723495,-0.1681205413741048
308.0,-0.11477340676632575,0.04922501966955155,0.024095594020456336,5.548582022029898,2.0340135719905588,7.815818843430371,-0.20577178402832416,-1.103202448859166,-0.21406987608182534,20.55422895357986,34.46907208890637,-14.582690794649881,0.9327482091549961,-0.3135090790306845,0.05451110945712037,-0.16937981117505901
309.0,-0.11491896144767902,0.047435090479937075,0.02415263571990559,5.583230527143982,2.0377608182533438,7.789848937844217,-0.0049272226593233825,-0.32445908733280876,0.21426042486231314,20.722275767112507,34.711300157356405,-14.652232494099135,0.9318356874807239,-0.31565137338631,0.05395565421243115,-0.17060631430527143
310.0,-0.11233280881195909,0.05016679779701025,0.020007081038552324,5.600646734854447,2.043230527143981,7.776438237608181,-0.08492328874901653,-0.3759588906372935,0.042977970102281673,20.696090676632572,34.83352675059008,-14.714978363493312,0.9315142947954367,-0.31671567087096775,0.05416491261211644,-0.17034324325334382
311.0,-0.1059391742534937,0.05085219736989999,0.01788690944513132,5.635473605335131,2.0202014911393356,7.757029017271738,-0.023299052114945117,-0.17206818309542543,0.49325849537297217,20.646801239181748,35.08246295567794,-14.591397615301037,0.9310771804566145,-0.31849638334901276,0.05278804249334983,-0.16984404312811432
312.0,-0.11481144393241169,0.05433640552995393,0.02320545314900153,5.607565284178186,2.030482334869432,7.774598694316435,-0.01914362519201229,0.1863695276497696,0.18557987711213517,20.614264112903225,34.877856182795696,-14.62655049923195,0.9315966279458525,-0.31693225403878644,0.05365289366052228,-0.16966904314784945
313.0,-0.11990168970814133,0.05593433179723503,0.025259984639016894,5.563274577572965,2.018805683563748,7.8096178955453155,-0.18930971582181258,0.0034922235023041592,0.09707421274961599,20.465725806451612,34.566901881720426,-14.486007104454686,0.9327277683479263,-0.3141058741121352,0.0537942891609063,-0.1686472102715054
314.0,-0.12673310291858678,0.0554873271889401,0.028488863287250386,5.548439708141322,2.0105480030721963,7.82242588325653,0.053127400153609824,-0.28245247695852527,0.11569940476190475,20.422883064516128,34.46802755376344,-14.407217261904762,0.9331175425126726,-0.31314579574155155,0.053605168947388634,-0.16834612684946237
315.0,-0.11797542242703535,0.05811059907834103,0.0280468509984639,5.520683563748079,2.019987711213518,7.838870199692781,-0.22653609831029184,0.150028801843318,-0.04580453149001536,20.527620967741935,34.268918010752685,-14.438815284178187,0.9334133588894009,-0.3116807038102919,0.05405392013901689,-0.16928393097311822
316.0,-0.11477458693941779,0.05327694728560191,0.02874645948072384,5.501996459480724,2.0141864673485443,7.854132376081825,-0.16622246262785206,-0.22575236034618407,-0.0035675649095200657,20.731810582218724,34.13234043076318,-14.37947974036192,0.9335030247942566,-0.3105780982889457,0.05338517830664831,-0.17102775164378436
317.0,-0.11380605822187256,0.04799272226593235,0.031415617623918174,5.495350314712825,2.0391782061369,7.852587726199843,-0.12072556058221871,-0.28626573564122737,-0.09994099134539733,20.97813852281668,34.08157454760031,-14.552140293076317,0.933086428176436,-0.31058961294610543,0.05408603845535012,-0.1730098934077498
318.0,-0.1138627065302911,0.04887942564909521,0.02804248623131393,5.494630802517703,2.042677812745869,7.851922895357985,-0.2303980625491739,-0.8015502065302911,-0.11277291502753736,21.255525914634145,34.080000983477575,-14.579169944925255,0.9326398336325727,-0.31074965168273017,0.0535471669736428,-0.1752919022966168
319.0,-0.11052812745869392,0.04884697088906375,0.028609952793076324,5.542408143194336,2.0531534225019663,7.81562273800157,-0.11910528127458693,-0.4719696597167584,-0.048321941384736423,21.501225658929975,34.41762145948072,-14.711510375688434,0.9313159847275765,-0.3137896791276554,0.05300454951101495,-0.17706767336605034
320.0,-0.11530511004861908,0.049386471383324276,0.02193824769513204,5.5407105852448115,2.048723113236094,7.81808122011741,-0.19796571445863342,-0.07531937803869351,0.14539354233492707,21.57415307450221,34.40493226613407,-14.676388846859933,0.9312652289695577,-0.3136819983219956,0.0525768547209748,-0.1776790577674958
321.0,-0.10696805463091852,0.05588521051463618,0.02132710968548892,5.535009108515403,2.0302742238092355,7.826491436179871,0.06316800823095078,-0.3673705466117936,0.2274223809235611,21.397644003812864,34.36867384353124,-14.53673395922855,0.9317601918293894,-0.31306684409018737,0.05213021331249369,-0.17629791317171012
322.0,-0.10301982589925154,0.056829308640480955,0.01804750448869253,5.578318873691218,2.0274581189856566,7.796841312110391,-0.2347417236579314,-0.5915825982468881,0.3009407341281849,21.45437865021485,34.674477559059085,-14.56906524869374,0.9308888235622162,-0.3155908228751487,0.051430448615334176,-0.17660522498868747
323.0,-0.09931386840277479,0.05353754218506383,0.018578475746650412,5.5914714568148876,2.0193934220120306,7.789487476331692,-0.03276784723603174,-0.3250239700143811,-0.01269447548583072,21.55099764884014,34.76675346846964,-14.527568578647946,0.9305514577665153,-0.3162969528440644,0.05061117025582376,-0.17737461835859106
324.0,-0.09344022617822775,0.053770011787321007,0.014905139444871936,5.595391849168404,2.026963770559365,7.7843305868010795,-0.21492029148402084,-0.2865678938161236,0.12318452921324677,21.59250345117772,34.79404412464011,-14.591204936553087,0.930372120057265,-0.3166289265725698,0.050896404871708406,-0.17765427081825336
325.0,-0.0901074116022975,0.05162909998472549,0.011732159788808094,5.589133617497112,2.0127746892499054,7.792824979898149,-0.11153968638232997,-0.002241284155131501,-0.002611799425332073,21.673422941469752,34.75276418441249,-14.478102493493918,0.930462662561768,-0.31611612967667,0.049955036119608165,-0.17836403010671992
326.0,-0.10139202208753742,0.05784759483894026,0.019334215220918605,5.5886305380955275,2.022456581446354,7.79041485029526,0.002117646974059244,-0.1929430260272117,0.07769685402454876,21.713939047446125,34.74778256427548,-14.551231616534526,0.9303354581833232,-0.3162404639823161,0.05037277700000864,-0.17868250806516173
327.0,-0.11052291899026752,0.05833764478375024,0.02225955450267016,5.589626047962005,2.011314836749927,7.792422216650385,-0.22346910727614896,-0.38175377107812203,0.11964110993910365,21.68483636085918,34.751153280564175,-14.4664842189675,0.9304435511451629,-0.3161304791115357,0.04984125387372581,-0.1784686214912748
328.0,-0.10645586959591681,0.05554971857410883,0.020637757469386113,5.595549133531039,2.013136718513587,7.7876526054590585,0.0234801488833747,-0.2270823246383829,-0.10653760414775362,21.870995228872886,34.79798904052936,-14.491277940850129,0.9300122131517279,-0.3166137020466824,0.049403562909943716,-0.17996086712709558
329.0,-0.09687214791502752,0.05485287175452401,0.01831117230527144,5.59993115656963,2.041497246262786,7.777166797797012,-0.33846872541306056,-0.7185557631785996,-0.1415125885129819,22.20651062155783,34.83110493705743,-14.707058910306845,0.9291909681715186,-0.3174031999834776,0.049915484282848144,-0.1826274275440598
330.0,-0.09611506687647521,0.0530637293469709,0.016441188040912668,5.627329858379229,2.0364842643587733,7.7592206923682125,-0.16896390637293468,-0.18525152439024395,-0.0036093627065302836,22.49595790715972,35.02343995869394,-14.703917928796223,0.928254714711251,-0.3190347606998426,0.04858348559146341,-0.18488973240302914
331.0,-0.08692293282379829,0.05622157281480649,0.01675995653965756,5.615115582031397,2.055829305758496,7.762821175677193,-0.054189614476789924,-0.405040556741973,0.16761736165748753,22.596298846052978,34.9369707953992,-14.828947491663858,0.928193608079128,-0.3186179953119029,0.04946048825521711,-0.18569425041099996
332.0,-0.09470300850473942,0.046517552733131025,0.014301300063691881,5.630405155295792,2.0393827882057627,7.7559644824098015,-0.23675255704169942,-0.49884698962196994,0.08513637555730395,22.57555402570155,35.04250683751077,-14.72433310853846,0.9280581763322469,-0.3192815173955265,0.04848366696159753,-0.18549868450683754
333.0,-0.0876386797047694,0.041118729159641834,0.009811546963395899,5.663437038702182,2.037257877187067,7.732709227829603,0.011998426435877271,-0.43211428946086694,0.2632507212168896,22.6467414109625,35.2745677381889,-14.754662620358923,0.9273298206035743,-0.3212185655191637,0.04785463014012213,-0.1859622132557791
334.0,-0.08060454834963096,0.0402021655239594,0.0108436176988498,5.659264546101681,2.030035704919261,7.737208272451388,-0.17641129032258063,-0.2567042729759095,0.197159388932599,22.627988132703905,35.24756120977108,-14.694837211044922,0.9274823429036754,-0.320896429408677,0.04755440773331835,-0.18584186565936087
335.0,-0.10612288786482332,0.04869431643625193,0.023125192012288794,5.701947772657448,2.054655145929339,7.699069124423965,-0.13901209677419354,-0.6710301459293394,-0.15991263440860218,23.114751344086017,35.55685003840246,-14.940312980030722,0.9256563623778803,-0.32399883557373266,0.04709822320890937,-0.1895158144347158
336.0,-0.10624193548387094,0.048935483870967744,0.02947580645161291,5.7180322580645155,2.0718145161290327,7.682193548387099,-0.08664314516129032,-0.3255544354838709,0.16547379032258064,23.347429435483868,35.67202620967742,-15.09445564516129,0.924819798516129,-0.3253086212177419,0.04721010246774193,-0.19128353925806452
337.0,-0.10811098310291856,0.05962327188940094,0.03383371735791091,5.731056067588326,2.0393579109062987,7.681065668202765,-0.10029041858678955,-0.06643625192012285,-0.06255040322580645,23.179046658986174,35.76776833717358,-14.868377976190475,0.9250876547215823,-0.325556861812596,0.04584110119009216,-0.189940060687404
338.0,-0.11300307219662056,0.056968894009216606,0.03243701996927804,5.737568356374808,2.0349934715821814,7.677569124423963,-0.1237087173579109,-0.241988287250384,0.12893145161290323,23.02021889400922,35.81475614439324,-14.845050883256528,0.9252535365906296,-0.32583732144662053,0.04598214242165899,-0.1886698237469278
339.0,-0.10704992319508447,0.05016589861751154,0.0276378648233487,5.763534178187404,2.0031701228878642,7.666550691244241,-0.42758016513056835,-0.4384840629800307,0.04879032258064516,23.101944124423962,36.00158170122887,-14.644400441628264,0.9248263431501536,-0.3270057225096006,0.043815625839861747,-0.1892826528452381
340.0,-0.10058141321044545,0.04377649769585255,0.025258448540706607,5.780642089093703,1.993492319508448,7.656380184331797,-0.028331413210445466,-0.49519969278033793,0.14128024193548389,23.223955933179724,36.12586645545315,-14.593646793394775,0.9243561025791089,-0.3279443210410906,0.04277501887557604,-0.1902046614589094
341.0,-0.09181490015360982,0.04496082949308758,0.0182542242703533,5.774288786482335,1.9795768049155142,7.664633640552995,-0.19672619047619044,-0.12259984639016897,0.16683467741935484,23.149049539170505,36.077323348694314,-14.47441916282642,0.9247088639669738,-0.32732766157296467,0.04228587280875576,-0.1896640241205837
342.0,-0.09600177025963808,0.039490361919748244,0.016203186467348547,5.756625491738788,1.9778361526357195,7.678450629425649,-0.06568646734854444,-0.008937352478363483,0.10919674468922108,23.32479346970889,35.950749901652244,-14.442443204169944,0.9247780586123131,-0.32630384024744297,0.041885410642604246,-0.1911638606264752
343.0,-0.09040889338188206,0.04012355680383512,0.010614440195414706,5.735069122463543,1.9913028287559689,7.69154498838124,-0.12594971341920846,-0.24982806296086216,0.14840639466269007,23.42578054955812,35.798499481958906,-14.511066524253014,0.9249383244469104,-0.3252659539331739,0.04252360539810257,-0.1920257109138565
344.0,-0.0876473066437341,0.04441533859074527,0.008846755896291143,5.75052620167237,1.9831207298775912,7.6815914359687465,-0.15757249144603222,-0.479214287184601,-0.07879087721625527,23.51706390774523,35.91244001930361,-14.46700061067096,0.9245337229634238,-0.3261107713665673,0.04165279581038095,-0.19271979257573235
345.0,-0.09699704041864124,0.045594766069566195,0.017338700528790732,5.748101810513604,1.9853224617129888,7.683009427661792,-0.15549995540043549,0.04857329995608661,0.24833137590800142,23.480255744195194,35.89190549352277,-14.486524498883867,0.9246343808042924,-0.32596392759457393,0.04192103411083563,-0.1924233505136726
346.0,-0.10198642343512707,0.04889012497026698,0.019701608328911498,5.754200098805191,1.9749596179532685,7.681621649314767,-0.19541630834537901,-0.4288131484090535,0.01285016376045231,23.572562347904046,35.932721899987186,-14.416120112345158,0.9244370744827913,-0.32621295830131913,0.041042585079611366,-0.19314288613990083
347.0,-0.10253373099372404,0.05368503101385104,0.02586890015186723,5.778728688269631,1.9713334675132193,7.663843869503959,0.11584908422227508,-0.3032244341573198,0.12753542806433316,23.46394639818491,36.11031748028471,-14.4247103315463,0.924155241835416,-0.327603745423673,0.04093020007088357,-0.19217763714941538
348.0,-0.10859244689221084,0.05546892210857593,0.027808418568056645,5.762873721479151,1.9614476789929187,7.677474822974034,-0.2092594413847364,0.21352281667977968,0.4066409323367427,23.387524586939413,35.995439122738006,-14.328690499606608,0.9246656292065303,-0.32648589407867823,0.040763524649095204,-0.1916440399287962
349.0,-0.11422541306058222,0.04973682140047209,0.027503737214791504,5.723565106215578,1.9473918174665612,7.710602084972463,-0.03758113690007868,-0.06596184107002359,0.11763498229740361,23.37536142800944,35.7116259343037,-14.170098593627063,0.9255503207165616,-0.32394848934067666,0.04044794647088907,-0.19173202097147912
350.0,-0.1021127065302911,0.04657002360346186,0.023142997639653815,5.7096011014948855,1.9616394571203772,7.7175712037765525,-0.04479863296616837,-0.2699264850511408,0.031171321793863102,23.337025472069236,35.6093159913454,-14.25831038552321,0.9257972816929582,-0.3232774391542092,0.041472993509638074,-0.19147293110267505
351.0,-0.10525662208234984,0.04198547263122403,0.0208059458244352,5.708617371023939,1.9731547900041209,7.715006800044958,-0.19135452961672472,-0.4442746384549099,0.10268003493687011,23.5881867951744,35.60536844114121,-14.335542001517364,0.9253074467283916,-0.3234890294300232,0.041344138000786776,-0.1934836878358997
352.0,-0.10193476265407815,0.03902902663819267,0.019701360008991795,5.727449814544228,1.9638677175827053,7.70357598066764,0.002457815836798924,-0.603286512775842,0.20398618682327374,23.518135736296877,35.741822325409316,-14.294661121726424,0.9251217784125829,-0.32445838374323743,0.040868453863296614,-0.19285459387762727
353.0,-0.10603278258589036,0.04163616949533552,0.016936045858154433,5.7337540182083835,1.9492024465175524,7.702932168146566,-0.16342060526020008,-0.1759074922258439,0.095902293844367,23.412095135064252,35.78876681278334,-14.194539943239295,0.9252815175936832,-0.3246002524861938,0.040335085570023604,-0.1919784109853321
354.0,-0.11228075006556518,0.046667809373946295,0.020375969427897045,5.758757418230864,1.9315957157843466,7.688964117118129,-0.12461451191412835,-0.21123266035367724,-0.0939892543366678,23.45577711119853,35.96389068412574,-14.096876580588962,0.9248327931752837,-0.32586418851296306,0.03904807924449252,-0.19225041048479824
355.0,-0.09143915552058746,0.056747161964707214,0.020581769135663706,5.764419130043835,1.9619008279944545,7.676734910644036,-0.12908845678318534,-0.6020247930013862,-0.383944494398861,23.884683156307368,36.01173733655539,-14.333090508036417,0.9237660006621895,-0.3267984210241841,0.03936576871439812,-0.19566194086602226
356.0,-0.09885818253343825,0.056842446892210866,0.02043981117230527,5.8203052714398105,1.9911526357199056,7.626373524783634,0.07382228560188828,-0.8967299370574351,0.173625590086546,24.22433738198269,36.42044895751377,-14.631203284815106,0.9218582226119199,-0.33068879226848935,0.03935893715027537,-0.19808140859952794
357.0,-0.08163051215765615,0.06641527106515305,0.009790566108426066,5.843310853845866,1.9692667940504296,7.614918137199806,-0.5347214416844629,0.6788383724851071,0.14874395863774303,24.09500159229703,36.57911608781987,-14.492677775280058,0.9217907566632948,-0.33166730300962866,0.03832498104979207,-0.1969759994380128
358.0,-0.13168858416694768,0.06018245850661272,0.012590011614401854,5.656324978457158,1.9684335543816267,7.747183694878423,0.12907909033007375,0.08022367090030341,-0.2719596493199955,24.600780693866845,35.25206296129782,-14.26362350605073,0.9243878550901055,-0.3207864021853808,0.03880046776329099,-0.20178798491176803
359.0,-0.14466973886328727,0.0674793001386235,0.03650856093814395,5.63016297628414,1.9452864261361502,7.775574538233862,-0.16613277883930916,0.2868476265407815,0.42998810460454834,24.373044752912968,35.05731800981604,-14.04579024764902,0.9255456182323631,-0.31878545926417146,0.038466737809373944,-0.20014367343711364
360.0,-0.14537971600914162,0.06854452811809222,0.03727473680266756,5.678310441721928,1.9390995466636691,7.74413660035218,0.06340292607995203,-0.2892276422764228,0.11102572028024427,24.285199599115806,35.39409960286238,-14.052532220598703,0.9248774635017047,-0.32147237458566563,0.03788688427290098,-0.19925198690030346
361.0,-0.13794241504627025,0.06420224045558427,0.03947214416844629,5.713236259413286,1.9462712524821097,7.717806301749652,-0.19342147165711288,-0.44019800681877785,0.2415868176538908,24.2854843392904,35.6447730508411,-14.144603049717134,0.9241726901473905,-0.32365731063272263,0.037883159708441055,-0.1991164332809936
362.0,-0.13397965606384174,0.06225012176389044,0.03793346071709565,5.741801693454724,1.952432093214941,7.6960936270653,-0.05878830879322618,-0.49769116930800644,0.09289882357348919,24.468558221872538,35.848010565359104,-14.224701678468396,0.9232704047541868,-0.3254910516543029,0.03738623545329886,-0.20045438818657968
363.0,-0.1376113858604024,0.06550743696377055,0.033447454198044284,5.742989753100296,1.9412553857105388,7.698137293469708,-0.1887421087632535,-0.6681020756060095,-0.004888117717582692,24.31647324940991,35.85501433067326,-14.14480559926567,0.9235913324282343,-0.3253664004927691,0.03720720305709789,-0.19927584731122847
364.0,-0.13325354051927615,0.06630369787568843,0.03641266719118805,5.756565499606609,1.9644600708103854,7.682097757671124,0.041122885523210084,-0.46279996066089696,-0.056181156569630214,24.562200039339103,35.95151455546814,-14.337089398111722,0.922740176039339,-0.32656851128147135,0.037620605990165215,-0.20115511912431155
365.0,-0.12005015735641228,0.059643784421715196,0.03308536585365854,5.7900287175452405,1.9756695515342249,7.6544803304484645,-0.14282061369000787,-0.48996852871754515,0.34726224429583,24.601261309992132,36.191231068056645,-14.46814147324941,0.9219461760196693,-0.32871790563670344,0.03776142362411487,-0.20128578894118804
366.0,-0.11599685287175454,0.06072915027537373,0.030333005507474434,5.792175649095201,1.955391227380016,7.658336939417781,-0.05160183910306846,-0.2061233772619984,0.0956825334382376,24.518473396931547,36.20652783241542,-14.31700924468922,0.9221866489775765,-0.3285327933304485,0.036903212243509044,-0.200639744079465
367.0,-0.12109520062942565,0.061900865460267504,0.03253343823760818,5.7624547600314715,1.9584980330448463,7.679099921321794,-0.17562450826121165,-0.15112116443745083,0.04058320220298977,24.46037077104642,35.99404012588513,-14.30195220298977,0.9228532241904011,-0.32680114732651455,0.03755221354917388,-0.2003010936687647
368.0,-0.12799055861526354,0.0625790715971676,0.03695515342250197,5.776723052714398,1.9454881982690795,7.671457907159715,-0.059611034618410705,-0.055128835562549175,0.1276627655389457,24.57327153815893,36.096179189614475,-14.225474527930762,0.9224557371424074,-0.3275232200283241,0.03639281745908734,-0.20117235021754523
369.0,-0.12597797010228162,0.06091974822974037,0.03772226593233674,5.794840676632573,1.9537157749803296,7.655744689221084,-0.1384552025963808,-0.2716143784421715,0.08620549763965381,24.68150201612903,36.231999901652244,-14.314620623524783,0.9218500360062942,-0.3287633601754524,0.036326611015145546,-0.20193814954228956
370.0,-0.1225531077891424,0.06132002360346185,0.031595200629425654,5.802628638867034,1.9463798190401254,7.651818253343825,-0.156316384736428,-0.36489722659323365,0.14163429386309992,24.823170731707318,36.28720987411487,-14.265927419354838,0.921501548987608,-0.3291623988874902,0.035432323691188046,-0.2030431838737215
371.0,-0.11546203776553894,0.06192210857592447,0.03224921321793864,5.809298190401259,1.964806845003933,7.642054287962235,-0.11081948269079464,-0.5277107100708104,-0.022101199842643596,25.006242623918176,36.33614525963808,-14.41008064516129,0.9209196992720299,-0.329876117427616,0.0357838231843037,-0.20447077150944137
372.0,-0.12163021243115657,0.05613847364280095,0.03595121951219513,5.822874901652243,1.9723147128245473,7.629623918174668,-0.05074744295830055,-0.5161487018095987,-0.1277340676632573,25.16829268292683,36.43435287175453,-14.488306451612903,0.9202932533013374,-0.3308560517702597,0.035587750539732496,-0.20573425058536582
373.0,-0.11166797797010228,0.05401416207710466,0.03331471282454761,5.814062155782848,2.0047954366640433,7.627826121164438,0.08034028324154209,-0.5042633752950433,-0.05748426435877263,25.285424862313135,36.37224134539733,-14.721631589299763,0.9200240834697089,-0.3308425579409914,0.03706462366876475,-0.20666588498033045
374.0,-0.1016679779701023,0.05059480723839499,0.03013493312352479,5.834540912667191,2.0162175452399684,7.6097273800157375,0.07097757671125099,-0.24596036585365855,0.15784815106215577,25.319984264358773,36.516323269079464,-14.833401357199055,0.9194902446970887,-0.3321992915708104,0.037356423254524,-0.206827606140834
