time,linaccel_x,linaccel_y,linaccel_z,gravity_x,gravity_y,gravity_z,gyro_x,gyro_y,gyro_z,euler_x,euler_y,euler_z,quaternion_w,quaternion_y,quaternion_x,quaternion_z
0.0,-0.09861111111111111,0.06222222222222224,0.0666666666666667,-3.9747222222222223,1.0502777777777776,8.895833333333336,-0.03819444444444445,-0.5260416666666666,0.2048611111111111,132.71701388888889,-23.90798611111111,-6.732638888888889,0.3912879105555554,0.03272671194444443,0.2124243847222222,-0.8948160813888888
1.0,-0.10435185185185185,0.06907407407407407,0.06092592592592594,-3.809537037037037,1.0232407407407407,8.968425925925924,-0.01388888888888889,-1.9484953703703702,-0.537037037037037,132.83969907407405,-22.859374999999996,-6.504629629629629,0.3911522768518517,0.030341819722222226,0.20357428675925923,-0.8969545721296297
2.0,-0.11789682539682537,0.05944444444444445,0.05753968253968255,-3.638531746031746,1.0021825396825397,9.041388888888887,0.08134920634920635,-1.8271329365079365,-0.5416666666666666,133.59598214285714,-21.779017857142854,-6.317460317460316,0.38596428817460315,0.02649143734126984,0.19476003511904763,-0.9012489928174601
3.0,-0.30864814814814817,0.22137037037037044,0.6573703703703704,-3.491611111111111,0.7543518518518518,9.090574074074073,-12.200000000000001,2.0390046296296296,-5.939814814814815,134.37997685185184,-20.872800925925926,-4.643518518518519,0.38020889848148154,0.03491403075925926,0.18277260112962965,-0.9049533421296294
4.0,0.007499999999999979,0.7268996415770611,-0.28894265232974925,-1.985833333333333,-2.1373566308243723,8.476370967741934,4.472222222222221,0.06994847670250903,-30.176971326164875,159.45536514336916,-11.871247759856631,14.139336917562723,0.16959662815412188,0.1573071222670251,0.10865302362903227,-0.9241186433960572
5.0,0.17050179211469535,0.8704032258064518,-0.9150089605734768,0.07190860215053774,-3.3692025089605733,8.451550179211468,7.15249775985663,-8.783602150537634,1.460181451612904,169.90070564516128,0.35500672043010706,21.39510528673835,0.08284062275985664,0.19959836054659502,-0.004188838763440859,-0.941608168844086
6.0,-0.39459677419354844,0.8925268817204303,0.39790322580645165,-1.255618279569892,-1.4142921146953402,8.846989247311827,15.538642473118278,11.688732078853048,11.424843189964157,150.10069444444446,-7.553651433691757,8.957437275985663,0.24815888231182795,0.11724405073476704,0.06540414617383512,-0.9175487226344086
7.0,-0.22325140809011776,0.508683819764465,0.2526267281105991,-2.379707885304659,-0.263110855094726,8.975474398361495,6.785290258576548,5.488957693292372,7.148863927291346,140.68089477726573,-14.254288274449564,1.6907914106502817,0.3264360136428571,0.07506879826625704,0.1251509172142857,-0.9061551046482335
8.0,-0.14309523809523808,0.3107083973374296,0.15054275473630313,-3.1030663082437275,0.2907429595494114,8.980134152585768,3.6381928443420377,3.3326564900153612,3.680110727086533,137.62432955709164,-18.60972702252944,-1.8381000384024575,0.35208555536533537,0.0555987269467486,0.16313730497363033,-0.904636339295443
9.0,-0.11606544332350785,0.17072000802645967,0.13511275099984782,-3.412193935871355,0.7127770304867079,9.035698917811821,3.602099939801553,0.17971688566446664,0.08734146012371813,137.56035525733108,-20.436949478280123,-4.516559070591328,0.35392158108514277,0.03358404673163255,0.18094562916086823,-0.91110937789823
10.0,-0.09731587578361772,0.08195946637882122,0.13475619628845437,-3.8649679356776128,1.0479655761752538,8.916751788655016,1.8042421742018517,6.385417358602843,-0.4968758649202198,139.714373417196,-23.271286119068378,-6.725853460026847,0.33604643698970404,0.01753141840613886,0.20852079599172446,-0.9167922785458891
11.0,-0.06228248986313503,0.018192994838156132,0.07344888667469313,-4.830172139881817,1.1814066232130749,8.369065858485214,0.42166633799698316,4.728270955287084,-0.18523788765724253,140.54905498816788,-29.72060049681017,-8.117155000622741,0.3246317178228091,0.02699681775145653,0.2630487440890522,-0.9059589278974964
12.0,-0.06696817785527465,0.007262908069359683,0.07630969679356778,-5.238569940908651,1.2745379250217956,8.136050082340404,0.6751988884045336,1.498876901094643,-0.04135486292744357,140.73749152378184,-32.42195219412962,-8.95669257967645,0.3211064684321419,0.02958636341131454,0.2866316297449869,-0.900915525587765
13.0,-0.06113629758791049,-0.0002659110723626861,0.06218977041557688,-5.2754305918822055,1.329503051438535,8.127951176983435,0.1915352852852853,0.9175142884820305,-0.08137774871645839,141.27738423907778,-32.609243315896535,-9.312675578804612,0.3167902102886758,0.026203667763247115,0.2893872462108883,-0.9023272247805869
14.0,-0.07445456055133474,-0.011983372773695357,0.05326464482916095,-5.372718036008359,1.371896998380869,8.071011583011583,0.13498563367514982,-0.12338415604544639,0.08867265883394916,141.3326538520087,-33.25547481525304,-9.653005338287596,0.315858963826241,0.025715967952118012,0.2954151980753034,-0.9010728875718853
15.0,-0.07974520142262077,-0.002367134415521514,0.06385006435006435,-5.169692351337515,1.3414054884377458,8.206330164265648,-0.27253294481117063,-3.312532131786164,-0.46927254155076736,141.59335425575347,-31.84746747035053,-9.293068529358852,0.3149739235170631,0.02289577841154288,0.28356770055646885,-0.9052260437142581
16.0,-0.08342098780808457,0.012127364691880825,0.0676015554725232,-4.876916068141876,1.2881579413514896,8.391355046290531,-0.04153640968157096,-1.7458998024522216,-0.28288335858900376,141.97793272823515,-29.85605340363405,-8.74258041163283,0.3134765777755567,0.019469473072258894,0.2666547240327147,-0.9109217718212869
17.0,-0.08893220409349442,0.02611450159837258,0.06111875008649203,-4.758043287527158,1.2640295595134303,8.467825244599439,0.020056807960033764,-0.5773333817688655,-0.03752542865446093,142.17609274020566,-29.043317280414055,-8.497431878883491,0.31258645481058944,0.018089222560579016,0.2597360207536845,-0.9133817743422871
18.0,-0.09761392729134666,0.03820788530465952,0.05399539170506914,-4.718038402457758,1.248671274961597,8.494623655913976,-0.026504096262160774,-0.20497311827956982,-0.10730286738351254,142.22725614439324,-28.771876600102406,-8.367373911930365,0.31239791172913456,0.01801095043266769,0.2572903134142345,-0.9142091504976959
19.0,-0.10446594982078852,0.043182283666154654,0.05207142857142859,-4.669069892473118,1.2262757296466975,8.527187403993855,-0.24326356886840755,-0.5768241167434716,0.13839925755248336,142.2639160906298,-28.43792562724014,-8.184896633384536,0.3123943613714798,0.018175262124167944,0.2542089862048131,-0.9151140751843315
20.0,-0.11310138248847926,0.04771454173067079,0.04577060931899644,-4.607074244751665,1.214943164362519,8.562817460317461,-0.06046786994367639,-0.45906137992831547,0.3580837173579109,142.18441340245775,-28.019258832565285,-8.07244143625192,0.313338833078085,0.01782050085099847,0.2506506510606759,-0.9157880516712749
21.0,-0.11068054690635337,0.06111303469367986,0.049358229196938885,-4.486196717454782,1.2879263918296175,8.614789651402557,-0.1281206321528902,-0.7457195098324131,0.6274156356817647,141.45494267308783,-27.229396562461076,-8.488524584492325,0.3196823804496063,0.013693467551819102,0.24549621520037085,-0.9150132677808083
22.0,-0.10544165594165593,0.05308186296895975,0.05121367681045103,-4.426231999280385,1.2892719516751776,8.646348742751968,-0.13857068474003958,-0.3683378655152849,0.2320257901911128,141.26885958539185,-26.842751276622245,-8.467130955840632,0.32140386469024096,0.012980542444112316,0.24232936614396422,-0.915285212844321
23.0,-0.10603636816540042,0.04654950803337901,0.04888653630589117,-4.408482999128159,1.2904827500311367,8.655893137377006,-0.06062398804334288,0.06740876821521982,0.07644476273508533,141.16576939843068,-26.722815730477024,-8.46963818657367,0.32227480016091675,0.01277777873408893,0.24139249241325195,-0.9152497852123552
24.0,-0.10815233666846572,0.05206686871203002,0.047579468869791475,-4.466528749948104,1.2971230954456754,8.624123219994187,0.09684494402236338,1.3824755054593765,0.1155073276041018,141.08749619435105,-27.10431301116785,-8.5447717302556,0.32264213975992584,0.013655438786399306,0.2446270775527601,-0.9142456855088912
25.0,-0.10517806285548222,0.05575079226692131,0.03890596587370782,-4.815814810201905,1.3350459307233495,8.418087211635598,0.15167708030611254,1.009597327742489,0.18363692033046874,140.7384005549328,-29.451519664826115,-9.019870504144698,0.3235900047350576,0.0188892914659083,0.26411045144407086,-0.9081132281016038
26.0,-0.08985048643113158,0.052218125960061444,0.052568356374808,-4.500525345622119,1.3041300563236047,8.590030721966206,-1.1909050179211471,-2.963812083973374,0.9156554019457246,140.62192780337944,-27.355824372759855,-8.647119815668203,0.3260830065591398,0.014960626391193034,0.24661273273937534,-0.9120589783717359
27.0,-0.12660983102918585,0.08918484383000512,0.035892985151049675,-3.933521761392729,1.1142831541218636,8.873405529953915,-1.176510496671787,-2.941090629800307,0.5525697644649258,139.29556451612905,-23.715258576548898,-7.2008544546851,0.33928791749257553,0.016356921682539684,0.2134869509887353,-0.9150756837127498
28.0,-0.12481182795698922,0.09010752688172043,0.04701612903225808,-3.7217383512544804,1.0551881720430107,8.98533154121864,-0.5060483870967742,-1.0824372759856629,0.26416890681003585,138.77609767025092,-22.340613799283155,-6.727318548387097,0.34437692276881715,0.016373391863799283,0.2012687875358423,-0.916333270492832
29.0,-0.1268392217101894,0.09235202252944189,0.049303635432667706,-3.6373430619559644,1.0222995391705068,9.03347721454173,-0.32129256272401435,-0.6492447516641063,0.0465309779825909,138.5149145545315,-21.786498335893494,-6.467306707629289,0.34687394270865335,0.016980544636968763,0.19616620909754223,-0.9167634710780851
30.0,-0.12163287250384022,0.09152585765488991,0.05291474654377881,-3.590047619047619,0.9919459805427548,9.063615975422426,-0.46254000256016387,-0.15550915258576542,0.03381176395289298,138.358150921659,-21.470919738863287,-6.248087877624169,0.34839019498284696,0.017880935223758318,0.19306261415232973,-0.9170290493712236
31.0,-0.10949027137736814,0.07406938044034819,0.06224142345110087,-3.602980798771121,0.9650007680491552,9.0625069124424,-0.09123303891449053,-0.1435867895545315,-0.23329013056835637,138.33386936763952,-21.549639976958524,-6.079885112647209,0.3486046155514593,0.019494846267793138,0.1931858637204301,-0.916926777454429
32.0,-0.10948975934459804,0.06156426011264723,0.06591909882232463,-3.6289769585253464,0.9631769073220688,9.052624423963136,0.008454941116231428,0.04278993855606758,-0.07203821044546851,138.41584261392728,-21.7139160906298,-6.07211661546339,0.3478740122918587,0.02000469299948797,0.1944735794856631,-0.9169316447173578
33.0,-0.10467690732206861,0.05529339477726576,0.07095852534562214,-3.6604690220174105,0.9686738351254482,9.038383000512034,0.09658218125960062,0.08735919098822323,-0.15633640552995393,138.45027521761392,-21.91500256016385,-6.114720942140297,0.34740555724833583,0.02025430312749616,0.19617756150435228,-0.9167437537931387
34.0,-0.0993015873015873,0.05968817204301076,0.06690783410138249,-3.700322580645161,0.9738847926267283,9.021133128520226,0.052995391705069124,0.2393017153097798,-0.07826420890937019,138.47770097286227,-22.17012288786482,-6.156752432155658,0.34704766860112635,0.020674647852534565,0.19832514562160775,-0.9164037725934459
35.0,-0.10027752176139273,0.059364823348694334,0.06544009216589863,-3.749373271889401,0.9821958525345621,9.000202508960575,0.03306451612903226,0.25139048899129546,-0.045122887864823345,138.47779057859702,-22.481403609831027,-6.2319476446492565,0.34686778414388114,0.021182623668202765,0.20099880239144902,-0.9158743428174603
36.0,-0.10771326164874553,0.0578236047107015,0.05132898105478751,-3.7198543266769075,1.0197977470558115,9.00707910906298,1.097267025089606,-1.071609383000512,-0.8238559267793139,138.81804435483872,-22.29185067844342,-6.465506592421914,0.34424911990911417,0.018194455006144396,0.20017506236047106,-0.917052949125192
37.0,-0.12088172043010754,0.04643420378904252,0.041197644649257556,-3.6501377368151555,1.1107501280081926,9.024592421915003,0.45253136200716854,-0.6813300051203277,-0.4761360727086533,139.78920250896056,-21.85747887864823,-7.01319124423963,0.33659912951100873,0.010816330128520225,0.19845829155657962,-0.9203428855258575
38.0,-0.11441321044546852,0.04821249359959039,0.054626472094214035,-3.615995135688684,1.1626884280593957,9.032227086533538,0.4537138376856119,0.6089605734767025,-0.4260000640040963,140.36242959549412,-21.644407642089092,-7.329781105990783,0.3320676892992831,0.0066969914928315406,0.19777285272299028,-0.922196916315924
39.0,-0.10226932923707119,0.047143881208397354,0.058993343573988735,-3.682661546338965,1.1967967229902716,9.001109062980031,0.18197004608294934,-0.04117383512544803,-0.1681131592421915,140.6319316436252,-22.06136712749616,-7.572036610343062,0.32969535002150535,0.005745493232974909,0.20182476091346646,-0.9222061839733741
40.0,-0.09035432667690733,0.07134971838197646,0.06746543778801843,-3.3076246799795186,1.2066600102406553,9.129303635432667,-0.2064196108550947,-3.2775665642601126,0.9645033282130056,140.310154249872,-19.740780209933433,-7.529358678955454,0.33340923779211473,-0.0009426880476190481,0.18301638539733742,-0.9244220633476701
41.0,-0.11042601126472094,0.06544802867383513,0.07182488479262672,-3.358190220174091,1.2459715821812594,9.10885202252944,0.40592997951868914,2.0054339477726577,-0.4799443164362519,140.28015713005632,-20.059781426011266,-7.791397849462365,0.3334109191966206,-0.0018762460668202766,0.18643548056451612,-0.9238345600778288
42.0,-0.10381515616999487,0.046917562724014344,0.06636047107014849,-3.5814562211981578,1.2554813108038914,9.025931387608804,0.06077188940092165,1.085154249871992,-0.30521633384536606,140.4551267281106,-21.43773681515617,-7.91608422939068,0.3312494584423963,0.0013360103850486426,0.19785034664874554,-0.9223231289278031
43.0,-0.09203405017921149,0.03698924731182796,0.06820788530465952,-3.713835125448029,1.2495609318996415,8.976917562724012,0.1351926523297491,1.1526097670250897,-0.33030913978494625,140.64471326164875,-22.266241039426525,-7.915210573476703,0.32930626965949816,0.003699408709677419,0.2044752662455197,-0.9216555790681003
44.0,-0.09720609318996418,0.03647004608294931,0.06906400409626218,-3.830294930875576,1.2569984639016896,8.928316436251917,-0.0839989759344598,0.3933691756272402,0.0509568612391193,140.39842869943675,-22.999180747567845,-8.013026433691756,0.3308276145192012,0.005775778735791092,0.21056303090860218,-0.9197701558277009
45.0,-0.09850896057347672,0.03922068612391194,0.05811623143881209,-3.852647465437788,1.2406766513056833,8.923298003072194,0.012996031746031748,-0.11475134408602156,-0.12735535074244753,140.54335637480796,-23.134391001024063,-7.9141353046594975,0.3296290866592421,0.0067047195471070156,0.21137311382795698,-0.920091632658474
46.0,-0.09532974910394265,0.04488812083973376,0.06326062467997952,-3.805109575012801,1.2431653865847418,8.943772657450076,0.07286226318484385,-0.44069220430107525,0.09890072964669738,140.58272209421403,-22.83800083205325,-7.913888888888889,0.3294796834864311,0.005637403989503327,0.20899585983512547,-0.9207108459080902
47.0,-0.10477009728622633,0.04203789042498722,0.0586810035842294,-3.7907933947772667,1.2587636968766005,8.947981310803886,-0.006037186379928311,-0.341676267281106,0.18242607526881718,140.4913066436252,-22.740180171530977,-8.001713709677418,0.33028788638888884,0.004824767733998975,0.2084914897869944,-0.9205500079777267
48.0,-0.0968115719406042,0.04451356886840759,0.058318996415770624,-3.771987199180748,1.2772985151049672,8.9534485407066,0.05082885304659498,0.019742063492063505,0.1704301075268817,140.31551779313875,-22.61580581157194,-8.109923835125448,0.33174812446236557,0.0038937990327700973,0.20784542994726063,-0.9201744412334869
49.0,-0.09823015873015872,0.04461059907834103,0.06316052227342552,-3.889246031746032,1.3015734767025091,8.898905017921145,-0.07643529185867895,0.9290018561187916,0.21282642089093703,139.9936747951869,-23.371996607782897,-8.314997759856631,0.33384779031464407,0.005435519596774193,0.214385409765745,-0.917870286964926
50.0,-0.09544188428059397,0.03236687147977471,0.07357014848950333,-3.9782158218125963,1.2821065028161804,8.862124679979516,-0.544714861751152,-0.043327572964669714,0.02260784690220176,139.93726478494625,-23.933822964669737,-8.22610087045571,0.3339858265148489,0.008066119376344088,0.21858370719226827,-0.9168141650688686
51.0,-0.09825857654889913,0.03930619559651819,0.05775729646697389,-4.003655401945725,1.2448883768561185,8.856595494111623,0.22414234511008702,0.43661354326676904,-0.22757936507936508,140.05557795698925,-24.09633576548899,-7.995218894009216,0.33297815787660007,0.01010042506451613,0.21922172118125957,-0.9170195853077316
52.0,-0.09073604710701486,0.035227086533538156,0.06613927291346647,-4.060045826932924,1.2634011776753713,8.828570148489504,0.08845046082949308,0.24621575780849975,-0.13490463389656937,140.14129384280594,-24.454408282130057,-8.134190988223246,0.33203863663978483,0.010071065292114694,0.22247022165821814,-0.9165850697660012
53.0,-0.09333973374295955,0.022616487455197138,0.06825780849974399,-4.08468919610855,1.2639513568868406,8.817339477726577,-0.10964061699948799,-0.018034754224270352,-0.03656874039938556,140.1878584229391,-24.614391321044547,-8.154057859703022,0.33152296011264715,0.010378474090373783,0.22376395563722473,-0.916460998421659
54.0,-0.09939836149513567,0.012025089605734769,0.06801331285202254,-4.0639216589861755,1.2585079365079368,8.828150025601637,-0.16080709165386586,-1.1854006656426013,0.06622503840245776,140.2333781362007,-24.47470238095238,-8.10648681515617,0.3311907903968254,0.010191878196620584,0.22253242664925754,-0.9168752431490015
55.0,-0.0864810547875064,0.015711981566820278,0.07008960573476702,-3.8920637480798774,1.2377255504352278,8.905513824884792,-0.4149785586277522,-0.8237391193036355,0.0017985151049667164,140.28936251920123,-23.385082245263696,-7.9123095878136205,0.3314671128865848,0.008021128818740399,0.2133385462703533,-0.9189384341059907
56.0,-0.08964285714285712,0.04065616999487967,0.07621863799283154,-3.7980345622119818,1.1620885816692268,8.95624705581157,-0.08957373271889402,1.5471918202764976,0.15070884536610343,140.73036674347156,-22.80127208141321,-7.392674731182796,0.3283579566628265,0.009296614095750128,0.20723374429109062,-0.9214124300727085
57.0,-0.09364311315924218,0.0029042498719918097,0.06903225806451613,-4.350930363543267,1.2145657962109575,8.672733742959547,0.3090437788018433,1.9359222990271374,0.44416602662570404,141.20730926779314,-26.396687788018433,-7.9904121863799284,0.3221014017409114,0.015445076357910908,0.23742934198873528,-0.9157152657711214
58.0,-0.0849910394265233,0.014749103942652336,0.07080645161290322,-4.497894265232974,1.256406810035842,8.601281362007168,0.09386200716845879,1.5295138888888888,0.0749887992831541,141.793458781362,-27.340221774193544,-8.320340501792113,0.3168462938351255,0.014720739471326164,0.24587952498207885,-0.9155776047043009
59.0,-0.08810931899641578,0.01234767025089606,0.06312724014336916,-4.752930107526881,1.3067383512544801,8.451836917562723,-0.2776097670250896,-1.297043010752688,0.18167562724014336,141.7142137096774,-29.044746863799283,-8.810427867383513,0.31614827254480293,0.016918005125448023,0.2604541847670251,-0.911665885985663
60.0,-0.08099462365591395,0.027939068100358427,0.07025089605734765,-4.48173835125448,1.2655465949820786,8.607706093189961,-0.1860999103942652,-0.5628360215053763,-0.00666442652329749,142.33473342293905,-27.239639336917563,-8.378192204301074,0.3125259240053764,0.012993049901433686,0.24517505068100354,-0.9172622518189965
61.0,-0.08426830517153097,0.03636815156169995,0.07540245775729645,-4.364046082949309,1.2410314900153607,8.678029185867894,-0.09169226830517152,-0.31911482334869423,-0.14603334613415256,143.0116423451101,-26.44941276241679,-8.143226766513056,0.3076677906743472,0.010796828631080385,0.23841640717741933,-0.9208553602823859
62.0,-0.0907452636968766,0.04294214029697903,0.0696725550435228,-4.299030209933435,1.2124019457245265,8.71819022017409,-0.14021217357910906,-0.34016897081413205,-0.050475230414746525,143.57616167434716,-26.01421690988223,-7.896518177163339,0.30347158847337424,0.009984363343317974,0.23442472184587815,-0.9233847539449563
63.0,-0.09795647721454172,0.040810291858678974,0.06492959549411163,-4.252790578597029,1.1891490015360988,8.74635253456221,-0.12796979006656425,-0.11653385816692267,0.026331285202252953,143.83465341781874,-25.7103270609319,-7.744462045570916,0.30167132820942144,0.009711338108806969,0.23158818395673328,-0.9247528906333843
64.0,-0.1056011264720942,0.04000870455709167,0.05869790066564262,-4.222550947260624,1.1766085509472615,8.763088325652841,-0.08599430363543267,-0.0811939964157706,0.038066436251920126,143.95616519457246,-25.510831093189964,-7.658325332821301,0.3008243354219151,0.009467211275985666,0.22985891352150545,-0.9255170467442396
65.0,-0.10608909370199693,0.03938607270865337,0.05692063492063494,-4.187691244239632,1.1735775729646702,8.780303123399896,-0.10121287762416795,-0.5537858422939068,0.05974782386072709,144.01059267793138,-25.277732974910393,-7.625841653865848,0.3005114796016386,0.008923045673835128,0.2279158679390681,-0.9261007055181774
66.0,-0.11032104454685099,0.034296722990271394,0.05517921146953408,-4.1228778801843315,1.1722818740399394,8.810911930363545,-0.18441980286738352,-0.4619735663082437,0.13926331285202254,144.04386200716846,-24.858048515104965,-7.577120135688684,0.30049422530773173,0.007976921933691757,0.2244566275593958,-0.9269574240816695
67.0,-0.11420071684587814,0.024649257552483365,0.05693701996927806,-4.063385560675883,1.1708766001024076,8.838897081413212,-0.1568868407578085,-0.35643241167434714,0.06580261136712749,144.05318100358426,-24.47422555043523,-7.535675883256529,0.3005904301269843,0.007135862671786994,0.22129509335995906,-0.9276945926052227
68.0,-0.11809114183307734,0.01716333845366104,0.05919662058371738,-4.037734254992321,1.1704383000512042,8.852420890937026,-0.08947452636968767,-0.04402841781874037,-0.00912058371735791,144.05824372759855,-24.310730286738348,-7.515821812596006,0.3006313024137226,0.00679047514234511,0.21991091103481825,-0.9280149910122889
69.0,-0.5345058883768561,0.10846594982078853,0.18659984639016902,-4.188989503328212,1.0053445980542761,8.751499231950849,0.3505360343061955,16.648313492063494,-17.772507040450588,145.54883512544802,-25.463116039426524,-6.212884024577573,0.28801763617101894,0.014327721291090629,0.22808807539708142,-0.9276815456653866
70.0,0.17669841269841274,0.7682232462877624,0.3175791090629801,-5.577280081925243,-2.083902713773682,5.925443932411675,13.00387224782386,-20.464490527393753,-2.162083973374296,190.31959165386584,-36.09797107014849,27.788556067588328,-0.02859417998566316,0.03094834936917562,0.3862446881863799,-0.8142538939068098
71.0,-0.31383102918586775,0.43753917050691243,0.410673835125448,-4.393065028161802,-0.5391387608806968,7.547184843830006,11.504320276497696,-3.442434715821813,7.433595750128007,166.3093253968254,-27.651568100358425,10.72645289298515,0.14448782238914487,0.017964993210445465,0.2810050718668714,-0.8724331481822836
72.0,-0.21122222222222214,0.24804557091653867,0.22675320020481307,-4.029175115207373,0.2857532002048129,8.283541730670766,5.587596006144393,-1.184002176139273,3.8244111623143873,153.25042882744498,-24.801107270865337,1.8569540450588837,0.2389554244920635,0.01421541910752688,0.240197344391193,-0.896916827530466
73.0,-0.15254147465437784,0.14607450076804915,0.14220660522273426,-3.811994111623144,0.7350450588837684,8.661043778801846,3.0155273937532003,-1.4322852662570407,1.9385624679979514,146.47366871479772,-23.153773041474654,-2.8018097158218125,0.28823773206682024,0.01028713851484895,0.21861753719303634,-0.9086909592219661
74.0,-0.10651715309779823,0.08925140809011778,0.09814183307731696,-3.6987076292882746,0.9806139272913464,8.851727086533538,1.327880184331797,-0.9681867639528932,1.5719918074756782,143.05314260112647,-22.297820660522273,-5.279125064004096,0.3131720834214029,0.0073059149339477734,0.2079153573061956,-0.9145611135043523
75.0,-0.11839682539682539,0.04382386072708655,0.07742575524833589,-3.623326164874552,1.194915258576549,9.024946492575523,0.267713133640553,0.7884008576548898,0.623755120327701,139.96041346646186,-21.689031298003073,-7.54036898361495,0.3352722282913466,0.0059395539278033795,0.19879188198028674,-0.9208307280517154
76.0,-0.09431490015360983,0.04144598054275475,0.06866359447004608,-3.604351254480287,1.214272145417307,9.029986687147979,0.026049667178699432,-1.333930171530978,0.11648105478750641,139.8786162314388,-21.56614983358935,-7.642300307219662,0.3359464375506912,0.00479336554813108,0.19809706233870972,-0.9207671228430621
77.0,-0.08626139272913466,0.04603661034306197,0.07578341013824884,-3.3573637992831538,1.3044613415258577,9.107941372247824,0.482390873015873,-1.3628376216077829,0.05846454173067076,139.90559395801333,-20.030974782386075,-8.135218253968254,0.336419065500256,-0.0040477219884792635,0.18730476515232974,-0.9227533092665132
78.0,-0.08082872503840247,0.031171786994367644,0.06807501280081923,-3.61805427547363,1.2234398361495136,9.010230158730158,-0.2652601766513057,3.736411930363543,-2.3429803507424474,141.2946556579621,-21.693063556067585,-7.703017793138761,0.3243436798366615,0.002036250434971837,0.19956563251561704,-0.9241960876748592
79.0,-0.0723422177938307,0.03632368774304259,0.0843723170174783,-3.907401641272609,1.11956017768921,8.902935359322454,-0.36104676104676103,0.4979920012178074,-0.2540553514343836,142.279907989787,-23.512926751636428,-7.1454081385533,0.3154960421994022,0.010253254100441452,0.2125242738822879,-0.9243409923289048
80.0,-0.06954950111401725,0.03784745575068156,0.08538124299414622,-3.940675731030569,1.0976879229459875,8.897492257234191,-0.30342724637079477,0.1334174035786938,0.3517613667815281,141.92466021609164,-23.708530708127483,-7.019497464053916,0.318319025613782,0.012643923717911457,0.21364151547160992,-0.9232873460825273
81.0,-0.08342106392106391,0.037873548663871257,0.08117602856312534,-3.8443353053514353,1.0664230705359738,8.946496768658054,-0.49608286281673375,-0.7900597313903766,0.13956715932522382,141.6002629357468,-23.088253129281355,-6.79106273612322,0.32134604367286645,0.013124469881997202,0.20793941385638867,-0.9236166844625384
82.0,-0.11871322013257499,0.04377996429609333,0.09504141929948381,-3.4839015236434596,1.1534400298916432,9.070981359239422,0.5331525650074038,-3.4849156183833605,0.6673418233902105,141.197980930239,-20.8309489212715,-7.228500678097452,0.32569458306403176,0.003232811132754874,0.19102902858142012,-0.9255460211156781
83.0,-0.06587273909854553,0.20168516904000777,0.23436197949101173,-5.146480203706011,-1.5957054842861291,5.5946903724000485,10.206918064377742,51.767254812416105,-32.8619352070965,178.38420231867812,-33.062965500062276,30.54075158107416,0.07309138814747927,0.043701645853115784,0.3839327452487234,-0.8084039124513362
84.0,0.05656426011264721,0.16153763440860214,0.21278110599078343,-6.336958013312852,-4.107524833589348,2.4527811059907827,3.4862087173579113,18.13944572452637,-13.76613543266769,207.71731790834613,-41.54143625192012,63.58147721454173,-0.13040374600230414,0.10853684168612392,0.5492635372872503,-0.7071324205780851
85.0,-0.05191500256016382,0.2728207885304659,0.4204183307731695,-5.009491551459293,-1.9587803379416278,5.465991807475678,3.2523169482846903,-33.30426907322068,28.55891257040451,167.49819188428057,-31.997308627752172,32.62989631336406,0.15176399715565791,0.0895070624828469,0.3769571532852022,-0.7760235871618023
86.0,-0.10654121863799283,0.14984767025089601,0.20552867383512546,-4.2605824372759855,-0.43589605734767,7.274767025089606,1.2936827956989247,-16.22692652329749,12.371919802867385,145.76864919354838,-26.49344758064516,12.907930107526882,0.30593374380824373,0.06257749667562723,0.2824399121863799,-0.8213592313172042
87.0,-0.11387581129516611,0.09058219509832412,0.13952194129613485,-3.8559522425651456,0.33905938196260793,8.189478107139397,0.6638241063644289,-8.606476436113532,6.706951407052214,139.16224238351253,-23.55044560689722,2.969524968516904,0.3503854877615519,0.04074310301995544,0.23505394326140655,-0.860292212658142
88.0,-0.11619417804901673,0.05400077496851689,0.09070183086312118,-3.4840065872323938,0.8405691175046014,8.794779376150341,-0.077698161871549,-5.7700280926087375,4.963942773418579,135.73773521505376,-20.965242964738934,-3.323537246924343,0.37274544196769355,0.02317996168918919,0.20022610840041655,-0.8878500559885691
89.0,-0.10172164099583453,0.051176014724401815,0.07786883657851398,-3.3124602828635084,1.134522910006781,9.131032161193449,-0.11801014724401823,-2.194545856340211,2.7615972827666377,134.49243951612902,-19.760035236849752,-6.965644071490845,0.3797976708718396,0.011939019056960185,0.18213888971544123,-0.9053335821878329
90.0,-0.10738859827569502,0.033043204494817395,0.06233943621040395,-3.312542865446091,1.1941431754334981,9.144100309987403,0.10542144967548192,-0.44144295505182596,-0.796228688365785,135.54905913978496,-19.744768962510896,-7.432978845781265,0.3714882424699699,0.007523663829555362,0.18268808189625108,-0.9099667106279665
91.0,-0.10259662888695145,0.027121960670347764,0.07342778262133101,-3.3361459846943715,1.1470178242758886,9.141570764312696,-0.030650610287707047,-0.10499007071587715,-0.2811228567276953,136.69623655913978,-19.88616136297588,-7.144328804611062,0.3624506067233362,0.008381963756175531,0.1830735913692725,-0.91373772713746
92.0,-0.10208781362007169,0.023512544802867387,0.07278673835125449,-3.401818996415771,1.1323924731182793,9.119525089605732,-0.04978718637992831,0.3709677419354839,-0.7371751792114695,137.05902777777777,-20.297211021505376,-7.068716397849462,0.35936181981182796,0.009781103001792116,0.18613442086917564,-0.9143606214157707
93.0,-0.0996505376344086,0.026075268817204303,0.06451612903225808,-3.424094982078853,1.0800896057347669,9.11766129032258,-0.1320004480286738,-0.1983086917562724,-0.42853942652329746,137.6019265232975,-20.4375,-6.747087813620071,0.3549892197580645,0.011838140698924731,0.18630177494623656,-0.9160195086200714
94.0,-0.14675627240143374,0.40620071684587816,0.3793906810035843,-4.537508960573477,-1.4168369175627238,6.6184139784946225,-0.012656810035842292,48.59206989247311,-38.40216173835125,170.73269489247312,-28.579637096774196,22.004984318996417,0.11796908926523297,0.053824421209677425,0.32471950105734765,-0.8365961441845877
95.0,0.01922043010752686,0.41787634408602153,0.24571684587813625,-5.657715053763441,-3.44926523297491,3.9492293906810034,-4.274585573476703,-32.01103270609319,11.89684139784946,194.75890456989248,-36.7793458781362,50.612679211469526,-0.0420685363799283,0.09667246792114695,0.45963733138888896,-0.751723149659498
96.0,-0.2627598566308243,0.24343189964157705,0.2739426523297492,-3.735878136200717,-1.0811469534050175,6.7195698924731175,3.0439628136200714,-13.462029569892474,8.796090949820789,159.67002688172045,-23.74803987455197,21.447356630824373,0.2095201279032258,0.04105915921146953,0.28643886354838716,-0.8150046842383512
97.0,-0.23940860215053755,0.14977598566308242,0.1498566308243728,-3.0758243727598567,0.18103942652329752,8.054193548387095,1.3052755376344083,-6.385248655913979,6.747703853046595,142.612791218638,-19.004256272401435,6.3579749103942635,0.33099102681899645,0.015931980349462364,0.2156949604480287,-0.8475221475537633
98.0,-0.19196236559139782,0.09134408602150537,0.0981093189964158,-2.9208602150537644,0.8229749103942652,8.67057347670251,0.9016017025089604,-2.150369623655914,3.0669242831541217,135.64532930107526,-17.69601254480287,-1.3002912186379936,0.3790668224820789,0.0047346544265232954,0.18880498200716847,-0.8685735339874552
99.0,-0.14732693292370708,0.04324039938556067,0.06766513056835638,-2.9019124423963136,1.2195453149001532,9.028557091653864,0.4059427803379416,-2.3244111623143877,2.7025153609831025,132.10218894009216,-17.356558819764466,-6.0395161290322585,0.40258276381848446,-0.0014296573586789567,0.17541010758909367,-0.8844875483428059
100.0,-0.1265353302611367,0.023067332309267795,0.0648809523809524,-2.9482501280081923,1.4341633384536607,9.22831080389145,0.29403321812596006,0.7467885944700461,0.3365847414234511,130.469777265745,-17.507608486943163,-8.834386200716846,0.4124558774961597,-0.0038626240601638507,0.1700773024011777,-0.8946399612905784
101.0,-0.10056758832565285,0.014868919610855097,0.045521249359959055,-3.0340570916538656,1.431681259600614,9.206118023553511,-0.06918362775217614,-0.2896249359959037,0.09952316948284688,131.17572164618534,-18.02140616999488,-8.841532258064515,0.40672247365898606,-0.002873640434459805,0.17405193937147978,-0.8967250462555043
102.0,-0.08542268305171531,0.024468509984639016,0.05687352790578598,-2.8993269329237066,1.4416874039938552,9.247328725038408,-0.14517089093701996,-0.8217837941628264,0.41776113671274956,131.24772305427547,-17.198595110087044,-8.866834677419355,0.406614843048131,-0.006279708572964669,0.16774797155401944,-0.8979848925453147
103.0,-0.09359395801331287,0.036221710189452125,0.05320378904249873,-2.740913466461854,1.4443876088069634,9.294318484383002,0.02726894521249361,-0.5255312339989759,0.5231726830517153,131.23455261136712,-16.229841909882232,-8.830510752688172,0.4071950330563236,-0.009716338023041473,0.1601373861443932,-0.8990673841669226
104.0,-0.09068791602662572,0.025113927291346646,0.05679134664618536,-2.70668561187916,1.4366121351766514,9.307084485407067,-0.32640969022017413,-0.26322644649257554,-0.22960029441884283,130.97100774449564,-16.022547043010753,-8.768817204301076,0.40939882555785967,-0.009688452924987198,0.15833227747465436,-0.8984150990609319
105.0,-0.073568356374808,0.022181771633384535,0.06659549411162316,-2.7266743471582187,1.4003809523809525,9.307376856118793,-0.24668138760880698,-0.09755184331797237,0.036802355350742416,131.09708461341526,-16.145340501792113,-8.545410906298002,0.4084316095028161,-0.007659146029185866,0.1584605570532514,-0.8988718904935995
106.0,-0.06794086021505377,0.01110010240655402,0.07093369175627241,-2.72076574500768,1.37457757296467,9.314407322068611,-0.19813908090117766,-0.11349366359447005,-0.034767025089605746,131.10784530209932,-16.105619559651817,-8.38863287250384,0.40839606536891954,-0.006677861023809524,0.1576242272547363,-0.8990580617030214
107.0,-0.07204838709677419,0.008287506400409627,0.07080286738351255,-2.7139447004608295,1.3625217613927294,9.316804915514593,0.028254608294930872,-0.08612071172555044,-0.040120967741935486,131.16170154889912,-16.07101094470046,-8.31444412442396,0.4080095145796212,-0.006354482926779315,0.15706659383794158,-0.8993345607350234
108.0,-0.07006093189964158,0.0063883768561187925,0.07187992831541218,-2.718083461341526,1.3711802355350744,9.314361239119304,-0.08331893241167433,-0.12202540962621608,0.11289202508960575,131.17160458269328,-16.093385176651307,-8.365695404505889,0.4079007635353303,-0.006650147278801843,0.15742377983563743,-0.8993244338845368
109.0,-0.06772759856630822,0.009417306707629287,0.0665089605734767,-2.662168970814132,1.3638965693804403,9.331280081925243,-0.027406554019457238,-0.8954941116231439,-0.015098566308243716,131.18364055299537,-15.747689452124934,-8.30216333845366,0.4079832795320021,-0.007481535050691244,0.154523652453661,-0.8997651292585764
110.0,-0.062180235535074235,0.02791244239631336,0.06270967741935485,-2.4076041986687153,1.496327188940092,9.371064004096258,2.0704877112135174,-2.1120391705069124,2.765533794162826,130.916900281618,-14.211591141833075,-9.064068100358423,0.4105258370296979,-0.018925961375832058,0.1453742950860215,-0.8996767261689709
111.0,-0.07967741935483869,0.04391577060931899,0.06299283154121865,-2.4890053763440863,1.6139695340501792,9.321774193548388,-0.6693548387096773,2.6060707885304657,-1.3844086021505375,129.34156586021504,-14.725470430107524,-9.796818996415771,0.42220620918458784,-0.02049917122759856,0.1526051183422939,-0.8926505912365591
112.0,-0.04154049210500822,0.04542938099389712,0.0677429041945171,-2.633561706868158,1.4861113532887726,9.31003342051729,-0.33854166666666663,0.8983262496367336,-1.2167717112273562,130.5256647776809,-15.587813620071685,-9.05114035406374,0.41282741925506156,-0.013017168553715004,0.15627549450135617,-0.8967567203046594
113.0,-0.03690811087585281,0.03766207912982107,0.07414436556372041,-2.779300694703921,1.4227017339920562,9.280478819833657,-0.20504032258064514,0.5577020713109424,-0.5990132557672879,131.41890637757572,-16.474478366615465,-8.712202121476315,0.4055641267296813,-0.008241359344189812,0.1617668962426136,-0.8993126094738862
114.0,-0.04391104468523824,0.03253623669752702,0.07924064156322222,-2.8300132505777666,1.3852039135910104,9.27428062855482,-0.17073252688172041,0.10420385823611628,-0.29947862609152925,132.01030444326813,-16.779801907322067,-8.496278032064321,0.40092146006286944,-0.006202519640732898,0.16326838455051826,-0.9012603211571941
115.0,-0.05864523048394017,0.024528743028743034,0.07715001868227675,-2.8580213462310224,1.3632381575123516,9.271839623033168,-0.17345590117767537,0.02849721841657324,-0.22179832482251832,132.2846941123151,-16.94674539170507,-8.380727501695244,0.3987749439349164,-0.004978495264554876,0.16404885742093245,-0.9021760576651305
116.0,-0.06461831416670127,0.018926557894299832,0.07511174769239284,-2.8436746516101348,1.3464981110142404,9.280606191444896,-0.02442396313364055,-0.13505694634726892,-0.0422947717302556,132.49208943967008,-16.85526113671275,-8.268096725758015,0.39722748935993146,-0.0047448410731376536,0.1628851274739071,-0.9031282600512034
117.0,-0.0661346646185356,0.02598003072196621,0.0720742447516641,-2.8714787506400405,1.3108095238095239,9.276606246799792,-0.7937788018433178,0.8050755248335894,0.6579269073220686,132.23622951868919,-17.029790706605223,-8.048038274449564,0.39921485629237075,-0.0020569221479774698,0.16346176830414744,-0.9021358964495649
118.0,-0.088442140296979,0.03359523809523811,0.06069201228878649,-3.0263717357910904,1.2538277009728622,9.233866359447003,-0.08026753712237572,0.6008384536610343,-0.10695244495647721,131.93085477470558,-17.98282930107527,-7.725856054787506,0.40114161369457246,0.004401251827700973,0.16975332997644646,-0.9000707527895544
119.0,-0.08353558627752175,0.04862109575012803,0.06240245775729647,-3.0032037890424985,1.2692570404505892,9.239307731694826,-0.16166154633896565,-1.0795090885816692,0.9358550947260624,131.55590117767537,-17.834072580645163,-7.816305043522785,0.40414640635893495,0.0036831075401945724,0.1689419277839222,-0.8988864665919097
120.0,-0.08188300051203276,0.04123374295954943,0.07386943164362518,-2.8906817716333837,1.25844572452637,9.276529441884279,0.0032226062467998196,0.21708749359959034,-0.31568740399385564,131.16146313364055,-17.14498047875064,-7.721212557603686,0.4076045885337941,0.0023727876871479773,0.1633020716794675,-0.8983594201802356
121.0,-0.07806963645673323,0.052064004096262176,0.06844905273937532,-3.048866871479775,1.2117363031233999,9.230379416282641,-0.8113927291346645,0.21985087045570914,0.03626472094214028,131.2439260112647,-18.118273169482848,-7.476113671274961,0.4064786368878648,0.00785166827905786,0.16997768487199183,-0.8975578597137737
122.0,-0.07326697665407342,0.053391698149762676,0.07063329458490748,-3.102702460525041,1.1841090283832219,9.217213746004065,0.2944032742419839,1.0586418071297103,-0.4149562869320934,131.44456856049598,-18.450735009202752,-7.316005521650682,0.40474683312845106,0.010002069026687979,0.17202886207231427,-0.8979635611859439
123.0,-0.0714576050705083,0.048894389781486566,0.07063474765087668,-3.2169655415784453,1.1940876683134751,9.176571414732702,0.04702242565145791,0.46679930218236665,-0.10262503286696836,131.62845747533248,-19.15578705145237,-7.415518441828926,0.4029238184398015,0.011646596512959967,0.1778413362595314,-0.8976502541489113
124.0,-0.08299045128077386,0.045558946042817024,0.06597853613982647,-3.2864075019720183,1.196383311883312,9.152306700709923,0.02921877810990714,0.32187971381519764,-0.004807140089398171,131.69494830371846,-19.586062848562847,-7.454697424959521,0.40216461131347464,0.01287158961362284,0.18132347169223367,-0.8973068629179017
125.0,-0.08837694607049444,0.044894168361910305,0.060005397102171315,-3.330394611201063,1.2025330537911185,9.136776110211592,-0.015772555389490874,0.08449496443448057,0.015797594829852882,131.7186379063395,-19.853515295249164,-7.493785764451086,0.40179504996677307,0.013576826446596364,0.18350547815346446,-0.8970392929329652
126.0,-0.0947526051397019,0.036940811779521465,0.05891667704570931,-3.3227894714991484,1.1967276124050317,9.140571234829295,-0.04976975823750017,-0.10774051701471055,-0.03593760811502747,131.76634180263213,-19.80343615504906,-7.460176132353552,0.40145631882747246,0.013562611406733923,0.1830255723810077,-0.8972967754575221
127.0,-0.10333435739887353,0.0435483870967742,0.0572462877624168,-3.3119764464925754,1.1888253968253968,9.146242703533026,-0.08094598054275473,-0.14170506912442393,0.07466717869943676,131.80987583205325,-19.73129160266257,-7.399270353302612,0.40114541177060925,0.013670406040962623,0.18227553430926774,-0.8975903270681003
128.0,-0.05096671786994367,0.07370506912442398,0.010830517153097807,-2.926725550435228,1.1447997951868918,9.25390476190476,-0.2164522529441884,-5.449740783410139,0.32849142345110083,131.85735727086535,-17.405709165386583,-7.061415130568356,0.40188521537839217,0.007455736564260113,0.16258644906246794,-0.9003390155985662
129.0,-0.1254726062467998,0.0882043010752688,0.04127035330261137,-2.8779577572964667,1.1240614439324115,9.279953405017919,-0.14502208141321044,2.0792738735279057,-0.0003600230414746719,131.71505536354326,-17.10969022017409,-6.906936443932413,0.403274084765489,0.0077038726682027645,0.15993305124142343,-0.9004266401428571
130.0,-0.09836354326676908,0.06848387096774194,0.05487352790578598,-3.1475765488991287,1.1403640552995387,9.195272401433689,0.21419930875576038,1.8074180747567843,0.10575076804915513,131.82899385560677,-18.755449948796723,-7.07115975422427,0.4015143815135688,0.012451521558115717,0.1733922624889913,-0.8988142802954431
131.0,-0.07050332821300562,0.061141577060931915,0.04556938044034818,-3.173281362007168,1.1859659498207884,9.186755504352277,0.30006240399385564,-0.9232526881720432,-0.16010144649257552,132.20446108550945,-18.892826740911417,-7.353155401945724,0.3984641190184332,0.010262159625448027,0.17552655075243215,-0.8999293891154634
132.0,-0.08049359959037378,0.061301075268817215,0.041377880184331806,-3.1825053763440856,1.2298602150537636,9.182082949308757,0.04897273425499232,-0.09961917562724026,-0.23039234511008702,132.67906746031744,-18.946105350742446,-7.621022145417307,0.39463696062928827,0.007658405534050177,0.17692412608858166,-0.9014724818740398
133.0,-0.08410394265232976,0.04907706093189965,0.05963261648745519,-3.245349462365591,1.256048387096775,9.159157706093191,0.26394489247311825,1.091453853046595,-0.18979614695340502,132.8617271505376,-19.332269265232974,-7.797547043010753,0.3930200829121865,0.007421513763440858,0.18062014524193548,-0.9015332293727598
134.0,-0.09064029697900666,0.03854352278545828,0.05978008192524323,-3.3332439836149512,1.2656630824372765,9.12678648233487,0.08335093445980542,0.5006224398361495,-0.04006016385048643,132.96577860983103,-19.876318484383,-7.892708333333334,0.39183439624705574,0.008521796777777776,0.18519993049667177,-0.9011318198978496
135.0,-0.10308448540706606,0.028380184331797245,0.05488556067588327,-3.3616443932411677,1.272213261648746,9.116941628264215,0.018405977982590888,0.2308499743983615,-0.04125544034818228,132.99019777265744,-20.05375064004096,-7.936133512544803,0.3914796089882232,0.008804107197132616,0.1867167229096262,-0.9009817372114697
136.0,-0.1210189452124936,0.023509472606246806,0.052505888376856144,-3.413795698924732,1.2749915514592942,9.096902713773684,0.027201740911418335,0.47588645673323093,-0.041585061443932404,132.97000928059396,-20.374883192524322,-7.974059139784946,0.3914392571459293,0.009827855467997953,0.18931952745852532,-0.9004514882900667
137.0,-0.1287173579109063,0.023242191500256023,0.04886943164362521,-3.4616738351254486,1.276496671786995,9.079437019969278,-0.12568004352278547,0.11109511008704556,0.29296754992319507,132.86221678187403,-20.671900601638505,-8.001646505376343,0.39211175653891445,0.010921924552995392,0.191711759593958,-0.8996427493287251
138.0,-0.1271351766513057,0.016892473118279572,0.04874551971326166,-3.4683783922171023,1.259131592421915,9.079143881208399,-0.26185355862775217,0.07214221710189452,0.1476062467997952,132.62958589349716,-20.70957501280082,-7.895868535586277,0.3939936620593957,0.012259431348182283,0.1916233953394777,-0.898822939845878
139.0,-0.12775652841781876,0.02774270353302612,0.055084997439836164,-3.5442460317460323,1.2538131080389143,9.049701484895031,-0.011987967229902724,0.5901353686635944,0.05522273425499232,132.4990063364055,-21.187589605734765,-7.878848246287761,0.3947144635212495,0.014372308261904759,0.19526637531438812,-0.8976842182670249
140.0,-0.12485714285714286,0.025801843317972358,0.053565796210957514,-3.600418330773171,1.2463420378904249,9.028725038402456,-0.08112199180747569,-0.10322900665642598,0.08807923707117256,132.42723054275473,-21.54021697388633,-7.866391449052738,0.39508384600819263,0.015995635455197128,0.19790380314132103,-0.896915207157706
141.0,-0.11342498719918075,0.030360727086533545,0.05895596518177165,-3.468167178699437,1.2357040450588832,9.080455709165385,-0.09328116999487968,-0.8101942524321556,0.06461693548387097,132.45835093445982,-20.712219982078853,-7.7521921402969785,0.39534248498719926,0.013664230339989758,0.19109583918868406,-0.8982889519772146
142.0,-0.10342396313364056,0.03213824884792627,0.06287403993855607,-3.3964895033282128,1.227206861239119,9.1084178187404,-0.13000192012288786,-0.7778289810547874,0.017271505376344087,132.4578661034306,-20.26888440860215,-7.6740911418330775,0.39563704851510506,0.012538684005120327,0.18740369683000507,-0.8989655922386074
143.0,-0.09896082949308757,0.02207834101382489,0.06750614439324118,-3.3635074244751664,1.2188108038914491,9.121918586789551,-0.16592261904761904,-0.26503776241679466,-0.07520641321044548,132.40378904249872,-20.056619623655912,-7.6145513312852025,0.3962229201239119,0.012307856864311318,0.18558462277444954,-0.8991018468520225
144.0,-0.10257603686635945,0.007619047619047622,0.06623758320532516,-3.3225709165386585,1.213478750640041,9.138011264720939,-0.10690604198668714,-0.24302355350742444,-0.00942140296979007,132.36705069124423,-19.80304979518689,-7.566141833077317,0.3966994822724013,0.011796798523809524,0.18343460172350232,-0.8993471204751664
145.0,-0.10609907834101381,0.00629441884280594,0.06453814644137226,-3.3188579109062974,1.211255504352279,9.140515104966713,-0.03406618023553507,-0.023943932411674335,0.017610727086533537,132.338767281106,-19.775056003584226,-7.559568612391193,0.3970201299564772,0.011796293324884796,0.18321555342754736,-0.8992586085171529
146.0,-0.11016871479774706,0.007896313364055302,0.06077265745007682,-3.2861359447004603,1.2054843830005124,9.15288300051203,-0.11576740911418332,-0.3308563748079877,0.0440316180235535,132.25355702764978,-19.577184139784947,-7.498702316948284,0.3978098675409626,0.011564515914234514,0.18146820766359445,-0.8992621745542753
147.0,-0.11121556579621095,0.01151664106502816,0.05748591909882234,-3.267363031233998,1.2028530465949823,9.160249871991805,-0.07725934459805428,-0.18869047619047616,0.09868151561699948,132.14689580133128,-19.4673579109063,-7.4856054787506405,0.3986481449349719,0.011451051345622118,0.18053136031848435,-0.8990773666103431
148.0,-0.11880593958013314,0.008661546338965693,0.05324987199180749,-3.252888888888888,1.2046338965693808,9.16585765488991,-0.1716941884280594,-0.4844374039938556,0.013252048131080392,132.0714605734767,-19.369854070660523,-7.48073476702509,0.39920326649974397,0.011258038612903226,0.17975905503020995,-0.8989944022083972
149.0,-0.13352176139272914,0.003558115719406042,0.051528673835125466,-3.231412186379928,1.2116272401433692,9.171405529953915,-0.024281554019457245,0.048324692780337936,0.05683723758320532,131.9676491295443,-19.24222350230415,-7.516788274449564,0.40016300973937546,0.01063793673246288,0.17889161758986172,-0.8987512969843832
150.0,-0.14712493599590376,-0.003914234511008705,0.049235535074244774,-3.229902201740911,1.215974910394265,9.17149948796723,-0.07995391705069124,0.22518881208397337,0.1133768561187916,131.89122663850486,-19.232430875576036,-7.547939068100358,0.4007986536761393,0.01049745314234511,0.17892061939144904,-0.8984616257060931
151.0,-0.15502304147465437,-0.009864823348694313,0.040325652841781884,-3.3268776241679463,1.221885304659498,9.134714797747053,0.06351766513056836,0.6851190476190476,0.1828084997439836,131.75097286226318,-19.840117767537123,-7.612679211469533,0.40148353217409105,0.012549427995903738,0.18381727053353814,-0.8971234159713262
152.0,-0.14487096774193547,-0.006513056835637478,0.04213978494623657,-3.3984295954941124,1.2243481822836657,9.108320532514078,-0.009024577572964668,-0.16233678955453146,0.18763120839733743,131.65526753712237,-20.28685035842294,-7.6461149513568865,0.401963369110087,0.014156321689196108,0.18735991217921144,-0.8961499477552484
153.0,-0.1395163850486431,0.005535586277521765,0.05109242191500257,-3.4176863799283157,1.2318530465949817,9.100876088069636,0.10996543778801843,0.4040178571428571,-0.08149801587301587,131.599023937532,-20.402171338965694,-7.694370839733743,0.40232977110701484,0.014297760614183308,0.18845729726523297,-0.8957607100824374
154.0,-0.12371991807475678,0.01768868407578085,0.06912237583205327,-3.4825033282130056,1.2402575524833588,9.07561597542243,0.060451868919610845,0.3091493855606759,-0.01930363543266769,131.57935227854583,-20.805897977470558,-7.765008960573477,0.4021784603486943,0.015331919474654376,0.19180810413056837,-0.895099336389145
155.0,-0.12337916026625705,0.022782898105478754,0.0380972862263185,-3.3681282642089094,1.2281216077828976,9.11921454173067,-0.015162570404505901,-1.3894249231950844,-0.01591461853558628,131.6114087301587,-20.084544610855094,-7.658118919610855,0.4023890006546339,0.013347848233486944,0.1858387736679467,-0.8962655859800307
156.0,-0.13406861239119305,0.03614951356886842,0.03401280081925243,-3.2366671786994368,1.2272462877624166,9.165807987711215,0.03946172555043523,-0.39416922683051714,0.07319188428059395,131.50703725038403,-19.274827188940094,-7.621118151561699,0.4037413896149514,0.010737465693804404,0.17940967595135687,-0.8969839103287248
157.0,-0.12867229902713773,0.03503379416282643,0.05070071684587814,-3.2371717869943675,1.236286226318484,9.165697644649256,-0.006750832053251412,-0.01818996415770613,0.06577220942140297,131.48169962877625,-19.276804915514592,-7.674252752176139,0.4039175699027138,0.010375803881720429,0.17962884632232456,-0.8968959872350228
158.0,-0.12181822836661547,0.0353036354326677,0.0716989247311828,-3.238231950844854,1.2375965181771633,9.16431387608807,-0.1636296722990271,-2.428001792114695,0.49449564772145416,131.32057091653866,-19.27314708141321,-7.683704557091653,0.4051732592703533,0.01049755035483871,0.17964253145417303,-0.8963099420225293
159.0,-0.15305555555555556,0.04327956989247312,0.07403225806451615,-2.8462275985663084,1.2898566308243726,9.272105734767024,0.02189740143369176,1.258176523297491,-1.2418234767025087,131.3831765232975,-16.903953853046595,-7.905577956989248,0.40578463439964163,-0.00036735904121863727,0.16209269413978492,-0.8990103886021505
160.0,-0.129578853046595,0.043431899641577065,0.06397849462365592,-3.0351612903225806,1.241084229390681,9.223458781362005,-0.21785394265232977,-0.4922155017921148,-0.15484991039426516,133.07538082437276,-18.048331093189965,-7.65625,0.39197094527777776,0.0033306273566308226,0.17019975981182794,-0.9036742180645161
161.0,-0.10803763440860215,0.04503584229390682,0.06734767025089607,-3.0733602150537633,1.214094982078853,9.220331541218636,-0.09167786738351255,0.1220878136200716,-0.0693324372759856,134.29810707885304,-18.27374551971326,-7.495183691756273,0.3822481978315412,0.003638154973118279,0.1714440351702509,-0.9077461813440861
162.0,-0.09388888888888888,0.046362007168458785,0.07016129032258064,-3.075313620071684,1.1931362007168458,9.224811827956987,-0.02436155913978495,-0.021113351254480314,0.010920698924731208,135.16851478494624,-18.28040994623656,-7.36491935483871,0.3754211747849462,0.0034214690770609313,0.1710696199731183,-0.9107738751971326
163.0,-0.09153225806451613,0.04412186379928316,0.06743727598566307,-3.1529838709677414,1.1969444444444446,9.198844086021504,0.1495295698924731,0.9301635304659497,0.06199596774193549,135.65316980286738,-18.761592741935484,-7.407818100358423,0.37131213080645165,0.004027116881720429,0.17503734305555557,-0.9117681579121861
164.0,-0.08498207885304661,0.05465053763440861,0.06488351254480287,-3.3506989247311827,1.2280555555555557,9.124426523297494,0.12079973118279567,0.8886088709677419,-0.04166666666666667,135.76019265232975,-19.988911290322584,-7.657202060931899,0.36971170874551973,0.006277050528673835,0.18546013532258063,-0.9103643496594982
165.0,-0.09381720430107528,0.043978494623655925,0.06127240143369177,-3.447275985663082,1.2369354838709679,9.088360215053765,0.011144713261648738,0.33568548387096775,-0.1474014336917563,135.8836245519713,-20.588933691756274,-7.744903673835125,0.3683758809050179,0.007518153252688171,0.19043843825268816,-0.9098899602598566
166.0,-0.0811705069124424,0.044683563748079885,0.07036405529953918,-3.4947954429083463,1.2488863287250385,9.069289298515109,0.03908570148489503,0.28413658474142345,0.0706637224782386,135.8557603686636,-20.885480670762927,-7.839746543778801,0.36843437511239113,0.00789019720890937,0.19307257390450588,-0.909329301202253
167.0,-0.09147977470558119,0.04163543266769074,0.06895750128008193,-3.5483712237583207,1.2539060419866876,9.047200972862266,-0.03455741167434716,0.1859511008704557,0.020972542242703535,135.84015937019967,-21.223763120839735,-7.886808755760368,0.36837702367537106,0.00869979580030722,0.19588089118945218,-0.9087529107959551
168.0,-0.09461085509472608,0.03720660522273426,0.06725652841781876,-3.5755476190476188,1.2485704045058879,9.037879160266261,-0.06429371479774706,0.07488639272913467,0.03694796466973886,135.77967869943674,-21.393775601638502,-7.861639144905274,0.3687204857176138,0.009610816950332824,0.19715082224347158,-0.9083351916121352
169.0,-0.10438453661034308,0.04351331285202254,0.07154659498207887,-3.5375273937531992,1.2246177675371226,9.056017921146951,-0.22907866103430619,-0.5293618791602662,-0.11052067332309266,135.79374679979517,-21.15242415514593,-7.698118279569893,0.3687929213640553,0.010015645353814648,0.19472015065668202,-0.9088223439999998
170.0,-0.09483563748079879,0.03411776753712238,0.04803584229390682,-3.4968550947260626,1.2134603174603171,9.073555555555554,0.018945212493599595,-0.06838837685611879,0.14985279057859702,135.76212877624167,-20.89047619047619,-7.610035842293907,0.36921080408704565,0.009800039307731698,0.19241032646185358,-0.9091475605304659
171.0,-0.09332770097286226,0.039695340501792124,0.06259805427547363,-3.408929851510497,1.2361797235023042,9.102837173579108,0.1365431387608807,-0.26490015360983105,0.11341525857654888,135.63764400921661,-20.34508768561188,-7.729310675883257,0.3704970776753712,0.007161267540706606,0.18845442345417307,-0.9094533332227341
172.0,-0.10022964669738864,0.03800230414746544,0.0723573988735279,-3.3957347670250897,1.2576121351766514,9.104675115207371,-0.04833749359959037,-0.7690508192524321,-0.03518305171530978,135.5787842421915,-20.26188716077829,-7.854417882744495,0.37101972217818746,0.00602924028187404,0.18821935210752688,-0.9093143727127495
173.0,-0.09700102406554018,0.027643625192012293,0.06422529441884281,-3.3468996415770604,1.2649754224270358,9.122198668714795,0.08019393241167436,-0.16527137736815156,0.022731054787506394,135.56350166410652,-19.96172875064004,-7.884338197644649,0.37126393300665655,0.004772033120327701,0.18594494431541223,-0.9096966170373784
174.0,-0.09784613415258575,0.0310015360983103,0.05655504352278546,-3.3162424475166405,1.2719669738863288,9.132463389656936,0.02592645929339478,-0.37140296979006654,0.13993695596518177,135.52866903481822,-19.767961149513567,-7.927364951356887,0.3716141881300563,0.003857301739887353,0.1845515617752176,-0.9098449782698412
175.0,-0.10904403481822836,0.03230184331797236,0.05539221710189453,-3.3193264208909365,1.282806963645673,9.129869687660012,-0.014450524833589346,0.08877208141321047,0.06635624679979518,135.48540866615463,-19.787570404505885,-7.983787762416794,0.3719632546743472,0.0034799888806963646,0.18494011035893496,-0.9096275395202251
176.0,-0.1076146953405018,0.026628008192524324,0.060515104966717886,-3.3481505376344085,1.2922140296979003,9.119026881720433,-0.015837813620071684,0.21460413466461853,0.08160362263184844,135.3900361623144,-19.96548579109063,-8.060661482334869,0.372581028716334,0.0037695665883256523,0.18656019801868912,-0.9090392036769073
177.0,-0.1121541218637993,0.024626728110599086,0.05876113671274963,-3.4073727598566315,1.2988937532002043,9.095969534050182,-0.005118727598566308,0.5751840117767537,0.031141193036354327,135.26981086789556,-20.331365207373274,-8.127468958013313,0.3733193505857657,0.004775257774449566,0.18964512192601124,-0.9080904978061957
178.0,-0.11635483870967742,0.03381874039938557,0.06144598054275475,-3.443175627240143,1.3085104966717869,9.080767025089607,-0.06581541218637993,0.07911866359447006,0.1576516897081413,135.01306963645675,-20.552835381464412,-8.195090885816692,0.3752305522642091,0.005463697001024066,0.19159188730261134,-0.9068881256011265
179.0,-0.1037467997951869,0.020074756784434208,0.06705376344086023,-3.4776620583717355,1.31165821812596,9.067220174091142,-0.1335285458269329,-0.022563044034818222,0.04088741679467485,134.95450588837684,-20.770961341525858,-8.233541346646184,0.3755971943020996,0.0060373729813108035,0.19341958131592424,-0.9063480291712749
180.0,-0.0927163338453661,0.008025089605734769,0.07174500768049155,-3.4855806451612907,1.3111382488479264,9.062543778801842,-0.11304083461341526,-0.102073732718894,0.09593573988735278,134.93771441372246,-20.82411354326677,-8.245410906298003,0.3756997580414748,0.006177696677931386,0.19384954690220169,-0.9062138123876089
181.0,-0.10408166922683051,0.003367383512544804,0.07152688172043009,-3.42608064516129,1.2903755760368663,9.088354838709678,-0.3430123527905786,-0.928024193548387,0.3367351510496671,134.78518785202252,-20.44860631080389,-8.086530337941628,0.37716540750460836,0.006265095620071685,0.19037027317460314,-0.9063262711938045
182.0,-0.09187240004981939,0.008565533275210695,0.07612186379928315,-3.3446296134844524,1.2878579178256595,9.11956805192289,-0.1706063350216576,-0.255693899544706,0.37189822310790055,134.54212576631932,-19.94564369957515,-8.040240975422426,0.3793754302587703,0.005180116584859052,0.1862834752405516,-0.9062574149462919
183.0,-0.08337846833008122,0.013039551071809135,0.07522401433691757,-3.3336713095584063,1.2828951647500038,9.125787610190837,-0.09172197831472025,0.11624147188663315,0.09944117504601376,134.4040841965237,-19.871464162895613,-7.987488799283154,0.38053216480552443,0.005530646080063935,0.18558491343453593,-0.9059249041454449
184.0,-0.08838726283887574,0.020166728940922488,0.07272401433691758,-3.3533813537039334,1.271443102088264,9.119762084665314,-0.049865245429761555,-0.06956743609969418,0.23806064128644772,134.29481203553783,-19.99394780725426,-7.927688172043011,0.38131933025222453,0.0066121778025767675,0.18629569084809233,-0.905444942018959
185.0,-0.09004616598164986,0.023991198571843737,0.07023758320532514,-3.359782842750585,1.2655049611823805,9.11804694095017,-0.0428185674153416,-0.04604523878717427,0.09270543585059714,134.10279196246938,-20.029433581046483,-7.896217357910906,0.38278652415837033,0.007311767804514188,0.18647611195400005,-0.9047828720140878
186.0,-0.08244909425554586,0.035517360678651015,0.06106810035842295,-3.362934944160751,1.2592844826393215,9.118403398790498,-0.032165172084526926,0.08486908567553728,0.024735334412753766,133.98529895102473,-20.057413923139727,-7.857776497695853,0.38372377091379867,0.007871222486486485,0.18655187825554587,-0.904370409103306
187.0,-0.09197644649257554,0.0336057347670251,0.06493036354326678,-3.3882918586789548,1.2540624679979517,9.108421402969793,-0.012423195084485406,0.04654697900665643,-0.0861463133640553,133.95789810547876,-20.222324628776242,-7.83211405529954,0.3839281027578084,0.00866422822580645,0.18774797787506398,-0.904033501378904
188.0,-0.09622324628776242,0.034498719918074766,0.06046979006656428,-3.399445468509984,1.2592293906810037,9.104316692268302,-0.058486943164362516,0.04441404249871991,0.0636376728110599,133.82048131080387,-20.286306323604713,-7.869945276497695,0.384990208295955,0.008883255006912439,0.18835317578545824,-0.9034547340120328
189.0,-0.10538760880696364,0.03043932411674348,0.05705837173579112,-3.439516641065028,1.2552867383512543,9.089349206349203,-0.05321300563236047,0.2529697900665643,-0.020628520225294412,133.85311699948795,-20.526161674347158,-7.867908346134152,0.3845056888791602,0.009771483923707115,0.19024685345724524,-0.9032502497076293
190.0,-0.1109426523297491,0.02363440860215054,0.05899001536098313,-3.4730348182283652,1.252611111111111,9.076743727598561,-0.010333461341525855,0.05134088581669227,-0.08237647209421402,133.89430043522785,-20.74090341781874,-7.871425371223758,0.38398308652713775,0.010452991717613928,0.1919165215442908,-0.9031102211487456
191.0,-0.11544188428059399,0.016833589349718386,0.05445468509984641,-3.4678842805939576,1.251247311827957,9.079371223758319,-0.10132488479262672,-0.28929211469534044,0.019111623143881207,133.9212365591398,-20.709171786994368,-7.855619559651817,0.3837860314019458,0.010393840652329749,0.1915942993671275,-0.9032658034705583
192.0,-0.11645263696876601,0.015082949308755762,0.05722324628776243,-3.4145832053251404,1.2575053763440858,9.099147977470562,0.005673963133640554,-0.31345046082949307,0.019604454685099845,133.91315284178188,-20.37478238607271,-7.869902073732718,0.38405818005120324,0.009079318842293904,0.18905719034562213,-0.9036926179764466
193.0,-0.1132447516641065,0.017154377880184334,0.05689733742959552,-3.40096902201741,1.263835637480799,9.10324219150026,-0.055429147465437784,-0.16314804147465437,0.056317204301075265,133.93097158218126,-20.296290962621605,-7.904161866359447,0.38396679589656924,0.008523933517921144,0.1885108102834101,-0.9038533802601125
194.0,-0.11012596006144393,0.016753712237583207,0.05854275473630313,-3.4015463389656944,1.2642027649769587,9.103162314388122,-0.017101894521249356,0.0717357910906298,0.08427419354838708,133.9259472606247,-20.29470686123912,-7.904953917050691,0.384028383844342,0.00852370875268817,0.18854206045980543,-0.9038195562590887
195.0,-0.10108192524321556,0.015268817204301077,0.06427086533538147,-3.4273671274961597,1.2763082437275988,9.091668202764978,-0.1291122631848438,0.13589989759344595,0.7738031233998975,133.69698540706605,-20.458541346646186,-7.989439324116743,0.3857321240501792,0.008853797599590374,0.1900727550266257,-0.9027611670302099
196.0,-0.10296543778801842,0.017203789042498724,0.06573758320532516,-3.467200716845878,1.2754838709677414,9.076321044546852,-0.003288210445468509,-0.4016769073220686,-0.5737519201228879,133.77588005632362,-20.706097990271374,-7.993727598566308,0.38495501493650786,0.009578043651817716,0.1920390858143881,-0.9026555244700462
197.0,-0.09791193036354326,0.020564260112647212,0.07003277009728623,-3.3983584229390678,1.2536379928315409,9.105069124423963,-0.07509280593958013,-0.39897913466461854,0.06594662058371731,133.87690732206863,-20.279656298003072,-7.834789426523297,0.3844360817603687,0.009048794980030722,0.18818724980235535,-0.9036962492780338
198.0,-0.09836917562724015,0.012831541218637993,0.07181003584229392,-3.376577060931899,1.2596684587813618,9.112311827956987,-0.0768929211469534,-0.1778113799283154,0.11743951612903224,133.79872311827955,-20.139840949820787,-7.865535394265233,0.3851269682795698,0.008414484193548389,0.18721265299283152,-0.9036218789247312
199.0,-0.09247311827956992,0.012885304659498208,0.06877240143369176,-3.334310035842293,1.2375448028673832,9.131066308243726,-0.2260304659498208,0.06916442652329748,0.5767249103942652,133.31193996415772,-19.87768817204301,-7.712981630824373,0.38915228083333325,0.009387327517921148,0.18463949646953398,-0.9024051134229392
200.0,-0.0917816180235535,0.010937532002048132,0.06880081925243217,-3.3541802355350736,1.2589508448540703,9.121021505376346,0.040967421915002564,0.10249775985663082,0.20473950332821306,132.96108870967743,-20.00330581157194,-7.854477086533539,0.39180969351203276,0.009376112103942654,0.1860287715560675,-0.9009755217119817
201.0,-0.08849385560675883,0.01993113159242192,0.06845058883768562,-3.429437788018433,1.2704342037890424,9.090770609318998,-0.05122887864823348,0.19436603942652328,0.25061123911930366,132.97925627240141,-20.468498783922172,-7.954232270865336,0.3913688680552995,0.010350653336917565,0.19000624932642082,-0.9003205266938044
202.0,-0.07513850486431133,0.021914490527393755,0.074610599078341,-3.4916812596006137,1.274688428059396,9.067464157706091,0.06443932411674347,0.3920698924731183,-0.004006656426011265,132.8152889784946,-20.85569316436252,-8.001057667690732,0.3923623770384025,0.011713198317204302,0.19316955924654375,-0.8992024712680491
203.0,-0.0677977470558116,0.027211725550435235,0.0764137224782386,-3.5278433179723496,1.2828773681515617,9.052025089605735,-0.027424155145929337,0.09142025089605736,0.08491423451100871,132.6324708781362,-21.082752496159756,-8.06400889656938,0.39366092867153113,0.012395427505376344,0.19511192891090626,-0.898214938783666
204.0,-0.06906349206349206,0.0237178699436764,0.0715089605734767,-3.5406661546338976,1.287911930363543,9.046329749103942,-0.05394265232974911,-0.027588965693804403,0.12391193036354325,132.52725934459806,-21.163818484383,-8.103437019969277,0.39437992119457266,0.01255062448489503,0.19585275660163842,-0.8977414178817202
205.0,-0.07764951356886841,0.01844982078853047,0.0699126984126984,-3.556875832053251,1.2922621607782896,9.038451612903222,-0.05137928827444957,0.18649673579109063,0.0011328725038402404,132.43793522785455,-21.265956221198156,-8.1377688172043,0.3949520074370201,0.012844756987967228,0.19675351344316433,-0.8972916743591908
206.0,-0.09804864311315925,0.014367127496159754,0.06482642089093704,-3.5808594470046082,1.2912654889912951,9.029014080901176,-0.02719214029697901,0.19062660010240656,0.003321812596006145,132.39599494367638,-21.415148169482848,-8.164818548387096,0.39518117932334884,0.013370486766001017,0.1979787964838709,-0.8969216551646184
207.0,-0.10449103942652331,0.011959549411162316,0.05190655401945725,-3.5662163338453663,1.282723758320532,9.036164618535587,-0.28638632872503844,-0.6869751664106503,0.03024193548387097,132.36193996415773,-21.326012864823348,-8.105784370199693,0.39555586657885305,0.013539404494367635,0.1970240270483871,-0.8969573830683565
208.0,-0.12422580645161291,0.024537122375832054,0.05379825908858167,-3.443005120327701,1.2695832053251406,9.08512083973374,-0.013152841781874064,-0.7398809523809524,-0.07280465949820789,132.31913082437276,-20.556515616999487,-7.970314900153609,0.39643962768458785,0.01168051649001536,0.1906204908853047,-0.8979447812877626
209.0,-0.12433922171018945,0.019831285202252948,0.05335227854582694,-3.4309132104454685,1.2677393753200206,9.089736047107014,-0.04993919610855096,0.12412634408602152,0.05463069636456732,132.39805747567846,-20.48121159754224,-7.946402969790066,0.395892171219662,0.011437282371991809,0.1900067369854071,-0.8983313715368664
210.0,-0.12123707117255503,0.017520737327188944,0.05447721454173069,-3.4457962109575,1.2733149001536102,9.084740399385561,-0.04831669226830518,0.05204813108038915,0.09010496671786994,132.3222926267281,-20.572151817716332,-7.970513312852022,0.3964159201146955,0.011719926421915002,0.19078992381976448,-0.897936243098822
211.0,-0.1262636968766001,0.01492626728110599,0.05340450588837688,-3.448990271377367,1.2732519201228882,9.083324116743473,-0.04616295442908346,-0.04995519713261647,0.022731054787506394,132.29979838709676,-20.59203789042499,-7.982232462877624,0.396616545656426,0.011779137012800818,0.190956946218638,-0.8978133470701483
212.0,-0.1330350742447517,0.01629723502304148,0.05156400409626219,-3.445204813108039,1.2722941628264213,9.084758832565283,-0.06349046338965693,-0.09666538658474141,0.09445884536610344,132.30018721198158,-20.572862263184845,-7.990367383512544,0.3966823471692268,0.011679442409626218,0.19078332204941123,-0.8978267437240139
213.0,-0.145384024577573,0.02217639528929852,0.05498003072196622,-3.4349590373783934,1.2717788018433183,9.088436763952892,-0.010659882232462878,-0.46415930619559653,0.08304371479774705,132.27635368663596,-20.49969278033794,-7.969030017921146,0.3968993106679468,0.011622256554275474,0.19018937680875578,-0.8978588857419355
214.0,-0.14341218637992834,0.023671274961597544,0.04240860215053764,-3.357241167434717,1.2743348694316436,9.117044546850996,0.007130056323604712,-0.47418074756784434,0.08927291346646185,132.31483614951355,-20.013408858166922,-7.958934971838198,0.396890394951357,0.00976562033077317,0.1864310003891449,-0.898663670905274
215.0,-0.12831131592421915,0.018186379928315417,0.05141218637992833,-3.3304198668714795,1.2823379416282639,9.126650281618023,-0.03242447516641065,-0.2351830517153098,-0.0002752176139272852,132.34693420378903,-19.845135688684074,-8.011725550435228,0.39664752228673833,0.008676337046594982,0.1853086723809524,-0.8990238810517155
216.0,-0.12368561187916027,0.02437890424987199,0.05877521761392731,-3.332145417306708,1.2831874039938556,9.125592421915,0.056368407578085006,0.2791538658474142,-0.1459901433691756,132.3836917562724,-19.863380056323603,-8.01600102406554,0.39635255018945215,0.008642019145417307,0.1854589377296467,-0.8991239881618023
217.0,-0.11264976958525347,0.030833077316948287,0.06414592933947773,-3.348431643625191,1.2787211981566822,9.12063901689708,0.024334357398873532,-0.2355638760880696,-0.06307123655913977,132.57586725550436,-19.960946300563236,-7.990975422427035,0.39484306489452115,0.008899609044802869,0.18614916968356376,-0.8996360894756783
218.0,-0.11085816692268305,0.032802867383512554,0.06313210445468512,-3.3623640552995386,1.2734623655913977,9.116178187403996,0.007696492575524835,-0.007622887864823333,-0.17082053251408089,132.73453661034307,-20.043938812083972,-7.956752432155658,0.3935518303722477,0.009175715276497697,0.1867248972299027,-0.9000828746973888
219.0,-0.12010650281618024,0.02750281618023554,0.058943932411674366,-3.3973571428571425,1.2664639016897081,9.103987711213517,-0.030598758320532514,0.2493567588325653,-0.09989759344598054,132.84537890424986,-20.269694060419866,-7.914695340501792,0.3924968170017921,0.01004707255529954,0.18832898892370714,-0.9002043191643625
220.0,-0.13166308243727598,0.021213517665130573,0.04943983614951359,-3.4206502816180238,1.262748079877112,9.09627700972862,-0.08604070660522274,0.08314772145417307,0.003008192524321558,132.9005120327701,-20.423422299027138,-7.891823476702509,0.39191116908960577,0.010660191044034817,0.1894177190199693,-0.9002273392596003
221.0,-0.13903072196620586,0.0195852534562212,0.05133026113671277,-3.4556308243727605,1.263715565796211,9.08213799283154,-0.1259120583717358,0.15738287250384023,0.10196172555043523,132.80196812596006,-20.639760944700463,-7.9133368535586275,0.3925714429953917,0.011516256772401434,0.19115012216641064,-0.899560287423451
222.0,-0.1254920634920635,0.02454173067076293,0.05466154633896571,-3.4803870967741943,1.266073732718894,9.072050179211468,-0.17121095750128007,-0.020602918586789573,0.6222734254992319,132.55729006656426,-20.79000256016385,-7.941967485919099,0.39442126165898617,0.012312981025089606,0.19238504974807985,-0.8984728208981052
223.0,-0.10497695852534561,0.015440860215053767,0.06016589861751152,-3.5315924219150023,1.2624731182795697,9.052296979006655,0.1636136712749616,0.3334485407066052,-1.2427867383512545,132.67674731182797,-21.11503456221198,-7.935483870967742,0.39328972696876596,0.013370974041986686,0.1948948539078341,-0.8983912280102404
224.0,-0.08910599078341011,0.03732514080901178,0.0667747055811572,-3.550940604198669,1.2311290322580644,9.049157706093188,-0.1904249871991807,-0.37949628776241673,0.5465725806451613,133.24977598566306,-21.23189964157706,-7.748431899641577,0.3888341473763441,0.014248967864823348,0.19523249519303637,-0.9002263455555554
225.0,-0.06393548387096773,0.040395289298515116,0.07033666154633897,-3.442682283666155,1.1895276497695848,9.09582770097286,-0.46623783922171014,-0.7654105862775217,0.44678859447004604,132.7323476702509,-20.557309267793137,-7.456877240143369,0.3933825420798771,0.014827148227342548,0.1889239694490527,-0.8995713668745519
226.0,-0.07578494623655915,0.03624603174603175,0.06742191500256015,-3.4109244751664107,1.1726356886840756,9.111018689196108,-0.10067044290834612,-0.14835829493087557,0.2849142345110087,132.44278673835123,-20.359411802355353,-7.336077508960573,0.3957877867478239,0.015468519633384536,0.18694216854173068,-0.8989479378996414
227.0,-0.0705,0.03312749615975423,0.07406041986687148,-3.3946602662570404,1.1665732206861237,9.117709165386588,-0.21361367127496161,-0.14687179979518689,-0.04476286482334868,132.26182795698924,-20.25458269329237,-7.28679435483871,0.39729602234792627,0.015724915918842806,0.18595665553430624,-0.898493943985663
228.0,-0.06756630824372759,0.030354070660522276,0.07124167946748591,-3.4257396313364055,1.1552355350742443,9.10717895545315,-0.17910746287762416,-0.07351990527393752,0.21090149769585254,132.17000448028676,-20.45418426779314,-7.221606182795699,0.3979119087322069,0.01709944010547875,0.18725005249385562,-0.8979381728172042
229.0,-0.07472401433691757,0.034742447516641066,0.07157962109575011,-3.461234511008705,1.180601638504864,9.090672811059907,0.1842197900665642,0.030248335893497187,-0.06544418842805941,132.02737455197132,-20.673524705581155,-7.395497311827956,0.3988519705847414,0.016879077418330776,0.18954221137685612,-0.8970460795806452
230.0,-0.10148745519713266,0.0496594982078853,0.07232078853046595,-3.292697132616488,1.1430555555555557,9.146433691756272,-0.7008848566308243,-5.551971326164874,-3.793570788530466,132.921146953405,-19.63222446236559,-7.128416218637993,0.39221924250896056,0.01412433424731183,0.1804396102240143,-0.9013447646863799
231.0,-0.0895878136200717,0.07937275985663081,0.058494623655913985,-2.8220430107526884,1.035698924731183,9.300600358422937,0.12219982078853053,1.2040210573476706,2.3574708781362004,134.83954973118279,-16.76836917562724,-6.379368279569892,0.3784689407078853,0.0073468061827957,0.15552468777777775,-0.9112753919982078
232.0,-0.10407706093189964,0.05024193548387096,0.05562724014336918,-2.940268817204301,1.1321953405017924,9.26459677419355,0.4327956989247312,1.0371863799283156,0.8256048387096773,135.80902777777777,-17.472782258064512,-6.978494623655914,0.3704907266666667,0.003160756577060932,0.1631964678763441,-0.9136504582078852
233.0,-0.10392575524833589,0.039137992831541214,0.06549487967229903,-3.047793650793651,1.1933407578084998,9.227950332821301,0.2377688172043011,0.964340117767537,0.3600294418842806,138.51210637480798,-18.121783794162823,-7.373431899641577,0.3485175624639017,-0.002114989591397849,0.1696864350765489,-0.9211580620099844
234.0,-0.10168509984639015,0.03627598566308244,0.0635583717357911,-3.1487534562211987,1.2223827444956479,9.194226062468001,0.09536290322580646,0.4877704173067076,0.2612759216589861,140.88418938812083,-18.729070660522275,-7.564628136200717,0.3291942554703021,-0.00538385393548387,0.1751499265391705,-0.927378285453917
235.0,-0.10809856630824373,0.04099692780337942,0.05935663082437276,-3.1918609831029183,1.232600102406554,9.180887352790577,-0.06726510496671786,0.21934203789042495,0.2516801075268817,142.1279025857655,-18.99581733230927,-7.633694956477214,0.3191005559621095,-0.007020240311315924,0.17748908820993345,-0.9306953833415259
236.0,-0.11773655913978495,0.03942319508448542,0.05504121863799284,-3.292825652841782,1.2308878648233483,9.145640809011777,0.007922107014848946,1.101550499231951,-0.06451612903225806,142.66604582693293,-19.628901049667178,-7.6580213133640544,0.3144205878018432,-0.006024483677163338,0.1825979375189452,-0.9314414585793649
237.0,-0.11361290322580644,0.04130209933435741,0.055616487455197136,-3.3473133640553,1.2089923195084484,9.129115207373273,-0.11770673323092676,-0.3874807987711214,-0.0040322580645161255,142.99308115719407,-19.962019969278032,-7.535803891449052,0.31160544833640547,-0.004555704289298515,0.18493370743778806,-0.9319962350558116
238.0,-0.11664516129032257,0.040254736303123415,0.053582437275985675,-3.330850230414747,1.1971827956989245,9.138645161290324,-0.3221310163850486,-0.16436251920122888,0.13309331797235024,143.0354518689196,-19.85609639016897,-7.4650217613927285,0.31130398838018425,-0.004361458199948795,0.1838891640368664,-0.9323249938182282
239.0,-0.10518637992831542,0.040947260624679994,0.05618637992831542,-3.2462898105478764,1.1752759856630828,9.170863799283152,-0.13908410138248845,-0.6316884280593958,0.19317076292882746,142.82574564772145,-19.33133000512033,-7.30464349718382,0.3132976539795187,-0.004336046756784433,0.17922389807578085,-0.9325545491940602
240.0,-0.13188760880696365,0.045533538146441385,0.055581669226830534,-3.096611879160267,1.1620696364567336,9.216763184843828,-0.559787826420891,-5.586504736303124,0.07406874039938556,142.79164906554018,-18.403683435739886,-7.186208717357911,0.3139489447275985,-0.0061591942718894,0.17137113461239123,-0.9336050833876087
241.0,-0.0943084997439836,0.05337608806963646,0.05464567332309268,-2.550420634920635,1.072898617511521,9.37195238095238,-0.30585157450076805,0.9747247823860721,0.46445372503840243,142.36538658474143,-15.122764656938045,-6.538304851510496,0.31870721749820785,-0.01012538391909882,0.14288981026318487,-0.9361761559142345
242.0,-0.08357808499743984,0.0500394265232975,0.06844546850998465,-2.7761233998975934,1.088121351766513,9.317264720942141,0.05881336405529955,1.3190252176139268,0.05657962109575013,141.98965693804402,-16.476552099334356,-6.675768049155145,0.3213151573614951,-0.006644212725550433,0.15433306782693293,-0.9338105131546337
243.0,-0.08015412186379928,0.05335355862775219,0.07094214029697901,-2.951166666666667,1.102399641577061,9.269197132616487,0.059120583717357914,0.9502736175115205,0.07160458269329238,142.00809651817715,-17.536675947260623,-6.794607654889912,0.32075376157322066,-0.004426249029953916,0.16326366296057343,-0.9326889792900663
244.0,-0.08486687147977469,0.05933640552995392,0.0671111111111111,-3.0065486431131596,1.1353870967741937,9.252267537122375,0.3099942396313364,0.06004384280593955,0.16172395033282128,141.9985759088582,-17.86471454173067,-7.008035714285715,0.32070544626728115,-0.005126398048643113,0.1665435541210957,-0.9322464416341525
245.0,-0.0811879160266257,0.05552841781874041,0.06234587813620071,-3.0426963645673326,1.1726308243727597,9.238503840245777,0.12565124167946745,0.2361431131592422,0.05826452892985151,141.98780721966205,-18.078806643625192,-7.240969022017409,0.32074009757808497,-0.0063223026175115195,0.1689378180865335,-0.9318799275867895
246.0,-0.0896799795186892,0.05345417306707631,0.06944802867383512,-3.112710189452125,1.200007168458781,9.2143236047107,0.16304403481822838,0.13184843830005116,-0.14993919610855094,142.03736239119303,-18.50554915514593,-7.423351894521249,0.32014108267793145,-0.0065603880829493075,0.17290644401638502,-0.9314242539994877
247.0,-0.09525934459805427,0.05222478238607273,0.06732770097286228,-3.144903481822837,1.2170035842293903,9.20135995903738,0.13123399897593446,0.2896857398873528,-0.07963549667178701,142.09788626472093,-18.70867895545315,-7.529590693804403,0.31950477656477216,-0.006869089327188939,0.17482225564874548,-0.9312868919398363
248.0,-0.10300153609831028,0.057895545314900175,0.07091295442908348,-3.1577788018433184,1.2238602150537627,9.195500768049154,-0.012115975422427025,-0.3338197644649258,0.014253712237583212,142.14031298003073,-18.780526753712238,-7.57239503328213,0.31907487386482336,-0.007077512441372247,0.17554860044086018,-0.9312964578381977
249.0,-0.10564823348694316,0.05754685099846392,0.06747030209933438,-3.139036866359447,1.2115614439324112,9.203538402457758,-0.14110983102918587,-0.07690412186379929,-0.009837429595494112,142.08383736559142,-18.67162858422939,-7.494636456733231,0.31962877051766514,-0.006732497828981053,0.17445794798540704,-0.9313133097071172
250.0,-0.11217895545314899,0.05317306707629291,0.06506579621095752,-3.1604951356886835,1.217693804403481,9.195474398361497,0.00790610599078341,0.3133064516129032,-0.00956701228878648,142.04726702508958,-18.80728046594982,-7.540048963133641,0.3198237071674347,-0.006618969353558627,0.17564657397926264,-0.9310268052388635
251.0,-0.10384485407066052,0.04539477726574503,0.06600512032770098,-3.1712063492063494,1.2205673323092672,9.191281105990786,0.028622631848438298,0.16236559139784948,0.05416026625704045,142.00974462365593,-18.87233422939068,-7.560375064004097,0.32005336550128016,-0.006532890478750638,0.17624553546185354,-0.9308367108228368
252.0,-0.0977647209421403,0.04567639528929853,0.06706810035842295,-3.192936507936508,1.206502304147465,9.185756784434204,-0.24730222734254995,-0.3387800819252432,0.2594758064516129,141.77048931131594,-19.007989311315924,-7.477326548899129,0.3219785012616488,-0.005102325693548387,0.17710222482974908,-0.9300099770207374
253.0,-0.08840296979006657,0.04201945724526371,0.06580798771121352,-3.213329749103943,1.2147567844342033,9.177841781874037,-0.18668074756784434,0.359568612391193,0.5132552483358935,141.37821300563235,-19.128145801331286,-7.5332341269841265,0.32514640595596517,-0.004530608632872503,0.17828348519047615,-0.9286776138617511
254.0,-0.08174731182795697,0.03212647209421403,0.06986456733230928,-3.2687667690732205,1.2228899129544288,9.157181515616998,-0.12523681515617,0.46771633384536604,0.38606310803891447,140.90910458269332,-19.470047683051714,-7.600494431643625,0.32876840518945216,-0.003231028119303635,0.1812400275952381,-0.9268264090578596
255.0,-0.07525499231950844,0.027809267793138765,0.07300256016385048,-3.3329403481822837,1.237759856630824,9.131732974910394,-0.0963629672299027,0.2882632488479262,0.582139656938044,140.56866999487966,-19.871306963645672,-7.7139080901177675,0.33131154307629285,-0.0022958199142345107,0.18478523031233995,-0.9252270426313365
256.0,-0.07508269329237072,0.026624167946748593,0.06982565284178188,-3.3615463389656943,1.2466039426523294,9.120046594982082,-0.059802227342549925,0.159952636968766,0.13705997183819763,140.20228974654378,-20.040716205837175,-7.779501088069637,0.33413459731771633,-0.0016404299436763954,0.18636354012928824,-0.923904543672299
257.0,-0.08147772657450077,0.03513056835637482,0.06448796722990273,-3.398088069636457,1.2486216077828982,9.106217101894522,-0.032840501792114694,0.262442396313364,0.013351254480286734,140.1305171530978,-20.275777649769584,-7.799871991807475,0.33462686918637985,-0.0009690030266257041,0.18828081262160778,-0.9233406374930875
258.0,-0.08752227342549923,0.040528417818740406,0.05774167946748593,-3.3849472606246795,1.2460573476702512,9.110818228366618,-0.1821172555043523,-1.297753456221198,-0.01642345110087046,140.15105926779313,-20.196298963133643,-7.781214797747056,0.3344730332383512,-0.0011021938358934972,0.18753024226472093,-0.9235409523870967
259.0,-0.09442543003833326,0.050716112425789855,0.06771843733134056,-3.3054998823708495,1.2285430591882203,9.141050400631048,-0.12829949765433638,0.29497135384232165,0.06622157872157872,140.12604638048185,-19.706874385906644,-7.65110882772173,0.33493998307090955,-0.0016219814872337778,0.1832547320892044,-0.9242111310981304
260.0,-0.08908982715434327,0.04561151243409309,0.060738378931927316,-3.2287489171198844,1.1595306181757792,9.17773001342356,-0.18951457217586248,-0.389505490513555,-0.1259969935373161,140.01991323120353,-19.228754013229818,-7.196742969928454,0.3360988400203498,0.0005383980694911502,0.17810864158684486,-0.9247954371686249
261.0,-0.08562018239437594,0.04360772754321142,0.05452689555915363,-3.2152839567678275,1.1549445205574238,9.183564827500309,0.11256798272927307,0.34237763108730856,-0.23476148960019927,140.28034192026126,-19.142994838156127,-7.159247381021574,0.3340377542261247,0.0001285878833118833,0.17735559282747262,-0.9256937684230221
262.0,-0.095068155713317,0.04307114487759651,0.05904224962289478,-3.291121241056726,1.1741773294031361,9.153657989787021,0.023449889982148052,0.2820183086312119,0.05001556856395567,140.4297158910062,-19.60634764949281,-7.303471616778069,0.3325953015969333,0.0002823614531766791,0.18148501460267638,-0.9254208861562114
263.0,-0.10051206044754432,0.041873514067062474,0.05707872849808335,-3.36027951453758,1.1845336211787825,9.127556081427052,0.19169806327064393,0.5991408747457135,-0.4594136186878122,140.6847792204647,-20.040981044408465,-7.382355368040852,0.3303124257308784,0.0006096825053901829,0.18519478311188606,-0.925498208674624
264.0,-0.11171684587813621,0.03244649257552484,0.056535586277521754,-3.455157194060421,1.1681367127496158,9.093863287250386,-0.3778625832053251,1.3298275089605736,-1.011728750640041,140.6945068484383,-20.63319092421915,-7.310840693804403,0.3299351532480799,0.0030380217680491548,0.18973932426881718,-0.9246915352537124
265.0,-0.16662903225806447,0.11737019969278036,-0.018631848438300045,-3.1381251920122892,0.927258320532514,9.212988991295443,0.7137624807987711,-4.286111111111111,-6.309515809011776,148.4945148489503,-18.66933403737839,-5.760287058371736,0.266180820203789,-0.00043701269124423944,0.16966272261827955,-0.9456000668517666
266.0,-0.1495197132616487,0.10447363031234,0.09340809011776754,-3.384712237583205,0.9587142857142854,9.113228366615465,0.5914522529441885,1.1707885304659498,0.09448604710701547,153.23348054275473,-20.245369303635428,-6.031941244239631,0.2265800259621096,-0.007550873818740399,0.18294485487096776,-0.9537301292995393
267.0,-0.12440860215053762,0.042231182795698936,0.053566308243727594,-3.3623207885304662,1.1131272401433692,9.114417562724014,0.6686267921146953,3.3147401433691757,0.09134184587813643,155.03326612903226,-20.08910170250896,-6.978102598566308,0.21177591283154124,-0.01886888758064516,0.18331509918458777,-0.9581256713082438
268.0,-0.12564564564564568,0.034824905550712014,0.04933110529884723,-3.8531841518938297,1.0108502857696404,8.926113775065385,2.0132471180858276,1.1117392594207112,-4.2399647631502475,163.3806624164487,-23.191389978688363,-6.458359064709871,0.14079832113096968,-0.024942300930688756,0.2070977843112467,-0.9642806545158868
269.0,-0.11920275113823502,0.028922309406180378,0.06102755981788241,-4.066771287416449,0.9916213794439599,8.84360796280151,0.9668050106558171,-0.184245737673157,-0.9603161629371308,171.09593716700573,-24.532130921243823,-6.396322229487552,0.07535484868376441,-0.036775284251186674,0.2161604505606413,-0.9695188476477283
270.0,0.017450595757047334,0.09228373534825147,0.18205947883367235,-4.207928654460912,1.0297667829119441,8.782314734088926,-2.5688768405502276,1.7710043713067907,3.397586094158674,174.91078780393298,-25.423883560980332,-6.6800439552455675,0.042997135959265714,-0.044990766731328104,0.22262338791024897,-0.9710315722512834
271.0,-0.22271287416448707,0.06261140172430496,-0.011273127966676316,-4.02324300106558,0.7913036423520294,8.882537295359874,-3.7525443790564754,-1.3341718734863894,7.032910430591882,164.10800366899156,-24.226054683715972,-5.098142497336045,0.1346398085396687,-0.013657290493800253,0.2118969750527947,-0.961519453742129
272.0,-0.20107865930446575,0.05023491233168653,0.027808776518453968,-4.198167199457521,0.8682907100649035,8.799328683522234,-1.6181796716070909,-2.272204664341761,2.194126586263683,158.9770809115567,-25.352386660854403,-5.640133076625012,0.17719811653685946,-0.005180230645645646,0.22344324171994578,-0.9540717219965125
273.0,-0.12316308243727597,0.09119175627240145,0.04586021505376345,-3.3709856630824366,1.1650089605734766,9.05840501792115,3.445620519713261,-7.468918010752688,0.7090613799283156,154.32745295698925,-20.171706989247312,-7.262936827956989,0.2176061375806452,-0.02190757346774194,0.18468521852150538,-0.9539762107885302
274.0,-0.11137096774193547,0.07346774193548389,0.07581541218637992,-3.181989247311828,1.196263440860215,9.150896057347671,-0.7154457885304657,1.1532258064516134,-0.8744959677419355,152.1707549283154,-18.98633512544803,-7.405185931899641,0.23621305545698926,-0.021493890878136204,0.17560399662186382,-0.9534775932706091
275.0,-0.09396953405017922,0.05484767025089607,0.06676523297491038,-3.316164874551971,1.2101971326164869,9.120501792114698,-0.13597670250896046,1.9157146057347672,-0.46942204301075263,150.96426971326164,-19.798443100358423,-7.535170250896057,0.24606684180107533,-0.018002745967741943,0.18283119366487458,-0.9510806507795697
276.0,-0.08746518177163339,0.046624167946748604,0.06877342549923196,-3.441368919610854,1.2260785970302095,9.081745775729647,-0.031648425499231955,1.0479326676907323,-0.5077956989247312,150.53273809523807,-20.57176779313876,-7.679038658474143,0.24936144502944185,-0.0163655520015361,0.18951209101510497,-0.949240760344086
277.0,-0.09639739278448957,0.03681857433470337,0.0767165829423894,-3.410950007611298,1.309889656938044,9.082495114930598,1.6967585817384205,-1.8191267592477272,5.6374203840937716,149.12200391635875,-20.35992517575179,-8.207114747235714,0.26093199768412423,-0.01895408042196344,0.18952321395773652,-0.9458313146641963
278.0,-0.05215926986894729,0.06536269218527285,0.06615399039592589,-3.118463355060129,2.4971625704045053,8.849746661407949,2.5937029915860563,5.151760545107319,11.60743667054151,136.59678824850195,-18.576831987517473,-15.71080423741714,0.35701102509206206,-0.05954673309180608,0.20601630911148483,-0.9002740588688367
279.0,-0.10030902561547722,0.060615933906256525,0.02522305254563317,-2.1172021076375915,2.4462560163850484,9.059967416725481,-5.279229373382599,1.4820742689694297,-5.506653528528528,133.7286976636775,-12.597667785873432,-15.038029806880612,0.3830887658300812,-0.07355028553335824,0.15607015578334096,-0.8984028982874648
280.0,-0.05748874219841961,0.0947524113975727,0.05027281659539723,-2.8440983656467527,1.645332309267793,9.071717579330482,-2.8452038443973926,-1.3831228117518442,-4.827615518744551,138.44093373327246,-16.96905678720195,-10.169972564730628,0.3464928466023165,-0.028326586763094897,0.17306596860851634,-0.9148915970155962
281.0,-0.12674949142691078,0.1412389809164003,0.10513077593722756,-3.05069844037586,1.3274193548387094,9.125947883367235,-2.5736643901966483,-4.538188390002906,4.653038118763925,139.44116899157223,-18.16809854209048,-8.21989731667151,0.33953931904872603,-0.010547227453744071,0.17500377453211274,-0.9201733972963286
282.0,0.04617383512544801,0.11333333333333334,0.10468637992831542,-3.893279569892474,1.5874014336917561,8.682455197132615,-0.983086917562724,-0.26876120071684584,8.903561827956988,129.43895609318994,-23.618895609318997,-10.334117383512545,0.41132007412186367,0.016111312284946236,0.22312353043906807,-0.8738522002508962
283.0,0.07226702508960574,0.08122759856630823,0.09258960573476702,-3.9863351254480293,1.9974820788530465,8.622114695340503,-3.054771505376344,5.768425179211469,5.219758064516128,122.51691308243727,-24.129816308243726,-12.999719982078854,0.4634237529301074,0.011803685492831542,0.23645790693548388,-0.8465043481541219
284.0,0.04495519713261649,0.05648745519713262,0.09308243727598565,-4.159722222222223,2.1010573476702508,8.57747311827957,-1.4700380824372759,2.212925627240143,2.7485439068100357,118.57857302867384,-25.155801971326163,-13.740255376344086,0.49282716620967737,0.01819460187275986,0.24609834387992835,-0.8304719550268818
285.0,0.02618279569892473,0.07538530465949822,0.059094982078853046,-3.0241756272401434,2.257078853046595,8.907105734767025,-1.9383960573476702,-6.698588709677419,-9.430163530465949,123.6396729390681,-18.139896953405017,-14.168738799283155,0.45878825329749107,-0.024786344175627244,0.1934842889516129,-0.8588118469265231
286.0,-0.06293906810035842,0.05624551971326165,0.048808243727598566,-3.0793189964157714,1.5389605734767025,9.074874551971327,-1.4385640681003584,-1.1233758960573481,-6.844422043010752,132.78181003584228,-18.397233422939067,-9.611559139784946,0.39003105572580643,-0.006069333458781363,0.18053351489247313,-0.8953061120519714
287.0,-0.09806451612903225,0.05487455197132617,0.05341397849462365,-3.1961290322580647,1.2235035842293904,9.129865591397849,-0.7062612007168458,-0.216845878136201,-2.3942092293906807,136.5388664874552,-19.064796146953405,-7.622143817204301,0.36216413158602145,0.0036151300985663047,0.1790794452419355,-0.9107201692473119
288.0,-0.1083151700087184,0.04531410442700766,0.06015523588104234,-3.4329555361813426,1.1115969195001454,9.083400900900898,-0.12403734379540834,-0.14603918434563612,-1.5348145524556813,138.09691344570376,-20.52081062917756,-6.963720272692047,0.35015638685096384,0.010058174592899347,0.18811417550300302,-0.9157748247379637
289.0,-0.12016564952048824,0.04277801995543932,0.06747457134553908,-3.3018003487358323,1.0008791049113632,9.15596120313862,-0.5438735106073816,-2.6926992516710255,-1.3950674464787367,139.4669155042139,-19.695469158674804,-6.232336166811973,0.34024701037440663,0.010451152650392325,0.17912327797999614,-0.9224414640087668
290.0,-0.1132369466240434,0.04379492395621429,0.07144337886273369,-3.167835658238883,0.9223750363266493,9.222339920565725,0.02034595078949919,-0.5430622154412476,-0.3462232393684007,140.26851599583455,-18.85761921195389,-5.710646130000969,0.3345091469524363,0.010709470384335947,0.17080632307153926,-0.9265617050823403
291.0,-0.1083389034195486,0.04516807129710357,0.06973602634892959,-3.1006068972197998,0.9241221059769447,9.247361716555263,-0.05826340453356582,-0.3821381865736704,-0.07672945122541898,140.48374836530076,-18.441158396299524,-5.698793047079338,0.33296237004431845,0.009111678870483385,0.16747061687179113,-0.9278159810089122
292.0,-0.10129963604157154,0.039401751982397155,0.07549448526867882,-3.065204882301656,0.9092531932854511,9.261992430218235,-0.019749501805953418,-0.08114525816138717,-0.23192991378475247,140.69693610661352,-18.21848386404838,-5.60586173731335,0.33135623816540033,0.008821465435753725,0.16544607806249567,-0.9288002352215579
293.0,-0.10877342549923197,0.04047875064004098,0.07150051203277011,-3.0803942652329743,0.9053008192524319,9.258667434715822,-0.12838741679467486,-0.19587813620071684,0.1525313620071685,140.72533282130055,-18.30194572452637,-5.579915514592933,0.33111210346902203,0.009236614111367128,0.16607418986482334,-0.9288038358486943
294.0,-0.070173579109063,0.051299283154121876,0.0892457757296467,-3.1150652841781863,0.9362086533538145,9.244106758832569,-0.17986431131592417,-0.1453437019969278,0.42696652585765493,140.14735983102918,-18.514200908858168,-5.780582757296466,0.3356407976792115,0.009156311577316948,0.16828773616308243,-0.9267661265563237
295.0,-0.28940118459473296,0.12505836481642932,0.27234133211552564,-3.4969442714604,0.2641542879284814,8.934687666929602,0.527224315329154,21.83493283029573,-34.2097229574044,147.26120261967037,-21.073522975740715,-0.8700052154689251,0.2757540522694469,0.03401575976727418,0.19151694809304465,-0.9269225470271931
296.0,-0.0032220976737105944,0.9083759566017631,0.3879896624735334,-3.175192565837727,-2.256139701913895,8.118522148876988,25.002803465908308,-13.418947115318081,10.51495818975658,180.07930202668106,-19.19911587855136,16.14298238330496,0.012265388845296946,0.10854106184600268,0.22085604285924632,-0.8996459822232741
297.0,-0.3116177052628665,0.47327655997010837,0.23240855371500532,-2.997918863564025,-0.5058143466046692,8.696795636650474,9.988540109810272,-1.4516554573006175,12.961242535738503,157.57577492527088,-18.007209628983823,4.239428339629953,0.1943457494533705,0.05263199801875147,0.19037663162624374,-0.9054961758889029
298.0,-0.23852390639487409,0.2617771688739431,0.13891485033420514,-2.996979145043661,0.3700453356582388,8.971422011873623,6.677037752037752,0.25109879464718243,5.1714534811309,147.26949028521608,-17.89518187542381,-1.7193875326939843,0.2777810154972946,0.024583715971741325,0.1792259602934086,-0.9112587297007237
299.0,-0.13433158965417027,0.15541751428848205,0.10244308824953985,-3.014971907391262,0.8874348542090478,9.091553811876391,3.434006587232394,0.10541690884432856,2.136318778455876,146.0464738932481,-17.95899326746101,-5.187157924053086,0.2875111323825439,0.0012989729981594516,0.17564767686815846,-0.9250416945451904
300.0,-0.1036111111111111,0.08318100358422939,0.07675627240143368,-3.036335125448029,1.2674193548387098,9.136648745519711,1.6446012544802868,-0.9353158602150535,3.4189628136200714,144.9111783154122,-18.057347670250895,-7.71130152329749,0.2965792313351254,-0.015294228835125444,0.17605946315412185,-0.9305697205376343
301.0,-0.12241039426523294,0.03090501792114696,0.05699820788530467,-3.1490412186379944,1.5249372759856632,9.150913978494625,0.14516129032258066,0.9658378136200717,0.3758960573476702,143.6602822580645,-18.73812724014337,-9.45777329749104,0.3062338333960573,-0.024535914193548385,0.18005316362007168,-0.9340906730465949
302.0,-0.09204301075268816,0.02401433691756273,0.06051971326164876,-3.204471326164874,1.554614695340502,9.127939068100362,0.02385752688172041,0.24949596774193544,-0.016801075268817252,144.360103046595,-19.074820788530467,-9.656530017921146,0.30040672663082435,-0.0261712836827957,0.1832808080824373,-0.9355534387634407
303.0,-0.09366385048643115,0.014592421915002563,0.0624009216589862,-3.2110696364567333,1.5677060931899642,9.124737327188942,-0.10045442908346133,-0.04756944444444447,0.06175115207373269,144.71102150537632,-19.113818484383,-9.737735215053764,0.2975470915709165,-0.02718177969278034,0.1837579676792115,-0.936450729908858
304.0,-0.09913620071684587,0.0032544802867383524,0.06152636968766004,-3.2071369687660014,1.5717383512544802,9.126042498719919,-0.08810643881208396,-0.021185355862775222,0.1072692652329749,144.72275025601635,-19.092586725550433,-9.776705709165388,0.2974508800430108,-0.027543085214285716,0.1836653783701997,-0.9365002609679978
305.0,-0.1033763440860215,-0.001939068100358423,0.06185637480798772,-3.199012032770097,1.5800985663082443,9.128030209933435,-0.05763408858166923,0.020377304147465435,0.11504256272401434,144.64660138248848,-19.04290514592934,-9.823500704045058,0.29808256937634414,-0.027947996491551462,0.1833847124467486,-0.9363377139920632
306.0,-0.11081643625192014,-0.005886328725038402,0.05811776753712239,-3.189422683051715,1.5851612903225818,9.131567588325648,-0.056698028673835124,-0.10669322836661548,0.08420378904249871,144.6048867127496,-18.978873847926266,-9.84955837173579,0.2984487514331797,-0.028224671560419884,0.1829270022229903,-0.9363055053215565
307.0,-0.1135688684075781,-0.014142345110087048,0.04866461853558629,-3.154,1.5837204301075283,9.143046594982074,-0.07506400409626215,-0.2705453149001536,0.07876984126984127,144.58522145417308,-18.763812083973374,-9.828712237583204,0.29871054329032254,-0.02867855406144395,0.18113677949103946,-0.9365523829677417
308.0,-0.13836712749615973,-0.0064603174603174605,0.05470250896057348,-3.12521198156682,1.5797275985663088,9.152511008704556,-0.18082117255504349,-0.43012032770097286,-0.023364695340501798,144.59402201740912,-18.584421402969788,-9.78666794674859,0.2987549308725038,-0.02895344972401434,0.17957951746953404,-0.9368286938668715
309.0,-0.1178563748079877,0.0020325140809011773,0.05418330773169483,-3.027297747055812,1.5656881720430107,9.186990271377365,-0.2927211341525857,-0.588773681515617,0.2515921018945212,144.58986175115206,-17.978853046594978,-9.662167178699436,0.2990404407562724,-0.02974000750256017,0.17434557933845365,-0.9376871560317461
310.0,-0.10007066052227341,0.008431131592421915,0.05891961085509474,-3.0344239631336403,1.5003082437275985,9.195323092677931,-0.2704365079365079,0.22555043522785456,0.101126472094214,144.38184843830004,-18.025716845878136,-9.260631080389146,0.30080222651612903,-0.026101320834613417,0.17370811665847413,-0.9373499843061956
311.0,-0.08969994879672298,0.010662058371735792,0.05926523297491042,-3.1119109062980033,1.4684516129032255,9.174348694316436,-0.2061251920122888,0.3066308243727598,0.07886264720942139,144.23919930875576,-18.495193292370708,-9.087528801843318,0.3018114304526369,-0.023120305605222734,0.17713067700921653,-0.9364606655360983
312.0,-0.10020942140296979,0.018059139784946242,0.06673860727086534,-3.0960061443932414,1.4744976958525342,9.179377112135175,0.09944316436251921,-0.7338389656938045,-0.2880168330773169,144.32236463133643,-18.398719918074757,-9.120146889400921,0.3011743538576549,-0.023817249986943158,0.1764105667534562,-0.9367903086344085
313.0,-0.13051689708141323,0.024347670250896056,0.059771633384536615,-3.0026625704045062,1.4960660522273423,9.206664362519202,0.14475966461853557,-0.5493231566820277,-0.1125064004096262,144.48289490527392,-17.830464349718383,-9.224583973374298,0.3000876235506913,-0.026572211942396312,0.17202462786149514,-0.9378745135286739
314.0,-0.12017332309267792,0.02763978494623656,0.061991551459293394,-2.980112647209421,1.5026387608806968,9.213211213517667,0.1396681387608807,0.06407610087045573,-0.04841269841269841,144.70325300819252,-17.68883768561188,-9.254037058371736,0.29833862300742453,-0.027553866558115724,0.17091445849615977,-0.9386068042777778
315.0,-0.11080235535074245,0.030844854070660524,0.06536149513568867,-3.0185107526881714,1.513351510496672,9.19935739887353,0.03040834613415258,0.03512384792626727,0.09167306707629289,144.76798515104966,-17.925744047619048,-9.335234254992319,0.29770323925422437,-0.02757405855785971,0.17303557949590376,-0.9384289115663081
316.0,-0.0999800307219662,0.026408090117767534,0.0649836149513569,-3.0678530465949816,1.5282662570404504,9.180655401945728,-0.0515520993343574,-0.043061955965181774,0.02433115719406043,144.70657322068612,-18.232277265745005,-9.446290962621607,0.29807554865489,-0.027425650923195086,0.17583727182232467,-0.9378000810967739
317.0,-0.10182206861239118,0.025720174091141836,0.06514720942140298,-3.0564124423963133,1.5295929339477727,9.18414336917563,-0.07596166154633896,-0.13606630824372762,0.18454781105990783,144.6217517921147,-18.15682603686636,-9.453326612903226,0.29883286431105993,-0.027582053602406557,0.17524874691679465,-0.9376650913297488
318.0,-0.10302662570404506,0.03125627240143369,0.06121095750128009,-3.05213492063492,1.5274598054275474,9.185662314388125,0.04767025089605735,-0.08508224526369688,0.09411482334869431,144.54014656938045,-18.133965373783923,-9.447875064004098,0.29947858375473624,-0.027451691389400925,0.17504336760547873,-0.9375032542813619
319.0,-0.09878033794162827,0.025605734767025087,0.06054275473630314,-3.0605970302099332,1.52947363031234,9.182477214541729,-0.111581541218638,-0.326955325140809,0.0089189708141321,144.51520097286226,-18.184562211981564,-9.455792370711727,0.2996973923701996,-0.02735041212391193,0.17550008774091141,-0.93735251134767
320.0,-0.09235125448028675,0.030471582181259598,0.06070660522273427,-3.0494577572964667,1.532885816692268,9.185873015873014,0.009182987711213515,-0.0027921786994367648,0.1361639144905274,144.46492575524832,-18.118362775217612,-9.475924859190988,0.30008998911955953,-0.02764480390578597,0.17500847218484383,-0.9373097727634409
321.0,-0.08316487455197133,0.04313005632360471,0.07461853558627754,-3.0169242191500256,1.5397403993855607,9.195561955965182,-0.007589285714285713,-0.08839765745007681,0.08395897337429596,144.45530113927293,-17.914076100870453,-9.499891193036355,0.30021209768253965,-0.02846662896006144,0.17342965013364056,-0.9375352423763441
322.0,-0.08532616487455197,0.03738300051203278,0.06692473118279572,-3.0189257552483353,1.5348791602662573,9.195475678443419,-0.07707693292370713,-0.03605990783410139,-0.005485151049667174,144.45684203789045,-17.9288818484383,-9.468471582181259,0.30024631580491556,-0.02814969354173067,0.17343847487352793,-0.9375362486784437
323.0,-0.09816999487967229,0.038894265232974914,0.06218125960061445,-3.000352278545826,1.5297160778289816,9.203378392217104,-0.014575332821300566,-0.1749135944700461,0.02113415258576549,144.45411226318484,-17.81467133896569,-9.432680491551459,0.3003341366351766,-0.02819880405657962,0.17238289470865334,-0.9376963088000514
324.0,-0.10948822324628776,0.03489068100358424,0.052918586789554536,-2.968294418842806,1.521099078341014,9.214619303635434,-0.079280273937532,-0.2348022273425499,-0.11370487711213517,144.49312916026625,-17.61804915514593,-9.367549923195085,0.3000587469421403,-0.028323409927035328,0.1706381255980543,-0.9380998077109579
325.0,-0.12074244751664104,0.03678417818740401,0.04552892985151051,-2.9401651305683565,1.5151328725038402,9.22400051203277,-0.0683563748079877,-0.11322484639016896,0.009887032770097295,144.52999871991807,-17.44222990271377,-9.304854710701484,0.29983061291321045,-0.02844526756041987,0.1691012222439836,-0.9384512261774196
326.0,-0.13716333845366102,0.03786789554531492,0.04199385560675885,-2.9322734254992335,1.5119795186891958,9.22742140296979,-0.06509216589861751,0.05637480798771121,0.03851766513056836,144.5265360983103,-17.40010240655402,-9.27300307219662,0.2998659969001536,-0.028411174600102403,0.16864218144905274,-0.9385230153333334
327.0,-0.15562109575012803,0.03720839733742961,0.03480542754736304,-2.9477219662058376,1.499627752176139,9.225401945724528,-0.041861879160266256,0.06033026113671275,-0.28407578084997437,144.7190988223246,-17.4938972094214,-9.20829813108039,0.29827127593855607,-0.0278836721515617,0.169174658781362,-0.9389481022452637
328.0,-0.14670353302611366,0.0413236047107015,0.038698668714797754,-2.9613637992831543,1.51260752688172,9.21840860215054,0.030205133128520224,0.20444508448540705,0.44950716845878136,144.41498655913978,-17.575062403993854,-9.304715501792113,0.30070567589912955,-0.027918083431131592,0.17018547943778803,-0.9379822735737327
329.0,-0.1207352790578597,0.04697900665642603,0.048027649769585276,-2.928741935483871,1.5448028673835124,9.22300358422939,-0.3042018689196108,-0.719966077828981,1.3729390681003584,143.4910394265233,-17.373524705581154,-9.501344086021504,0.30831302613056843,-0.02868738310445468,0.16930637939631332,-0.9356009414956479
330.0,-0.11732974910394264,0.04967741935483873,0.046612903225806475,-2.9143996415770603,1.521666666666666,9.230770609318995,-0.11452732974910391,0.028617831541218608,-0.3184363799283154,143.39236111111114,-17.282426075268816,-9.355062724014337,0.30917380248207893,-0.027626010241935485,0.16826167491935481,-0.9355510318010754
331.0,-0.11027777777777777,0.04040322580645162,0.04445340501792116,-2.917956989247312,1.4712455197132615,9.23798387096774,0.004648297491039441,-0.5411066308243727,-0.7937948028673835,143.8006832437276,-17.303707437275985,-9.043570788530467,0.30590683552867387,-0.025672174417562726,0.1674815078405018,-0.9368276837903226
332.0,-0.09767921146953405,0.037535842293906815,0.053736559139784944,-2.9245609318996415,1.4581362007168461,9.238557347670248,-0.04569892473118279,0.2642809139784946,-0.5011760752688172,144.60808691756273,-17.35007840501792,-8.965557795698924,0.2992799270250896,-0.026099749623655917,0.16741691807347675,-0.9389529210215053
333.0,-0.09765386584741423,0.02895007680491552,0.05610931899641579,-2.971969534050179,1.4569784946236561,9.224256272401433,-0.05396665386584741,0.08076516897081415,-0.20642441116231436,144.973972734255,-17.641845878136202,-8.976310483870968,0.2961227714339477,-0.025807239080389146,0.16969639102892986,-0.9395650299196108
334.0,-0.09727649769585253,0.023222478238607278,0.05500716845878138,-2.9899974398361477,1.456634408602151,9.21861546338966,-0.0667002688172043,-0.05911738351254481,-0.12514560931899643,145.1542690732207,-17.752112135176652,-8.977094534050178,0.2946202333184843,-0.02579939487301587,0.1705412418389657,-0.9399057945442906
335.0,-0.09427624167946749,0.017261904761904766,0.05612339989759346,-2.990114183307732,1.4576899641577068,9.219012032770102,-0.07873783922171018,-0.09885432667690733,-0.0035890296979006683,145.23304851510497,-17.753565028161802,-8.98515905017921,0.2939538093947772,-0.025984601706861236,0.1705413182201741,-0.9401150858269328
336.0,-0.0986390168970814,0.01471966205837174,0.05834843830005122,-2.982413722478238,1.4594318996415776,9.21910727086534,-0.03768881208397338,-0.06622823860727087,0.05832533282130056,145.24292434715824,-17.70574756784434,-8.996639784946236,0.2938623288909371,-0.02626351003353814,0.17017159936098308,-0.9402064026625703
337.0,-0.10128622631848438,0.013583205325140811,0.056193548387096795,-2.974456733230925,1.4599354838709684,9.222055299539173,-0.09843830005120327,-0.1687532002048131,-0.03824884792626728,145.25972222222225,-17.653289810547875,-9.0,0.29380467199078353,-0.02639694589042499,0.16977101476190476,-0.9402976737572961
338.0,-0.0975647721454173,0.007335381464413723,0.059308755760368675,-2.94579518689196,1.4551336405529962,9.232543778801844,-0.13216845878136202,-0.3032130056323605,0.033294930875576036,145.27798899129544,-17.47670250896057,-8.954838709677418,0.2938092033456222,-0.026581794263184844,0.16823050371735787,-0.9405664466758832
339.0,-0.09765335381464414,0.009266769073220688,0.06093087557603688,-2.9216533538146443,1.4524055299539178,9.241861751152076,-0.07927547363031234,-0.18639912954429083,-0.006826036866359447,145.26399449564772,-17.32708973374296,-8.912903225806451,0.29389826888018433,-0.026754660956477216,0.16693711678494622,-0.9407663960937018
340.0,-0.10540732206861239,0.012315924219150027,0.05779211469534053,-2.9142910906298,1.450898105478751,9.243403993855608,-0.03198284690220174,-0.13621671786994366,0.0978734639016897,145.21846678187404,-17.287850422427034,-8.897311827956988,0.2943038989869432,-0.026723137457245263,0.166548551000768,-0.9407027515645159
341.0,-0.1128294930875576,0.010670762928827444,0.06287762416794676,-2.8977091653865843,1.4548591909882238,9.247185867895546,-0.11195596518177164,-0.1149705581157194,-0.006701228878648234,145.11028545826935,-17.18417178699437,-8.91363287250384,0.2951715604301075,-0.027034217752176133,0.16583733196313366,-0.9405469444915511
342.0,-0.11051715309779828,0.00870762928827445,0.0651152073732719,-2.800881720430108,1.441802355350743,9.278810035842294,-0.1000384024577573,-0.9982142857142857,-0.18751280081925242,145.23610471070148,-16.58876728110599,-8.821511776753713,0.2944151113323093,-0.028112150040962618,0.16066676373271888,-0.9416297263399896
343.0,-0.10158900375029409,0.02190245083793471,0.07368028397060655,-2.3801572632540378,1.3995798425153265,9.385336142594207,-0.5853232552829327,-4.5767919417112966,-0.19571726103984166,145.4785720340156,-14.051651824635695,-8.47799106710397,0.293275004551321,-0.032653867837270444,0.13878589233976835,-0.9448591305168623
344.0,-0.08721129655000623,0.021662950969402583,0.053183203941268464,-2.197627530756563,1.3169763011859787,9.444406422551584,-0.41137642538852215,1.4995520578181867,0.24157109298238327,145.65460859765295,-12.971553638892349,-7.936352164376357,0.29228473287422685,-0.031448129865895846,0.12847987737060101,-0.9467314860648828
345.0,-0.08219666209988791,0.02164496754819336,0.06404999930806385,-2.444845767426412,1.3099073774235064,9.38873508531573,-0.014179156114639963,1.4765217406346436,0.1378698398859689,145.3613424772699,-14.45525326593875,-7.9382269654447075,0.2942390270888031,-0.027032361552123546,0.14077275214843415,-0.9446242092033325
346.0,-0.07644344113698953,0.019420538049570307,0.0637643749740524,-2.757412131025034,1.3187355627516917,9.299152488894427,0.09357606454380649,2.0309772041626877,0.07332240074175558,145.1249716738628,-16.354178732303733,-8.073254547750516,0.29550674469442717,-0.02245267479347089,0.15675506584943466,-0.9418127309590651
347.0,-0.08594125461867398,0.02909646974163104,0.05445835236157818,-2.8485089328960296,1.3356625842432293,9.273500975630009,0.39412226166258424,0.6803071504684406,-0.06593736593736593,145.15435971685974,-16.89681942887588,-8.19228923624085,0.29507714451567235,-0.021975087889566987,0.16152354935840907,-0.9412728130691381
348.0,-0.08247900665642602,0.029196108550947265,0.05745391705069125,-2.9567542242703535,1.3866799795186893,9.235609831029185,0.39845910138248847,0.3289074500768049,-0.06567780337941628,145.28619431643625,-17.55367223502304,-8.537131976446492,0.2937074127421915,-0.023083827100358424,0.16777772475524833,-0.9406850103832565
349.0,-0.08306298003072196,0.032752176139272914,0.06273681515617001,-2.9899452124936,1.4214224270353302,9.22264362519201,-0.04256592421915001,-0.12502880184331794,0.09725742447516642,145.26529697900668,-17.750822452636967,-8.757869303635433,0.293800384359447,-0.024239413487455192,0.16996494932206857,-0.9403016141566819
350.0,-0.07869175627240144,0.04126344086021506,0.06113799283154123,-2.9077867383512546,1.3793727598566308,9.254381720430107,-0.940356182795699,-2.105790770609319,0.6824036738351255,145.03113799283153,-17.245799731182796,-8.473510304659499,0.29597861449820795,-0.023079601908602147,0.16510966836917562,-0.9404799488172042
351.0,-0.0764024508379347,0.04086408989634796,0.06497457134553908,-2.7782115179695825,1.3365252349123318,9.298158238884046,0.08997808292163129,0.2964663251961639,-1.6292396226872032,145.3616817422261,-16.46595587523007,-8.180720539087474,0.29354852490433986,-0.023480617239416836,0.15794519023491238,-0.9423383323297491
352.0,-0.06618957667344764,0.03831734960767219,0.07117456165843263,-2.795570812748232,1.2935762375278506,9.301037004746682,0.10048859343214181,0.14977326116439021,-1.073776397365107,146.38029763634603,-16.568887435822916,-7.913080923665601,0.2851745420803061,-0.022454822315944978,0.15790516197229487,-0.9449807641308243
353.0,-0.059196938874358236,0.02284147050276083,0.07603530950305144,-2.850254044366947,1.2706635667925994,9.288403807032836,0.013113920371984868,0.022775295456747037,-0.2293165140947399,147.0354109149472,-16.897234936549452,-7.789453768284413,0.27967767364768004,-0.021474125472488618,0.16017899766177468,-0.9463136553405016
354.0,-0.057931802770512464,0.015860699409086507,0.08166908844328197,-3.0413770221834735,1.2844984500629657,9.22354330136588,0.03931905696018599,1.0418255957570473,0.11123219994187739,147.07799331589655,-18.06980922454713,-7.923624733604573,0.27889084197616976,-0.01940553135183571,0.17014162174755398,-0.9448317570430106
355.0,-0.05711080665919377,0.0018330634782247682,0.0773230234843138,-3.148910477297573,1.2848788973305103,9.188240544692157,-0.08176056240572369,0.5656236593736593,-0.02135202598912276,147.1352204162688,-18.733017291485034,-7.956107201671717,0.27817684040180735,-0.017935355495938332,0.17564093945288606,-0.944108523470046
356.0,-0.0689462365591398,-0.0013463901689708142,0.07383077316948283,-3.215876088069635,1.27984024577573,9.167270353302609,-0.06401049667178699,0.3352358550947261,0.07578245007680492,147.15362263184844,-19.13250768049155,-7.941900281618023,0.27788990712468004,-0.0167371926610343,0.17891245985995907,-0.9436384341543779
357.0,-0.08157885304659497,0.0027631848438300047,0.0812747055811572,-3.2518269329237066,1.278764208909371,9.155463133640552,0.004453084997439835,0.1293954813108039,0.049679979518689195,147.11002144137223,-19.361504736303125,-7.951236879160266,0.27817314527828985,-0.01610482969073221,0.18078456703123402,-0.9432226868397336
358.0,-0.10113184843830006,0.0012516641065028165,0.06278955453149002,-3.2450604198668715,1.272729390681004,9.158258576548898,0.12763056835637482,-0.5409114183307732,-0.2013264848950333,147.11229518689197,-19.31589061699949,-7.923263888888889,0.27816843747337433,-0.015979641059907835,0.18033264002048133,-0.9433173718215565
359.0,-0.0980972862263185,0.01552278545826933,0.08046287762416793,-3.1296538658474145,1.2782867383512546,9.197256528417817,-0.04897593445980543,-0.8132424475166411,-0.1472862263184844,147.40997823860727,-18.60729006656426,-7.916353046594981,0.2759788006318485,-0.018307359938556065,0.17445945355862774,-0.9449913546338966
360.0,-0.11021044546850998,0.014522273425499232,0.06429390681003584,-3.1257127496159756,1.2872048131080387,9.19731233998976,0.16236879160266257,0.22567524321556576,-0.10411546338965694,147.46115271377369,-18.582654889912952,-7.967223502304147,0.27550438170353303,-0.01894324390271377,0.17440313385048642,-0.9451397285453147
361.0,-0.11338172043010754,0.02161597542242704,0.059916538658474155,-3.154902457757296,1.2987176139272916,9.186891193036356,0.10163370455709166,0.35961181515617,-0.0814068100358423,147.49307635688683,-18.75791730670763,-8.039170506912441,0.27515110194393233,-0.01903650587762417,0.17601517271326161,-0.9449515403141322
362.0,-0.1273005632360471,0.024691756272401444,0.052422939068100374,-3.2408627752176136,1.3141822836661547,9.154311315924222,0.06988927291346646,1.0464477726574501,0.446742191500256,147.31445852534563,-19.294857270865336,-8.160461469534049,0.2764145463855606,-0.018260866011776757,0.18072030015924218,-0.9436895177363029
363.0,-0.11655911210749921,0.041779182408214675,0.05114570791990147,-3.2760564965887546,1.3206078936078938,9.140761088277216,-0.2226489306126403,0.20828974135425754,1.0740802438383084,146.65643448748287,-19.512875764589474,-8.218895263350909,0.2817368343479678,-0.017068797378412975,0.18271680291422066,-0.9417327738732579
364.0,-0.10837812236199335,0.04063421486002132,0.05309973568038085,-3.2330327285811156,1.3333505417860259,9.15406333983753,0.005975041862138625,-1.034015971616778,-0.46351991392313985,146.42555147313212,-19.246665256846708,-8.278382443503412,0.2837534681641273,-0.01794948185676921,0.18074638409599922,-0.9414942842170947
365.0,-0.10113798591217946,0.034878039329652236,0.05758929436348792,-3.181444679702744,1.337387636484411,9.171789734434894,-0.023334163656744306,-0.36291412380122057,-0.35261569172859497,146.60435279749794,-18.9311563291402,-8.28407249415314,0.2824123689924579,-0.019198730820857726,0.17815347779172722,-0.9423818464051421
366.0,-0.10651369341691921,0.03660491828233764,0.06151354119096055,-3.1978698052891605,1.299523311329763,9.171245097632191,-0.4473237638560219,-0.2943314858637439,-0.10813388273065694,146.7091176429886,-19.02908622908623,-8.058309288551225,0.2815591981552151,-0.01724721111088969,0.17836686955945807,-0.9426372434836771
367.0,-0.11465930446575609,0.0476854596532016,0.0598310153471444,-3.2397838529774017,1.2561559208978563,9.163072113588239,-0.0773421174630852,0.4144990036119069,-0.1759339408532957,146.72963882661463,-19.288928675218997,-7.796282140435366,0.2813069528041821,-0.014518651248225184,0.17985960369063536,-0.9424801668503895
368.0,-0.11342293906810035,0.06495058883768562,0.052412954429083475,-3.25839759344598,1.229451356886841,9.159834101382486,-0.14318516385048644,0.014919354838709709,0.1298995135688684,146.9633528545827,-19.4039074500768,-7.638564068100358,0.2793874034073221,-0.013306288612903226,0.18038373990809015,-0.9429675703911929
369.0,-0.10914874551971325,0.06811597542242705,0.05368407578084998,-3.330233742959549,1.2248735279057856,9.134531746031744,0.036858358934971844,0.18779121863799286,-0.05248975934459804,148.25376984126984,-19.850643241167433,-7.627665770609319,0.26850588292677935,-0.014130443096774194,0.1838538994298515,-0.9453806192188939
370.0,-0.10681003584229391,0.08191193036354327,0.06269329237071172,-3.2615192012288783,1.2385657962109575,9.157395801331283,0.11853558627752177,-0.6113575268817204,-0.0762000768049155,149.55833653353815,-19.421681387608807,-7.6910170250896055,0.25786660655299537,-0.017804483215053762,0.18024867629646696,-0.9489312545243215
371.0,-0.08831746031746032,0.0732278545826933,0.06583512544802868,-3.2243494623655913,1.2747437275985662,9.165158730158726,0.08392217101894521,-0.7051603302611367,-0.31670026881720426,150.86246319764467,-19.196900601638504,-7.905214733742959,0.247090166391705,-0.022125719473886328,0.178620983641321,-0.9520112996492573
372.0,-0.08374654377880184,0.06837019969278035,0.060086021505376355,-3.178863799283154,1.281121863799283,9.180168970814128,0.07052291346646185,-0.3001888120839734,-0.08333333333333333,151.58022913466462,-18.914730542754736,-7.939138504864312,0.24126333250588833,-0.024160205888376855,0.1762569586262161,-0.9539498908013313
