time,linaccel_x,linaccel_y,linaccel_z,gravity_x,gravity_y,gravity_z,gyro_x,gyro_y,gyro_z,euler_x,euler_y,euler_z,quaternion_w,quaternion_y,quaternion_x,quaternion_z
0.0,0.007031250000000003,0.06890624999999999,-0.013906250000000007,-0.02000000000000001,-9.759999999999994,-0.899999999999999,-0.0322265625,-0.013671875,0.01953125,342.1875,-0.125,95.3125,0.6654663099999996,-0.11230469000000015,-0.730590820000001,0.10418701000000015
1.0,0.007031250000000003,0.06744791666666666,-0.012239583333333338,-0.02000000000000001,-9.759999999999994,-0.899999999999999,0.06087239583333333,0.018880208333333336,0.011067708333333332,342.1875,-0.125,95.3125,0.6654663099999996,-0.11230469000000015,-0.730590820000001,0.10418701000000015
2.0,0.007924107142857146,0.06631696428571426,-0.009441964285714288,-0.02000000000000001,-9.759999999999994,-0.8999999999999989,-0.07547433035714286,-0.013671875,-0.008649553571428572,342.1875,-0.125,95.31249999999999,0.6654663099999996,-0.11230469000000014,-0.730590820000001,0.10418701000000014
3.0,0.005831250000000003,0.06721458333333331,-0.004652403846153846,-0.022297435897435908,-9.759999999999994,-0.8963897435897425,0.07965044070512821,0.1741326121794872,0.10673277243589743,342.19570512820513,-0.13782051282051283,95.28532051282052,0.665625063805128,-0.11204477393846167,-0.7304826467897441,0.10414293951794878
4.0,0.012596743646138815,0.06442934384164221,-0.001156343992029477,-0.031434243176178676,-9.75749755620723,-0.924997969772163,-0.3558876166676066,0.11113943600082714,-0.08960633200804573,342.2598964207835,-0.19229829310474472,95.43473475449282,0.6646725247541924,-0.11103864553229574,-0.731563725044891,0.10354328252334766
5.0,0.021206630429232147,0.05929779210618462,0.0033437631869414476,-0.03603970223325064,-9.753587487781033,-0.9633415462726964,-0.2770870005130281,-0.14064693688042418,-0.06774697769155295,342.2935104395684,-0.1962033112129405,95.64708873015925,0.6632963713299127,-0.11088646664915221,-0.7328710061767545,0.1031645802144904
6.0,0.021723304540991792,0.06485362209673556,0.008686972912256303,-0.04426273536709968,-9.757476855844974,-0.9258263708593086,0.19606164976720508,0.06478311955789039,-0.0064695144031768625,342.29221299967037,-0.24693941651728618,95.42002206906446,0.66469219060803,-0.11004178644601822,-0.7317008008303127,0.10335567935771957
7.0,0.015407906923101353,0.06456193046524122,0.008829179694341553,-0.0372926580061305,-9.758341405589977,-0.9291116965959074,-0.05890398048240242,-0.06823484569562055,-0.030648296283474284,342.3138019092645,-0.21822777277477212,95.43623622063643,0.6645970268995484,-0.11035224574658228,-0.731760827070243,0.10320673247042307
8.0,0.022397501848647458,0.06392612652294319,0.0038575178868730095,-0.03849620493358635,-9.756670702794986,-0.9381327713748768,0.01394906434936951,-0.11417325411331897,-0.04085144342709694,342.129939105997,-0.20348423378192698,95.4885973286805,0.6640818058145388,-0.11156816154450698,-0.7319001958701089,0.10417467183446713
9.0,0.02121585747368835,0.06338535065150093,0.0029429329414814706,-0.03924810246679319,-9.758413552766015,-0.9337144795290805,-0.002877007414758062,0.05800073853473836,-0.017523717803480044,342.0376296214247,-0.1945909683083633,95.46083397714573,0.6641495661428511,-0.11218272689884198,-0.7316544960655529,0.10474468407705761
10.0,0.019295629670262417,0.06227881849129631,0.007932398025247082,-0.0396240512333966,-9.759368066705584,-0.9307522806889503,0.01572383108069931,-0.003882821438829273,-0.03823160823002057,342.0136089850022,-0.1908799810246679,95.4426371378266,0.6642333070507233,-0.11245725759723038,-0.7315076309528534,0.10499177069524529
11.0,0.017119351837028746,0.06024756863843752,0.008833371688145363,-0.03962701612903228,-9.759662686104214,-0.9310426488833745,-0.0389389620687585,-0.004165082446169857,0.03244373098935403,342.0021644308313,-0.1875,95.44395258219603,0.6642100557549637,-0.1126185414077234,-0.7314911935812654,0.10510342493253733
12.0,0.016397144901144647,0.05932849895941726,0.010006015868886577,-0.03997479838709679,-9.759843749999995,-0.9304989919354836,-0.011955523218002079,-0.024120382414151924,0.03321938410509885,341.99574722782256,-0.1875,95.44055569556451,0.6642232136491947,-0.11267628333165332,-0.7314628146169353,0.1051668925655243
13.0,0.015645811654526543,0.05944231269510925,0.010265186004162333,-0.04000000000000002,-9.759999999999994,-0.9299999999999997,-0.02565280306971904,-0.013371081555671176,0.016262153681061393,341.9986139112903,-0.1875,95.4375,0.6642442562903237,-0.11267225348790333,-0.7314453099999999,0.10516609263104851
14.0,0.014463970855425076,0.059921569173975515,0.010424971714318752,-0.04000000000000002,-9.759999999999994,-0.9299999999999997,-0.012645389950118099,-0.0005796500008258595,0.003058002163751383,342.0,-0.1875,95.4375,0.6642456100000012,-0.1126709000000001,-0.7314453099999999,0.10516357000000012
15.0,0.014648058428593035,0.060421602645100304,0.01120051915580662,-0.04000000000000002,-9.759999999999994,-0.9299999999999997,0.004156423331192451,0.0019221637132667306,-0.0039795837256165045,342.0,-0.1875,95.4375,0.6642456100000012,-0.1126709000000001,-0.7314453099999998,0.10516357000000012
16.0,0.01522473485945781,0.05902380535480821,0.012860844255322669,-0.04000000000000002,-9.759999999999994,-0.9299999999999997,-0.04567884478601668,-0.021783373788527925,-0.006652090249905027,342.0,-0.1875,95.4375,0.6642456100000012,-0.1126709000000001,-0.7314453099999998,0.10516357000000012
17.0,0.015687533272600918,0.06003406383765385,0.017073551029846562,-0.04000000000000002,-9.759999999999994,-0.9299999999999997,-0.09003576328140583,-0.017388215575325355,0.006575749880250401,342.0,-0.1875,95.4375,0.6642456100000012,-0.1126709000000001,-0.7314453099999999,0.10516357000000012
18.0,0.015060648089914485,0.060498661631466,0.014963454455129801,-0.04000000000000002,-9.759999999999994,-0.9299999999999997,0.007660368179196221,-0.00858029405197069,-0.00015355225910636955,342.0,-0.1875,95.4375,0.6642456100000012,-0.1126709000000001,-0.7314453099999999,0.10516357000000012
19.0,0.015296581085407835,0.05919326322740734,0.013363703674057478,-0.04000000000000002,-9.759999999999994,-0.9299999999999997,0.01947118511366365,0.0019582528716080997,0.0010912986272312495,342.0,-0.1875,95.4375,0.6642456100000012,-0.1126709000000001,-0.7314453099999998,0.10516357000000012
20.0,0.016681789302009135,0.059339807792363704,0.011730238933802933,-0.04000000000000002,-9.759999999999994,-0.9299999999999997,0.031067788586608497,-0.00258011674037461,0.021916617055551108,342.0,-0.1875,95.4375,0.6642456100000012,-0.1126709000000001,-0.7314453099999998,0.10516357000000012
21.0,0.014312676845064988,0.06208353836878809,0.021690612298442696,-0.034756784434203804,-9.75606758832565,-0.9411418330773172,-0.01826851906115044,0.027068506577969376,-0.006868332377242367,342.00819252432154,-0.17828341013824883,95.50662442396313,0.6638780839375324,-0.11283090909370197,-0.7317778315360978,0.10502006212493603
22.0,0.017456986785615827,0.061026160443499136,0.021067910807830173,-0.03221710189452127,-9.752872503840244,-0.9458934971838204,-0.03234700867009335,0.011776769097837645,0.024528492900468706,342.0040962621608,-0.18289170506912442,95.53657834101382,0.6636217840804284,-0.11284540777265734,-0.7320201291402575,0.10502881219150018
23.0,0.018579610018118094,0.06121283208279175,0.023985568307140902,-0.03094726062468,-9.751274961597542,-0.9482693292370721,-0.013831692920654615,-0.006518563341900037,0.02527603305073063,342.00204813108036,-0.18519585253456222,95.55155529953916,0.6634926647821493,-0.11285265711213502,-0.7321422473120643,0.10503318722478225
24.0,0.019524180009059054,0.06063917813817006,0.026481191411634974,-0.030312339989759365,-9.750476190476189,-0.9494572452636978,-0.02000493416194021,-0.00043985122740163116,0.025711353218913702,342.00102406554015,-0.18634792626728108,95.55904377880185,0.6634281051330098,-0.11285628178187385,-0.7322033063979678,0.10503537474142328
25.0,0.01834323919807792,0.06000456890779471,0.028641301350978785,-0.029994879672299052,-9.750076804915516,-0.9500512032770108,-0.0026152442987120404,0.004930654023395958,0.015722360077198787,342.0005120327701,-0.18692396313364054,95.56278801843317,0.66339582530844,-0.11285809411674327,-0.7322338359409195,0.10503646849974381
26.0,0.019783498759305226,0.0590409429280397,0.02994789081885858,-0.030000000000000027,-9.75,-0.9500000000000011,0.0728811259305211,0.004121433002481389,0.03563895781637717,342.0,-0.1875,95.5625,0.6633911705856073,-0.11285399999999979,-0.7322387094143923,0.10504149999999982
27.0,0.01901085607940448,0.05793238213399504,0.0313982630272953,-0.030000000000000027,-9.75,-0.9500000000000011,0.04368311879652606,0.03189942617866005,0.03033498759305211,342.0,-0.1875,95.5625,0.6633911099999994,-0.11285399999999979,-0.7322387700000001,0.10504149999999982
28.0,0.019512872208436734,0.05918207196029776,0.03353535980148885,-0.030000000000000027,-9.75,-0.9500000000000011,-0.006074073356079401,0.014352318548387095,0.006823821339950372,342.0,-0.1875,95.5625,0.6633911099999994,-0.11285399999999979,-0.7322387700000001,0.10504149999999982
29.0,0.020557847394540953,0.05926845533498759,0.034050946029776694,-0.030000000000000027,-9.75,-0.9500000000000011,0.02205431916873449,0.0010332661290322585,-0.004054067152605458,342.0,-0.1875,95.5625,0.6633911099999994,-0.11285399999999979,-0.7322387700000001,0.10504149999999982
30.0,0.021695254342431775,0.05907979218362282,0.03242617866004965,-0.030000000000000027,-9.75,-0.9500000000000011,0.03950498216501241,-0.0006489415322580645,-0.014738097084367244,342.0,-0.1875,95.5625,0.6633911099999994,-0.11285399999999979,-0.7322387700000001,0.10504149999999982
31.0,0.020095179014533865,0.05874836543384929,0.03340490960652252,-0.030000000000000027,-9.75,-0.9500000000000011,-0.014789469602977667,0.012909626216077828,-0.02358058608058608,342.0,-0.1875,95.5625,0.6633911099999994,-0.11285399999999979,-0.7322387700000001,0.10504149999999982
32.0,0.019360244594115575,0.06013845070699908,0.03150394363700817,-0.030000000000000027,-9.75,-0.9500000000000011,-0.032906521401985106,0.011975904919453306,-0.009231360037811649,342.0,-0.1875,95.5625,0.6633911099999994,-0.11285399999999979,-0.7322387700000001,0.10504149999999982
33.0,0.018793025522864243,0.06046500699121665,0.032358671570365136,-0.030000000000000027,-9.75,-0.9500000000000011,-0.003992032413151363,-0.014615335381464412,-0.00789576686754106,342.0,-0.1875,95.5625,0.6633911099999994,-0.11285399999999979,-0.7322387700000001,0.10504149999999982
34.0,0.018815479883020216,0.060083775207767136,0.03444375886210565,-0.030000000000000027,-9.75,-0.9500000000000011,-0.02807798929900744,-0.004140988100161487,-0.011667815970991374,342.0,-0.1875,95.5625,0.6633911099999994,-0.11285399999999979,-0.7322387700000001,0.10504149999999982
35.0,0.019606832683445596,0.06062404486194807,0.03527379475363348,-0.030000000000000027,-9.75,-0.9500000000000011,-0.0033440601736972678,0.00048116925637086945,-0.012496584396786008,342.0,-0.1875,95.5625,0.6633911099999994,-0.11285399999999979,-0.7322387700000001,0.10504149999999982
36.0,0.019342586848635247,0.060579559553349864,0.034503256823821354,-0.030000000000000027,-9.75,-0.9500000000000011,-0.016288965570719603,-0.003199635545905707,-0.005768261476426799,342.0,-0.1875,95.5625,0.6633911099999994,-0.11285399999999979,-0.7322387700000001,0.10504149999999982
37.0,0.019451690446650134,0.05986422146401984,0.03548239764267991,-0.030000000000000027,-9.75,-0.9500000000000011,-0.01642612050248139,-0.02649901132133995,0.012647817152605458,342.0,-0.1875,95.5625,0.6633911099999994,-0.11285399999999979,-0.7322387700000001,0.10504149999999982
38.0,0.018880117866004974,0.06039593672456574,0.038246588089330034,-0.030000000000000027,-9.75,-0.9500000000000011,-0.006093943858560794,0.009232513957816378,0.027774116004962775,342.0,-0.1875,95.5625,0.6633911099999994,-0.11285399999999979,-0.7322387700000001,0.10504149999999982
39.0,0.017631125930521102,0.059647099875930504,0.03679823200992557,-0.030000000000000027,-9.75,-0.9500000000000011,0.011639752636476427,0.016930152760545908,0.026542144851116625,342.0,-0.1875,95.5625,0.6633911099999994,-0.11285399999999979,-0.7322387700000001,0.10504149999999982
40.0,0.018324131513647653,0.059160747518610404,0.03741625310173698,-0.030000000000000027,-9.75,-0.9500000000000011,0.03015518377791563,0.014938740694789081,0.02004400589330025,342.0,-0.1875,95.5625,0.6633911099999994,-0.11285399999999979,-0.7322387700000001,0.10504149999999982
41.0,0.019338477047146415,0.05989539392059553,0.03679280397022333,-0.030000000000000027,-9.75,-0.9500000000000011,-0.0161881591191067,0.006555811879652606,0.02363087391439206,342.0,-0.1875,95.5625,0.6633911099999994,-0.11285399999999979,-0.7322387700000001,0.10504149999999982
42.0,0.019041563275434256,0.05916625310173696,0.03591594292803971,-0.030000000000000027,-9.75,-0.9500000000000011,0.01601077853598015,0.009508762406947893,0.009342044044665012,342.0,-0.1875,95.5625,0.6633911099999994,-0.11285399999999979,-0.7322387700000001,0.10504149999999982
43.0,0.018419044665012416,0.06101985111662531,0.036655241935483876,-0.030000000000000027,-9.75,-0.9500000000000011,0.004399620037220844,-0.025161871898263025,-0.0035563352977667495,342.0,-0.1875,95.5625,0.6633911099999994,-0.11285399999999979,-0.7322387700000001,0.10504149999999982
44.0,0.019028380893300265,0.060844913151364755,0.034511243796526064,-0.030000000000000027,-9.75,-0.9500000000000011,-0.013619048542183624,-0.01048726349255583,0.0013080606389578161,342.0,-0.1875,95.5625,0.6633911099999994,-0.11285399999999979,-0.7322387700000001,0.10504149999999982
45.0,0.018722859801488845,0.06141035980148882,0.03406257754342433,-0.030000000000000027,-9.75,-0.9500000000000011,0.001491256978908187,-0.008472588399503721,0.011537976892059553,342.0,-0.1875,95.5625,0.6633911099999994,-0.11285399999999979,-0.7322387700000001,0.10504149999999982
46.0,0.019356389578163782,0.06212437965260544,0.03145657568238215,-0.030000000000000027,-9.75,-0.9500000000000011,-0.004217392990074443,-0.042914469602977665,0.011795324131513647,342.0,-0.1875,95.5625,0.6633911099999994,-0.11285399999999979,-0.7322387700000001,0.10504149999999982
47.0,0.019221619106699762,0.06092819478908187,0.03239330024813897,-0.030000000000000027,-9.75,-0.9500000000000011,0.014516613678660046,-0.0002878799627791563,0.00844108638337469,342.0,-0.1875,95.5625,0.6633911099999994,-0.11285399999999979,-0.7322387700000001,0.10504149999999982
48.0,0.018089512190318652,0.06091028595060852,0.03992360864941511,-0.030000000000000027,-9.75,-0.9500000000000011,-0.051515204665406274,0.007938077267714363,-0.017048568031430934,342.0,-0.1875,95.5625,0.6633911099999994,-0.11285399999999979,-0.7322387700000001,0.10504149999999982
49.0,0.014751124995076612,0.06067982152256343,0.05048417442772282,-0.03132942326490716,-9.75,-0.9500000000000011,-0.034563245614152874,0.3411348969690704,0.020203909833446124,342.0610948191593,-0.18163489736070382,95.5625,0.6634588879081131,-0.11248504625610938,-0.7322841135777127,0.10462577065493636
50.0,0.010707215723344758,0.058777410761281706,0.05953644205257108,-0.025503421309872938,-9.75,-0.9633870967741933,-0.14508530224256028,0.1676377609845352,0.031932852094142414,342.3853861192571,-0.15230938416422288,95.64566532258064,0.663332464195992,-0.11081435086999011,-0.7329249537243407,0.10266738226295202
51.0,0.008256833668123994,0.056118233916621005,0.07268633517020615,-0.02259042033235583,-9.75,-0.9755645161290318,-0.1797154178706598,0.07797210629871922,0.024333361530942177,342.547531769306,-0.1376466275659824,95.71043346774194,0.6630275725818668,-0.1100149349511241,-0.7334555497653958,0.10164536371212114
52.0,0.006734356160084569,0.055982914284813334,0.0960752575554865,-0.021133919843597276,-9.75,-0.9937499999999995,-0.1309832392322962,0.03207568334226764,0.00480505825686627,342.6286045943304,-0.13031524926686217,95.79775705645162,0.6624532948393205,-0.10967035908846531,-0.734107242463343,0.10107528733993151
53.0,0.0050287244190079785,0.05442770906252954,0.10776113108189073,-0.020405669599217996,-9.75,-1.002842741935483,-0.14328859862280452,0.041519472495506575,0.009122959235960017,342.6691410068426,-0.12664956011730205,95.84141885080645,0.6621661559680474,-0.10949807115713592,-0.7344330888123167,0.10079024915383669
54.0,0.004261674037460979,0.05390007154006242,0.11041037981269512,-0.02000000000000001,-9.75,-1.007389112903225,-0.09050732472684703,0.023325718652445367,-0.004404185093652445,342.6875,-0.125,95.86324974798387,0.6620204684727823,-0.10942345699596781,-0.7345945949999999,0.1006607216028225
55.0,0.006130332986472427,0.05465920915712798,0.11234228668054111,-0.02000000000000001,-9.75,-1.0092439516129024,-0.020603334742455775,0.008229139568158166,-0.005415298191987513,342.6875,-0.125,95.87156628024194,0.6619664154637095,-0.10943259424395169,-0.7346422471068549,0.1006506616935483
56.0,0.0045772632674297604,0.054285249739854324,0.11392819979188346,-0.02000000000000001,-9.75,-1.0099999999999993,0.002629910249739853,-0.017338303199791884,0.03835522892819979,342.6875,-0.125,95.875,0.6619646598387097,-0.10943604000000007,-0.7346417838709676,0.10064696999999992
57.0,0.006471774193548389,0.05543346774193548,0.1139516129032258,-0.02000000000000001,-9.75,-1.0095161290322574,0.020224294354838707,0.04495337701612903,0.0234375,342.6875,-0.125,95.88457661290323,0.6619661358064515,-0.10943604000000007,-0.7346403066129032,0.10064696999999992
58.0,0.005030241935483872,0.05387600806451612,0.10968245967741935,-0.02000000000000001,-9.75,-1.0045967741935482,0.012096774193548387,-0.007056451612903223,-0.006111391129032256,342.6875,-0.125,95.87978830645162,0.6620549816129035,-0.10943604000000007,-0.7345514617741941,0.10064696999999992
59.0,0.005519153225806453,0.05107358870967742,0.11747983870967743,-0.02000000000000001,-9.75,-1.0108467741935487,-0.06442162298387095,-0.008474042338709676,0.013325352822580645,342.6875,-0.125,95.90461189516128,0.6618744599193547,-0.10941191935483874,-0.734731981774194,0.10057166274193537
60.0,0.006760080645161292,0.051401442307692294,0.12901961848635238,-0.02000000000000001,-9.75,-1.0155846774193558,-0.044767272797766745,-0.010578377016129032,0.0027712081265508686,342.6875,-0.125,95.9359597937345,0.6617186767758997,-0.10939295984615387,-0.7348877686650122,0.10051432846029762
61.0,0.007776287220843675,0.049049627791563265,0.1417493796526055,-0.02000000000000001,-9.75,-1.0231149193548394,-0.11945709910049628,-0.017018843052109184,0.025900473014888337,342.6875,-0.125,95.9699960258995,0.6614982300355926,-0.10941449992307697,-0.735099978203474,0.10045464148821337
62.0,0.00593199441687345,0.04498348325062034,0.14492206885856082,-0.02000000000000001,-9.75,-1.0268951612903234,-0.10513870580024814,-0.02681209289702233,0.01937664779776675,342.6875,-0.125,95.98671487282878,0.6613650801816071,-0.10942526996153852,-0.7352057445604063,0.10042479800217126
63.0,0.00560778535980149,0.04507180521091811,0.14753900434243178,-0.02000000000000001,-9.75,-1.028931451612904,-0.0575163810483871,-0.005560348169975186,-0.0006785049627791567,342.6875,-0.125,95.99537356544664,0.6612957518851588,-0.10943065498076929,-0.7352613810579252,0.1004098762591502
64.0,0.0049661910669975195,0.04562562034739453,0.14627202233250622,-0.02000000000000001,-9.75,-1.0296774193548393,0.012777217741935482,0.01550674627791563,-0.0013473169975186101,342.6875,-0.125,95.99885235732009,0.6612681172555837,-0.10943410126054598,-0.7352821698560796,0.10040476873945418
65.0,0.005450837468982631,0.04524209057071959,0.14711119727047145,-0.02000000000000001,-9.75,-1.0300000000000007,0.019664043114143923,0.0059698743796526045,-0.0015421448511166254,342.6875,-0.125,96.0,0.6612563340545912,-0.10943604000000007,-0.7352905300000001,0.1004028300000001
66.0,0.0052080687010122514,0.04693334588798298,0.14817578848123203,-0.02000000000000001,-9.75,-1.0300000000000007,-0.003528833537654102,0.0253900634255977,0.012759393524262475,342.6875,-0.125,96.0,0.6612548800000007,-0.10943604000000007,-0.7352905300000001,0.1004028300000001
67.0,0.006915266633008571,0.04758866402414788,0.14913577730513217,-0.02000000000000001,-9.75,-1.0300000000000007,-0.0076939553502053505,0.004417161019983601,0.008129967870391257,342.6875,-0.125,96.0,0.6612548800000007,-0.10943604000000007,-0.7352905300000001,0.1004028300000001
68.0,0.00694646706340255,0.04712187543639155,0.14863488617117654,-0.02000000000000001,-9.75,-1.0300000000000007,0.003752277908023876,-0.006445265643854354,0.015324289146113742,342.6875,-0.125,96.0,0.6612548800000007,-0.10943604000000007,-0.7352905300000001,0.1004028300000001
69.0,0.006870410951056116,0.04821819578271191,0.15206945921462053,-0.02185483870967743,-9.75,-1.0274193548387103,0.14379272161530224,-0.01639047556386266,0.09084321816176655,342.6819556451613,-0.13356854838709678,95.98739919354838,0.6613420031451618,-0.10937598846774196,-0.7352166967741938,0.100458450967742
70.0,0.004339875672928154,0.051653596243268846,0.1412115749093361,-0.024393957631198858,-9.752311025517571,-0.9914251324025036,0.1369721913324465,0.19167421149772496,0.015120416532459144,342.8099083714492,-0.1446911109773712,95.78859608208955,0.6627649324729181,-0.10835422060844974,-0.734160444855561,0.09995905161531057
71.0,0.006931685049824194,0.052437928926313604,0.11266317451205508,-0.027358269138180083,-9.756316803081363,-0.9583056183104324,-0.10519541995077623,0.044528714319503324,0.00016428877353588493,342.87178110880154,-0.15817061752342504,95.60000523707455,0.6640226443803794,-0.10773536875583775,-0.7331421462466392,0.09982327251981407
72.0,0.0062322159364468,0.05423460473686158,0.10754126467538239,-0.0288404248916707,-9.753884207992295,-0.9567334543165069,-0.1083161850487019,0.032115896749194475,0.025222662470834413,342.9086728124653,-0.17384337327784155,95.59788568305339,0.664151847109544,-0.10750921857146731,-0.7330842344136425,0.09970647706635857
73.0,0.0071007075979843196,0.055858528883850844,0.106189041885133,-0.029581502768416007,-9.751942103996146,-0.9572376949001893,-0.049270395096330945,0.028610382499612008,0.0030535503066685347,342.92711866429715,-0.1816797511550498,95.60539445442993,0.664183962264449,-0.10740155831799174,-0.7330848118842408,0.09964512579124374
74.0,0.006063594646406395,0.05646465070664636,0.10343378265531611,-0.02989407799711124,-9.750971051998075,-0.9575704603533208,-0.03730100816004463,0.01828319584209991,-0.017457189820424053,342.9365148513018,-0.18533017295655715,95.60954261531981,0.6641972972436152,-0.10734960480163704,-0.7330874079078464,0.09961271199844438
75.0,0.0062775119146086895,0.05602267468194886,0.0968765385600063,-0.030000000000000027,-9.750413306451613,-0.9588213399503729,0.013609471006144389,0.003409648986765922,-0.01802136875221553,342.9371277915633,-0.18694168734491315,95.61763240539702,0.664160859490849,-0.10735461998387102,-0.7331205601479533,0.09961298040942915
76.0,0.00822808598211824,0.05399396761392729,0.0931826861534523,-0.029126550868486374,-9.750442385235731,-0.9584106699751869,0.05790585212838237,0.0008053207712985936,0.001628273440269409,342.9375,-0.18154466501240696,95.61453890741313,0.6641449550828935,-0.10737261790012412,-0.7331335522476738,0.09958532329156322
77.0,-0.012847169093678478,0.05968419041505223,0.09221442474499769,-0.024247916743824323,-9.75535980148883,-0.918032369171512,0.1399935363945956,-0.6036520252336333,-0.0770075976022052,342.8421701974001,-0.1464867041961409,95.37545368690047,0.6655324837291952,-0.10809003399429654,-0.7316581401351063,0.10029829438591162
78.0,0.004861401354230268,0.06279594735265494,0.08815638915361565,-0.004079887495038008,-9.769908433229649,-0.7383074158442748,1.3233578847172056,-0.17726682956149548,-0.23312718427523776,342.14063019183953,-0.02751129848607589,94.3148565572167,0.6715414879936299,-0.11324716355780254,-0.7245147415032641,0.10539569679995262
79.0,0.0074363330375862065,0.06978097418836025,0.10428864004531782,0.004711208326213719,-9.778313663619425,-0.6208034775073907,0.1444234380063243,0.36977992367291324,-0.060752020197014686,342.36533237702577,0.025674074259266204,93.62937528321663,0.6760797394346032,-0.11210996705079067,-0.7205935917931068,0.1047067773078104
80.0,-0.015334649279328424,0.0702775303724126,0.09311294082036009,0.0010676889007091707,-9.783107241053813,-0.586954459023315,0.11639723344325045,-0.07126470071866331,-0.1470516564443511,342.73807964542186,0.00863927593560325,93.42930608166611,0.6776781068525928,-0.10925723100734042,-0.7198588686120084,0.10267245254653881
81.0,-0.018596073310348366,0.06416180666086067,0.07342814712056643,-0.0038759393142678913,-9.78453199698915,-0.5636810579412923,0.2715183614929829,-0.5208082631562122,-0.1503492064568441,342.653918854969,-0.020952871780514574,93.29566597950728,0.6784710496545843,-0.10902960293295061,-0.71908574833649,0.103300009294184
82.0,0.028505151704104687,0.0721065813917367,0.05358723463662196,-0.013448160637714918,-9.786531231469484,-0.551228802655983,-0.4944483167124505,-1.814565448648667,-0.10457732082324364,340.4770038960021,-0.07718924282333384,93.22290454060155,0.6766916010531521,-0.12187031250402947,-0.7164656113484728,0.11622166838244746
83.0,-0.03499296910226135,0.06796959136728033,0.03402820765603626,0.004652566659788615,-9.784214679291704,-0.5847539338637078,-0.08926407708003764,1.46918914452316,0.012046048559048082,341.661220156896,0.028619145058119536,93.41574419568822,0.6766434347559668,-0.11614938115004086,-0.7185925238058939,0.10900685697960275
84.0,-0.017356265490154253,0.06454724141929769,0.01029364032704972,0.004224867447973516,-9.78201747789469,-0.6119579794210006,-0.24959117331594885,1.1891763611482427,0.03561796183378839,342.7615447191346,0.02392458789004287,93.57675713257328,0.6766927881188167,-0.10926251819954458,-0.7206600892825967,0.10239065893687274
85.0,-0.02645405389832417,0.06787601669933985,0.006021526329091712,-0.0002610404610652122,-9.780900409626202,-0.6324126185303481,-0.14660836810179895,0.7653059862327353,-0.06771896521581984,343.58115947758256,-0.0020435190205114317,93.69049452822269,0.676692313996535,-0.10373612916363703,-0.722231093605302,0.09745386399900932
86.0,-0.01181214284434057,0.06420367311340883,-0.007965507555586206,-0.004369394981203218,-9.780371863799267,-0.6504673313437214,0.023499671097322566,0.10653165567912987,-0.09020749485084271,343.81827743980233,-0.026623804011253034,93.8016814669451,0.6762507548102559,-0.10206402384734567,-0.7231518240119843,0.09598538545060173
87.0,-0.014362292620326969,0.06448950936776432,-0.015616138314403446,-0.006976364157268278,-9.780062724014321,-0.6595565023334073,-0.005017237544016652,0.11061549821846918,-0.09787312466556472,343.9665703955284,-0.04342782942498136,93.84595122054372,0.6760870947163159,-0.10103567122538815,-0.7236234027193179,0.09509908428284052
88.0,-0.013355601783006057,0.06845498352314326,-0.016414355344133075,-0.009012375627021238,-9.779999999999985,-0.6693682360026563,-0.08062931080399068,0.03700039282304766,-0.08797752249269414,343.97033436891115,-0.0561141163253939,93.91454168588531,0.6757138284173665,-0.10088616917893345,-0.7240220889948252,0.09497687644514927
89.0,-0.000567335386928134,0.06840454378855353,-0.018158957542499986,-0.01828592467319139,-9.779999999999983,-0.668178274149061,0.2099136722544529,-2.0390104060061613,-0.13713350511865055,343.1898739900389,-0.1076557524791332,93.91393199969147,0.6750683543621595,-0.10504298841715656,-0.7233412599202403,0.09957268523366125
90.0,-0.038601076892491246,0.07012832155084998,-0.013291835454041234,-0.0031061341568912803,-9.780363471149464,-0.6456383326273538,-0.049789627712739315,1.2507393967109532,-0.08440764707251447,343.26472779866486,-0.020216399504392753,93.77818571615116,0.6759454728817305,-0.10574327911306688,-0.7224348964981244,0.0992243776980437
91.0,-0.014876762895845136,0.0670119730337813,-0.004219122086455117,-0.006577140260920366,-9.780181735574724,-0.6527397248115099,0.014392346383486777,0.45803053274657096,-0.10146306253189488,343.7456054263017,-0.041538748620756794,93.82632203477274,0.6760337156097569,-0.10218791223697293,-0.7232929015591244,0.09633745278039134
92.0,-0.011798340485300962,0.0671900622977406,0.0010215193459173467,-0.008288570130460186,-9.780090867787354,-0.6570278245153299,-0.021365654765245858,0.22517502059755584,-0.07311696393363817,343.9705849712153,-0.0520193743103784,93.85382922015134,0.6760468374106134,-0.1004971163053785,-0.7237268252188862,0.09498459536613013
93.0,-0.006611329051583482,0.06649577556574374,-0.004469389210416019,-0.009144285065230094,-9.780045433893669,-0.6406082050616351,0.11464285499951107,0.11381269640299627,-0.03092882936136003,344.08307474367217,-0.0572596871551892,93.75020865474067,0.6768006282437677,-0.09957012978296223,-0.7232512546863661,0.09442436659373504
94.0,-0.01585272499220705,0.06632280748682384,-0.007862330410263164,-0.008601049109908722,-9.780022716946828,-0.6423871914848742,0.0453189138843387,0.11048170429701551,-0.07710035938114085,344.15885513471835,-0.05107957126925777,93.75783369477712,0.6768271139448137,-0.09936725575002042,-0.7233198297075875,0.093970022645492
95.0,-0.02864648971100585,0.06514800074477495,0.006198321391869785,-0.004567448680351908,-9.779999999999985,-0.6497590205493434,-0.206355763412215,-0.07634706243577212,-0.07325031599225147,344.20902065004884,-0.027080278592375363,93.80346108864254,0.6766093302459192,-0.09950319288296115,-0.7235495440984552,0.0936548942146133
96.0,-0.027256725504794573,0.06941885739330081,0.025423001099057447,-0.005829839742265914,-9.779999999999983,-0.6447750123191969,0.12402579121116149,-0.457920968677443,-0.16283952508821886,344.03099862923875,-0.03388600481186238,93.77153404273108,0.6766633232426503,-0.10062212311633911,-0.7232000398831668,0.09473728647453641
97.0,-0.00766945518512989,0.06786290150482563,0.028689879785518138,-0.005516010284581389,-9.777019536574272,-0.6763535605504598,-0.3314252421817165,-0.8812791904823936,-0.1410947930136651,343.06881314924,-0.030928122805749452,93.95311195115936,0.6746547591202253,-0.10697547945685196,-0.7233579609807215,0.10022433622205866
98.0,-0.03340646894419245,0.0639864792154109,0.04259220306601845,0.0016537595635916593,-9.778509768287128,-0.6934714817786607,-0.19232917341898553,-0.21967002875455252,-0.1076888722038111,342.9085171059293,0.010211934802058857,94.05941705425433,0.6738938213430643,-0.10894334398123573,-0.7236840186154516,0.10111796440003823
99.0,-0.030817883264164375,0.06074609069926622,0.0502375901519172,0.0009661759694791143,-9.779254884143556,-0.7027865717788713,-0.17232000611087991,-0.17659055945943425,-0.06872538848285793,342.7739524679207,0.005884926345310954,94.09793616642335,0.6734673408690142,-0.11010645548279772,-0.7238197371050543,0.10193731011546392
100.0,-0.029642812599824132,0.06167596873672987,0.05891919830176504,0.0004856081460298797,-9.77962744207177,-0.7072627415345972,-0.09246040628124641,-0.09648580392326551,-0.04586093012852574,342.70582389021035,0.002958214180719993,94.11602012454232,0.6732596498951928,-0.11068200485581417,-0.7238825244522251,0.10235236711922394
101.0,-0.02957775803036649,0.061195650075871605,0.06562627663514292,0.00035866050191089627,-9.779813721035877,-0.7097535879413108,-0.05081167945369879,-0.02932112758779114,-0.011246111631840378,342.6776790964,0.002146417403853863,94.12665783601037,0.6731510698362836,-0.1109407165260443,-0.7239271452247498,0.10252376408891686
102.0,-0.030851507890170146,0.06121023897565642,0.06796369925141271,0.0002656546489563568,-9.779999999999985,-0.7040576558166691,0.07823324041154925,0.023593900959887677,-0.005223543356548574,342.69090962998104,0.0015417457305502845,94.10446057144944,0.6733232616996399,-0.11086614179309584,-0.7237815466438637,0.10247613140205805
103.0,-0.03280715811965814,0.061729407912875664,0.07084617600141793,0.0,-9.779999999999985,-0.6991588089330025,0.09930400160994919,0.01194519526172752,-0.009015946251329315,342.6875,0.0,94.09164857320098,0.6734493505533304,-0.1108412522841191,-0.723667238283981,0.10251231559429276
104.0,-0.034465535025010846,0.06196557441214699,0.06672109107290558,0.0,-9.779999999999985,-0.6890955334987592,0.103751463170566,0.00602060070306038,0.007284781610638464,342.6875,0.0,94.02383887953444,0.6738470631594096,-0.11077655775496276,-0.7232895957088106,0.10257867624824735
105.0,-0.03281492477056995,0.06263349285123479,0.05511709795580762,0.0,-9.779999999999985,-0.6840638957816376,0.09615181525463784,0.013405965674110835,0.005548262781125683,342.6875,0.0,93.97764524621883,0.6740689364184143,-0.11074421049038458,-0.7230782573705341,0.10262285634993021
106.0,-0.03254673529875145,0.0624278575367285,0.05334195911615265,0.0,-9.779999999999985,-0.6815480769230767,0.04698783799086219,0.009047132862657056,-0.0025062065510654224,342.6875,0.0,93.95454842956103,0.6741798730479167,-0.11072803685809549,-0.7229725882013959,0.10264494640077165
107.0,-0.03319644457245266,0.06256256400409624,0.047895545314900145,0.0,-9.779999999999985,-0.6804737903225804,-0.005065324180747566,-6.70042882744493e-05,-0.006750932059651818,342.6875,0.0,93.94366689468126,0.6742302526108068,-0.11072066192036284,-0.7229246758029311,0.10265532509368616
108.0,-0.035032802099334376,0.06394953277009727,0.04120151689708141,0.0,-9.779999999999985,-0.6799999999999997,-0.04432983710957501,-0.005374343958013313,-0.009795626920122888,342.6875,0.0,93.93826804915514,0.6742539324167944,-0.11071776999999994,-0.7229017963389652,0.10266044251408107
109.0,-0.034486191116231454,0.064482427183032,0.035078485023041485,0.0,-9.779999999999985,-0.6799999999999997,-0.02675868947920359,0.03906417703040687,0.00020922108245696996,342.6875,0.0,93.9375,0.6742553699999998,-0.11071776999999994,-0.7229003899999995,0.10266113000000016
110.0,-0.03824695980542754,0.06578555315652089,0.03395213657310433,0.0017986314760508315,-9.779999999999985,-0.6769501466275658,0.013598313648716873,0.18001863238128357,0.034270456246262695,342.7202468230694,0.010263929618768328,93.93016862170089,0.6743828104692082,-0.1104815058357771,-0.7228502731671549,0.10243059283479969
111.0,-0.03974103942652328,0.06597065356238742,0.03260130830191315,0.006060606060606063,-9.779999999999985,-0.682980961690639,0.008366757150779327,0.11041187195421065,0.01985290205426294,342.8139604571056,0.0373900293255132,93.97223676860773,0.6742565864353205,-0.10993059689382295,-0.7231438498426663,0.10176481170925844
112.0,-0.04247132616487455,0.06584570984570984,0.024150956570311417,0.00819159335288368,-9.779999999999985,-0.6814904808453194,0.04934151869635741,0.05986823436420209,0.0025392282448734056,342.8797624866173,0.05095307917888563,93.95486838430386,0.6744095509595956,-0.10958831626949217,-0.7231053063729467,0.10142541988688719
113.0,-0.04235189452124935,0.06685270643335157,0.018463087092119357,0.009257086999022487,-9.779999999999985,-0.6807452404226595,0.0039014301111075338,0.02702193080217273,0.007109987906358873,342.9126635013732,0.057734604105571845,93.94618419215193,0.6745214720927011,-0.10939699668313321,-0.7230658520574413,0.10125572397570157
114.0,-0.04258352534562211,0.06727936042452169,0.015055916305916312,0.009789833822091892,-9.779999999999985,-0.6803726202113296,0.0010197016245403357,-0.004176812770562772,-0.0027599948214867566,342.92911400875107,0.06112536656891496,93.94184209607596,0.6745774326592537,-0.10930133688995373,-0.7230461248996887,0.10117087602010875
115.0,-0.043684235791090625,0.06667242703533025,0.01594438044034819,0.010000000000000005,-9.779999999999985,-0.6802816180235532,-0.04019457245263697,-0.005601358486943164,0.00863955293138761,342.9363159242191,0.0625,93.93990015360984,0.6746014304278674,-0.10926089024849595,-0.7230378274718388,0.10113565632872487
116.0,-0.0432783698156682,0.06694860471070146,0.013586629544290841,0.010000000000000005,-9.779999999999985,-0.6799999999999997,-0.014096902201740912,8.7505600358423e-05,0.0072639648937532,342.9375,0.0625,93.9375,0.6746193650705645,-0.10925419120463715,-0.7230237214112908,0.10113524999999982
117.0,-0.044061059907834085,0.06531906041986685,0.012897145417306712,0.010000000000000005,-9.779999999999985,-0.6799999999999997,0.06616223438300052,-0.00312219982078853,-0.006716429851510495,342.9375,0.0625,93.9375,0.67462158,-0.10925293000000005,-0.7230224600000005,0.10113524999999982
118.0,-0.04216374106007299,0.06669641308656654,0.020715870331830283,0.010000000000000005,-9.779999999999985,-0.6799999999999997,0.012437215336620254,-0.0045868419449812525,-0.0009327693746593326,342.9375,0.0625,93.9375,0.67462158,-0.10925293000000005,-0.7230224600000004,0.10113524999999983
119.0,-0.05180588486695406,0.06720688549873642,0.024464950014865476,0.025778801843317985,-9.782285714285702,-0.6203502304147464,0.952333559025197,0.9221817454381596,-0.30995179175338183,343.6121543778802,0.15420506912442394,93.59971198156683,0.6773258037788019,-0.10593261707834103,-0.721435659262673,0.0973946122119815
120.0,-0.011465870515668804,0.07248438756819275,0.005306692031294868,0.028565494602613473,-9.783051827536124,-0.5972895650527115,-0.32241213433240806,-0.29679995078677524,0.1142312717382008,342.78079272141906,0.16579840287860614,93.48005097531723,0.6773356157780444,-0.11127807800227257,-0.7198612303074301,0.1023888110529638
121.0,-0.01859079816106021,0.0692087036407272,-0.004634960435965472,0.01627199461313469,-9.781525913768053,-0.62982757822528,-0.10001515094756604,0.12120302919890624,0.04940464236551617,343.1821750345447,0.09488396846439268,93.67651742314249,0.6764883184624986,-0.10785822471798215,-0.7215669787021022,0.09983165898526324
122.0,-0.02798472713782428,0.06870371388102801,-0.0075237949146606375,0.006434023305604419,-9.780762956884018,-0.6411246701911182,0.051175959973978176,0.05684431145188451,0.017811137609695975,343.45511917350734,0.037286110375672504,93.75212185552887,0.6762832587546003,-0.10530052572682932,-0.722396279216241,0.09816077046759553
123.0,-0.016756391424511276,0.06795379402528148,-0.009375841265863097,-0.0021055689923590833,-9.780381478442003,-0.6450784641278167,0.039157829102493776,0.03248993368159742,0.005350327869924432,343.42211603836654,-0.01462307384442181,93.78029479873217,0.6760509587321388,-0.1049140749601889,-0.7226778702532817,0.09838793281444294
124.0,-0.011106306311333981,0.06683634401724903,-0.009651054273484543,-0.006868452698944522,-9.780119310649564,-0.6489194163957053,-0.027627306646909797,-0.019685332698371794,0.007312260709155762,343.3845315214874,-0.043443449364607215,93.80493714590986,0.6758503017278206,-0.10482460935567053,-0.7228682532948436,0.09861840891874224
125.0,-0.008685320737679912,0.06698805746759526,-0.010188754766872246,-0.009090434922163382,-9.779999999999985,-0.6506285106724434,-0.012372684389114333,-0.011761693276498286,-0.0037433569112372677,343.4022607894666,-0.05678303709944899,93.81571978815597,0.6757919200972289,-0.10456095101013757,-0.722987851958955,0.0985191307916734
126.0,-0.007306370046259312,0.06541383160118111,-0.010437119318919996,-0.009773712084737606,-9.779999999999985,-0.650105922002888,-0.08068511011570412,0.03407771070942111,0.011471175487033695,343.3855922002889,-0.06105560905151661,93.81310182956186,0.675789360635532,-0.10461951507944159,-0.7229697462012517,0.09862743708714497
127.0,-0.006756218244121473,0.0674156302926464,-0.009336277521761395,-0.010000000000000005,-9.779999999999985,-0.6499999999999992,-0.05063384056579621,0.02371164062192288,0.005457241571152861,343.375,-0.0625,93.8125,0.67578125,-0.10467529000000009,-0.7229614299999998,0.09869385000000006
128.0,-0.006601274094445272,0.06650482146986436,-0.004506848438300053,-0.010000000000000005,-9.779999999999985,-0.6499999999999992,-0.09960151965854848,-0.006478446878664751,-0.0028860234151759914,343.375,-0.0625,93.8125,0.67578125,-0.10467529000000009,-0.7229614299999999,0.09869385000000006
129.0,-0.006329870918190379,0.06590110025106122,-0.014451004864311322,-0.010000000000000005,-9.779999999999985,-0.6462903225806449,0.010226331904596729,-0.04082112868126786,-0.011870179046297672,343.375,-0.0625,93.78780241935483,0.6759392529032253,-0.10465067935483868,-0.7228019503225809,0.09871796846774195
130.0,-0.006743301248699274,0.0690737187825182,-0.023367748439125924,-0.010000000000000005,-9.779999999999985,-0.6378225806451612,0.02926232440166493,0.029817166363163367,-0.001804760665972945,343.375,-0.0625,93.73563508064515,0.6762697791935479,-0.10459998080645155,-0.7224721624193551,0.09876891310483867
131.0,-0.008749674817898026,0.06842546826222684,-0.02796159599375652,-0.010000000000000005,-9.779999999999985,-0.6335887096774195,-0.0607216603798127,0.05875938963319459,0.009272770876690945,343.375,-0.0625,93.7095514112903,0.6764286414516125,-0.10456528016129024,-0.7223284320967741,0.09876386542338715
132.0,-0.00925634982574369,0.06815778661447236,-0.029413025659448675,-0.010000000000000005,-9.779999999999985,-0.6314717741935486,-0.049597561340699994,0.02712680063136944,0.001067907055728986,343.375,-0.0625,93.6965095766129,0.6764829689516122,-0.10455728120967733,-0.7222669026612898,0.09876035706653236
133.0,-0.007382677434283836,0.06962555944027066,-0.02566432920689556,-0.010000000000000005,-9.779999999999985,-0.6304133064516132,-0.007601650277329905,-0.011673982618758568,-0.004249975472375642,343.375,-0.0625,93.68998865927418,0.6765101327016121,-0.10455328173387088,-0.7222361379435478,0.09875860288810498
134.0,-0.0068995040397225645,0.06787225552658693,-0.02188206379699617,-0.010000000000000005,-9.779999999999985,-0.6300000000000003,-0.03237315376769721,-0.028345181833572833,-0.002802281082962014,343.375,-0.0625,93.6875,0.6765187769858862,-0.10455205107862894,-0.722225739324596,0.09875697209677434
135.0,-0.00704496533932018,0.0680152120504943,-0.020995662491630245,-0.010000000000000005,-9.779999999999985,-0.6300000000000003,-0.03103113983910355,0.02158118119559652,0.013589754359663635,343.375,-0.0625,93.6875,0.6765152389768136,-0.10455263553931443,-0.7222283540171364,0.09875494153225822
136.0,-0.007611224349127577,0.06716112785064396,-0.020797850447044006,-0.010000000000000005,-9.779999999999985,-0.6300000000000003,-0.021794471769270157,-0.009572212621607783,0.0028798766197959754,343.375,-0.0625,93.6875,0.6765136699999992,-0.10455321999999992,-0.7222289999999991,0.09875488000000016
137.0,-0.008326861534522827,0.06756545895860412,-0.021364106995155396,-0.010000000000000005,-9.779999999999985,-0.6300000000000003,0.009872093352436094,0.024511768753200203,0.005584203542872898,343.375,-0.0625,93.6875,0.6765136699999992,-0.10455321999999992,-0.7222289999999991,0.09875488000000016
138.0,-0.00756789726850211,0.06837081880932688,-0.016533170122887873,-0.010000000000000005,-9.779999999999985,-0.6300000000000003,-0.016869164241896092,0.003136777676848241,0.001954632788806176,343.375,-0.0625,93.6875,0.6765136699999992,-0.10455321999999992,-0.7222289999999991,0.09875488000000016
139.0,-0.006957631749970462,0.06679065614045453,-0.01575462429595495,-0.010000000000000005,-9.779999999999985,-0.6300000000000003,-0.008623844233723265,-0.002811641483516484,0.010225408272283272,343.375,-0.0625,93.6875,0.6765136699999992,-0.10455321999999992,-0.7222289999999991,0.09875488000000016
140.0,-0.005862888455630393,0.06769724339280792,-0.011740719406041992,-0.010000000000000005,-9.779999999999985,-0.6300000000000003,-0.006391055181377761,0.0029729595001772424,0.002120012603883572,343.375,-0.0625,93.6875,0.6765136699999992,-0.10455321999999992,-0.7222289999999991,0.09875488000000016
141.0,-0.00597449436763953,0.06676358486943164,-0.011884775394856044,-0.010000000000000005,-9.779999999999985,-0.6300000000000003,0.018912718106266494,-0.007350762756508725,-0.0037907656859269764,343.375,-0.0625,93.6875,0.6765136699999992,-0.10455321999999992,-0.7222289999999991,0.09875488000000016
142.0,-0.005462685611879161,0.06628449820788532,-0.012302394737878614,-0.010000000000000005,-9.779999999999985,-0.6300000000000003,0.008314285960455314,0.03125335406081374,-0.007653751378549765,343.375,-0.0625,93.6875,0.6765136699999992,-0.10455321999999992,-0.7222289999999991,0.09875488000000016
143.0,-0.005202806825790697,0.06662239798731734,-0.009425390917326405,-0.010000000000000005,-9.779999999999985,-0.6300000000000003,-0.008280822280318246,0.008376366856709599,0.011325109422387649,343.375,-0.0625,93.6875,0.6765136699999992,-0.10455321999999992,-0.7222289999999991,0.09875488000000016
144.0,-0.006853835568553313,0.0657267135865926,-0.009792060538028283,-0.010000000000000005,-9.779999999999985,-0.6300000000000003,0.03671820381119776,-0.015813096653570446,0.00789469756833668,343.375,-0.0625,93.6875,0.6765136699999992,-0.10455321999999992,-0.7222289999999991,0.09875488000000016
145.0,-0.005016286580802711,0.06582152211587694,-0.009529249871991809,-0.010000000000000005,-9.779999999999985,-0.6300000000000003,0.010497410295797392,-0.0070872535842293905,0.005514937571389184,343.375,-0.0625,93.6875,0.6765136699999992,-0.10455321999999992,-0.7222289999999991,0.09875488000000016
146.0,-0.005795984481468354,0.0658809843830005,-0.011340307318129902,-0.010000000000000005,-9.779999999999985,-0.6300000000000003,-0.019123193115128598,0.00481555434932451,0.007448845956910473,343.375,-0.0625,93.6875,0.6765136699999992,-0.10455321999999992,-0.7222289999999991,0.09875488000000016
147.0,-0.00599224565756824,0.06538670905707195,-0.009033421215880895,-0.010000000000000005,-9.779999999999985,-0.6324615384615387,-0.01748604218362283,0.014190931296526054,0.007870657568238213,343.375,-0.0625,93.6875,0.676498647230769,-0.10455321999999992,-0.7222445099156318,0.09875488000000016
148.0,-0.005334832506203475,0.06580575372208436,-0.003037375930521092,-0.010000000000000005,-9.779999999999985,-0.6363920595533501,-0.11518833359181141,0.021948666253101736,0.03672892757444168,343.375,-0.0625,93.6875,0.6764746592605461,-0.10455321999999992,-0.7222682594739447,0.09875488000000016
149.0,-0.005890262515262517,0.06675716353538932,-0.0012704320768836901,-0.010000000000000005,-9.779999999999985,-0.6383573200992558,-0.05477373628835323,0.007508111288353225,0.001900660103785104,343.375,-0.0625,93.6875,0.6764626652754346,-0.10455321999999992,-0.7222801342531011,0.09875488000000016
150.0,-0.005312376915199497,0.06602374305801723,0.0005620544330221743,-0.010000000000000005,-9.779999999999985,-0.6393399503722088,-0.023106471121844108,0.03547707053251408,-0.0016163572930206,343.375,-0.0625,93.6875,0.676456668282879,-0.10455321999999992,-0.7222860716426793,0.09875488000000016
151.0,-0.006501954586632007,0.0652548150773957,0.00025078528102721604,-0.010000000000000005,-9.779999999999985,-0.6398312655086852,-0.060208099472212374,0.022022809459805427,0.008122642926070343,343.375,-0.0625,93.6875,0.676453669786601,-0.10455321999999992,-0.7222890403374684,0.09875488000000016
152.0,-0.006700108806963645,0.06666090629800306,-0.0033919770865335377,-0.010000000000000005,-9.779999999999985,-0.6400000000000003,-0.08378736239119304,0.028249307955709162,0.016538058435739886,343.375,-0.0625,93.6875,0.6764526400000006,-0.10455321999999992,-0.7222900399999995,0.09875488000000016
153.0,-0.005418370160305644,0.06632642089093702,-0.0018976402182047337,-0.010000000000000005,-9.779999999999985,-0.6400000000000003,-0.03061402083579503,0.030541323875497264,0.033532192214147855,343.375,-0.0625,93.6875,0.6764526400000006,-0.10455321999999992,-0.7222900399999995,0.09875488000000016
154.0,-0.006555831265508684,0.06642741935483869,-0.005144928660049628,-0.010000000000000005,-9.779999999999985,-0.6400000000000003,-0.004346308933002481,0.005822057227047147,0.01879022565136476,343.375,-0.0625,93.6875,0.6764526400000006,-0.10455321999999992,-0.7222900399999995,0.09875488000000016
155.0,-0.008282955955334988,0.06554737903225805,-0.007202000620347397,-0.010000000000000005,-9.779999999999985,-0.6400000000000003,-0.023468517369727045,-0.0016095107009925559,0.007457738833746898,343.375,-0.0625,93.6875,0.6764526400000006,-0.10455321999999992,-0.7222900399999995,0.09875488000000016
156.0,-0.006066121154830833,0.06630531554019456,-0.010966711715703657,-0.010000000000000005,-9.779999999999985,-0.6400000000000003,-0.03118400346852968,0.05896131967830556,0.024438694845700895,343.375,-0.0625,93.6875,0.6764526400000006,-0.10455321999999992,-0.7222900399999995,0.09875488000000016
157.0,-0.007692456960602124,0.06544837196853326,-0.01584893198199651,-0.010000000000000005,-9.779999999999985,-0.6400000000000003,0.019817696304591466,-0.012126343918178593,-0.019454975188342122,343.375,-0.0625,93.6875,0.6764526400000006,-0.10452267517106553,-0.7222900399999994,0.0987243351710656
158.0,-0.008039343608900063,0.06451169238467624,-0.013736195480147099,-0.010000000000000005,-9.779999999999985,-0.6372145417306709,0.10131457504189359,-0.07878708782816646,0.03860569803740166,343.3657834101382,-0.0625,93.67828341013825,0.6765286441781878,-0.10453244950053536,-0.7222135348489503,0.09876011085230188
159.0,-0.012948293082365663,0.06739069420722643,-0.001972781362902333,-0.005870967741935486,-9.779999999999985,-0.6270936232226555,-0.0013021378822790086,0.0006079584897629303,-0.0829776546258401,343.33019319390286,-0.036197270471464024,93.64219691598723,0.6767886973149004,-0.10484816286937435,-0.7219125346999096,0.09894796212590276
160.0,-0.012605698960537672,0.0670874842003874,0.001092742383064962,-0.0027741935483870978,-9.779999999999985,-0.6224177793532634,-0.1023080749895266,0.03368036533359114,-0.10190969424840393,343.33797966146756,-0.017090570719602977,93.62704603863878,0.676939624221966,-0.10492563651533243,-0.7217700245273744,0.0988750496919837
161.0,-0.014021743489485431,0.0662984784033171,0.002333365559172011,-0.0012258064516129036,-9.779999999999985,-0.6260475993540512,-0.05203409381836801,-0.0009049530218885049,-0.05007479080059725,343.3564898307337,-0.007537220843672456,93.65727301931938,0.6768851437238858,-0.10489694051573079,-0.7218410206507844,0.09872046162018544
162.0,-0.01456403363661429,0.06386752629091337,0.0016529599432825242,-0.0004516129032258066,-9.779999999999985,-0.6278625093544451,-0.013671428817598173,-0.0264647706683997,-0.02058593288431998,343.3657449153669,-0.002760545905707196,93.6723865096597,0.6768579034748456,-0.10488354704183417,-0.7218765187124894,0.0986441221101905
163.0,-0.014295290283193516,0.06401879997242899,0.0023581275355468905,-6.451612903225805e-05,-9.779999999999985,-0.6288570099255586,-0.08910436421777147,0.07984261761983537,0.007525773957225569,343.3855488135856,-0.00037220843672456576,93.68023127326302,0.6768491773016436,-0.10481257848247524,-0.7219116823308005,0.09854038338508068
164.0,-0.016300250600653834,0.0637004669837331,0.001917277167277167,0.0,-9.779999999999985,-0.6296270161290325,-0.060076375657272835,0.004406420472448706,0.024598805092756703,343.44604673929894,0.0,93.6851373487903,0.6768621053927576,-0.1045473499955801,-0.7219854550711073,0.09826365638236668
165.0,-0.01811228287841192,0.06542850250108315,0.003929388711646777,0.0,-9.779999999999985,-0.6300000000000003,-0.01967227441017764,-0.006004815077395719,0.01521358905431486,343.47549627791557,0.0,93.6875,0.6768829184532672,-0.10438674588900718,-0.7220220917568236,0.0980905049322148
166.0,-0.020008955650084693,0.06564201524282168,0.00564806116822246,0.0,-9.779999999999985,-0.6300000000000003,0.0606833298869589,-0.07099272814998622,-0.028173218470597505,343.48976426799004,0.0,93.6875,0.6769138880976013,-0.10427604907353592,-0.7220359647493793,0.09798461859513971
167.0,-0.020165768147622998,0.06605177685218006,0.005518819665997087,0.0,-9.779999999999985,-0.6300000000000003,0.026945262958367792,-0.10263346084918666,-0.01469144794497617,343.4968982630273,0.0,93.6875,0.6769293729197685,-0.10422021606034124,-0.7220429012456573,0.09793022153082054
168.0,-0.021492943548387107,0.06558049869037771,0.004601506804127772,0.0,-9.779999999999985,-0.6300000000000003,0.12245683723758319,-0.13915225959076766,-0.0192152836243058,343.50921658986175,0.0,93.67981950844853,0.67693438781362,-0.10416426840899612,-0.722045398781362,0.09786597518216557
169.0,-0.020933002481389587,0.06590846429556106,0.007434321950450984,0.0,-9.779999999999985,-0.6300000000000003,0.08360018118082634,-0.0883561778723069,0.013662412855961245,343.5046082949309,0.0,93.65140168970814,0.676938638422939,-0.10420517484965929,-0.7220141448745516,0.097912718236244
170.0,-0.01982646027807319,0.06525837961321831,0.006041789751467171,0.0,-9.779999999999985,-0.6300000000000003,0.030991398834140767,-0.05756294556697783,0.0012548495411398644,343.50230414746545,0.0,93.63719278033793,0.6769402949103942,-0.10422658125227453,-0.7219985179211464,0.09793733981448649
171.0,-0.01882090669187444,0.06564805624483043,0.0058535783213202585,0.0,-9.779999999999985,-0.6300000000000003,-0.044566236854543306,-0.039954126294852094,0.00840047609200835,343.50115207373267,0.0,93.65517793138761,0.6769161039426527,-0.10423830014226623,-0.7220392074654378,0.09792636598251214
172.0,-0.019735672929221328,0.06599930087833311,0.005545954941116232,0.0,-9.779999999999985,-0.6300000000000003,-0.055984229144511406,-0.03014115980345819,-0.004488810360786167,343.5005760368664,0.0,93.67133896569379,0.6768970074551977,-0.10424417473118268,-0.7220740530875578,0.0979134234254993
173.0,-0.018859131907519013,0.06444998326046711,0.007875384024577575,0.0,-9.779999999999985,-0.6300000000000003,-0.061562263061759034,-0.00737408732620426,-0.0034044794251447473,343.5,0.0,93.67965949820788,0.6768875373476708,-0.10424804999999987,-0.7220914915617003,0.09790817236559149
174.0,-0.01934395801331286,0.06583541346646185,0.006437692012288787,0.0,-9.779999999999985,-0.6300000000000003,-0.049608674955197135,0.003989755344342039,7.350470430107564e-05,343.5,0.0,93.68458781362006,0.6768827241577067,-0.10424804999999987,-0.7221011796518182,0.09790329666666678
175.0,-0.01928251408090119,0.06489023297491038,0.009615335381464417,0.0,-9.779999999999985,-0.6300000000000003,-0.011672747055811573,-0.021133352534562208,0.005330341141833077,343.5,0.0,93.68705197132616,0.6768803175627246,-0.10424804999999987,-0.722106023696877,0.09790085881720442
176.0,-0.019271313364055312,0.06605750768049154,0.010844534050179216,0.0,-9.779999999999985,-0.6300000000000003,-0.03981454813108039,0.004466285842293907,-0.015183971774193547,343.5,0.0,93.6875,0.6768798800000007,-0.10424804999999987,-0.7221069300000005,0.09790039000000011
177.0,-0.017044770865335387,0.06687796018945211,0.009208749359959039,0.0,-9.779999999999985,-0.6300000000000003,-0.00020201292882744346,0.03789942556323604,-0.02042480718766001,343.5,0.0,93.6875,0.6768798800000007,-0.10424608096774184,-0.7221069300000005,0.09790039000000011
178.0,-0.019278433819764476,0.06677819380440347,0.007265665002560165,0.0,-9.780483870967728,-0.614677419354839,0.051247279825908855,-0.12788118439580132,-0.04847160218253968,343.4909274193548,0.0,93.59425403225805,0.6773844052419359,-0.10423229725806447,-0.7215999465322582,0.09804707153225814
179.0,-0.01622734501161921,0.0670051794084052,0.005852396707235418,0.0,-9.780241935483858,-0.6068548387096779,-0.018970614119303633,-0.014037036831895701,-0.0387066156849423,343.4309475806451,0.0,93.54410282258064,0.6775416703629029,-0.10456391588213404,-0.721340684400124,0.09845498527729526
180.0,-0.0160783422446729,0.06786254874158099,0.0047720764898184255,0.0,-9.78012096774192,-0.6029435483870975,0.004963617671530978,-0.0021862091481547087,-0.022585514703710268,343.40095766129036,0.0,93.51902721774192,0.6776203029233864,-0.10472100229590578,-0.7212197762323198,0.09865021925155079
181.0,-0.016066660266257048,0.06873842387451257,-0.0016963128717160975,0.0,-9.780060483870953,-0.5985263647642685,0.05918325695921462,-0.0452223403836307,-0.008756360407066052,343.3859627016129,0.0,93.49507502326303,0.6777720566428345,-0.10478355153753102,-0.7210386451459365,0.09876673688383987
182.0,-0.015176010033872941,0.06964522775611484,-0.02058202740359998,0.0,-9.781459522332492,-0.5847247208436728,0.14017509428295719,-0.09368892686054983,0.021341519703414864,343.37846522177415,0.0,93.41808651907567,0.6782991393784892,-0.1047955009312965,-0.7205148053198666,0.0989505180424162
183.0,-0.013291130016936471,0.06858773484579934,-0.042717929024380624,0.0,-9.785875930521085,-0.5717121588089331,0.09825034956083344,0.05350520894875734,0.045637997754933234,343.3840725806451,0.0,93.32990074441686,0.6788761542431757,-0.10471124826302726,-0.7199785241191062,0.09901891707816375
184.0,-0.020865167986135736,0.06853208082240336,-0.05667286029382802,0.0,-9.788099255583123,-0.5612593052109183,0.15587920703848124,0.0851660660128402,0.039397782996573316,343.48084677419354,0.0,93.28591811414391,0.6793098834119103,-0.10401225694416869,-0.719753388843672,0.09838604183560795
185.0,-0.017512717121588098,0.06912779156327542,-0.05404559553349875,0.0,-9.789210918114142,-0.5545006203473948,0.1540884770471464,-0.06591191066997519,-0.02808816687344913,343.5307459677419,0.0,93.26039857320099,0.6795538206575682,-0.10370684145595521,-0.7196085543411908,0.0981043305145782
186.0,-0.018092586848635243,0.07078101736972703,-0.052868951612903205,0.0,-9.789766749379652,-0.5556336848635235,0.07933952388337469,0.03443703473945409,-0.013098053660049628,343.54964717741933,0.0,93.27420517990075,0.6794940902878412,-0.10360680957164997,-0.7197033230043425,0.09798651154761173
187.0,-0.016723952913631643,0.07088254422476584,-0.04213790972944849,0.0,-9.79,-0.557610887096774,-0.0028260357049947962,-0.0019267039542143621,-0.009941426573881373,343.55909778225805,0.0,93.29271673387096,0.6794481554838709,-0.10354066269153211,-0.7197726142540326,0.09792417094254041
188.0,-0.020242443268230218,0.06770243836548466,-0.048643978127751536,0.0,-9.79,-0.5599171060794043,0.006094397237452974,-0.0024672097624669825,-0.024388313705675176,343.56353956653226,0.0,93.3036164314516,0.6793451110666868,-0.10354047181738513,-0.7198778788247518,0.09787129965593994
189.0,-0.019105596634115117,0.06927964660209715,-0.04217229148323061,0.0,-9.79,-0.5600820409429279,-0.020406052389338028,0.055863799352637473,-0.0016094794334827502,343.56287802419354,0.0,93.30906628024192,0.6792959278468511,-0.10356202688903526,-0.7199306266452385,0.09788767521859504
190.0,-0.017981111922676707,0.07006109671415992,-0.038349250580324984,0.0,-9.790000000000001,-0.5602123914392056,-0.02404358941006964,0.022473413236412387,0.023584426028576005,343.5625,0.0,93.31190146169354,0.679270490216268,-0.10357143543796518,-0.7199580003765504,0.09789478632149515
191.0,-0.017107530216921484,0.07015155487072758,-0.03186189265988955,0.0,-9.787141439205948,-0.5663325062034739,-0.14465400624349634,0.059297394040662775,0.05195922216441207,343.5649813895782,0.0,93.33483250620347,0.6791009842382132,-0.10358177948387093,-0.720114398377171,0.09785592482878416
192.0,-0.020185786977215184,0.07014209393768445,-0.028692950194966337,0.0,-9.783409429280386,-0.578650124069479,-0.08186025841137703,0.04465223789210847,0.02759700491799217,343.5959987593052,0.0,93.388182382134,0.6787691256674939,-0.1035486997419354,-0.7204540458014892,0.09768914580148888
193.0,-0.01987445243145686,0.07105907327944919,-0.022219175873409755,0.0,-9.781543424317604,-0.5847741935483874,-0.02378466266506069,0.001286249317474928,-0.007133052545139563,343.61150744416875,0.0,93.41485732009926,0.678605377265509,-0.10353122079404453,-0.7206219460744424,0.09760645290818862
194.0,-0.017916816909532833,0.06936998242825505,-0.019365276300760174,0.0,-9.780610421836213,-0.5869697900665642,0.0706629522056161,0.05614792696608513,0.009911836342637592,343.6346227697034,0.0,93.42819478908189,0.6785602926701331,-0.10338392757572168,-0.7206978496322038,0.09744190104446807
195.0,-0.05050948882447934,0.061778245789630974,-0.011091556556452196,0.0,-9.78158604583271,-0.5747752176139271,0.5086493282176394,-0.11918283856139643,0.046460631398961574,343.76317239054424,0.0,93.36228287841192,0.6790761217335484,-0.10256117538178874,-0.720413031096937,0.09671218704026062
196.0,-0.018085765276881622,0.07002773121970275,-0.0018527017046406661,0.007414811449341211,-9.785882352941165,-0.49500869013363324,0.27027829532539954,-0.8089996865018914,-0.26062470649322883,343.37652512163424,0.04270786006360745,92.89098705134029,0.6816419544315524,-0.10521570817773598,-0.7171976618700355,0.099423106762922
197.0,0.03202880194937281,0.07532006120636954,-0.004861834723288076,0.005771921853702863,-9.78935592301436,-0.44237531280875203,0.0036779341450346448,-2.987897180680541,0.035538261192709725,340.910439980172,0.03517881482443046,92.58405919387292,0.6810246376397393,-0.12007482198748548,-0.7127822143082897,0.11438761141832736
198.0,0.014857206914266542,0.06326781350129024,-0.007908131903374714,-0.036634776400337514,-9.789618053673077,-0.4788789006440074,-0.22681566682405202,-0.6886842534227077,0.05761168051954994,339.20504717902605,-0.20959953267995066,92.79787637113,0.6779663038152615,-0.12767178991540173,-0.7128660374398591,0.1242140635616982
199.0,0.019371767819652472,0.06602458775422934,-0.011849611266587512,-0.0477797537915666,-9.78480902683653,-0.5250769311207748,-0.09087839152774542,-0.9550052091486299,-0.021805398859528667,338.14617438316384,-0.27460263372348787,93.07646954757217,0.6751448223454188,-0.13369025606625184,-0.7135015120532628,0.13014099534203702
200.0,0.008835852756295972,0.05708901652573117,-0.014105793483416956,-0.04399579889867209,-9.782359447004595,-0.5628351675343886,-0.07707042824001194,-0.1214237277298843,0.041220387106246315,337.79863941445706,-0.25237112909092063,93.29536269265947,0.673437331238946,-0.1363225867616017,-0.7144100201263651,0.13193863370085512
201.0,0.012165249023698711,0.07078829355526514,0.0031674576426622587,-0.029602884196528886,-9.786917050691233,-0.506604252164676,0.1223859580744511,-0.44932337162115693,-0.08115767170292928,338.0102518322367,-0.16991649853650334,92.96117764671267,0.675766713468892,-0.13566908959434015,-0.7125157310448142,0.13111339306052686
202.0,-0.01045505316712773,0.06673892512513696,-0.0018423437430876394,-0.019518388940608835,-9.786674693321212,-0.5384188911891074,-0.04509271902209813,0.3049423496927641,-0.027589610174824152,338.25704691793567,-0.11083325738144698,93.15567948831382,0.6748706451648023,-0.13506853137294733,-0.7138032497033964,0.12942545341450434
203.0,-0.004228590036240221,0.06643876422864434,-0.000900257302242153,-0.018846752073991058,-9.783421182179918,-0.5595788181574741,-0.025343461602505998,-0.023045042806932398,-0.03635883380063434,338.1836302473408,-0.11283310334510137,93.26850351586907,0.6741091740060096,-0.13565096814340383,-0.714382096520964,0.12970773295379595
204.0,-0.0026459316235080163,0.06840603664085702,0.002635632708573687,-0.01882525775742564,-9.78171059108995,-0.5699215775375179,0.015680535356684337,-0.0023808395616347587,-0.007246072004953542,338.13548391847326,-0.11562634109907398,93.32203177585569,0.6737377695142053,-0.13596599985351193,-0.714652494689693,0.12990406502528506
205.0,-0.005087427958498294,0.06845726030697671,0.00016777477333529758,-0.01910689946128384,-9.780855295544967,-0.5746478373965871,0.00494555867205396,0.08411162571020259,-0.01800083542180243,338.1603530423839,-0.11873336794963328,93.34637939298321,0.673614750213399,-0.13584152793925938,-0.7148210958582917,0.12974575682320116
206.0,-0.0044054651313228796,0.06851434443920264,-0.0017709513230097704,-0.019645615629259434,-9.780243315975241,-0.5794299094817033,0.04229132772312376,0.07055523681823495,-0.02368935780306711,338.1966655764915,-0.12255792821444797,93.37284407437178,0.6734876617633812,-0.13568196548575884,-0.7149932402471187,0.12955965465814423
207.0,-0.003177289585198015,0.06831782646767037,-0.0014999690735903008,-0.02000000000000001,-9.780014888337455,-0.5799602977667484,0.0548377356471139,-0.00899203174990116,-0.031061796120979264,338.219186945447,-0.125,93.37484491315138,0.6734948098321674,-0.1355753773794084,-0.7150122131858043,0.12947200639540546
208.0,-0.0037828335382965976,0.06864566581528078,-0.0011612548481695199,-0.02000000000000001,-9.779999999999985,-0.5799999999999991,0.0037956388153123355,-0.019567956161511052,-0.025790143237788915,338.2370593536168,-0.125,93.375,0.6735108640029319,-0.13549433496761992,-0.7150214903323568,0.12939069771383166
209.0,-0.002203831721521628,0.06939703446050999,0.0012366302402072428,-0.02000000000000001,-9.779999999999985,-0.5799999999999991,0.03572676361641307,-0.0179117796496341,-0.01467656925757212,338.24655387035676,-0.125,93.375,0.6735198603885625,-0.13545090587090686,-0.7150261440371468,0.12934733240530277
210.0,-0.0025950732410149682,0.06795853678059713,0.0026784324221564076,-0.02000000000000001,-9.779999999999985,-0.5799999999999991,0.024018684838509566,-0.004908358055511088,-0.00794923282037941,338.2495904737903,-0.125,93.375,0.673522673104838,-0.13543839436995989,-0.7150268600000012,0.12933482283266107
211.0,-0.002495832666293124,0.06841166303129753,0.0010541128031697753,-0.02000000000000001,-9.779999999999985,-0.5799999999999991,-0.0086432777355319,-0.015429452993676459,0.014802617590850877,338.25,-0.125,93.375,0.6735229499999994,-0.13543701000000022,-0.7150268600000012,0.12933349999999977
212.0,-0.00390230529096294,0.06876216681341552,-0.00016490234531337552,-0.02000000000000001,-9.779999999999985,-0.5799999999999991,-0.007748088929800689,-0.027613338469542947,0.019398488153365888,338.25,-0.125,93.375,0.6735229499999994,-0.13543701000000022,-0.7150268600000012,0.12933349999999977
213.0,-0.003685870119012679,0.06866196641547836,-0.0003152196182243008,-0.02000000000000001,-9.779999999999985,-0.5799999999999991,0.007114529771592727,0.0016601270918063307,0.032058094397942216,338.25,-0.125,93.375,0.6735229499999994,-0.13543701000000022,-0.7150268600000012,0.12933349999999977
214.0,-0.003497941863316473,0.06832954240088734,-0.0017156022848985903,-0.02000000000000001,-9.779999999999985,-0.5799999999999991,-0.014697958039041545,-0.008271533348357622,-0.007857829451953409,338.25,-0.125,93.375,0.6735229499999994,-0.13543701000000022,-0.7150268600000012,0.12933349999999977
215.0,-0.003582848299809798,0.0688925137759685,-0.0005931042018450964,-0.02000000000000001,-9.779999999999985,-0.5799999999999991,-0.003953761725613963,0.021245357717782274,-0.00850570764072325,338.25,-0.125,93.375,0.6735229499999994,-0.13543701000000022,-0.7150268600000012,0.12933349999999977
216.0,-0.002397563587990227,0.06978704773085626,-0.003270017241401216,-0.02000000000000001,-9.779999999999985,-0.5799999999999991,-0.061355132683826745,0.22875483286513462,0.01685146459795263,338.2696572580645,-0.12449596774193548,93.375,0.6735490371774189,-0.1353090334677421,-0.7150544237903234,0.12919469370967723
217.0,-0.00990473712898271,0.06869873478354227,-0.0016126761144971337,-0.015322580645161298,-9.779999999999985,-0.5799999999999991,-0.06033792614340221,0.21331507151941595,-0.0161245158399815,338.5118447580645,-0.0924899193548387,93.375,0.6738150835080647,-0.1339800430241937,-0.715319234717742,0.12774953532258054
218.0,-0.009654109475909688,0.06792079596319969,0.0038787617891416033,-0.012500000000000008,-9.779999999999985,-0.5799999999999991,-0.03200108032720545,0.0779676996101944,-0.01731885034190575,338.6389868951613,-0.07648689516129031,93.375,0.6739525367540329,-0.13329093683467752,-0.7154565621975801,0.12699791508064512
219.0,-0.010016961085509478,0.06899161546338964,0.0024700780849974406,-0.01108870967741936,-9.779999999999985,-0.5799999999999991,0.006209397401433692,0.024155545954941113,-0.015471990207373273,338.70255796370964,-0.06848538306451613,93.375,0.6740212633770168,-0.13294638373991946,-0.7155252259374993,0.12662210495967738
220.0,-0.009707661290322585,0.06894153225806449,0.003079637096774194,-0.010383064516129036,-9.779999999999985,-0.5799999999999991,-0.005575856854838709,0.006237399193548386,0.0070249495967741925,338.7343434979839,-0.06448462701612903,93.375,0.6740556266885089,-0.1327741071925404,-0.7155595578074588,0.12643419989919352
221.0,-0.004436647022332509,0.06842842741935481,0.005603287841191067,-0.010030241935483877,-9.779999999999985,-0.5830967741935478,-0.1458267098325062,0.13179813508064517,0.006805404776674938,338.7535921991315,-0.0625,93.39633995037221,0.6739299904599105,-0.132666766001861,-0.7157285266717583,0.12627479687693854
222.0,0.00483978420772775,0.0407174539170507,0.011575837468982627,-0.01420276497695853,-9.782064516129019,-0.574986175115207,0.49667954902959943,-0.2920110887096774,-0.12856014323378234,338.7344735909252,-0.0841589861751152,93.3524902516838,0.6741686769649065,-0.13258197253952497,-0.7154747417802196,0.12640328383197444
223.0,0.013554756735200287,0.05805846774193548,0.02119935306628855,-0.03023963133640553,-9.786193548387086,-0.5037603686635945,0.2479261980459057,-0.354340077764977,-0.0050261293645870175,337.91550868486354,-0.1765552995391705,92.94208613966677,0.6757941280446653,-0.1361054732328961,-0.7122838993186811,0.13170631996667848
224.0,0.007931025351692053,0.05992848265576667,0.011786499887099202,-0.04882507417461019,-9.788258064516121,-0.5018625086800079,-0.1878056658218328,-1.0299895987863772,-0.04381458126702616,337.8528603963425,-0.2830274288239379,92.93582985728368,0.675780298695333,-0.13515917837738484,-0.7124062871383505,0.13206686516009575
225.0,0.015153628715272552,0.06663062797662885,0.010351415266130247,-0.04210070913031584,-9.789290322580639,-0.5164868098955592,-0.13754187580966193,0.37046737018566434,0.0018294785197127232,337.1822545709311,-0.24176013018257825,93.02772675659884,0.6744406259247275,-0.13994387666181068,-0.7120271657017918,0.13588805951553173
226.0,-0.006455814063533305,0.06511213632822774,0.0081330055109215,-0.025819252013400584,-9.789806451612899,-0.528656982222695,-0.06424240192468209,0.5801331795560002,-0.009320066858435554,337.85574804025237,-0.14924128319432234,93.10392231130189,0.6747536303119808,-0.1370363755645263,-0.7130657683482111,0.13187035388613144
227.0,-0.009554032519182461,0.07170335635978917,0.003712904740572412,-0.017460671735165377,-9.789999999999997,-0.5371439820719998,-0.06825422116794189,0.31008830193680903,-1.629007579700449e-05,338.2781110814519,-0.09725335162906475,93.1467014959558,0.6749466430338705,-0.13513343908782857,-0.7137333172377354,0.12931973393420365
228.0,-0.01282256748256181,0.07084813333764006,0.0004968281235651849,-0.012528279859075068,-9.79,-0.5453922675336957,-0.0956511712007735,0.13875338528247755,0.05919072061258005,338.5269875683757,-0.06374764355646785,93.17725339774748,0.6749723315463576,-0.1340283960233542,-0.7142054838498144,0.1278085270853223
229.0,-0.014653359826927472,0.07063041651281898,-0.0022915904910368085,-0.012713141656930783,-9.789999999999997,-0.5484628151632244,-0.030283840263678974,-0.1498034818388694,0.05777513641470069,338.58359799688486,-0.06485707342863095,93.19071112019701,0.6749650149103525,-0.13362248434304203,-0.7143718848169518,0.1274492886862089
230.0,-0.013397468443929686,0.07123142689440232,-0.0013675694390667915,-0.016121355774701956,-9.79,-0.5499952964705015,-0.094414993608542,-0.5062973502384311,0.11532910046541485,338.4094345271162,-0.09378046323761297,93.19410387999098,0.6747459636357318,-0.13443861865673606,-0.7142444094537268,0.12846162972616898
231.0,-0.0034181525580543846,0.06735076190756412,-0.0022761036298904495,-0.029224982591041504,-9.789027582982701,-0.5555833243427917,-0.11219113401792223,-1.4975056507599462,0.032267560776063575,337.3578237943683,-0.16144696234107173,93.23100764359529,0.6732888631161433,-0.14009860194072699,-0.7133397751438527,0.13460405333475134
232.0,0.0055133137666447535,0.06812483612693988,0.005596547386694651,-0.037724333637377115,-9.788765778401121,-0.5589849228611502,-0.0162510584319841,0.22572257649725203,0.09886721980976013,336.95138353202424,-0.21226837094649154,93.24936647328829,0.6726921820573704,-0.1419780072054842,-0.7130922488584723,0.13696246560390243
233.0,0.006438211887458027,0.06865031045781395,0.008724186490227865,-0.03936588890305581,-9.78938288920056,-0.5596537517531557,-0.015419042154666279,0.1340559985562396,0.07619987679211469,337.04464337891534,-0.23456160482808447,93.25069130116027,0.6727990867557325,-0.14117043767222098,-0.7132593455624042,0.13644242921504363
234.0,0.005114209048509538,0.0678480570582604,0.010502762611589752,-0.040093501636278644,-9.784775930007338,-0.5648217555488769,-0.024850981767180928,0.054741394753612026,0.009098082277265745,337.0930542163394,-0.24509116409537166,93.28245025072908,0.6726159618554998,-0.14079471530867033,-0.7135739073240963,0.13613675778526704
235.0,0.006176896190921436,0.06750105745898169,0.012135621897192729,-0.04036933146330063,-9.78222667468108,-0.567718337451858,-0.038579164718715905,0.03691505821589972,0.007968509984639015,337.12421107994385,-0.2495617110799439,93.29936524633229,0.6725184309327903,-0.14057137291391192,-0.7137492024145682,0.13594111743850051
236.0,0.005499621540996016,0.06869442774772366,0.017888755315122785,-0.040163627863487636,-9.780982435049742,-0.5690111088848818,0.01197502727131058,0.015623260758253744,-0.018397699191878718,337.168945769051,-0.2502045348293595,93.3066923239609,0.672510821714642,-0.14030075574166856,-0.7138619239422068,0.135672955844075
237.0,0.005970942140296981,0.0674769585253456,0.017336149513568877,-0.04000000000000002,-9.780353302611353,-0.5696364567332312,-0.01674507168458781,0.06286002304147464,-0.009736623143881209,337.1915962621608,-0.25,93.31035586277521,0.672513352109575,-0.14016859238095256,-0.7139167510189448,0.13552667231950855
238.0,0.0012357154494251276,0.06703084997439834,0.016694886654564083,-0.04132942326490713,-9.780015360983088,-0.5699795186891963,0.002179412209654145,-0.4853390616999488,-0.027269745263696875,337.1269870362612,-0.25391006842619745,93.31243599590373,0.672436109080203,-0.14052304227063267,-0.7138603485984265,0.13587963673788583
239.0,0.014432807553143379,0.06794523446515502,0.01678581980128683,-0.05021695043842374,-9.779999999999985,-0.5700000000000002,-0.05182472519489551,-0.7514340320765603,-0.02334701659712192,336.3666802056607,-0.2914350534716447,93.33657318247472,0.6714776187678491,-0.14474815836804672,-0.7130346704365755,0.14033974897505208
240.0,0.017900665751156238,0.06784311949017653,0.015059576567310082,-0.05159918880669964,-9.780782013685224,-0.5692179863147608,-0.019151202610481317,0.38293226478842,0.0008422017977942984,336.02244689657425,-0.3059081425715995,93.34506445047491,0.6710836778541103,-0.14676916321628142,-0.7126055951303114,0.14233153695086914
241.0,0.03150815257603894,0.06811554015983481,0.0066457157030098786,-0.057006967675239224,-9.784520039100677,-0.5579592235721268,0.00057074806111879,-1.15056025729473,-0.024660804343038335,335.46211630542996,-0.33279278096321907,93.2822384464356,0.6707809507196817,-0.14980591308740343,-0.7115676001365838,0.14568629133257738
242.0,0.017999490582769628,0.06850944322229262,-0.001348236392644335,-0.05374067548847347,-9.787421309872917,-0.5484957408183211,0.06926861248723239,-0.3763393964405038,-0.026625905319014723,335.10836135894374,-0.3170130887738296,93.23285309418554,0.6706284648597053,-0.15218421082173553,-0.7107844377427597,0.14781967480276045
243.0,0.016014710612801752,0.06783383067412632,-0.006255857245803154,-0.051990083589789,-9.78887194525904,-0.5437639994414183,-0.014329554716212507,-0.3159218743595248,-0.005984483637489954,334.86058719858,-0.31564241926472514,93.20816041806052,0.6704475678118991,-0.15380888003173088,-0.7103013765903905,0.14933980805759678
244.0,0.014670812215404248,0.06893617388304293,-0.010816903105328157,-0.05085782465478855,-9.7895972629521,-0.5443013545594187,-0.011543087420696528,-0.14305060978448075,0.032116990246734076,334.75842612215956,-0.31384552354666206,93.19506179304565,0.6703443932511594,-0.15454580133026122,-0.7101073328582665,0.15000631551411372
245.0,0.013611065931749048,0.06845635673624287,-0.004010602090298487,-0.050387367850365905,-9.789935483870966,-0.546852534562212,-0.020571763651697238,-0.10127848182283665,0.03531863686334749,334.70622308063014,-0.31308111954459206,93.1886232718894,0.6702458545312497,-0.1549240120360984,-0.7100605222282529,0.15033224933330314
246.0,0.011501385500436737,0.06828578205475738,0.002930182825818499,-0.05000474383301702,-9.79,-0.5484677419354839,-0.06456295555856752,0.06644025217613928,0.011913350689738261,334.7083822776423,-0.3120849146110057,93.1875,0.6702313918416618,-0.15489081094662055,-0.7100943517293341,0.15024774766204335
247.0,0.010172480716185192,0.0683294001783856,0.0036005814049518523,-0.04999999999999995,-9.79,-0.5493951612903227,-0.04378144717390945,0.07062419736798639,-0.0050450002993739996,334.72788658474144,-0.3125,93.1875,0.6702556874103943,-0.15469133103782629,-0.7101510188461665,0.15001851113415265
248.0,0.009384755463059315,0.06896884755463058,0.00462799167533819,-0.04999999999999995,-9.79,-0.5498588709677421,-0.03649965855879292,-0.005554516779396466,0.0038219058922996873,334.7399193548387,-0.3125,93.1875,0.6702711699596773,-0.1545776237600805,-0.7101822840877021,0.14988935862903235
249.0,0.010696922022364275,0.06932057329088416,0.0051674584592768785,-0.04999999999999995,-9.79,-0.5500000000000002,-0.015500653332135836,-0.011450313465223063,0.0131129198720331,334.7459677419355,-0.3125,93.1875,0.6702802144959676,-0.1545191728528224,-0.7101972044959685,0.149823523951613
250.0,0.011674065849891814,0.06912853261318402,0.003984938907057794,-0.04999999999999995,-9.79,-0.5500000000000002,-0.012837902270906629,0.07258885536416267,-0.006154603572047966,334.7595766129032,-0.3125,93.1875,0.6702969496673385,-0.1544410023941531,-0.7102139396673394,0.14974381536290327
251.0,0.006462226783506701,0.06840344124455727,-0.0060223025688036095,-0.04999999999999995,-9.79,-0.55,-0.050887439426396244,0.2756348723936198,-0.06540355605091232,335.00789779776676,-0.2827233250620347,93.18898883374689,0.6705993144578161,-0.15315094657568226,-0.7104930421253106,0.14840060384739456
252.0,0.029719900735854458,0.07401501896790291,-0.005916035990851908,-0.04566152407667129,-9.78985039738195,-0.5440906965871903,-0.0765769557746679,-0.1010424847792265,-0.0804974203967783,334.714386019033,-0.2555359262056317,93.16393399144101,0.6704245252677112,-0.15522209689232921,-0.7098167214647124,0.150182965020939
253.0,-0.014626800784146495,0.0662639178940897,-0.01712413262676236,-0.042964402591331025,-9.78778694984305,-0.561865624791291,0.13272246681312685,-1.4587810710186455,-0.16948573136774397,334.3695201984566,-0.24254330872493565,93.27018704180344,0.6692942379564364,-0.15769837087012772,-0.7099244943176094,0.15206390211876442
254.0,0.004033245793282628,0.06756360257223684,-0.010364421664123626,-0.04210944143903468,-9.788893474921522,-0.5610941027182261,0.10929198097440776,-0.8388855431898143,-0.14292258918617615,333.1471256906261,-0.24033527443415242,93.26602990083003,0.6676153349459604,-0.16526151256768035,-0.7081637270871202,0.15918699193751837
255.0,0.009554425315996151,0.06739181778171958,-0.003819949101856536,-0.04065882629136486,-9.789446737460759,-0.5607083416816937,0.11591407073524886,-0.7923631612271163,-0.12777926257940284,332.44676579848385,-0.2304743332092561,93.26977570310319,0.6666837042470213,-0.16971474087511584,-0.7070877474192622,0.16326558104802968
256.0,0.006768527794474503,0.0660718394119516,-0.004809478273012634,-0.040168122823101796,-9.789723368730378,-0.5605154611634274,0.08157676241477083,-0.29032705207757803,-0.0916734402227039,331.978089785098,-0.24015962318031042,93.26084939001314,0.6661072880552722,-0.1725372426211807,-0.7063591012667033,0.16594306120267482
257.0,0.004003712237583208,0.06546696224922029,-0.006348170646557743,-0.040058348461574286,-9.789866359447004,-0.5606036866359445,0.03937124703253736,-0.008709575594656238,-0.06751741202346041,331.866667321254,-0.24135435576967834,93.25719246031746,0.6659808396786409,-0.1733100168330307,-0.7061457582619166,0.16660329740475022
258.0,0.0017278398125172326,0.06696035102889938,-0.002972206556883976,-0.03589092538286088,-9.79,-0.5599999999999998,-0.01839705992931799,0.12704254470887535,-0.04114084000676743,332.01247115619594,-0.21370713180188985,93.25165210573476,0.6662227659013554,-0.1725844187224353,-0.7062967192718654,0.16578218815948245
259.0,0.009077658488753701,0.06749913724412943,-0.0009328601289449361,-0.032426544319364314,-9.79,-0.5599999999999998,-0.032394853239025974,0.2662230839800591,-0.008878768511881806,332.14962598089016,-0.19714805442562985,93.25171262573707,0.6664175479773428,-0.17188626068326351,-0.7064709937153058,0.16499807576584652
260.0,-0.006405193526021629,0.06742733298294101,-0.003470570136923736,-0.030983411887127395,-9.788254269449709,-0.5571916508538899,-0.014311573304579973,0.27134935177670083,0.0542583617046134,332.48914367873215,-0.1898460932239701,93.25146905796657,0.6669250197620596,-0.16994404002422622,-0.7069146122137281,0.16304828198763258
261.0,-0.005443020150107589,0.06831296084630921,0.0015888076734736154,-0.030330415620983063,-9.789127134724854,-0.5585958254269449,-0.0028085084264835346,0.13162666681576976,0.034610909682951864,332.66995931416443,-0.18766498209585603,93.28299259349942,0.6670424819652025,-0.16888048810687126,-0.7073079622434569,0.1619805964953283
262.0,-0.009894369138033828,0.06947786099151096,0.004197421629875568,-0.030003917487910897,-9.789563567362428,-0.5592979127134723,0.03402051297185808,-0.02321636449278075,-0.005011473441934207,332.75386121550196,-0.1867004345963151,93.29875436126582,0.6670934750976242,-0.1683815176173038,-0.7074962147660016,0.16148306709579036
263.0,-0.01494176745092373,0.07078642638923047,0.012137958709251561,-0.014921995091070396,-9.788909452922466,-0.5416207873426515,-0.016950268450288762,1.7948399357419365,0.024202621368013433,333.45929570403587,-0.092143379497158,93.17896600389506,0.6687298175465751,-0.16523748777877034,-0.7075131467232307,0.15750218460496715
264.0,-0.0453425204134357,0.057963601183317476,0.044984246189767756,-0.02018568908708419,-9.787611408488882,-0.5417412692473624,0.5977377021060583,-1.1576551956491743,-0.0711569210686319,334.35096679062354,-0.11686151061969541,93.17067168189402,0.6699447337011157,-0.15933939613102335,-0.7088054332896665,0.15233881342519798
265.0,0.04185218501871445,0.07812717568853983,0.01836836250477778,-0.0357085740247939,-9.793948854416819,-0.402516778087882,0.558632127104022,0.10054002751950786,0.10348767250681509,332.7259960299431,-0.20539770883364705,92.35115126241318,0.6726594452976209,-0.166995725514766,-0.7019291842691417,0.16306318338857517
266.0,-0.022615026296159357,0.06009086402472808,0.016713108321112592,-0.008992669434089329,-9.793246049461796,-0.4104963507082702,-0.34169231141876966,-0.420027465713715,-0.5118082854302062,334.43170710800564,-0.050586301822153124,92.40031557978068,0.6746313290583477,-0.15872825823424136,-0.7041389168096526,0.15293319407624179
267.0,-0.04327115882140285,0.05227789488998821,0.05922188954202072,0.10645348607148584,-9.780655282795411,-0.5694058814473253,-1.2203373231441006,7.681083297353076,0.25377647684454874,337.065747947244,0.6215482469383858,93.32952606946023,0.671526991515861,-0.1519481179957689,-0.7108878444826554,0.13631463046362013
268.0,-0.10736715845634069,0.04944121353823938,0.0793548967729024,0.12450860121975643,-9.775032321088748,-0.6638257553844956,-0.7023144716957177,2.922758713771482,-0.027271530176058878,342.2320381922524,0.7257668415985612,93.88355329507255,0.6732894251333701,-0.1216746909504216,-0.7196872737815055,0.10532366722694927
269.0,0.025710527346763143,0.05596643658673504,0.06390383898812577,0.04442049130242057,-9.769561497079714,-0.7521326803793379,-0.7767133953857313,-3.4541488932602964,0.0693743926324872,341.8194152796791,0.2547832066109247,94.39958498952369,0.6701300198954316,-0.11886534737201093,-0.7236814762773627,0.10717162104224076
270.0,0.15136730365520804,0.06581374986992362,0.029757462429092413,-0.0035803040989033016,-9.770389562715225,-0.7612412606803551,0.14827437909041463,1.74180333619584,0.2751744748260119,339.6398445094443,-0.016037519820389562,94.4490967882648,0.6678216381326317,-0.12911620090090778,-0.7224006129069684,0.1197541036742326
271.0,-0.04129976809351228,0.06281923361250627,0.08980613575398481,0.028915785304452025,-9.767360858700581,-0.7938269463098618,-0.8932853917584163,1.0559760578680508,0.0347920241041674,342.87344803187216,0.17081978679782334,94.6416706343526,0.6696996384538472,-0.11153359229635397,-0.7264667805747664,0.1006663925300161
272.0,-0.03998561565122588,0.05284251792368935,0.07230463334188804,0.03256180894992788,-9.760427345858828,-0.888097586585249,-0.33513297102152306,0.1984571742534435,0.0973164210759083,343.466387796771,0.1910021807170647,95.19142750566459,0.6669392672866958,-0.10867532393320226,-0.7303910753732994,0.09672943093267619
273.0,-0.052066707646257065,0.05928107544698933,0.05310794558623086,0.022630622444343475,-9.76005238260683,-0.9075342758639119,-0.09776471924526287,-0.37290870459951353,0.0842848838763129,343.4953296629874,0.1337677392629019,95.30471777534277,0.6663855445476652,-0.10785057259213729,-0.7312437945380441,0.09648103265227034
274.0,-0.04410297348542401,0.0562150088543007,0.04845441655155649,0.015420636945846531,-9.759948953684148,-0.9184528972070052,-0.14532221728384395,1.1145389695402534,0.09972659577856523,343.7223836703776,0.09287046196494816,95.36936135541643,0.6661641546225783,-0.10584405089715285,-0.7319554125243234,0.09509311723285258
275.0,-0.006632425888020297,0.055946454636948036,0.04145360269542707,-0.006562605599022652,-9.759779111099228,-0.9190068959937256,-0.14281555047317515,-0.31745490521303593,0.030825327180781133,343.7563773457856,-0.02199121956139634,95.37355288151932,0.6662251792849908,-0.10377490799527986,-0.7323329213248336,0.09484539697586186
276.0,0.0028436444634619834,0.057428754526386495,0.04188159112858237,-0.017033163841694957,-9.759805502846294,-0.9160550154661942,-0.0008672866474847135,0.15704007439169965,0.014212378754826312,343.64630369054214,-0.08114838124821294,95.35192864430351,0.6662173209398774,-0.10352845183743303,-0.7323134104612498,0.09548934243246664
277.0,-0.01162774363567169,0.064776420848956,0.051628076341704805,-0.02467407717701447,-9.759765395894423,-0.9067514885277607,-0.22185833856840914,-0.07919848459703155,0.037835984961335875,343.7810013615439,-0.138344319570113,95.3050455459169,0.6666694901889745,-0.10199272042614851,-0.732213453275375,0.09479893547842352
278.0,0.0007972274151331242,0.05467229920765142,0.043118071097062415,0.03748125924402879,-9.751232084589649,-0.9764506166480906,-0.3733556315206212,-0.8286381484107106,-0.6244808553024254,343.7487703175681,0.22227541083792235,95.71331148530845,0.6640430784602037,-0.10752589692646655,-0.7337998884604551,0.09463066455476352
279.0,-0.020132264247181206,0.05512336293485354,0.03364082386338837,0.06642819326396718,-9.754419221350455,-0.9520133413954458,0.5923291056022516,-0.36970086187979034,0.14964965028816496,343.6147762245746,0.3886008090969057,95.56733582296317,0.6648916102063294,-0.11054456970513993,-0.7324705505947109,0.09553959597681241
280.0,0.02098956567475101,0.06059048888080307,0.018264031801206282,0.022090880443166032,-9.758906473247032,-0.8993314478025549,0.04462118247022723,0.5005875450680068,0.1259981115156351,342.413263723137,0.12897400609247303,95.25552780269834,0.6657718478304138,-0.11440432083275634,-0.7300385478892104,0.10282096932369772
281.0,-0.04485095744384865,0.0646853740240795,0.023666341789767745,0.011229890180226522,-9.760743559204158,-0.8777123188833562,0.09857885701950844,0.23891556740579828,0.004910415007886464,343.75732975238736,0.059782701970967696,95.13347626694056,0.6677057583833627,-0.10487578380761059,-0.7306822577678751,0.09510626815922962
282.0,-0.01282218774766561,0.05922277824696968,0.010774194029455394,0.06581207770660075,-9.760880903095071,-0.8875682806537993,-0.446556123787411,-0.25994104327657297,-0.47574921576096385,343.8114758488232,0.3809421818750244,95.19004275223861,0.6674218059650603,-0.10891975411706695,-0.7304584408463033,0.09473890314282758
283.0,-0.033138207372966924,0.05880269873900873,0.002733823469764604,0.11609072433881751,-9.755549492892378,-0.9195402195794136,-0.1006030508644632,0.8933042661722608,-0.1752552616017812,344.75280204710947,0.676871994018457,95.37790991821808,0.666976340276876,-0.10696550750371978,-0.731875274680472,0.08912356935506285
284.0,-0.03187255245837544,0.05923559973811658,-0.001970773020754768,0.13913231869114792,-9.752650856778121,-0.9351324286302871,-0.04674733943589974,0.43967277537044724,-0.11651244397742888,345.42031442665467,0.8136142345033847,95.47248406149333,0.666981074278547,-0.10443135031405644,-0.7327355863654808,0.08509301055558376
285.0,-0.03304521942916053,0.06016023842917249,0.0007790514378873423,0.1407572943263687,-9.754207885304655,-0.9295091763464841,0.16171016215940828,0.035392448394289205,0.15752545821795472,345.6760164369583,0.8198380241485956,95.4359537391664,0.6673853565043097,-0.10291896144558323,-0.73278245110337,0.08364483543027837
286.0,-0.03129704936322484,0.0554364282155454,-0.006993576658763433,0.08085333669824415,-9.754301239335653,-0.9363715299673757,0.25244473887414104,-2.3561827181396717,0.14100992419706862,344.6388072160938,0.47328213773687544,95.47979441463846,0.6662519021643918,-0.10498459656028972,-0.7327422930094378,0.08966451172427015
287.0,-0.027057480206878717,0.06369829260744454,-0.010109723106503229,0.03826985200301677,-9.758370740572463,-0.8921288590318479,0.09604314219187896,0.3782194560899399,0.14266262244231742,343.20614365518463,0.2216733222002566,95.22454847852171,0.6666667790835463,-0.11058401917658081,-0.7303717594216694,0.0982386975737308
288.0,-0.012619508614965228,0.06577269073498059,-0.016185440184531514,0.010610561632824242,-9.75934666060881,-0.8776394645790371,-0.004689302065494699,0.19464273232446794,0.05362466361444099,343.1186807569986,0.06309238807535036,95.13513831125712,0.6671927340023769,-0.10873303110844723,-0.7301667701623034,0.09883070089532728
289.0,-0.00962240939433125,0.06376723866773842,-0.017529444658022586,-0.0024366546674588515,-9.759834620626982,-0.8725294097088728,-0.04887070562331807,0.10937161430119177,0.016343969524342077,343.1398769789955,-0.015832838220389334,95.09075463949952,0.6674581257629755,-0.10743628283710209,-0.7301803306617961,0.09875541283724176
290.0,-0.00833974067731451,0.06412183273337291,-0.015112116869954223,-0.008593017160032157,-9.75998182644252,-0.870433439345751,0.026983691853353368,0.07492464089749415,-0.0016450127564393811,343.1540265788278,-0.05301567469332122,95.07141640163562,0.6675593938740436,-0.1067933004185511,-0.730226020971096,0.09869335476601537
291.0,-0.007067306987687755,0.0637002005630195,-0.013500497179829162,-0.009784922937126486,-9.760077237619258,-0.8690786006360736,-0.029407001371472247,0.11060676725445122,0.016019636489391805,343.1956099500227,-0.06073943661971831,95.05977396637891,0.6676503047675533,-0.10639481485716293,-0.7302490389021764,0.09846267358927752
292.0,-0.006895761626510847,0.06198867365724805,-0.01525320179300409,-0.010044665012406952,-9.759999999999994,-0.8698709677419345,-0.04905578373889378,-0.01462931741775394,0.01025311674537741,343.245564516129,-0.0625,95.0625,0.667666296406948,-0.10604430139950383,-0.730334533235731,0.0981700648387096
293.0,-0.008934233170575522,0.06248565196510043,-0.01582511206275515,-0.010000000000000005,-9.759999999999994,-0.869999999999999,0.016321984061074202,0.14728366635315776,0.015214957876410789,343.2696572580645,-0.0625,95.0625,0.667678503384615,-0.10588713790322585,-0.7303583944516123,0.09800572588709677
294.0,-0.0056184813495557505,0.062327193228207775,-0.015793449331625714,-0.010000000000000005,-9.759999999999994,-0.869999999999999,0.04333468930100857,-0.1773507226546866,0.01886678414912351,343.2121859491315,-0.0625,95.0625,0.6676379901017364,-0.10613628196650124,-0.7303208533349874,0.09829273516935491
295.0,-0.010466130715740497,0.06502544377232201,-0.012533741434886078,-0.015488991295442917,-9.759999999999994,-0.8668868407578082,0.022447644589700392,-0.13215864425745083,0.10220582951055766,343.11793373237424,-0.09527009728622632,95.05225934459806,0.6676807829592142,-0.10627968584500172,-0.7301902574816261,0.098831172390105
296.0,0.0015755683725411735,0.06038597269766022,0.0015520212949197065,-0.02738099059235313,-9.76107847857486,-0.8663634974130883,0.218460919845598,0.31093923363563697,-0.017850251256493727,343.0809336451953,-0.1607338690571719,95.0501577175566,0.6676740594261645,-0.10577085184642962,-0.7302205111096143,0.09906570194132114
297.0,0.012381805009573435,0.05979773478407324,0.02138521262146081,-0.030168588700124555,-9.760924410207025,-0.8805072181336026,-0.28445141109008015,-0.1933956993683876,-0.0846409266633937,343.18183658668045,-0.1737257453133717,95.14636256123376,0.6671976969855907,-0.10510126643115893,-0.7308238318956835,0.09843350091047763
298.0,0.01065011466359565,0.05730752123819047,0.02779349030576763,-0.027627718667680153,-9.76046220510351,-0.9051890929377694,-0.23228803107233537,-0.07377334790069504,0.01742989530664061,343.0862717459612,-0.15037093717281488,95.29351316647296,0.6661546153034343,-0.1060954148311967,-0.731569156675199,0.09890206843860577
299.0,0.014279715576778651,0.05885362527057278,0.04003698126086187,-0.02499176744723207,-9.760231102551753,-0.9226287595676143,-0.13430515547150118,-0.14146925534744503,0.024502788844387304,343.02495217495823,-0.14211484297545923,95.39697041510354,0.6654729499910661,-0.10667340333784811,-0.7320629358873402,0.09917851846563722
300.0,0.015689524967088767,0.05857811831885015,0.05573405642664189,-0.027646933390794742,-9.75600264805007,-0.9416536014939969,-0.16400677640446537,-0.011930864232862305,0.0028027897114921672,342.9152058621847,-0.1657994849797931,95.51231329254921,0.6646466865175507,-0.10748627750993783,-0.7326254063154058,0.0997533209929313
301.0,0.012468915145732673,0.054520467402388445,0.058514520399089484,-0.028688656873538936,-9.75280633124699,-0.9508687568650264,-0.08537076789363741,0.06725119404615071,0.03169969215572851,342.86001626763544,-0.17610809588421528,95.55849766774176,0.6642514494678988,-0.10789805674726555,-0.7328871308147329,0.10002443816755724
302.0,0.014054427203620759,0.056001798828411734,0.06570361403829145,-0.029308218663057398,-9.751229838709676,-0.9565008204161438,-0.043251103734974705,0.09020637180919439,0.023671084180156763,342.82869012707727,-0.18187927663734116,95.5980078613143,0.6639876076468045,-0.10811692037892892,-0.7330806165701012,0.1001609180221513
303.0,0.012135154048460507,0.054451271622642586,0.06789026855760726,-0.029740957966764445,-9.750453629032258,-0.9587665392403304,-0.019353529534981147,0.040706473745788264,0.010463023479656544,342.8175708699902,-0.1856977028347996,95.6146677023693,0.6638808264164546,-0.10818495064852159,-0.7331634819575072,0.1002047726239789
304.0,0.01159543626176691,0.054960239916893125,0.06684591629248884,-0.030000000000000027,-9.750065524193548,-0.9623207085253459,0.022107814900153608,0.04049925349068494,0.003719414965634723,342.8125,-0.1875,95.62206381208398,0.6637822773602309,-0.10823188223286286,-0.7332499054069063,0.10022503417122701
305.0,0.01174781893733507,0.05605118850683366,0.06360188959785731,-0.030000000000000027,-9.75,-0.966359447004608,0.005509552611367128,0.017949979567923116,0.0015604383295915554,342.8125,-0.1875,95.62378392217101,0.663703810648361,-0.10825471064516118,-0.7333291410855096,0.1002211362211982
306.0,0.011368021091811419,0.055837934243176165,0.06228737593052108,-0.030000000000000027,-9.75,-0.9683870967741929,-0.025063004032258064,0.005310755272952854,0.00846871122828784,342.8125,-0.1875,95.625,0.6636640455443543,-0.10826652483870952,-0.7333692753225808,0.10021973000000003
307.0,0.012767137096774198,0.0554586693548387,0.06248487903225805,-0.030000000000000027,-9.75,-0.9693548387096766,-0.019184727822580645,-0.011372227822580645,0.00809601814516129,342.8125,-0.1875,95.625,0.6636466943850801,-0.10827243193548369,-0.7333868110483872,0.10021973000000003
308.0,0.012187500000000006,0.05469758064516128,0.061502016129032236,-0.030000000000000027,-9.75,-0.9698387096774185,-0.04586693548387096,-0.0020476310483870963,0.010584677419354838,342.8125,-0.1875,95.625,0.6636380188054429,-0.10827538548387078,-0.7333955789112905,0.10021973000000003
309.0,0.01186763337468983,0.05583126550868486,0.06034770471464018,-0.030000000000000027,-9.75,-0.9699999999999991,-0.0204360848325062,0.013841016594292805,0.021204734026054592,342.8125,-0.1875,95.625,0.6636352499999993,-0.10827636999999982,-0.7333984400000001,0.10021973000000003
310.0,0.011234041062995283,0.055213857260065634,0.05833234611382372,-0.030000000000000027,-9.75,-0.9699999999999991,0.022307789236972707,-0.01023335567918034,0.02102394528435924,342.8125,-0.1875,95.625,0.6636352499999993,-0.10827636999999982,-0.73339844,0.10021973000000003
311.0,0.009887259365244542,0.055536092711918665,0.05271929030256943,-0.030000000000000027,-9.75,-0.9699999999999991,0.07951399658808933,0.005832938320459457,0.008755371758184582,342.8125,-0.1875,95.625,0.6636352499999993,-0.10827636999999982,-0.7333984400000001,0.10021973000000003
312.0,0.008843327263267434,0.056337486492435765,0.05146808963019289,-0.030000000000000027,-9.75,-0.9699999999999991,0.06379885235732011,0.0043028001931081404,0.007725623224005443,342.8125,-0.1875,95.625,0.6636352499999993,-0.10827636999999982,-0.7333984400000001,0.10021973000000003
313.0,0.006611003749401254,0.05556349651042679,0.051215555631788715,-0.030000000000000027,-9.75,-0.9699999999999991,0.030985367678916065,-0.01997626607408085,0.012362605598817876,342.8125,-0.1875,95.625,0.6636352499999993,-0.10827636999999982,-0.7333984400000001,0.10021973000000003
314.0,0.008836519244427677,0.055608050984741926,0.05299735597966607,-0.030000000000000027,-9.75,-0.9699999999999991,0.08039652999330418,-0.013942847677238936,-0.017640037150963267,342.8125,-0.1875,95.625,0.6636352499999993,-0.10827636999999982,-0.7333984400000001,0.10021973000000003
315.0,0.007391724762692508,0.05579309937374453,0.053572039072039064,-0.030000000000000027,-9.75,-0.9699999999999991,0.06892810370632951,-0.0029066475639056275,-0.016705684548426483,342.8125,-0.1875,95.625,0.6636352499999993,-0.10827636999999982,-0.7333984400000001,0.10021973000000003
316.0,0.007992388435936826,0.05570548268935365,0.052390237898302404,-0.030000000000000027,-9.75,-0.9699999999999991,0.04797987071172555,-0.025484030977982592,-0.005282122671235575,342.8125,-0.1875,95.625,0.6636352499999993,-0.10827636999999982,-0.7333984400000001,0.10021973000000003
317.0,0.00854458131474261,0.055157952262790966,0.05691099984245146,-0.030000000000000027,-9.75,-0.9699999999999991,0.02475761525660719,-0.025373839310331246,0.006322958515498838,342.8125,-0.1875,95.625,0.6636352499999993,-0.10827636999999982,-0.7333984400000001,0.10021973000000003
318.0,0.008149658808933005,0.05532475186104218,0.05601566377171215,-0.030000000000000027,-9.75,-0.9699999999999991,0.017483134305210916,-0.021071456265508683,-0.007695215570719603,342.8125,-0.1875,95.625,0.6636352499999993,-0.10827636999999982,-0.7333984400000001,0.10021973000000003
319.0,0.007866392679900747,0.055349720843672456,0.05801031327543424,-0.030000000000000027,-9.75,-0.9699999999999991,0.01465037608560794,-0.03275967354218362,-0.01850331498138958,342.8125,-0.1875,95.625,0.6636352499999993,-0.10827636999999982,-0.7333984400000001,0.10021973000000003
320.0,0.008915555210918118,0.05588554590570719,0.060146789702233236,-0.030000000000000027,-9.75,-0.9699999999999991,-0.011245250465260544,0.0046792610111662525,-0.019600069789081888,342.8125,-0.1875,95.625,0.6636352499999993,-0.10827636999999982,-0.7333984400000001,0.10021973000000003
321.0,0.008368796526054594,0.055551799007444155,0.06267858250620345,-0.030000000000000027,-9.75,-0.9699999999999991,0.014732765973945412,-0.02719302496898263,0.005490074441687346,342.8125,-0.1875,95.625,0.6636352499999993,-0.10827636999999982,-0.7333984400000001,0.10021973000000003
322.0,0.008134491068966878,0.055485752934341645,0.06304208023159634,-0.030000000000000027,-9.75,-0.9699999999999991,0.0027108350319035813,-0.015250868363267556,0.01219014170753082,342.8125,-0.1875,95.625,0.6636352499999993,-0.10827136928315398,-0.7333984400000001,0.10021472928315414
323.0,0.006443757631257633,0.05499338049942889,0.06321458850289494,-0.030000000000000027,-9.75,-0.9687903225806445,-0.03257225385501595,0.009795180737721058,0.0205387452489267,342.8125,-0.1875,95.62852822580645,0.6636554315322576,-0.10823842770609315,-0.7333767819354837,0.10019310899641573
324.0,0.007147437128283906,0.05415673987750601,0.06994724462365588,-0.030000000000000027,-9.75,-0.9693951612903218,-0.017526821716589862,0.008573148681515617,-0.00413819561375005,342.8125,-0.1875,95.65902217741936,0.6636138414112903,-0.1082258943369176,-0.7334191103225804,0.10017491498207876
325.0,0.006078840182248093,0.05638711408547517,0.07293253555324312,-0.030000000000000027,-9.75,-0.9696975806451604,-0.025902031923591494,0.025997560618073103,-0.006941240269153901,342.8125,-0.1875,95.6742691532258,0.6635930463508066,-0.10821962765232981,-0.7334402745161288,0.10016581797491025
326.0,0.0045257724484441455,0.05560918979708001,0.06945386082873073,-0.030000000000000027,-9.75,-0.9698487903225798,0.04536939346748464,0.0174730358921631,0.009657481602395754,342.8125,-0.1875,95.68189264112902,0.6635826488205648,-0.10821649431003592,-0.733450856612903,0.10016126947132603
327.0,-3.4359929966581906e-05,0.05204433754641728,0.06631879577200912,-0.021173445535296886,-9.750673211781205,-0.965062310074801,0.16541870127525035,0.9536345566379492,0.08540363672497178,343.1734163160355,-0.1304640018700327,95.6539138287459,0.6640522625098617,-0.10651854145219733,-0.7335342184607292,0.09806175674672737
328.0,-0.0024063304825567167,0.056187408602289046,0.06996503702899926,-0.015572278858163612,-9.757269682443319,-0.9029372771486186,0.8059601424196425,0.6414237758213819,0.07692617290028078,343.8340751536846,-0.0891697717583192,95.2825820930411,0.666919981817002,-0.10236905364768029,-0.7319516163867199,0.09454596266109841
329.0,-0.022978461629477972,0.07303911373042492,0.07870046723244836,0.00588769569636623,-9.771986095701942,-0.7167553769255637,0.7117028448519497,0.06972277845383956,-0.3002293590971439,344.723377182577,0.03818841161187983,94.18934212178937,0.6745489452812607,-0.09768139332921646,-0.726051181114507,0.09021362038072844
330.0,0.005728749282284361,0.0700322930115389,0.06902779953201027,0.02392749164645662,-9.777785414956822,-0.6418692831924502,-0.09066528185800166,1.540750162291949,-0.03364132066478011,345.4635315036011,0.1407008618713647,93.75077907997691,0.6778697233766596,-0.0941553070167209,-0.7239052696917377,0.08623159700771998
331.0,0.030882906457315402,0.058099753719644834,0.04716669749026497,0.016124152363219475,-9.77711409501707,-0.6687715837084656,-0.0807592472729027,-0.9553206818760096,-0.13125389159343734,345.1256427955478,0.09193405886321218,93.90650144895885,0.676623636451918,-0.09573762853929282,-0.7246388936107828,0.08812461418879147
332.0,0.0057340708494660626,0.0648627035842901,0.048292431154074625,0.023988592395643493,-9.779019880608107,-0.6263803517590313,0.012349189742782783,0.028981728423209008,-0.061311792156529966,345.1102854315195,0.1439830415868188,93.65527668180867,0.6782011082057713,-0.096393499584152,-0.7230885666872389,0.08843421386200168
333.0,0.004765557701685736,0.06711380799747077,0.04861186499742916,0.02764908676113423,-9.779777152629515,-0.6040808836310807,-0.04468185488972856,-0.017468831725582994,-0.03819080219285333,345.1609142612581,0.1696082757284118,93.52225497547343,0.6791070596036077,-0.09631916594595921,-0.7222754255830919,0.08826419842327893
334.0,0.00531736666446294,0.0666415814180902,0.049191685186886616,0.028896227968380747,-9.779798970579982,-0.5977774489839993,-0.02543512547353812,0.011202860122871569,-0.0185773679423048,345.1687607820627,0.1790861719143851,93.48407775655392,0.6793664887780584,-0.09636219510335597,-0.7220270095097358,0.0882601339338617
335.0,0.0049034782667129115,0.06706223579533344,0.04976452493840916,0.029291367050978206,-9.779858594785669,-0.5940568298986333,-0.001306804279213692,-0.047111802740393116,0.003973685947282944,345.16344956413445,0.18261157755192223,93.4616123676,0.6795116316039314,-0.09642065518684384,-0.721877666903891,0.08831484707142882
336.0,0.004800391364907495,0.0664111444111444,0.0489697569455634,0.03001466275659826,-9.779999999999985,-0.5901857282502447,-0.025813587733950635,0.020792032788000528,0.015630236698785084,345.182917888563,0.1875,93.43866080156403,0.6796750303910069,-0.09634534258237466,-0.7217465399875176,0.08822082773810064
337.0,0.005125024616960101,0.0658521997715546,0.047309902910709356,0.030000000000000027,-9.779999999999985,-0.5900000000000004,-0.04543978506932136,0.0022093106266493356,0.006593221966205837,345.1875,0.1875,93.4375,0.6796875,-0.09631357086352363,-0.7217408108784117,0.08819576971215884
338.0,0.005086085509472607,0.06552163338453662,0.04696636584741423,0.030000000000000027,-9.779999999999985,-0.5900000000000004,-0.03897299427163338,-0.005618359575012801,0.0004740303379416285,345.1875,0.1875,93.4375,0.6796875,-0.09631348000000005,-0.7217407199999998,0.08819580000000003
339.0,0.00521441372247824,0.06652089733742957,0.046129352278545824,0.030000000000000027,-9.779999999999985,-0.5900000000000004,-0.04438884088581669,-0.0031872039810547878,0.00912058371735791,345.1875,0.1875,93.4375,0.6796875,-0.09631348000000005,-0.7217407199999998,0.08819580000000003
340.0,0.005987903225806453,0.06564012096774191,0.0460383064516129,0.030000000000000027,-9.779999999999985,-0.5900000000000004,-0.02009828629032258,0.005134828629032258,-0.012600806451612902,345.1875,0.1875,93.4375,0.6796875,-0.09631348000000005,-0.7217407199999998,0.08819580000000003
341.0,0.006466346153846156,0.06607188275434242,0.045994959677419345,0.030000000000000027,-9.779999999999985,-0.5900000000000004,-0.010222646557071962,-0.005570041098014889,0.008769191997518612,345.1875,0.1875,93.4375,0.6796875,-0.09631348000000005,-0.7217407199999998,0.08819580000000003
342.0,0.005980148883374692,0.06706063895781636,0.04596875,0.030000000000000027,-9.779999999999985,-0.5900000000000004,0.001393843052109182,-0.002548755428039703,0.004920130272952855,345.1875,0.1875,93.4375,0.6796875,-0.09631348000000005,-0.7217407199999998,0.08819580000000003
343.0,0.0050868486352357335,0.06570269851116624,0.050214717741935484,0.030000000000000027,-9.779999999999985,-0.5900000000000004,0.00022439128411910693,-0.015151015818858561,0.009611022797766749,345.1875,0.1875,93.4375,0.6796875,-0.09631348000000005,-0.7217407199999998,0.08819580000000003
344.0,0.004522254962779157,0.06757405397022331,0.05343602667493796,0.030000000000000027,-9.779999999999985,-0.5900000000000004,-0.11276364764267989,-0.17283605381513648,0.04622508917493797,345.0728598014888,0.1875,93.4375,0.6795837839503722,-0.09701040164764271,-0.7216786874044666,0.08890677560297774
345.0,0.004376085607940448,0.0679173387096774,0.05670409429280396,0.030000000000000027,-9.779999999999985,-0.5900000000000004,-0.04304532413151364,-0.09853345998759305,0.024624883684863527,345.0011476426799,0.1875,93.4375,0.6794781297171215,-0.09744949179156331,-0.7216782043473946,0.08933883876923081
346.0,0.0044957351116625315,0.06732219292803968,0.05341656327543423,0.030000000000000027,-9.779999999999985,-0.5900000000000004,0.007238194013647645,-0.051523243641439204,0.009311511321339951,344.9652915632754,0.1875,93.4375,0.6794253026004963,-0.0976690368635236,-0.7216779628188588,0.08955487035235735
347.0,0.005062887717121589,0.06804869727047144,0.05338670905707195,0.030000000000000027,-9.779999999999985,-0.5900000000000004,0.021086964950372204,-0.0313217276674938,0.001615811104218363,344.94736352357324,0.1875,93.4375,0.6793988890421836,-0.09777880939950376,-0.7216778420545906,0.08966288614392062
348.0,-0.001331666909940154,0.06903917311341407,0.05192891548679024,0.038652751423149896,-9.779999999999985,-0.5892409867172674,-0.08335290924682527,0.9743437317544883,-0.003682058276164063,345.49485111662534,0.23351518026565465,93.43987191650854,0.6798373673484165,-0.0949887834094293,-0.7220104049741645,0.08639667407765288
349.0,-0.0036381187798224172,0.06531324678108055,0.04606490159758726,0.04632092364433278,-9.779999999999983,-0.583586872277307,-0.020405747252637114,0.984385326541977,-0.013139215277249542,346.11940595184006,0.27547805810193227,93.40642789373814,0.68052394162493,-0.09157668331667426,-0.7222297922914716,0.08265431535291443
350.0,-0.03012816963450532,0.061197920802805436,0.04397077054356499,0.054824056292212445,-9.784423963133632,-0.5269962011156122,0.5248622628501083,-3.4710295983383697,-0.36420431164429645,345.78098753813197,0.3273415636131781,93.07219436161562,0.6823103841212207,-0.09406312838644774,-0.719785601164169,0.08494726845986733
351.0,0.06802250934449199,0.06812348760494656,0.037317052695680725,0.060585585619981716,-9.786719023820336,-0.4999792454919269,-0.3845366442308977,-1.1434324094173673,-0.2356353953297584,342.7922287758811,0.35601233110236374,92.91999938435166,0.680653792605817,-0.1129920577870449,-0.7159190474721344,0.10283036017268693
352.0,0.023379865530946585,0.06719185511551282,0.03786527896028925,0.10432050748513853,-9.78335951191016,-0.5713049339681351,-0.5126742189379159,1.8837046711006076,0.05810597694325345,343.37281531933536,0.6075126398810319,93.33913133688276,0.6786270893606094,-0.11299260659456742,-0.7185535633021733,0.0989989476283698
353.0,0.007351050585035133,0.06124737083301371,0.029846905479799624,0.1288253391315637,-9.781679755955071,-0.6346351304306781,-0.4762757630828962,0.9456303313527302,-0.0524362696216399,344.96865808733145,0.7509070552346335,93.69762571027336,0.6776698940766164,-0.10516933880925824,-0.722006374812205,0.08926003236932839
354.0,-0.001394897242693702,0.06361152311265894,0.03808827292652827,0.140973323813851,-9.776552036786464,-0.6769825426731375,-0.3945228726294151,0.6202177886099967,-0.04277922592325137,345.832035068899,0.8220119101707015,93.94226819012428,0.6768148007037755,-0.10096401268901027,-0.7241738181049101,0.08399480206419441
355.0,-0.0042504440130519214,0.06176659104941702,0.047150127246674264,0.1469014084507044,-9.77297647922272,-0.7024567091245869,-0.28153562986309466,0.4586688021390997,-0.005174175173607251,346.3123597003481,0.856599273057701,94.08791116879485,0.6762607877988929,-0.09860278377538062,-0.7254516958059108,0.08106914285237364
356.0,-0.009337921468203161,0.062365197690390756,0.05130144144058271,0.14981826442526142,-9.771186104218351,-0.7151538429766502,-0.15332495149481745,0.1873738769276309,-0.0018892298637300914,346.6406329396789,0.873807360290777,94.16026635223022,0.6760634629953126,-0.09686949097901235,-0.7261732739729231,0.07908329402273379
357.0,-0.008706810662455827,0.062271439581923424,0.05218006053086696,0.1500000000000002,-9.77043176178659,-0.7188513422061804,-0.04532706876456876,0.03681156712910745,-0.010905777690051886,346.73992687420105,0.875,94.18096802391156,0.676002250827507,-0.09629859195247747,-0.7263913195353026,0.07848952455793656
358.0,-0.009536689788705921,0.06168801695616209,0.05782023554402585,0.1500000000000002,-9.770054590570709,-0.7198362282878406,-0.016202757256184672,0.011272963427701331,-0.011470728532220467,346.7482320099256,0.875,94.18666253101736,0.6759694487593064,-0.09626040636724549,-0.7264332814392052,0.07844035750868474
359.0,-0.01056238955936537,0.06178197373862694,0.05738654457102036,0.1500000000000002,-9.76999999999999,-0.7199999999999993,-0.021593934459357846,0.0035273005724114595,-0.025059185606060606,346.75,0.875,94.1875,0.6759643600000012,-0.09625243999999983,-0.7264404299999991,0.07843017999999988
360.0,-0.009600063914580048,0.06347415219189409,0.05790110158658545,0.1500000000000002,-9.76999999999999,-0.7199999999999993,-0.02530412296037296,0.021030951575306413,-0.004866966031280548,346.75,0.875,94.1875,0.6759643600000012,-0.09625243999999983,-0.726440429999999,0.07843017999999988
361.0,-0.009420116174148434,0.06287437965260544,0.06054476840363936,0.1500000000000002,-9.76999999999999,-0.7199999999999993,-0.00914733368110384,0.01571511485826002,0.004544955212797954,346.75,0.875,94.1875,0.6759643600000012,-0.09625243999999983,-0.7264404299999991,0.07843017999999988
362.0,-0.011186484886081661,0.06293222704714638,0.06264955541770056,0.1500000000000002,-9.76999999999999,-0.7199999999999993,-0.0027203789993608548,0.016813822937814873,-0.0026282668104744716,346.75,0.875,94.19657258064515,0.675946640161291,-0.09624308798387082,-0.7264561808064511,0.07842525677419351
363.0,-0.0136380554928942,0.06528285961350476,0.06989164598842017,0.1500000000000002,-9.76999999999999,-0.7214858260019543,-0.07368070437626888,-0.03441482912249041,-0.08609035453793518,346.73729227761487,0.875,94.21696297653958,0.675856696561584,-0.09620146667033225,-0.7265232410826001,0.07844585437927665
364.0,-0.006163715316941122,0.06432960184976314,0.07141292578389352,0.14608993157380262,-9.76999999999999,-0.727468230694037,-0.16187747903977742,-0.08963673255507931,-0.15483929712760358,346.69770283479966,0.8510508308895406,94.2501298264907,0.6756241443902735,-0.09610906094024922,-0.7267228738990709,0.07860411673998048
365.0,-0.0019436020535136028,0.06208415576359125,0.0751402124583706,0.14288367546432063,-9.76999999999999,-0.7340566959921797,-0.09186584354662854,-0.05324895862137342,-0.09171189464585017,346.6593352883675,0.8307673509286412,94.28333104227761,0.6753847244532012,-0.09611774659915687,-0.7269281758205031,0.07873765933773216
366.0,-0.002887433781099233,0.06203711510263929,0.07760732707285775,0.14128054740957963,-9.76999999999999,-0.7373509286412512,-0.05543974559465421,-0.04611889618413584,-0.04756190265791267,346.6401515151515,0.8206256109481915,94.29993165017106,0.675265014484665,-0.0961220894286107,-0.727030826781219,0.07880443063660802
367.0,-0.0014868035190615833,0.06138690757733421,0.07830646010250586,0.14047898338220915,-9.76999999999999,-0.7389980449657869,-0.0694219368907194,-0.022838425882130354,-0.03142781169576175,346.63055962854355,0.8155547409579667,94.30794843597263,0.6752001237344306,-0.09612455309384163,-0.7270872486440891,0.0788379701368524
368.0,-0.0006506540054927152,0.05950867978131244,0.07224334781879005,0.1400782013685239,-9.76999999999999,-0.7397751710654936,-0.016577444263448426,-0.0029066681381977955,-0.029441329857562946,346.6261608015641,0.8130193059628543,94.31146138807429,0.6751287975365821,-0.09612693946725318,-0.7271395208078708,0.07883851960387281
369.0,-0.0002605852928433573,0.05914474518428732,0.07330589828716778,0.13999999999999996,-9.76999999999999,-0.74,-0.03910283409502972,0.0072587871430223145,0.005169458388761199,346.625,0.8124999999999999,94.3125,0.6750829966519669,-0.09613036999999999,-0.7271604661810616,0.07881817080389142
370.0,-0.000489211101073744,0.05809771821426346,0.07070102241382159,0.13999999999999996,-9.76999999999999,-0.74,-0.011001192413783462,0.016162066630328854,0.008144052733022555,346.625,0.8124999999999999,94.3125,0.6750639444550162,-0.09613036999999999,-0.7271676424453697,0.07880629604710697
371.0,-0.0020857966175343904,0.05877838764311187,0.07107011418457827,0.13999999999999996,-9.76999999999999,-0.74,0.009186128358865094,0.013648651181169391,-0.0008442267352256946,346.625,0.8124999999999999,94.3125,0.6750544183565408,-0.09613036999999999,-0.7271712305775238,0.07880035866871474
372.0,-0.0016703296703296702,0.059455591003978084,0.07142943794556697,0.13999999999999996,-9.76999999999999,-0.74,0.0014272913466461864,0.015741068966875417,0.0023031627870337547,346.625,0.8124999999999999,94.3125,0.6750498299795196,-0.09613036999999999,-0.7271728500000003,0.07879738997951863
373.0,-0.0018131474260506518,0.05959722714561423,0.0697879396589074,0.13999999999999996,-9.76999999999999,-0.74,0.025307219662058372,-0.0010580369451337187,-0.0055048446177478425,346.625,0.8124999999999999,94.3125,0.6750693312186384,-0.09613036999999999,-0.7271628502048126,0.07880688978494621
374.0,-0.0016128674193190322,0.0600505874054261,0.0702936991324088,0.13999999999999996,-9.76999999999999,-0.7400000000000001,-0.02194015661757597,0.009533298242975663,0.002112135176651306,346.625,0.8124999999999999,94.3125,0.6751220844802868,-0.09613036999999999,-0.7271363507475674,0.07883313924731183
375.0,-0.00265103176393499,0.059829441168150824,0.06751116088212859,0.13999999999999996,-9.76999999999999,-0.7400000000000001,-0.009713997919643077,0.005390689060043898,-0.005152329749103943,346.625,0.8124999999999999,94.3125,0.6751484611111109,-0.09613036999999999,-0.7271231010189447,0.07884626397849462
376.0,-0.0015936635049538276,0.0604137162121033,0.067499406507471,0.13999999999999996,-9.76999999999999,-0.74,0.010054232282054862,-0.007188364950461724,0.01293990507700185,346.625,0.8124999999999999,94.3125,0.6751616494265231,-0.09613036999999999,-0.7271164761546334,0.07885282634408602
377.0,-0.002126856566372695,0.05964854545096481,0.06847923178971566,0.13999999999999996,-9.76999999999999,-0.74,0.040898704230357456,-0.017272842524858653,-5.92037890424996e-05,346.625,0.8124999999999999,94.3125,0.6751682435842292,-0.09613036999999999,-0.7271131637224777,0.07885610752688173
378.0,-0.0020977344787828658,0.06040286975569233,0.06984381456357261,0.13999999999999996,-9.76999999999999,-0.74,-0.012080729810064486,0.009044710329992586,-0.020286898361495137,346.625,0.8124999999999999,94.3125,0.6751708999999998,-0.09613036999999999,-0.7271118199999995,0.07885742000000001
379.0,-0.0013494537496553625,0.06067797446728899,0.06555240581551064,0.13999999999999996,-9.76999999999999,-0.74,-0.07649796510053566,0.0173064460740872,-0.0037590405785970313,346.625,0.8124999999999999,94.3125,0.6751708999999998,-0.09613036999999999,-0.7271118199999995,0.07885742000000001
380.0,-0.0006167631651502618,0.06131428965299933,0.06785936823033595,0.13999999999999996,-9.76999999999999,-0.738870967741935,0.007066667651345074,0.025758817795108115,0.004861911162314387,346.625,0.8124999999999999,94.3125,0.6751950180645161,-0.09613036999999999,-0.7270877007258066,0.07885742000000001
381.0,0.008453612228507034,0.06281102180506107,0.0684444774097649,0.13079943899018232,-9.77074801309022,-0.7306837307152874,0.0965549393823412,-2.8895748699154202,-0.09949835050312786,345.72878681626935,0.7596715755025713,94.27743688639552,0.6747405596306685,-0.10105883810659187,-0.7261104122937119,0.08421230688172043
382.0,0.003965384423989327,0.060132558048932507,0.06065283277874026,0.14276214833759593,-9.770829414514743,-0.7332925294942665,-0.18955642317118523,-0.6559436530280648,0.04105964827784782,344.0080129527267,0.8306778181118168,94.28785269367214,0.6732736141417097,-0.11284092815196767,-0.7243832732626057,0.0943779581657179
383.0,-0.003871122432142563,0.06319351916783544,0.06079236621015865,0.1517036548139593,-9.770414707257368,-0.7323720711987457,-0.14418937389998074,-0.27912070004193823,0.02973841348864229,343.477796798944,0.8861050380881665,94.27850295973928,0.672882927796661,-0.11680884552759663,-0.7238067266313031,0.09757497876027835
384.0,-0.0235883610797696,0.0627447462945038,0.055282385399490944,0.16802356752510772,-9.77020735362868,-0.7295708606788815,-0.20752274166943607,2.6896530224517705,0.11416467080895086,344.41078049851785,0.9810608107296808,94.2573370091745,0.6737149987324967,-0.1120361477728851,-0.7244228111984321,0.09205234745828547
385.0,-0.02064210680716591,0.06216138364392368,0.04560074211090779,0.17449309456644524,-9.770103676814335,-0.7258908610870083,-0.13999718992713994,1.1722479661990035,0.027691704404091404,346.3274140587828,1.0032832215450758,94.24446791574957,0.6752507475251703,-0.10027001608050304,-0.7259805808677536,0.08078808581823643
386.0,-0.01909082360533072,0.06315682373119332,0.03947430208001605,0.17301793578252134,-9.770028462998093,-0.7228963421844576,-0.02974434243722769,0.7185225248335975,0.002624082503768289,347.2784072397701,1.0063166925864695,94.21506355114266,0.6760752035825941,-0.09429744034740445,-0.7267346246578139,0.0751191236618064
387.0,-0.019052053168889273,0.06411873444624182,0.034763242121601964,0.1717627629576743,-9.76999999999999,-0.7211896321927977,0.011678469198843456,0.33411894742628645,-0.00605572440276481,347.79367468250365,1.0047890388928553,94.19948801371174,0.676526172744807,-0.09101996948110266,-0.7271503495158145,0.07205063608849333
388.0,-0.018915415892457127,0.0640422463854518,0.03337602792864699,0.17104267180141774,-9.76999999999999,-0.7204058039996244,0.06152463717486398,0.15198829948057296,0.002427575656317907,348.0409905670583,1.0034025839625567,94.19215517117038,0.6767475504538452,-0.08944133178692237,-0.7273426372767682,0.07057532370956925
