time,linaccel_x,linaccel_y,linaccel_z,gravity_x,gravity_y,gravity_z,gyro_x,gyro_y,gyro_z,euler_x,euler_y,euler_z,quaternion_w,quaternion_y,quaternion_x,quaternion_z
0.0,0.02324324324324324,-0.09,0.027027027027027032,-4.911891891891892,-0.7989189189189185,8.441621621621625,-0.9307432432432432,-0.6739864864864865,0.7956081081081081,266.16385135135135,-30.048986486486488,5.407094594594595,0.6591648405405405,0.14645798054054054,-0.21872525567567563,0.7044034386486486
1.0,0.01650965250965251,-0.0903809523809524,0.017961389961389962,-4.9580592020592,-0.8379253539253535,8.408540540540539,-0.3185810810810811,-0.13656692406692408,0.17115508365508364,265.6427123552123,-30.382995495495496,5.674983912483912,0.655374281894466,0.14585941275160874,-0.22284680293951092,0.7067621774543117
2.0,-0.004194275908561621,-0.09175056689342405,0.0365866274437703,-4.9450412453269585,-0.8584759453330879,8.41429515229515,-0.5432807807807808,-3.9414651896794752,-0.45640972605258323,265.47187672366243,-30.29013299013299,5.8200327878899305,0.6544166295420728,0.14415974562370532,-0.22324944776772696,0.7078450241470862
3.0,0.0020787072787072838,-0.0916817960817961,-0.0012325468325468172,-4.452694923494923,-0.9218473330473329,8.663391791791792,-0.04722472472472472,-1.4997107822107822,0.07619798369798367,265.2796685971686,-27.04890890890891,6.056555841555841,0.6576167664349493,0.12304154529106248,-0.20529952391322753,0.7137762634488204
4.0,0.007170700654571624,-0.06744459667040312,0.00585521927457412,-4.527576396673171,-1.0731519353454835,8.612752300687783,-1.0138900997771965,1.1399248903281163,0.09511371971049387,264.85306545024287,-27.525457715780295,7.099050317598705,0.6540551555151188,0.11911616994370404,-0.21432871386482333,0.7152215314895726
5.0,0.008511243962856867,-0.04956798272927305,0.01490668548733065,-4.6502659664272565,-1.1934024715960199,8.535138138138137,-0.7133803157996705,1.0184966648676326,-0.18323542436445664,264.57297452982937,-28.32514712292938,7.965365394196038,0.650938783520419,0.11845280636679534,-0.22410279408149628,0.7153040529156669
6.0,0.009348299912816042,-0.04296473893248087,0.017415964351448224,-4.745867238205948,-1.2901118860796281,8.471138961542188,-0.34035951273854503,0.6791600067809745,-0.07321333430204399,264.56526990700377,-28.952985747844618,8.665872021214764,0.6497748382420323,0.11825683680398136,-0.23163786695267846,0.7140896559888112
7.0,0.014872434646628196,-0.052133419133419144,0.01865754694786953,-4.801277065083517,-1.3299471360761679,8.435859163310774,-0.3199893441828926,0.586506206667497,-0.059441728594954404,264.5853855295387,-29.315332959687797,8.960812194683161,0.6493012339137709,0.11880358811870856,-0.23539244812214058,0.7132758040262795
8.0,0.015629571968281648,-0.06731295581295582,0.019488126375223153,-4.862507659733469,-1.3548737908415323,8.398409577780544,-0.15279291388162358,0.42545486154357126,-0.11821560904222195,264.6170594701845,-29.723230027262282,9.161639750349426,0.64879603492114,0.12021091764358366,-0.23888046881937697,0.7124076859548232
9.0,0.012783423976972366,-0.08168067145486499,0.015420586485102614,-4.890142718755621,-1.36995481656772,8.381055147313212,-0.07678848203041751,0.20819114044920498,-0.05913580631322567,264.62559402720694,-29.90776196703616,9.270448011375429,0.6486185194901397,0.12074183549741907,-0.24050814169463472,0.711946540338523
10.0,0.010502560163850486,-0.08984818228366616,0.012926011264720942,-4.8994098822324625,-1.3671641065028162,8.376188428059397,0.06253520225294419,0.1005568356374808,0.037151177675371225,264.64445724526365,-29.967530721966206,9.259480606758832,0.6486087184984638,0.12119875399257551,-0.24078475525396825,0.7117889232488481
11.0,0.010246799795186893,-0.09179416282642089,0.01499283154121864,-4.905297491039425,-1.3547158218125963,8.374862263184845,0.09067140296979007,0.10757488479262674,-0.004048259088581668,264.66397209421405,-30.00939260112647,9.193826804915515,0.6486294673835125,0.12190945493599592,-0.2406454827731695,0.7116917674034822
12.0,0.008685611879160266,-0.10439068100358423,0.01404173067076293,-4.91463389656938,-1.3484178187404,8.370781874039942,-0.01055587557603687,0.13462141577060932,-0.0017393113159242194,264.6766865079365,-30.074137544802866,9.16525377624168,0.648596492674347,0.12254430077112136,-0.24085122776344092,0.7115457292383515
13.0,0.0033661034306195596,-0.10491039426523299,0.010018177163338454,-4.923589349718384,-1.3447734254992323,8.365113159242195,0.14752784178187403,0.09780465949820788,0.012375192012288785,264.6851734511008,-30.132022849462366,9.135690284178187,0.6485622552708654,0.12299611219559649,-0.2410241362562725,0.7114407994892475
14.0,0.007125448028673837,-0.10652636968766002,0.009101894521249359,-4.929660010240656,-1.3444004096262168,8.36239528929852,0.04248591909882232,0.044457245263696876,0.047606246799795186,264.6928187403994,-30.178033794162825,9.113997695852534,0.6485724808253965,0.12333566848438299,-0.2412113742201741,0.7112992547956989
15.0,0.01360829493087558,-0.09960010240655402,0.01441167434715822,-4.938412186379927,-1.3455683563748089,8.356384024577576,0.09626216077828981,0.09807667690732207,-0.0766353046594982,264.6907066052227,-30.237762416794673,9.117770737327188,0.6485192270174087,0.12363523473527906,-0.24159632733998976,0.7111623474818225
16.0,0.02242165898617512,-0.08901664106502816,0.022413210445468516,-4.944865079365078,-1.3371298003072198,8.355597542242705,0.07206541218637992,0.06551299283154122,-0.03762640809011776,264.7205549155146,-30.280488351254476,9.076108870967742,0.6486206867667691,0.12417155516948282,-0.24158420784050175,0.7109892536856119
17.0,0.040193804403481845,-0.0718963133640553,0.035364311315924234,-4.951469278033793,-1.3320729646697385,8.350504864311315,0.011055107526881717,0.1913866487455197,-0.15857014848950332,264.78288050435225,-30.335360663082433,9.051075268817204,0.6489075010312341,0.12483109343599591,-0.24164715404121856,0.71059229784639
18.0,0.06273681515617,-0.05446185355862777,0.05193855606758835,-4.964896569380439,-1.3308438300051195,8.342570404505889,-0.07852342549923196,0.23285010240655402,-0.1819252432155658,264.8318804403482,-30.417274705581157,9.05600358422939,0.6491435002703534,0.12549170580593963,-0.2421306565801331,0.7101030128161799
19.0,0.08438325652841783,-0.04427496159754225,0.06497542242703536,-4.978194316436252,-1.3301776753712227,8.335801331285204,-0.060655081925243215,0.22672651049667175,-0.21322644649257552,264.8562916026626,-30.50440668202765,9.058646953405018,0.6492239708878651,0.12607444969610856,-0.24268101723681507,0.7097490366267278
20.0,0.10395238095238096,-0.026949308755760373,0.07962928827444958,-4.982515616999486,-1.329811059907833,8.333277009728622,-0.08473502304147465,0.2346390168970814,-0.2083717357910906,264.8865911418331,-30.546838197644647,9.05956541218638,0.6493377478812086,0.12629589850844852,-0.2428940726820276,0.7095233147470557
21.0,0.10412826420890937,-0.020608294930875577,0.07899897593445981,-4.980267025089605,-1.3406843317972343,8.333735279057862,-0.1371831797235023,0.2881720430107527,-0.22676651305683562,264.93261008704553,-30.526414490527394,9.138855286738352,0.6496085138346135,0.12586438546620587,-0.24309131195391698,0.7092751932951865
22.0,0.11753456221198157,-0.0006446492575524852,0.09135432667690732,-4.984089605734766,-1.3457050691244241,8.331034306195598,-0.012195980542754732,0.24478046594982078,-0.22012608806963646,264.9688812083973,-30.546473374295953,9.184543010752687,0.6498135378402454,0.12588227332002047,-0.24340527077982593,0.7089766209262669
23.0,0.11033870967741935,0.00876779313876088,0.08517690732206862,-4.970625960061441,-1.343587301587302,8.338888376856119,-0.002724974398361493,0.19961117511520737,-0.1669018817204301,265.0016897081413,-30.454413082437274,9.159363799283154,0.650131067016385,0.12548170489093702,-0.2426650921113671,0.7090079745983103
24.0,0.10615232974910394,0.01898003072196621,0.08457270865335381,-4.958492575524833,-1.3406277521761398,8.34476676907322,0.0693836405529954,0.13783602150537633,-0.07045410906298004,265.03511904761905,-30.380065924219146,9.123835125448029,0.6503813371018945,0.12525436954352276,-0.24202785535688684,0.7090390573215565
25.0,0.10934408602150536,0.022303635432667696,0.08610803891449054,-4.950231950844854,-1.3195432667690739,8.353131592421915,0.17251664106502818,0.09193548387096775,-0.056144393241167434,265.0736751152074,-30.319569252432153,8.97399193548387,0.650782272296467,0.1258390969267793,-0.24086572760675887,0.7089646539743983
26.0,0.09166282642089094,0.01303661034306196,0.07927060931899642,-4.9390606758832565,-1.3083614951356892,8.361395289298514,0.22375832053251407,-0.10685483870967742,0.14165706605222733,265.1534274193549,-30.242042690732205,8.884029377880184,0.6514179327012288,0.12601420519150025,-0.23987253308448542,0.7086893926554019
27.0,0.07916922683051716,0.01312672811059908,0.07139605734767027,-4.90493804403482,-1.2712596006144392,8.386862519201227,0.16301043266769072,-0.07286066308243727,0.2660570276497696,265.04355958781366,-30.008930171530977,8.613133640552995,0.6512423510683563,0.12592948126062464,-0.2371298372949308,0.7097817258259089
28.0,0.06689196108550949,0.00930977982590886,0.05908960573476704,-4.880175115207375,-1.2544290834613414,8.403614951356886,0.10387864823348694,0.11335125448028674,-0.10255056323604711,265.07685931899647,-29.84443484383,8.486338325652842,0.6517602911658986,0.12569307618586786,-0.23543255828008192,0.7099060062104456
29.0,0.054363031233999,0.0018576548899129543,0.049134664618535606,-4.87383410138249,-1.2512467997951868,8.407775217613928,0.08385176651305684,0.05630120327700972,-0.005480350742447508,265.1664538530466,-29.8185307859703,8.483693356374808,0.6523026322188941,0.1256900522588325,-0.23507144474372765,0.7095363213678958
30.0,0.05647363031234001,0.004979006656426012,0.05096518177163341,-4.870734254992321,-1.2501126472094213,8.409685099846392,0.070823732718894,0.017453917050691242,0.0016001024065540226,265.2105510752688,-29.79112583205325,8.486498335893497,0.6525781886497695,0.12565195241525856,-0.23488934791397842,0.7093543892816183
31.0,0.05928750640040965,0.004445980542754736,0.04796799795186894,-4.859659498207886,-1.2418131080389143,8.418109318996414,0.12260464669738863,-0.15243535586277523,0.10224654377880184,265.186771953405,-29.709048579109062,8.401377688172042,0.6525831466843318,0.12558283023118277,-0.23401741914695334,0.7096420220253458
32.0,0.03799948796722991,-0.006164106502816181,0.03440962621607784,-4.810277777777779,-1.1954943676395289,8.452768817204298,0.43509824628776245,-0.39829429083461343,0.12487999231950844,265.0603718637993,-29.377457757296465,8.05225134408602,0.6524784609720942,0.12528827035304657,-0.23033409519175624,0.7109796611605222
33.0,0.00805888376856119,-0.019376856118791603,0.017294418842805942,-4.778243727598568,-1.1645437788018431,8.475268817204302,-0.03852726574500767,0.005769969278033776,-0.0018241167434715766,265.0750448028674,-29.16576740911418,7.826388888888888,0.6529722622647209,0.12530582945519714,-0.2278541897598566,0.7113307258535586
34.0,-0.01540373783922171,-0.030997183819764476,0.00415873015873016,-4.763513568868408,-1.1818940092165897,8.480238095238096,-0.001896121351766509,-0.1731806835637481,0.11654185867895545,265.03625512032767,-29.068914810547874,7.936466333845365,0.6528769746254479,0.12403597083358935,-0.22792498656656426,0.711625348373784
35.0,-0.029032514080901187,-0.03427547363031236,-0.005384792626728111,-4.745358934971838,-1.184970302099334,8.490423707117257,0.1386968766001024,-0.22427515360983102,0.09489727342549922,264.9818372375832,-28.94751184075781,7.952104134664618,0.6527097646290324,0.1231119614562212,-0.2273565711372248,0.7121255784073222
36.0,-0.04462826420890939,-0.03899257552483361,-0.011316948284690223,-4.735009216589862,-1.1867503840245774,8.497286226318487,0.07007648489503329,-0.06125832053251408,0.07547843061955964,264.9560003840246,-28.872865463389658,7.938445660522273,0.6526850057867384,0.12268052847004607,-0.22687665128545825,0.7123693493873529
37.0,-0.06596466973886331,-0.04032846902201743,-0.024302611367127504,-4.7261979006656425,-1.1853023553507422,8.503014080901178,0.17445756528417816,-0.1283826164874552,0.061975166410650276,264.94680619559654,-28.810888696876603,7.933122119815668,0.6527377846500256,0.12232423986866359,-0.22646569069073216,0.7125157863028673
38.0,-0.0821310803891449,-0.039442908346134176,-0.03354019457245265,-4.717458269329237,-1.1833456221198155,8.50674449564772,0.07908026113671275,-0.10300179211469533,0.04666858678955453,264.9396889400922,-28.744518049155147,7.90809331797235,0.6528068135570917,0.12202136381874037,-0.22596975530056324,0.7126587942759854
39.0,-0.10330056323604711,-0.049578597030209955,-0.044668714797747075,-4.710240655401945,-1.181336405529954,8.511611879160267,0.09334197388632873,-0.13263568868407577,0.05740687403993855,264.9375,-28.69532930107527,7.888551267281105,0.6528670415942139,0.12184234203840244,-0.22561848024475162,0.7127611502854581
40.0,-0.1182542242703533,-0.05030005120327703,-0.05166231438812087,-4.698157962109576,-1.1772094214029702,8.519605222734253,0.20983742959549412,-0.19910234254992318,0.03024353558627752,264.93839605734763,-28.617013888888888,7.858506144393241,0.6529940856940605,0.12154579011418329,-0.22499595846466974,0.71288353265617
41.0,-0.12115668202764976,-0.05213927291346649,-0.05225140809011779,-4.690015360983102,-1.1620993343573984,8.525689708141318,0.1738031233998976,-0.25689324116743467,0.07686571940604198,264.9460125448029,-28.56850358422939,7.760906298003071,0.6531687660235534,0.12185601549615971,-0.2241228027045571,0.7129463092985149
42.0,-0.10862442396313364,-0.0473830005120328,-0.04310266257040452,-4.693081413210446,-1.1648100358422941,8.523038402457757,0.18540386584741425,-0.25687403993855606,0.048657514080901174,264.94175627240145,-28.58629672299027,7.779416282642089,0.6531399075647722,0.12194887504301072,-0.22432074798822324,0.7128935455202254
43.0,-0.09964823348694317,-0.03841372247823863,-0.039951868919610875,-4.691218125960061,-1.1645197132616483,8.525551459293393,0.1828116999487967,-0.15520673323092676,-0.020894137224782387,264.9396281362007,-28.575966461853557,7.777924987199181,0.6531678710046085,0.12183143840860212,-0.22423314466615468,0.7129194849554532
44.0,-0.09431259600614439,-0.034310291858678975,-0.0377383512544803,-4.693528161802355,-1.1686756272401433,8.521845878136201,-0.05724686379928315,0.014709741423451106,0.015253776241679468,264.9385640681004,-28.589212109575012,7.804957117255504,0.653074618480287,0.12172407356528418,-0.22452029677035334,0.7129392635442908
45.0,-0.09062186379928316,-0.03374065540194574,-0.03785407066052229,-4.698587813620071,-1.1744408602150536,8.516391449052737,0.03802963389656938,-0.02983550947260625,0.0167594726062468,264.93800403225805,-28.64059619815668,7.8406506016385045,0.6529210494800308,0.1216650936597542,-0.22503352675192018,0.712916028673579
46.0,-0.07746594982078853,-0.024464413722478248,-0.03458115719406042,-4.779275985663084,-1.183752688172043,8.470135688684072,-0.11486175115207373,0.7704205069124423,-0.04734383000512033,264.9814068100359,-29.18182923707117,7.948019073220687,0.6523471041172554,0.12443697689708141,-0.22874531121198155,0.7117553356047106
47.0,-0.06457270865335382,-0.023158474142345117,-0.019322836661546345,-4.866427035330261,-1.2002777777777776,8.419368919610854,-0.14757424475166409,0.36603142601126465,-0.005200332821300564,265.0239695340502,-29.760304659498203,8.120575716845877,0.6516419258328214,0.12710871739580135,-0.23302129916717867,0.7105422666379928
48.0,-0.04845570916538659,-0.02113568868407579,-0.014083461341525858,-4.895776241679466,-1.2090232974910393,8.40045954941116,-0.028200204813108046,0.1453533026113671,-0.02808179723502304,265.04166666666663,-29.954301075268816,8.192876344086022,0.6513877103044035,0.12795016666385045,-0.23452838595903736,0.7101396770465949
49.0,-0.04592831541218639,-0.023632872503840253,-0.013095238095238097,-4.923886328725036,-1.2152688172043007,8.384463901689708,-0.12932347670250896,0.20075204813108036,0.009082181259600617,265.05409946236557,-30.140677803379415,8.228158602150538,0.6511534308310292,0.1288193568346134,-0.23582440773169483,0.7097788021044545
50.0,-0.042037890424987207,-0.025281874039938562,-0.011971582181259603,-4.948150537634406,-1.2175422427035327,8.36934715821813,-0.05492671530977983,0.22701772913466461,0.03005952380952381,265.06031586021504,-30.305333141321043,8.258030913978494,0.6509243349546852,0.12971245730209932,-0.23697705532667693,0.7094472088586788
51.0,-0.03973758320532515,-0.020118535586277526,-0.009341525857654891,-4.974702508960572,-1.2199449564772138,8.354270353302613,-0.06366967485919098,0.22263184843830006,-0.012860023041474652,265.0620519713262,-30.482107654889912,8.294982078853046,0.6506746528492064,0.13062910174244752,-0.23817308280670763,0.709103729205325
52.0,-0.04496287762416796,-0.02145263696876601,-0.01132846902201741,-5.008157706093191,-1.231804915514593,8.3318305171531,-0.08736239119303635,0.24107622887864824,0.03868087557603687,265.05152329749103,-30.71047587045571,8.399283154121864,0.6502295950491552,0.1314017063640553,-0.240113322375576,0.7087129521743472
53.0,-0.04788428059395804,-0.018818228366615466,-0.009931387608806965,-5.034750640040963,-1.240121863799283,8.316001024065544,-0.060861495135688684,0.19547491039426523,-0.0277457757296467,265.057123655914,-30.887282386072705,8.485010240655402,0.6499118683205325,0.13200991088479264,-0.24163183377982583,0.7083731782171022
54.0,-0.04501075268817206,-0.011852534562211983,-0.008055811571940604,-5.058565284178188,-1.2554372759856633,8.299508960573476,-0.15751088069636454,0.2020705325140809,-0.010141449052739376,265.03651433691755,-31.050345622119814,8.605856374807988,0.6495238942954429,0.13229939713415256,-0.24323754569022016,0.7081222163476706
55.0,-0.03926574500768051,-0.0038663594470046093,-0.003986431131592422,-5.077642089093705,-1.2687094214029702,8.284791346646184,-0.12613447260624677,0.2372103814644137,-0.034448604710701484,265.0172491039426,-31.18945852534562,8.717847542242701,0.6491448455071682,0.13249437861315927,-0.2446078465824373,0.7079705360540196
56.0,-0.04051996927803381,-0.006422427035330262,-0.006173323092677931,-5.101957245263698,-1.2755867895545319,8.267776497695852,-0.1110903097798259,0.359952636968766,-0.04766225038402458,265.0076164874552,-31.36326644905274,8.778446620583718,0.6488424188691755,0.13320117035048645,-0.2459205423817204,0.7076654319383
57.0,-0.03611264720942141,-0.006530465949820788,-0.00449820788530466,-5.131904249871992,-1.2835550435227852,8.248607782898105,-0.12653609831029183,0.13631272401433692,-0.016964285714285716,265.0031362007169,-31.564516129032256,8.835592677931388,0.648503310064516,0.13410032642703534,-0.24740879456733234,0.7072828537286227
58.0,-0.035739887352790586,-0.015332309267793139,-0.006411930363543268,-5.150483102918587,-1.2914784946236555,8.235404761904762,-0.059194188428059395,0.06047587045570916,-0.015945020481310804,265.00056003584234,-31.688520865335377,8.9132328469022,0.6482444273256527,0.13437514568253972,-0.24850625249206348,0.7070839736241679
59.0,-0.03926779313876087,-0.03309626216077828,-0.014715821812596005,-4.8359897593445975,-0.9249103942652328,8.439543778801845,4.452985791090629,-3.3763760880696365,0.3099878392217102,265.45698924731187,-29.59039618535586,6.342089093701997,0.654763054299027,0.13738451056528417,-0.221415598781874,0.7083969391776754
60.0,-0.02038044034818228,-0.040684843830005125,-0.014091653865847412,-4.446250896057348,-0.36740143369175615,8.682611111111108,2.8713309651817718,-2.1791250640040962,0.24907674091141832,265.8440860215054,-27.00989343317972,2.5548931131592423,0.6615109853369174,0.14484018183154118,-0.18451429211392728,0.7108377545345621
61.0,-0.009374807987711214,-0.03324116743471582,-0.015083461341525854,-4.264523297491039,-0.10096774193548382,8.79786021505376,1.1424027137736814,-0.8983102918586789,0.10311699948796722,266.0241935483871,-25.808570148489505,0.7328116999487968,0.6646698629283152,0.1486271869283154,-0.16704963174244752,0.7120401576615463
62.0,0.010313620071684595,-0.024534050179211477,-0.013082437275985659,-4.244193548387097,-0.06451612903225803,8.821711469534048,-0.8646953405017922,0.9687499999999999,-0.14762544802867386,266.0389784946236,-25.662970430107528,0.4570452508960574,0.6651861806182795,0.14922308149641572,-0.16488259129928315,0.712416891657706
63.0,-0.0006819722948755175,-0.008254867770996807,-0.004872372372372371,-4.481327133585198,-0.27190157899835327,8.69975079918628,-1.4847700523103748,1.52464763150247,0.26386921195388935,265.5343105201976,-27.212407972488617,1.8230453235493558,0.659850149912816,0.14928534057081272,-0.18272027287585973,0.7129790428254867
64.0,-0.0018630035565519423,0.009204619365909692,0.0013184221087446904,-4.669501764437247,-0.45233814228975544,8.593461805123095,-1.0952412089508865,0.941485682110682,0.18005848590526008,265.1247637470419,-28.445712114764532,3.0399156789277755,0.6553990475419174,0.14866751803694245,-0.19750802333897954,0.7133317594382171
65.0,0.0021195734905412327,0.021842453052130482,0.0060310748536555,-4.775324358921134,-0.5612541965929063,8.533312443780186,-0.5498047442603895,0.5262703948187819,0.08532494187736123,264.90246363875394,-29.14705520612779,3.775810214015859,0.6529997070370877,0.1481055468992956,-0.20604435542397007,0.7134008088588935
66.0,0.007543785721205075,0.02135658238884046,0.012856167227134969,-4.837342030971062,-0.6198205186753575,8.499855530645853,-0.44909992077330785,0.37120451384564285,-0.013780341401309147,264.8033823570114,-29.548273186781252,4.1723673125890866,0.6517413176800904,0.1479908358682346,-0.21079768252778128,0.713304992713497
67.0,0.008910781749491423,0.013796570764312704,0.015061596158370353,-4.8624747789263925,-0.6480330191943093,8.484770955287082,-0.1419726754404174,0.06964683577586804,-0.025763378585959232,264.7561938666778,-29.731293851455142,4.361133253068736,0.6511393386697943,0.14786600566261188,-0.2129504995076183,0.7133000850126625
68.0,0.013208909370199695,0.011798771121351768,0.018100358422939073,-4.867129032258067,-0.6513573988735277,8.48142857142857,-0.08326292882744496,0.005085125448028673,-0.027112135176651304,264.74860151049666,-29.751372887864825,4.3842773937532,0.651050960764465,0.14790420045417302,-0.21324337217204312,0.713279911420891
69.0,0.018573220686123913,0.011099078341013827,0.01912339989759345,-4.8581712749616,-0.6462516641065026,8.486116743471582,-0.008096518177163333,-0.10009120583717358,0.03301651305683564,264.749271953405,-29.69104742703533,4.352142537122376,0.6511425634871991,0.1476928071164874,-0.21272871201689714,0.713394766299283
70.0,0.024086533538146448,0.015946748591909886,0.0231146953405018,-4.850590885816693,-0.6393630312339987,8.490029185867897,-0.1336405529953917,0.10998463901689708,-0.029518689196108554,264.7702764976959,-29.652435355862774,4.30880376344086,0.6513729560619558,0.14772016272657448,-0.2122025782826421,0.7133423489754225
71.0,0.03062186379928316,0.018986175115207376,0.026168202764976965,-4.861220686123913,-0.6549487967229904,8.483012032770096,-0.0566084229390681,-0.07133896569380441,0.04347798259088581,264.76013824884797,-29.725673643113158,4.422115015360983,0.6511693812132615,0.14747685248310288,-0.21323370090937022,0.7132724346310806
72.0,0.038075268817204314,0.028758320532514092,0.03203123399897595,-4.863208909370201,-0.6664080901177676,8.482352790578595,-0.09041218637992832,0.09649897593445982,-0.0634984639016897,264.79987199180744,-29.729240271377364,4.48830325140809,0.6513758071971326,0.14721767127291346,-0.2136570635729646,0.7130132195064005
73.0,0.03924347158218127,0.03177086533538148,0.03168381976446494,-4.866473886328725,-0.6843545826932922,8.478065796210956,-0.014762544802867383,-0.08624551971326166,0.021054147465437795,264.8179467485919,-29.754789106502813,4.603694636456733,0.6514708408766,0.14670207269790067,-0.21439277544086016,0.7128146721940605
74.0,0.04161546338965695,0.03649923195084487,0.03459190988223248,-4.862121351766515,-0.6931315924219148,8.4800051203277,-0.013597670250896057,0.020945340501792108,-0.092239503328213,264.8413210445468,-29.725652841781873,4.651561699948797,0.6516285348110598,0.14627246090988227,-0.21450688372401433,0.7127166319662057
75.0,0.04895058883768563,0.03457219662058373,0.03972452636968768,-4.865899385560677,-0.6976487455197129,8.479781362007166,-0.10322740655401946,0.01741391449052739,-0.03269809267793138,264.85954301075265,-29.739986559139783,4.705792370711725,0.6516797010092166,0.1461375674272914,-0.2147691495440349,0.7126233910430105
76.0,0.055716333845366124,0.028258320532514092,0.04290885816692269,-4.865194316436255,-0.699164874551971,8.47995340501792,0.0432283666154634,-0.0394281233998976,-0.028865847414234508,264.8692876344086,-29.74331317204301,4.721567780337941,0.6517224107555044,0.14606136015181775,-0.21482488236610348,0.7125918413906809
77.0,0.06046850998463903,0.03593906810035844,0.04503840245775731,-4.863249359959038,-0.6970005120327697,8.480244751664108,-0.14606694828469022,0.09788466461853558,-0.010823092677931384,264.87828981054787,-29.72847542242703,4.708589349718382,0.6518134439984637,0.1460856886349206,-0.21467498435125448,0.7125415609754223
78.0,0.0629994879672299,0.029320788530465963,0.04639196108550949,-4.869927547363032,-0.708812083973374,8.474914490527395,-0.17698732718894009,0.07464797747055811,0.006382808499743984,264.8773169482847,-29.76923323092678,4.78910650281618,0.6516634930547873,0.1458619089500768,-0.21541029878136203,0.7125075562654888
79.0,0.061371538855409836,0.019701406120760965,0.04721548702193866,-4.884987553664974,-0.7193605498444209,8.463393280554568,-0.1760014179369018,0.09745460632557407,-0.03996366536689117,264.8763824884793,-29.88044650242231,4.8631998601756665,0.651540360322541,0.14614953841458894,-0.21638868737937683,0.7122595770068141
80.0,0.06103849081268438,0.0034712037453972933,0.04716547174611693,-4.892298609314739,-0.7251641458899525,8.457886701306052,-0.11624753298140394,0.03614712505841538,0.021492043266236816,264.87569124423965,-29.933793434297463,4.903460529166175,0.6514862922204308,0.1462770187823349,-0.21689112703443875,0.7121497175068943
81.0,0.055992777250841785,-7.408933215384854e-05,0.04269908547327904,-4.879249318442868,-0.7285997873094647,8.46589951277048,0.016658250327605165,-0.23257694064145676,0.021834731310537762,264.8753456221198,-29.84357897865962,4.923812477844736,0.6516202363855806,0.14562075080555953,-0.2164665109810324,0.7122820440925703
82.0,0.051632333325881734,-0.003156860334279689,0.03898087914216948,-4.8462145209725875,-0.726650124069479,8.485843765601828,-0.045847142117303404,-0.31162257170321683,0.0794369509087251,264.875,-29.617930042325202,4.902372828784118,0.6519370733079977,0.1443550824119963,-0.21503046302507842,0.7126763122352253
83.0,0.04119454724293435,-0.004452737759189373,0.0312410097893969,-3.0709465403820255,-1.2568147981051205,8.734426851846205,-0.09985976770250964,-0.22197697500116853,0.0783991328346167,264.875,-29.43276858095406,4.875169185653057,0.6522206068063284,0.14337589584716792,-0.21376062363415863,0.7129953548631323
84.0,0.03495931636540379,0.00042618321624565084,0.02550684124305353,-3.9035792762210564,-0.9895945972168654,8.641116945227246,0.048543594630028025,-0.42406130828022087,0.1030820072508418,264.875,-29.16515977141302,4.853394112824394,0.6525509942065475,0.14184193994911826,-0.21202829996871086,0.7135106729693337
85.0,0.022381334052119697,0.009858543511639247,0.01902000979134174,-4.308191362415477,-0.8577901301496513,8.601133402382104,-0.08317032222387971,-0.12025137486083115,0.12102177471909521,264.85887096774195,-28.93864159257467,4.851540246376354,0.6528005731596528,0.140545389626792,-0.21072197115407354,0.7139264069133213
86.0,0.003625185912191636,0.00597834812747664,0.009606503379266128,-4.516899651431063,-0.7990398128002183,8.576790853382947,-0.15960625292335426,-0.049553933915113674,0.11662647875739707,264.8346774193549,-28.87115082110123,4.894520123188178,0.6527628145947147,0.13986712701493997,-0.21057386434874897,0.714132783489746
87.0,-0.013262723864180682,0.005866622220420348,-0.000785169969353113,-4.617512469724748,-0.7697820031743023,8.568545196276727,-0.10282930013679234,-0.09713259771792548,0.09395912071510407,264.82258064516134,-28.807427009052923,4.917018126110218,0.652789828208216,0.139371326398887,-0.2103181416285796,0.7142849373674247
88.0,-0.02520907454206102,0.003011512478734123,-0.005658143798622468,-4.718741572105775,-0.7385420279801127,8.557851939943513,-0.05876639330723619,-0.1836163966106734,0.13625945608906065,264.8165322580645,-28.748899232776704,4.928694791305354,0.6528070918460435,0.1389170008648068,-0.2100899099834003,0.7144275457446443
89.0,-0.03520302099334359,0.005398873527905787,-0.00994546850998464,-4.702068868407578,-0.7395519713261642,8.566248847926266,-0.01302003328213006,-0.16503456221198157,0.08737679211469535,264.81350806451616,-28.64790546594982,4.934755824372759,0.6529086039500769,0.13827983718637993,-0.20952776998694328,0.7146228398653354
90.0,-0.04660240655401948,0.0059879672299027135,-0.015371479774705585,-4.69041167434716,-0.7399999999999993,8.573482846902202,-0.059573412698412695,-0.1239039298515105,0.14362679211469534,264.8125,-28.56989247311828,4.9375,0.6529752428486946,0.13778040649641582,-0.2090683728474143,0.7147897909183306
91.0,-0.06541321044546854,0.009156169994879674,-0.02555145929339478,-4.6857265745007695,-0.7366082949308752,8.576045570916541,-0.09529889912954428,-0.007658090117767531,0.12903545826932922,264.8060483870968,-28.541551459293395,4.915380184331797,0.6530066589047623,0.13777654511827958,-0.20876089774551976,0.7148582804557087
92.0,-0.08121812596006145,0.008767025089605735,-0.03459139784946237,-4.680577572964673,-0.74036866359447,8.577778545826934,-0.127977790578597,-0.05852374551971326,0.16656266001024067,264.7770161290323,-28.509139784946235,4.93934331797235,0.6529576833648236,0.13747620618125958,-0.20867434348105482,0.7149860811725546
93.0,-0.09051049667178701,0.009114695340501792,-0.03578136200716847,-4.675880184331797,-0.7453456221198156,8.579637480798773,-0.04396761392729133,-0.10651881720430106,0.12167178699436765,264.76250000000005,-28.494041218637992,4.970679723502304,0.6529039084162829,0.13709794427342545,-0.20866331574142344,0.7151098619841267
94.0,-0.10355017921146953,0.009299283154121863,-0.04525473630312342,-4.668534562211981,-0.7478341013824885,8.584196620583716,-0.04839509728622632,-0.16218798003072196,0.12837621607782898,264.7552419354839,-28.437083973374296,4.97713133640553,0.6529335898625195,0.1366939924178187,-0.20837153890757804,0.7152521678077316
95.0,-0.11080286738351254,0.009698924731182796,-0.04997951868919613,-4.653765488991294,-0.7500819252432157,8.592277521761392,-0.08067716333845365,-0.11662826420890937,0.07443676395289299,264.74802867383517,-28.3314452124936,4.969860471070149,0.6529967043174605,0.13603728165693801,-0.20783380203891444,0.7154708853958015
96.0,-0.1247147977470558,0.02264669738863288,-0.0561372247823861,-4.635136200716845,-0.7455893497183821,8.601954429083463,0.060439068100358415,-0.21024385560675884,0.20403865847414235,264.71502816180237,-28.213504864311314,4.941468253968253,0.6530030240389146,0.13541785156579622,-0.20696207729134664,0.7158322478591911
97.0,-0.12132923707117253,0.021512288786482342,-0.054192012288786506,-4.637403737839223,-0.7430168970814129,8.600027905785968,-0.05505952380952381,-0.16157994111623145,0.16689388120839735,264.66799795186887,-28.227950588837686,4.939080901177675,0.6526940815417309,0.1354903422928827,-0.20707051510240654,0.7160716768640553
98.0,-0.11586175115207373,0.017920122887864823,-0.05074295954941119,-4.6433389656938076,-0.7386231438812084,8.59516180235535,0.10805491551459294,-0.15709485407066054,0.02839541730670763,264.6444828469022,-28.267425115207374,4.90771249359959,0.6524897638084998,0.13586994858371734,-0.20724284816948285,0.7161439484813109
99.0,-0.11146680782164652,0.012155851704238801,-0.04878174257206518,-4.646057451460679,-0.7381738212867243,8.59511944894203,0.1603264987337568,-0.19014522875409973,0.0033479764326538528,264.63272529441883,-28.280935125793995,4.887884457037682,0.6523973772702978,0.13600339529908245,-0.2072346080797595,0.7161919367092069
100.0,-0.10768552884681917,0.010930460414331385,-0.04579345705152159,-4.636830697056505,-0.7120555486361939,8.603757753144851,0.31700640732898794,-0.24784159159159158,0.009548892210182533,264.66658986175116,-28.208576721883176,4.719673475318636,0.6527271472698138,0.13663457941835844,-0.2058795993175295,0.7161571215117977
101.0,-0.1099866456318069,-0.000831748799490736,-0.05100988776795231,-4.628438390002908,-0.6897415479996128,8.612030950305147,0.25040348528251755,-0.18015799497654336,0.00039976612557257693,264.709331797235,-28.13478951301532,4.570925447336737,0.6530453623865711,0.13718739417717718,-0.2046510089531836,0.7161093512535948
102.0,-0.11155076735721897,-0.004783790703145545,-0.049915604544636824,-4.623883173496079,-0.6705026155187446,8.616378378378382,0.25523449716998103,-0.08651520183778248,-0.03680183639861059,264.73168202764975,-28.114801033752645,4.455171747208038,0.653303233297325,0.1377975882779231,-0.2037614333310915,0.7160213862242497
103.0,-0.11077538367860948,-0.013827763247118086,-0.04956468911307624,-4.6214577157802985,-0.6582949585530231,8.618673060156933,0.17313056143701305,-0.014065332613719707,-0.04713555721620237,264.74285714285713,-28.116876323327936,4.3700709926516375,0.6534748896701679,0.13829153683558215,-0.2032032652856174,0.7159311711201897
104.0,-0.10383630173952756,-0.011462946817785528,-0.04495574376219539,-4.617964157706096,-0.6455579219772769,8.619741935483873,0.16749802798189894,-0.030318048463209752,-0.051073106516654906,264.76098950332823,-28.099341968696805,4.285672423575649,0.6536201573406542,0.13864762695164748,-0.20268188522296954,0.7158807848413116
105.0,-0.10199649188358866,-0.01576833976833977,-0.044786627641466376,-4.6191479774705595,-0.6420047674402515,8.619852534562215,0.16764878357620294,0.0375771508836025,-0.07648701408782053,264.7562724014337,-28.10825393365716,4.262767087363861,0.6536382929099583,0.13885166104725233,-0.20264363449627742,0.7158225075589046
106.0,-0.08903140006365814,-0.015590263074134043,-0.036107471526826376,-4.627459293394779,-0.6227452152613444,8.616055299539175,0.17046193659096887,0.052950761821729565,-0.016766132491938947,264.78270609319,-28.16064578403288,4.137767952284081,0.6537237977677033,0.1399788066481781,-0.20224809688523548,0.7156398364855456
107.0,-0.06734869431643627,-0.01942498719918075,-0.026583717357910916,-4.637636456733231,-0.6087803379416282,8.610429083461344,0.2004288274449565,-0.02913466461853559,-0.00729326676907322,264.79861111111114,-28.23014912954429,4.046979006656426,0.6537628964301074,0.14093498622683048,-0.2022001569231951,0.715432311120328
108.0,-0.06000051203277011,-0.01739093701996928,-0.024255504352278554,-4.6470261136712745,-0.6033154121863799,8.605465437788016,0.02876664106502816,0.19158666154633897,-0.08961373527905786,264.82269265232975,-28.291373847926266,4.010528673835125,0.6537899108351254,0.1415451040391705,-0.20236600109600617,0.7152372819436763
109.0,-0.05630312339989761,-0.024630312339989767,-0.02356579621095751,-4.658064004096262,-0.6062365591397847,8.600198156682028,0.14078341013824885,0.033960573476702505,-0.07435355862775217,264.8504704301075,-28.36177035330261,4.03393817204301,0.6537448698003072,0.14185069088172042,-0.20284939649513567,0.7150766140189453
110.0,-0.04832616487455199,-0.020751920122887874,-0.03572350230414747,-4.6570873015873016,-0.6047670250896056,8.601071428571428,0.27900985663082434,-0.2730478750640041,-0.04365719406041987,264.8629592293907,-28.351923323092677,4.023689516129032,0.6538267407352791,0.14188625216180234,-0.20267604706630818,0.7150475449106504
111.0,-0.046143369175627245,-0.024466461853558635,-0.025290066564260118,-4.617508704557092,-0.5427956989247311,8.626140552995391,0.495127688172043,-0.35079365079365077,0.2570692524321556,264.77150537634407,-28.093748399897592,3.6010304659498207,0.6537382560038403,0.14265844964720942,-0.19892383121684581,0.716017892155146
112.0,-0.039218637992831554,-0.041399897593446,-0.020525857654889915,-4.573301843317973,-0.47582437275985656,8.653701996927804,0.25996863799283154,-0.21487935227854582,0.060434267793138735,264.6665546594982,-27.802894585253455,3.147793458781362,0.6535811582304148,0.14340121578238607,-0.19482940168817203,0.7171297956833076
113.0,-0.03436251920122889,-0.06100204813108039,-0.0190384024577573,-4.555971326164877,-0.4441331285202253,8.6631095750128,0.108205325140809,-0.05768689196108551,-0.024209549411162316,264.6422491039426,-27.69771825396825,2.9271441372247824,0.6536066435064003,0.14399099246134153,-0.19300665285407065,0.7174916607439834
114.0,-0.034231438812083986,-0.07401305683563748,-0.019463901689708143,-4.5545325140809005,-0.42384075780849984,8.66660599078341,0.04917434715821812,0.100355222734255,-0.06760592677931387,264.6295922939068,-27.676291282642087,2.7860407066052226,0.6536052304034817,0.1446388334723502,-0.19221761182488478,0.7175845392132616
115.0,-0.03604761904761906,-0.09159037378392217,-0.01825166410650282,-4.5608952892985135,-0.413194316436252,8.664230414746545,0.09631976446492575,0.07209741423451102,-0.09714541730670764,264.6233198924731,-27.70555235535074,2.715264976958525,0.6535632266789553,0.14523614230005116,-0.1920712007634408,0.7175493312869943
116.0,-0.03836164736164738,-0.11035151741603355,-0.021154917590401466,-4.566685777943842,-0.40829954608986874,8.662276497695855,0.007316619615006709,0.1264097334661851,-0.11049148226567582,264.6232078853046,-27.74626038769184,2.6930379544290837,0.6535683502660009,0.14570384527963903,-0.19213521006277234,0.7174372699258034
117.0,-0.036646918808209146,-0.1178622355073968,-0.021342134761489606,-4.564060945738365,-0.40447029517997274,8.664599936341872,0.12782733770636995,-0.021819169399814556,-0.07142623614397808,264.650283347864,-27.728034745575066,2.6624859018004177,0.6536791623647886,0.1458188809421541,-0.19179026219064224,0.7174017847828427
118.0,-0.03604286544609127,-0.12131975062620223,-0.020851302915819055,-4.562316187154898,-0.4039473851731918,8.665288191417226,-0.0697460853710854,0.054537803932965236,0.009979406249567543,264.6528746488424,-27.70891944652025,2.6668740312893537,0.653714257335492,0.14574082966769758,-0.19172387729398982,0.7173969613233209
119.0,-0.04253052130471487,-0.11827060239963466,-0.02543947634270216,-4.55221646531324,-0.40697369258659594,8.668712196067034,-0.06065149250633123,-0.020025324864034532,0.06481833215704183,264.62972073455944,-27.65134512392577,2.6937488756037142,0.6536341711183349,0.14519118930095068,-0.19152001702871535,0.7176367290839591
120.0,-0.06638712445164059,-0.1266683273134886,-0.03809249802798192,-4.550068806133323,-0.41180277051244796,8.669517388356097,-0.21377748716458395,0.11234396839235548,0.06486244308824954,264.60227076154496,-27.63968305863467,2.7318430757946883,0.6535263141280359,0.144875487097992,-0.19170932851845396,0.7177490133980983
121.0,-0.08399642391103493,-0.13189101272592735,-0.045531709806852144,-4.542685308241286,-0.4161280635474184,8.673259642944654,-0.07465311611421668,-0.09350235807778501,0.15743282419041432,264.5813773162563,-27.594594401259485,2.7741876669296026,0.6534423529653461,0.14430679296947913,-0.19164624043800538,0.7179521009802942
122.0,-0.09201652058672932,-0.12087937110328004,-0.04822792988163009,-4.529803981807775,-0.42013876088069635,8.679931477967532,-0.08546222252341797,-0.12331659814463419,0.15578625267311225,264.5701404889912,-27.506212538778954,2.7786930363543267,0.6534711411326919,0.14371779425170927,-0.19117116981521645,0.7181713604593833
123.0,-0.0992027047378091,-0.12024255293515257,-0.05260410830999068,-4.517948585885966,-0.42549052739375304,8.684777566940756,-0.13799320803590254,0.003445867594349575,0.0792092105659468,264.56483614951355,-27.43108566007048,2.797836661546339,0.6534571170045183,0.14310841650757505,-0.1908533140025903,0.7183905102655337
124.0,-0.0960068823228216,-0.11770652992379747,-0.051186846781723465,-4.520379822896899,-0.4265931899641576,8.682517815728445,0.048860538839191586,0.030726390018372948,-0.005527883196289267,264.5629480286738,-27.466752507454594,2.806666026625704,0.6534083191151623,0.14317153879756628,-0.1910580867524473,0.7183738724184812
125.0,-0.08327673865245022,-0.10615165205867294,-0.04486313665251049,-4.527757115749526,-0.4321003584229388,8.679413029728023,0.13761351314719436,-0.051197064847444344,0.015101201771030994,264.57146057347666,-27.507233780609017,2.844361239119304,0.6534405556373303,0.14326669301885486,-0.19150756558052467,0.7182002094888102
126.0,-0.07200153609831028,-0.0798305171530978,-0.03621556579621096,-4.530781362007169,-0.40726881720430097,8.67962007168459,0.5732046850998463,-0.14734703020993342,0.14975358422939067,264.56877240143365,-27.52330709165387,2.685957501280082,0.6534497143625191,0.14430960805222737,-0.1907317727296467,0.7181832278120839
127.0,-0.04044162826420891,-0.0705378904249872,-0.021602406554019463,-4.521403993855607,-0.3558013312852022,8.686881720430106,0.18673035074244754,-0.05596358166922683,-0.026976126472094228,264.5584677419355,-27.459070980542755,2.34744623655914,0.6535368600768048,0.14590913356221202,-0.18852230523681515,0.7183609071661546
128.0,-0.018827444956477212,-0.06846338965693805,-0.012481310803891452,-4.549142857142858,-0.37942396313364046,8.671254480286738,-0.1123079877112135,0.20916538658474143,-0.1139304915514593,264.6133512544803,-27.643878008192523,2.5038082437275984,0.653632966328725,0.14613782458576552,-0.19044241331285203,0.7177191462667692
129.0,-0.0013440860215053752,-0.07309139784946238,-0.003154121863799284,-4.5795340501792134,-0.3973028673835125,8.654265232974907,-0.04905913978494624,0.22199820788530467,-0.08249327956989248,264.65602598566306,-27.837981630824373,2.630376344086021,0.6536115412365591,0.14662531369175627,-0.19229344706093188,0.7171482093279569
130.0,0.018465693804403494,-0.06862211981566821,0.00421146953405018,-4.593313364055302,-0.39363159242191503,8.646550179211463,0.0366263440860215,0.11664586533538147,-0.06026785714285715,264.70575716845883,-27.92808659754224,2.6079317076292883,0.6537587108330772,0.14735523288479258,-0.1926699414879673,0.7167781868934973
131.0,0.0303036354326677,-0.06896159754224274,0.011594982078853048,-4.605895033282132,-0.3919188428059397,8.64177419354838,0.06255600358422939,0.11065828213005632,-0.06426811315924219,264.73084677419354,-28.003721838197645,2.6178939452124936,0.6537849634631336,0.1478830207703533,-0.19309934810957502,0.7165256968428062
132.0,0.037902201740911426,-0.06325627240143372,0.016991807475678446,-4.619404761904761,-0.3922811059907836,8.632939580133126,0.06762192780337942,0.12029089861751151,-0.07234383000512032,264.74367159498206,-28.104693100358425,2.6208573348694317,0.6537692113402459,0.14842942341781873,-0.1937008172324629,0.7162624603873531
133.0,0.05508909370199694,-0.059491039426523326,0.026354326676907333,-4.630755248335891,-0.3909165386584743,8.625878392217102,0.08693036354326676,0.07417434715821812,-0.04378840245775729,264.7482078853047,-28.184375,2.6222846262160777,0.6537255687480802,0.14887216633256528,-0.19420161875960062,0.7160816103684078
134.0,0.07334767025089609,-0.045136712749616,0.034930363543266785,-4.63590629800307,-0.38768663594470054,8.622639016897082,0.27630888376856116,-0.0007104454685099917,-0.06805875576036866,264.7582949308756,-28.220967741935482,2.589228110599078,0.6537527159139787,0.14925506882130055,-0.19425171657194062,0.7159666649114186
135.0,0.08872811059907834,-0.03886533538146443,0.04339708141321047,-4.63966692268305,-0.377637480798771,8.621427035330264,0.12538562467997952,0.042540322580645155,-0.06123111879160266,264.7864055299539,-28.245730926779313,2.5251664106502814,0.6538624335990784,0.14982914046185353,-0.19403865872222226,0.7158035655002563
136.0,0.1012278545826933,-0.04369790066564262,0.03517972350230417,-4.605527905785971,-0.3279047619047619,8.642496671786994,0.438952892985151,-0.2616039426523297,-0.02610727086533538,264.87035330261136,-28.012538402457757,2.1808179723502303,0.6547404579733743,0.15063253713056834,-0.19065636511827955,0.7157258009759349
137.0,0.09220276497695853,-0.04772811059907836,0.036455709165386596,-4.560143369175629,-0.2772319508448541,8.669139784946234,0.43618151561699947,-0.23410138248847928,-0.034101382488479264,264.9580261136713,-27.71124551971326,1.8405017921146953,0.6557543268535587,0.1510331144910394,-0.18684253906041984,0.715709390029186
138.0,0.08769636456733232,-0.04575473630312342,0.03573681515617001,-4.524086021505376,-0.2425765488991295,8.688584229390678,0.3107206861239119,-0.0747119815668203,-0.10273617511520737,265.08788402457753,-27.47435035842294,1.6028225806451613,0.6569142454249872,0.1512304223799283,-0.18390610735279053,0.7153682872278544
139.0,0.08237352790578599,-0.03710317460317462,0.032522785458269345,-4.501526881720428,-0.2249334357398873,8.701775985663087,0.3047555043522785,-0.02891705069124425,-0.1651065668202765,265.20900537634407,-27.326691308243724,1.4798963133640552,0.6578650429336917,0.15125062388120836,-0.18218585402662568,0.7149372575355863
140.0,0.08283998975934462,-0.04553635432667692,0.030786482334869445,-4.48915053763441,-0.19541474654377874,8.707899641577063,0.14733742959549412,0.12756656426011265,-0.12111175115207373,265.30107526881716,-27.246034946236556,1.2879992319508449,0.6585775204229389,0.15206686918074758,-0.180553292031234,0.7145333436692267
141.0,0.09153123399897596,-0.05441756272401436,0.035165898617511536,-4.492664106502817,-0.17176344086021497,8.707352022529442,0.2314372119815668,0.08455741167434716,-0.11965405785970303,265.36335925499236,-27.266986687147977,1.1273457501280082,0.6589504605793648,0.15322598940373783,-0.17973571878597033,0.7141423957980028
142.0,0.09376292882744497,-0.050313620071684606,0.03719764464925757,-4.478832053251406,-0.151679211469534,8.71539196108551,0.2791650665642601,-0.029825908858166925,-0.0976574500768049,265.4257152457757,-27.173983934971837,1.0003888248847925,0.6594791392905783,0.15354023420455704,-0.17834657691986688,0.7139331462636966
143.0,0.08609933435739886,-0.04199283154121865,0.035140296979006676,-4.465348182283666,-0.14126062467997946,8.72162007168459,0.15599718381976446,0.12199180747567842,-0.14014976958525344,265.4676459293395,-27.091868279569894,0.9291538658474142,0.6598588914121863,0.15356721882590885,-0.17741167438351257,0.7138080938223246
144.0,0.08567178699436764,-0.04146748591909884,0.03544214029697902,-4.461283410138247,-0.13945519713261648,8.724236559139786,0.16001984126984126,0.05628520225294418,-0.12382232462877624,265.4868471582181,-27.06221998207885,0.9044482846902202,0.6600264808566306,0.15356169174014334,-0.17708622531413207,0.7137365124815666
145.0,0.08750435227854583,-0.04424628776241681,0.03487608806963648,-4.458710701484893,-0.13505017921146953,8.726992831541219,0.15007040450588838,0.11506016385048642,-0.09293714797747055,265.49543970814136,-27.042226702508962,0.8774033538146442,0.660139522516129,0.15362960340143367,-0.17679912889810542,0.7136953396861238
146.0,0.0867178699436764,-0.04075089605734768,0.032720686123911935,-4.462030721966204,-0.14277496159754224,8.72358806963646,-0.015389784946236565,0.23726318484382997,-0.12885464669738864,265.5027441756273,-27.06729230670763,0.9343077956989247,0.6601553392211983,0.15347332017793136,-0.17724685079365077,0.713602777547107
147.0,0.0772094214029698,-0.04838300051203279,0.03047516641065029,-4.483912442396312,-0.1644772145417307,8.712168458781363,-0.09412122375832052,0.36798835125448026,-0.10469790066564261,265.50916538658475,-27.21096390168971,1.0813044034818227,0.6599483554408601,0.15342906331950842,-0.17889499968817207,0.7133861729011779
148.0,0.08135176651305687,-0.054324116743471595,0.03362775217613929,-4.511349974398359,-0.17112596006144393,8.698334613415259,0.10287218381976447,0.17071332565284178,-0.0843573988735279,265.5278801843318,-27.397308627752174,1.1268977214541729,0.6597624904823349,0.15426832997772658,-0.18021736167972352,0.7130452956502816
149.0,0.08618663594470048,-0.07467997951868921,0.035881976446492596,-4.541333589349717,-0.17491781874039936,8.682110855094722,-0.10450588837685612,0.35879416282642085,-0.17927547363031232,265.5345494111623,-27.589615335381463,1.1619031618023552,0.6595202560476189,0.15523203786968764,-0.18162077985867897,0.7127065090527395
150.0,0.09489016897081415,-0.1030852534562212,0.041869175627240164,-4.56928750640041,-0.17498975934459804,8.666843061955962,-0.03231726830517153,0.23921370967741934,-0.18448220686123912,265.55874935995905,-27.77454397081413,1.1670906938044034,0.6594151416405529,0.1562740701781874,-0.18276684018509987,0.7122774555122889
151.0,0.08261085509472607,-0.097810547875064,0.036494623655913994,-4.577909882232462,-0.2073604710701485,8.662028161802354,0.06356246799795186,0.10322580645161288,-0.11201036866359447,265.65291858678955,-27.830120327700975,1.3766961085509473,0.6599557033830005,0.15552304973067077,-0.18412262078699437,0.7115929578591911
152.0,0.08384920634920637,-0.08148131080389145,0.03400768049155148,-4.548171530977982,-0.1964083461341526,8.678336661546336,0.33108998975934456,-0.13306451612903228,-0.055630760368663594,265.78728878648235,-27.630670762928826,1.297276625704045,0.6610337496269842,0.1550171820681004,-0.18232229320455706,0.7111632119342035
153.0,0.08571044546850998,-0.084226318484383,0.033760112647209434,-4.547302611367128,-0.1871154633896569,8.67936098310292,0.06496255760368662,0.16134632616487454,-0.15844374039938555,265.8929163466462,-27.635059843830007,1.2347158218125958,0.6616409921029187,0.15554868357885307,-0.18184730130209925,0.7106083148783919
154.0,0.08812852022529442,-0.09222068612391193,0.03676804915514595,-4.54678750640041,-0.17972708653353808,8.679160778289816,0.1851190476190476,-0.05600358422939067,-0.08473822324628776,265.9538786482335,-27.620705325140808,1.1869143625192011,0.6620131697163338,0.15585870585304656,-0.18149109840194572,0.7102923927931384
155.0,0.0820688684075781,-0.09372785458269331,0.036494623655913994,-4.5449006656426,-0.17480363543266764,8.679999743983618,0.1720526113671275,0.007827700972862263,-0.14997279825908857,266.0002976190476,-27.611475934459804,1.146135752688172,0.6623264799779827,0.1561173014656938,-0.18112337017793134,0.7100350002444955
156.0,0.07745468509984639,-0.10188632872503842,0.033946236559139795,-4.541760368663594,-0.1688847926267281,8.680335893497189,0.158886968766001,-0.04592933947772658,-0.12536162314388122,266.0366071428571,-27.592924347158217,1.1131944444444444,0.6625416438868406,0.15629483869431648,-0.18074296137480794,0.7098868630389144
157.0,0.07492601126472094,-0.10953865847414235,0.03524756784434205,-4.533206349206349,-0.15772401433691755,8.685806451612903,0.2905993983614951,-0.2109831029185868,-0.11014304915514593,266.06367927547365,-27.535069444444446,1.040538594470046,0.662833320389401,0.15640165654992322,-0.17994804833000508,0.7097859443438299
158.0,0.05802406554019458,-0.10115924219150027,0.024012544802867387,-4.498163594470046,-0.14589324116743468,8.705603942652328,0.2911530337941628,-0.21859479006656424,-0.03805203533026114,266.13439580133127,-27.301497695852532,0.9640408986175115,0.6636486210855095,0.15557303386277524,-0.17798327714976958,0.7097040868305169
159.0,0.041458269329237074,-0.09599180747567845,0.013372759856630825,-4.477966205837173,-0.1540353302611367,8.715476702508962,0.09884152585765488,0.061373527905785985,-0.15491871479774708,266.2123591909882,-27.17315028161802,1.0057379672299027,0.664345318607271,0.15465015092780343,-0.1773507194485407,0.7094162591500252
160.0,0.031286738351254485,-0.0996779313876088,0.008750896057347671,-4.46437480798771,-0.1480084485407066,8.721185355862778,0.15106246799795187,-0.07648489503328212,-0.0647865463389657,266.26602982590884,-27.08683435739887,0.9707261264720942,0.6648288588335893,0.15445396470353306,-0.17655358116666664,0.7092125520081922
161.0,0.02077777777777778,-0.10527803379416281,0.0030089605734767025,-4.441828981054787,-0.13198361495135688,8.733997695852537,0.2102758576548899,-0.1486815156169995,-0.08008032514080901,266.30853014592935,-26.9345462109575,0.8646473374295955,0.6652930608684076,0.15426420572094213,-0.17497274534587814,0.7092020493553506
162.0,-0.002971326164874548,-0.09464618535586275,0.0006308243727598555,-4.434821300563236,-0.1514935995903738,8.737639528929854,0.07674411162314389,-0.02976190476190476,-0.16758832565284176,266.3930363543267,-26.887019969278033,0.9945436507936508,0.6659010276026627,0.15337696312032773,-0.17527117041935483,0.7087514480378905
163.0,-0.003175883256528417,-0.0865468509984639,-0.003628776241679468,-4.421655401945724,-0.1637416794674859,8.743952380952381,0.19788626472094212,-0.19526049667178702,-0.13796082949308755,266.5105254736303,-26.805030721966205,1.075107206861239,0.6667571857455197,0.15263109115873014,-0.17502702830286737,0.7081643200834613
164.0,-0.006323604710701484,-0.08725192012288788,-0.005891449052739375,-4.400675371223757,-0.16254736303123402,8.755569380440349,0.22660330261136713,-0.12972030209933436,-0.17673131080389146,266.60287698412696,-26.659571812596006,1.0672075012800817,0.6674640650501791,0.15200447109011778,-0.1739455569784946,0.7078995154270353
165.0,-0.007806963645673321,-0.08664439324116743,-0.006715309779825909,-4.386936763952893,-0.16155017921146958,8.761733998975934,0.22341109831029185,-0.1979534690220174,-0.11261680747567845,266.6835237455197,-26.572326228878648,1.0474574372759855,0.6680054674928317,0.15167052849436763,-0.17323393448924723,0.7076292785568357
166.0,-0.013538402457757297,-0.09285253456221199,-0.010851510496671789,-4.381151817716333,-0.16146057347670256,8.763325396825394,0.1295410906298003,0.04553731438812082,-0.16813236047107014,266.72334229390685,-26.544110023041476,1.0274529569892472,0.6682682432718897,0.15162342037071172,-0.1729476384114183,0.7074715381807478
167.0,-0.02760701484895034,-0.11057501280081924,-0.019180235535074253,-4.381333077316947,-0.1597043010752689,8.762706605222728,0.06992287506400409,-0.003525025601638518,-0.14634216589861748,266.7412634408602,-26.544036418330773,1.0117943548387096,0.6684036557488482,0.15169221846492578,-0.17284780731054783,0.7073527101477215
168.0,-0.04158576548899131,-0.12512621607782898,-0.026677931387608815,-4.379461341525856,-0.15531362007168464,8.763674091141828,0.21352886584741426,-0.07129096262160779,-0.1342149897593446,266.75588037634407,-26.537055171530977,1.0071012544802866,0.6685610828609834,0.15174915005683565,-0.17268744431387606,0.7072346397647209
169.0,-0.04187711213517667,-0.11218228366615463,-0.02654685099846391,-4.374533538146441,-0.1569175627240144,8.766617511520732,0.21482334869431646,-0.13695596518177164,-0.10303379416282643,266.81586021505376,-26.50010240655402,1.0196236559139784,0.6690123232718894,0.15156814994777265,-0.17246626922683048,0.7069028039190988
170.0,-0.041019969278033794,-0.10171991807475678,-0.01760266257040451,-4.3502391193036365,-0.15415770609319002,8.779260112647204,0.36103750640040966,-0.5677995391705069,-0.08929851510496672,266.88060035842295,-26.337836021505375,1.0112007168458783,0.6696502099907833,0.15081998948694314,-0.1713009288248848,0.7067307552150537
171.0,-0.0389431643625192,-0.08833461341525856,-0.02287045570916539,-4.300875320020482,-0.1424797747055812,8.804215309779826,0.20194732462877624,-0.2698732718894009,-0.13327252944188428,266.9848854326677,-26.014828149001534,0.9300243215565797,0.6707432809170507,0.149540820328725,-0.16874051990552993,0.706575769888633
172.0,-0.035439324116743484,-0.0832667690732207,-0.022044546850998464,-4.257377624167946,-0.12416999487967231,8.825096006144395,0.3329125064004096,-0.3581669226830517,-0.1685067844342038,267.07891225038406,-25.730560355862774,0.8028257808499744,0.6716939196431133,0.148703234859703,-0.16618906303968256,0.706458409715822
173.0,-0.029753712237583205,-0.09131080389144906,-0.02955273937532002,-4.224230926779313,-0.1103914490527394,8.841513056835641,0.09530369943676396,-0.15612199180747566,-0.26777713773681516,267.169580453149,-25.517021889400922,0.7301539298515105,0.6725937762910906,0.14806879535099848,-0.16428280215156166,0.706189277564004
174.0,-0.03686610343061957,-0.09768049155145929,-0.02195826932923707,-4.220269585253456,-0.11442959549411165,8.84361495135689,0.24397241423451102,-0.1868759600614439,-0.1944844470046083,267.2947756656426,-25.495630120327696,0.7399929595494112,0.6733958059457245,0.1479999007355351,-0.16409892795750125,0.7054839288312851
175.0,-0.027386584741423463,-0.10075320020481313,-0.01718125960061444,-4.203801843317972,-0.10638146441372251,8.852328725038408,0.17293586789554533,-0.11272401433691756,-0.12645289298515106,267.40643241167436,-25.386293522785458,0.6763920890937021,0.6741128217009726,0.14784603311469535,-0.16298694037839218,0.7050911056431131
176.0,-0.03848438300051204,-0.11424500768049156,-0.02663824884792627,-4.272261392729134,-0.11056451612903227,8.818701484895037,0.38326772913466456,1.2530977982590887,-0.4519233230926779,267.59173387096774,-25.833002112135176,0.7124215949820789,0.6746728528586788,0.15058429765258577,-0.16566004713799282,0.703318492452893
177.0,-0.04510240655401945,-0.10257501280081927,-0.014407834101382489,-4.446574244751664,-0.10473118279569893,8.730372247823862,0.2919082821300563,0.42476798515104974,0.1670714925755248,266.8416778673835,-26.970572516641063,0.6856518817204301,0.6684508088397336,0.15630157967306713,-0.17350204166487454,0.7060194639997439
178.0,-0.03490783410138249,-0.1018520225294419,0.0017073732718893998,-4.408497695852535,-0.09493727598566308,8.75125243215566,0.4159194188428059,-0.7443532386072709,-0.08719118023553508,265.86581541218635,-26.712744815668202,0.6241599462365591,0.662786128048899,0.15372497406144398,-0.17285669552329747,0.7120651448717358
179.0,-0.057059893995377864,-0.10741952090339188,-0.022622894784185103,-4.36277495467818,-0.07831880267364139,8.774648302680562,-0.08947911044685233,-0.09055956878537524,0.658423717496298,265.16137205754137,-26.414919614314776,0.5125720478543059,0.6588189107641328,0.15160020963074133,-0.1713363692638768,0.7165753546209158
180.0,-0.05116947592754044,-0.08415625302722078,-0.03806669572798605,-4.241234379540831,-0.09690133682069166,8.832396347960865,0.1666787755497433,-0.6481279666763538,-0.38130721447253707,264.91670753414706,-25.630850104136393,0.6279258088733894,0.6583317943129419,0.14604027501864766,-0.16739361827351545,0.7191090702838321
181.0,-0.04127918240821467,-0.08420178242758888,-0.029924924924924927,-4.458103748910201,-0.10594618812360751,8.71620265426717,0.24787791824082148,2.60542750411702,-0.25189352659110725,265.0653486147438,-27.0755336990216,0.6978954761212826,0.6572105013813814,0.15419891887581127,-0.17653185632761792,0.7159948433318802
182.0,-0.0330051826019568,-0.09110626755788045,-0.025383609415867484,-4.7505662113726626,-0.11058510123026254,8.559257241112077,0.15462892327811684,1.3898833309115566,-0.3549734210016468,265.2949950959023,-29.009569044851304,0.7424289208563402,0.6558594603412283,0.16545102095224257,-0.1884270259595079,0.711654996880994
183.0,-0.04073057389186422,-0.11028175641078866,-0.030942444748896375,-4.909414442091862,-0.11348865916607853,8.473732179183791,0.2643336308658889,0.6944048310983794,-0.28809938971229293,265.5287307468759,-30.062063388273064,0.7685374891020051,0.6558128843310085,0.17173528891851758,-0.19472951753018913,0.7086440125425195
184.0,-0.18541372247823856,-0.1780542754736303,-0.012436251920122899,-4.866846134152585,-0.09285253456221199,8.492502048131083,2.0346358166922682,-7.3254672299027135,-3.673991935483871,265.87558243727597,-29.76601062467998,0.6222446236559139,0.6584025960878136,0.1712177160222734,-0.1915725870243215,0.7069558467754735
185.0,-0.054047556773363224,-0.09709068515520128,-0.08739849988237088,-3.842650641424835,0.23204583385228547,8.92463848410623,4.256512243810631,-2.514828149001536,-5.748502736607575,274.5637130073622,-23.24400744350341,-1.4078683522231907,0.7168598469268623,0.15201291657030072,-0.12939840443061953,0.6603247551300839
186.0,-0.06077377838668162,-0.1165560952657727,-0.06671000262935749,-3.5210744246550703,0.48734012122721815,9.081795048504725,2.2187019104357812,-1.335007040450589,-3.0224928557589847,279.8255112975879,-21.137152691285756,-3.011113835609803,0.7498284732662985,0.15386169530575966,-0.09964434526190474,0.6299194837299165
187.0,-0.05430650004843554,-0.10492218485766874,-0.05721227218001414,-3.3795461729010112,0.5929489904651198,9.156293837616413,1.2133560115414954,-0.7244015616999487,-1.664838657782206,282.68417541965925,-20.199988756037143,-3.6647295048504724,0.7674542935752895,0.1550315009100483,-0.08596502950076806,0.6130652692014917
188.0,-0.0490359945198655,-0.09669560343753894,-0.04897582375001732,-3.3067326358616693,0.6441426979975371,9.195920088291054,0.7296042730518537,-0.4015729006656426,-0.9416935224394901,284.12051512918447,-19.712519979657074,-4.005460630561437,0.7763585116586125,0.15550711703259718,-0.07900887517997954,0.604558158932543
189.0,-0.05087846833008125,-0.08854211815502139,-0.04992365176236146,-3.268715780296426,0.6721349690704532,9.214084596116853,0.48627951107789813,-0.010135048643113168,-0.4708971644455516,284.85382675302026,-19.455448737908416,-4.180881716970427,0.7807826927051382,0.1557111162852438,-0.07541503148899131,0.6003088788445355
190.0,-0.06347081413210445,-0.0855647721454173,-0.05006886840757811,-3.2705358422939073,0.6838389656938044,9.212061187916031,0.30299699180747564,-0.16131752432155658,-0.20929339477726575,284.9644297235023,-19.482586085509475,-4.252148937532002,0.781360870255504,0.15627941642703536,-0.07488735069073223,0.5995308079275472
191.0,-0.07136507936507937,-0.08323143881208397,-0.051142857142857163,-3.2538556067588322,0.6965304659498208,9.216633896569386,0.35587557603686637,-0.18159562211981567,-0.22252304147465435,285.0119815668203,-19.38444380440348,-4.331781233998976,0.781705869784946,0.1560433889421403,-0.07376823121402971,0.5992788456610343
192.0,-0.07481755026916317,-0.03843487496713301,-0.0767075600946569,-3.738611325611325,0.2959782732040796,9.000247948409243,-7.181928010960269,4.646734104496201,7.671430906713164,280.7588413874704,-22.500362704294155,-1.745716093397545,0.7534901748648232,0.15716247713018086,-0.11317874896895283,0.6227075656829272
193.0,-0.04286576438189341,-0.03425776006421167,-0.03884661158854709,-4.259529677142581,0.015605624057236853,8.77825121434799,-3.5878278047632888,2.6507920074452334,3.6752651845393776,272.06322445717603,-25.835614819889013,0.01006646046968629,0.6986988371367127,0.15739203652207964,-0.1554419625982757,0.6728737638808902
194.0,-0.043529144351725,-0.03109150163988873,-0.029383367238205955,-4.6311268457397485,-0.1560753241720984,8.603014496062883,-1.8264407841020744,1.9676035050026985,1.982637072556427,266.4324666832731,-28.24550518260196,1.112288094546159,0.6621335614009216,0.15823689333426053,-0.18416399416242507,0.7038328640853504
195.0,-0.0415450381256833,-0.03933607340058953,-0.027160321611934518,-4.880339408532956,-0.25175630007888083,8.47762283942929,-0.9191567719793527,0.9983346826088761,0.9665649520488229,263.3488498290918,-29.881937179114598,1.740955875230069,0.6414939647147979,0.16007310404168223,-0.20200546653461754,0.7200352102102379
196.0,-0.049141182657311704,-0.05151596296757588,-0.028077856658501828,-5.011510718091364,-0.2979104081039564,8.411263032617871,-0.32504497585142755,0.5926293228712584,0.36545413501058654,261.84565187307123,-30.74047895822089,2.0393431449883064,0.6313608553020993,0.1613899456706107,-0.21105786770970508,0.7278614155290819
197.0,-0.056585509472606266,-0.07154505888376855,-0.03306246799795188,-5.0594669738863285,-0.29217665130568354,8.38747158218126,0.06557859703020992,0.09097222222222223,-0.14634696620583715,261.2652681771633,-31.05507552483359,1.9790674603174603,0.6274861912711212,0.16270381352841784,-0.213598731874808,0.7308330906198153
198.0,-0.06781336405529956,-0.0898809523809524,-0.04043804403481825,-5.0624126984127,-0.2822173579109062,8.387302099334356,0.21267281105990782,-0.04624775985663081,-0.1558627752176139,261.1902057731695,-31.071724590373783,1.9102886584741423,0.6270240021364565,0.16307975818894013,-0.21345553890783414,0.7312241641047105
199.0,-0.07359088581669226,-0.09607398873527906,-0.0431825396825397,-5.050168970814133,-0.2660977982590885,8.395463133640554,0.20855894777265743,-0.19153225806451613,-0.11830037122375832,261.21514656938047,-30.985283858166923,1.8000816052227342,0.6273428226853556,0.16324241104941115,-0.2123279715084485,0.7312382512706095
200.0,-0.07241372247823862,-0.10374039938556068,-0.04210650281618025,-5.034403481822837,-0.2567137736815156,8.403658986175117,0.22975550435227854,-0.21975806451612903,-0.11562980030721966,261.2368855606759,-30.890015360983103,1.7343541986687145,0.6276597180496668,0.1630836958069637,-0.21133316579006656,0.7312906189283156
201.0,-0.0750962621607783,-0.10451075268817203,-0.045200716845878154,-5.021022017409114,-0.24720942140296986,8.412599078341012,0.24595494111623145,-0.12929147465437787,-0.1646121351766513,261.27788978494624,-30.79869431643625,1.6715837813620071,0.628045902987967,0.1630908082398874,-0.21032275085816693,0.7312459521646186
202.0,-0.06948361495135688,-0.10860394265232973,-0.04217025089605737,-5.020134664618534,-0.24496671786994376,8.413118535586278,0.08629512288786483,-0.01357046850998464,-0.179976318484383,261.2972110215054,-30.79512448796723,1.6585125448028673,0.6281925858084998,0.1631847653609831,-0.21021193033947777,0.7311311073681515
203.0,-0.05355606758832566,-0.1106963645673323,-0.03316641065028163,-5.022747055811571,-0.2419815668202766,8.412274961597543,0.019086021505376343,0.07041730670762929,-0.12964029697900667,261.3065636200717,-30.816148233486942,1.6383960573476701,0.6282505040552995,0.16338255803225807,-0.21023297385304662,0.7310262220358423
204.0,-0.03655478750640041,-0.10018689196108552,-0.02288018433179724,-5.027150793650794,-0.24453405017921154,8.409925499231953,-0.007066052227342551,0.07389592933947772,-0.07086533538146442,261.310539874552,-30.841007424475166,1.6546818996415769,0.6282304051786995,0.16352884043241175,-0.21042392593573983,0.7309504599703023
205.0,-0.022600102406554023,-0.09920378904249871,-0.012997951868919614,-5.03315616999488,-0.24727598566308245,8.40567281105991,-0.029573092677931387,0.1615495391705069,-0.09815668202764977,261.3125,-30.884930235535073,1.6711469534050178,0.628164952579621,0.16367061034613423,-0.2107400817281106,0.7308878064633897
206.0,-0.008335381464413722,-0.09165207373271889,-0.0031487455197132634,-5.039785970302102,-0.24535842293906815,8.400650025601639,-0.053070596518177166,0.08846166154633896,-0.05995903737839221,261.3125,-30.928112199180745,1.6803315412186381,0.6280805698074754,0.16400230196825394,-0.21109989869918072,0.7307722343166921
207.0,0.001729134664618534,-0.09194674859190986,0.0012693292370711722,-5.0466861239119325,-0.2460081925243216,8.397026625704044,-0.01432731694828469,0.041769073220686126,0.004493087557603692,261.3125,-30.974593573988734,1.684475806451613,0.628001076050179,0.16417887036149514,-0.2114109091157193,0.7307160671408092
208.0,0.009089861751152074,-0.09060931899641576,-0.003408858166922683,-4.944496159754225,-0.23984997439836162,8.456546082949307,-0.033469342037890426,-1.121233358934972,0.19801587301587303,261.19601254480284,-30.280153929851508,1.6332325268817205,0.6282975850276495,0.16039387777112135,-0.20691459454608288,0.7325433308346134
209.0,0.004603174603174603,-0.095752688172043,-0.005499231950844853,-4.99510650281618,-0.2472636968766001,8.424997951868919,0.0007104454685099848,0.12201100870455706,0.04905273937532002,260.87074372759855,-30.639544930875577,1.6875,0.6256128075227855,0.16144009192319508,-0.20994606191909876,0.7337035791807477
210.0,-0.00397951868919611,-0.09531874039938557,-0.005261136712749616,-4.95592754736303,-0.2676999487967229,8.448743727598568,0.08079557091653866,-0.032373271889400965,-0.00033922171018945305,260.4616935483871,-30.368473182283665,1.8111559139784945,0.6233480094690221,0.15839626682181263,-0.20938920764157706,0.7364860529743986
211.0,-0.012939580133128525,-0.10493087557603689,-0.008732718894009218,-4.936229902713772,-0.27960266257040434,8.461132616487458,0.021748591909882233,0.04631336405529953,-0.02212301587301587,260.241935483871,-30.23141961085509,1.8783602150537635,0.6220901120015361,0.15685385626932924,-0.2091951043584229,0.7379631293814649
212.0,-0.023137992831541228,-0.12558525345622118,-0.014463133640552999,-4.924649513568868,-0.2832898105478749,8.468266769073221,0.032648489503328215,0.05083525345622118,-0.048907130056323606,260.1320564516129,-30.154649897593444,1.9119623655913978,0.6214960180099846,0.1560725060793651,-0.2089995373635432,0.7387039638105484
213.0,-0.033598566308243746,-0.141484383000512,-0.019995903737839226,-4.924345366103431,-0.28439580133128517,8.468443420378907,0.11304243471582182,0.0475950460829493,-0.05561955965181772,260.08165322580646,-30.150577636968766,1.9241711469534049,0.6212257003804403,0.1558596871884281,-0.20908774769610855,0.7389625659733744
214.0,-0.03385125448028675,-0.12704147465437787,-0.018044546850998468,-4.925743471582183,-0.30698284690220173,8.465288018433181,0.10079205069124425,0.011392729134664617,-0.030721966205837174,260.09615815412184,-30.15870615719406,2.0693324372759854,0.6213348733981052,0.15508911010855098,-0.2099345254295955,0.73879454084511
215.0,-0.030143369175627252,-0.11964746543778801,-0.016314900153609833,-4.933185355862776,-0.3243471582181259,8.462478238607273,0.05896377368151562,0.0361463133640553,-0.05968221966205837,260.1111111111111,-30.206397209421404,2.1916026625704044,0.6214377642089093,0.15472842331771638,-0.2107658733415258,0.7385577233929848
216.0,-0.03107526881720431,-0.11132462877624166,-0.019152073732718898,-4.9381966205837164,-0.33298003072196614,8.45962621607783,-0.032626088069636454,0.002672171018945209,-0.006739631336405528,260.11906362007164,-30.23833525345622,2.2580997183819767,0.6214851229109064,0.15451625715616998,-0.21120723417972342,0.7384314655540193
217.0,-0.029620583717357922,-0.11275908858166922,-0.017373271889400924,-4.939462365591396,-0.3373655913978494,8.459605734767027,0.0023505504352278536,-0.06588741679467486,0.05769009216589861,260.123039874552,-30.246471774193548,2.291348246287763,0.6214914999946237,0.1543112713661034,-0.21144015358755752,0.738403217035074
218.0,-0.02975652841781875,-0.10806861239119303,-0.017745775729646703,-4.934148745519712,-0.33958781362007157,8.460788530465955,0.046566180235535076,-0.12392153097798259,0.08697676651305683,260.125,-30.213429659498207,2.3081685227854587,0.6215447781917565,0.15397980892677926,-0.21129664982693286,0.7384582059772143
219.0,-0.02868202764976959,-0.10068305171530978,-0.01764976958525346,-4.92689964157706,-0.33999999999999986,8.46555555555556,0.025467229902713773,-0.1142121095750128,0.09559971838197645,260.125,-30.16812275985663,2.3121543778801845,0.6215963032043013,0.15369457786840748,-0.2110301417055811,0.7385533800092163
220.0,-0.026013824884792633,-0.09985765488991295,-0.015230414746543783,-4.9231272401433674,-0.33999999999999986,8.467939068100362,-0.014340117767537124,-0.05612679211469534,0.05842773937532002,260.125,-30.14454525089606,2.3125,0.6216214586021507,0.15356192599871984,-0.21088903192191502,0.7385963422857142
221.0,-0.031277521761392736,-0.10618330773169482,-0.017301587301587307,-4.92521505376344,-0.34501792114695334,8.466594982078853,-0.1252816180235535,0.15336021505376343,-0.06826036866359447,260.122311827957,-30.158490143369175,2.344758064516129,0.6215695322222223,0.15343947917767534,-0.2111594849349718,0.7385867364475167
222.0,-0.034795442908346144,-0.09960317460317461,-0.02063696876600103,-4.926119047619047,-0.35238914490527384,8.46403481822837,0.045510112647209416,-0.1286194316436252,0.09026497695852534,260.0784946236559,-30.166457053251406,2.378398617511521,0.6211804024060421,0.1531882680358423,-0.2115249607485919,0.7388632084910394
223.0,-0.032106502816180243,-0.09972094214029699,-0.01790809011776754,-4.917759344598053,-0.35135586277521746,8.46714285714286,0.06514976958525345,-0.09460765488991295,0.02900345622119816,260.0372311827957,-30.112602406554018,2.3454493087557604,0.6209086298678955,0.15296358224372755,-0.21119822207680483,0.7392297526774192
224.0,-0.02850844854070661,-0.08576548899129544,-0.010535586277521764,-4.9174459805427535,-0.35126932923707105,8.468284690220177,-0.04280593958013314,-0.1012352790578597,0.13384536610343062,259.9834453405018,-30.099983998975933,2.3549603174603178,0.6206256810450587,0.15279077617562722,-0.21121238270506906,0.7395021966523296
225.0,-0.005704301075268817,-0.05934357398873527,0.0016779313876088041,-4.9263215565796195,-0.3638425499231952,8.462117255504353,-0.11823796722990271,0.09538210445468509,0.02720814132104455,259.9251904121864,-30.15908698156682,2.468138760880696,0.6201411865619557,0.15240050124193552,-0.21217668398694314,0.7397165251976445
226.0,0.017642601126472104,-0.033612903225806456,0.012802355350742447,-4.952086021505375,-0.39040040962621614,8.44667383512545,-0.2820948540706605,0.23834805427547362,-0.037749615975422424,259.86941884280594,-30.327406554019454,2.6400025601638504,0.6195755644679977,0.15221459934255,-0.2142627539329237,0.7396152791950844
227.0,0.02979262672811061,-0.021603174603174603,0.01940015360983103,-4.968467997951867,-0.40618177163338454,8.437830005120329,-0.08709837429595496,0.053073796722990285,-0.012067972350230416,259.8373303891449,-30.435045442908347,2.7641225038402455,0.6192331137050688,0.15200822531285207,-0.21557935222196623,0.7395648324244751
228.0,0.03808090117767539,-0.013170250896057348,0.02498796722990272,-4.970349206349205,-0.4142199180747568,8.434302099334362,-0.10667242703533027,0.08563748079877112,0.030358742959549413,259.821891001024,-30.461675947260623,2.8203389016897082,0.6191361562718891,0.15179649980133136,-0.21597035632565287,0.7395900106776756
229.0,0.04123579109062982,-0.013014336917562727,0.02774935995903739,-4.975900409626215,-0.4182255504352278,8.431514848950338,-0.013349654377880181,0.019465245775729653,0.05261776753712237,259.8152073732719,-30.487474398361496,2.855929979518689,0.6190570901968764,0.1517738899185868,-0.21630393042985158,0.739553528578085
230.0,0.04292473118279572,-0.007564772145417308,0.028410650281618037,-4.973076804915513,-0.4192442396313364,8.433576036866361,-0.05523553507424475,0.09733422939068101,0.053347414234511004,259.8156105990783,-30.483582949308754,2.844530849974398,0.6190958329769582,0.15172864698054278,-0.21621273740809016,0.7395592806497697
231.0,0.04162877624167949,-0.00589656938044035,0.029468509984639027,-4.97545135688684,-0.4248663594470045,8.431464413722482,-0.04741423451100871,-0.036320724526369697,0.08751280081925242,259.84255632360464,-30.489333717357912,2.864588133640553,0.6191059459477726,0.15166171508474147,-0.21643487954019455,0.7395011459854072
232.0,0.036841781874039956,-0.013663594470046085,0.022450588837685616,-4.9829851510496646,-0.4301013824884792,8.427635432667692,-0.04946236559139785,-0.03709037378392217,0.08950332821300563,259.8275281618023,-30.552227342549923,2.914061699948797,0.618989538252944,0.15171476163594472,-0.21698133029134659,0.7394340445980545
233.0,0.036062467997951875,-0.012442140296979008,0.02136456733230927,-4.982509472606245,-0.43207578084997433,8.426921658986174,0.02558563748079877,-0.05889016897081413,0.09201548899129544,259.82001408090116,-30.54623015873016,2.934216589861751,0.6189285125171528,0.15160599738120836,-0.21703364906579614,0.7394898248448541
234.0,0.03091705069124425,-0.015568868407578087,0.019497695852534566,-4.982295954941117,-0.42397337429595494,8.427576036866363,-0.06580261136712749,0.1114311315924219,0.003245007680491546,259.8162570404506,-30.536939964157707,2.886175115207373,0.6189563769134663,0.15185887142908344,-0.21680715870455708,0.7394784324004098
235.0,0.0316710189452125,-0.020350230414746547,0.021331029185867902,-4.986914490527394,-0.4271664106502815,8.423812083973374,0.01889080901177676,-0.07709293394777267,0.08235727086533537,259.8142921146953,-30.57986271121352,2.88139400921659,0.6188627903824884,0.15196301231720433,-0.2170769670322581,0.7394531342852025
236.0,0.03468407578084999,-0.0159815668202765,0.02365386584741424,-4.986217101894523,-0.4285832053251407,8.424190988223245,0.026414490527393756,-0.04145865335381465,0.02588965693804403,259.8125,-30.572273425499233,2.878084997439836,0.6188384823507422,0.1519018303655914,-0.21707504344444445,0.7394845990153611
237.0,0.04348796722990272,-0.022130056323604715,0.011430107526881724,-4.7154157706093205,-0.3193924731182795,8.562532770097285,2.203920250896057,-4.981536418330772,-0.4374199948796723,260.07594086021504,-28.76640104966718,2.145769329237071,0.6228948286996926,0.14687120751356886,-0.2012488146080389,0.7408525971769073
238.0,0.028195596518177164,-0.028950332821300565,-0.005512544802867382,-4.0567132616487465,-0.02782795698924731,8.878260112647208,1.5027777777777775,-2.8435067844342035,-0.19513248847926268,260.9773745519713,-24.51072068612391,0.2466077828981056,0.6340804807700972,0.13645585198259086,-0.16256978572247824,0.7421462881986687
239.0,0.018835125448028674,-0.03152329749103943,-0.008924731182795699,-3.870008960573477,0.028781362007168493,8.980752688172043,-0.35909498207885304,0.1518257168458781,0.15731406810035842,261.42271505376345,-23.284498207885306,-0.146505376344086,0.6386459511111111,0.13270333700716846,-0.15221610089605736,0.7417504649283155
240.0,0.014329167877554973,-0.017320304175142888,-0.005954664341761116,-3.854158432626175,0.004168361910297399,9.00028019955439,-0.14624200813716942,-0.14496149375181633,0.190319856146469,261.37523612322,-23.16235893151216,-0.009771868642836398,0.6386732242947787,0.13102740220696502,-0.15237985014990796,0.7424314594209532
241.0,0.01289627876724651,-0.01245802715157554,-0.004578202626589724,-3.8380447821092982,-0.006464206141625507,9.013400340432597,-0.28652826213310084,0.2917425634159506,0.15548778905633742,261.3496284302736,-23.043996286032574,0.04643895047120853,0.6386992638437541,0.12995255628282198,-0.15207224353386334,0.7428827372364625
242.0,0.0018872074839816773,-0.01853636124603867,-0.0034315744315744313,-3.9551603838861897,-0.062380848590525985,8.9643524999654,-0.4993349195970163,0.928157348016219,0.08818856298695008,261.1857349140615,-23.79588367169012,0.40465988742198417,0.6368083004030598,0.13167031241560453,-0.15903064390402843,0.7427889132150056
243.0,0.0020143922724567883,-0.022610474529829373,-0.0023788696530632008,-4.046133059326607,-0.11222537053182215,8.924237181882338,-0.3070431318415189,0.40614296612280476,0.06391955031067934,261.079734616529,-24.37520438064793,0.7401043612737161,0.6353657597131783,0.1326799457597736,-0.1646615799986092,0.742653729443524
244.0,0.005417334385076321,-0.017988929021187088,0.00017398043204494866,-4.075298736524543,-0.13332940313585467,8.911115262728167,0.0019939870746322336,0.051456179681986125,0.05721499148918503,261.0269024785154,-24.55105745146068,0.8756701401862692,0.6347796696072292,0.13276083688731127,-0.1666112714192995,0.7427275175142607
245.0,0.00798668714797747,-0.019112647209421404,0.0018422939068100362,-4.083117255504352,-0.1459851510496672,8.908515104966718,-0.11299603174603173,0.12146697388632872,0.008013312852022524,260.9874231950845,-24.60528993855607,0.9568036354326676,0.6345520842432155,0.13252040238146445,-0.16742478158730156,0.7427953421950844
246.0,0.01013620071684588,-0.015477982590885817,0.004202252944188429,-4.094130056323605,-0.155089349718382,8.901340501792113,-0.031411610343061946,-0.011472734254992317,0.00213453661034306,260.95698924731187,-24.68847446236559,1.0237359190988222,0.6343548037667688,0.13252213306169996,-0.16827713526830507,0.7427880754339478
247.0,0.006044802867383513,-0.013935227854582694,0.0044308755760368666,-4.0857030209933445,-0.1583108038914491,8.905697132616488,-0.019262032770097283,-0.30042722734254995,-0.03287090373783923,260.94623655913983,-24.631619623655915,1.0475982462877624,0.6343623955527393,0.1320428280407066,-0.16803694111085504,0.7429156630440351
248.0,0.016888888888888894,-0.014418330773169487,-0.0017675371223758313,-4.0563282130056315,-0.16448694316436252,8.919591397849462,-0.0279441884280594,-0.17852342549923197,0.015178571428571427,260.94175627240145,-24.437029569892474,1.0561411930363542,0.6345477931751151,0.13084974656067588,-0.16689696581976443,0.743218756513057
249.0,0.01936149513568869,-0.01332437275985663,0.0021761392729134667,-4.030947516641065,-0.1676075268817204,8.930537634408601,0.01912122375832053,-0.16256240399385563,0.025907258064516124,260.93862007168457,-24.27159658218126,1.0608758960573477,0.6347013750253456,0.12989712518817204,-0.1658919884720942,0.7434743360860214
250.0,0.01894828469022018,-0.010325652841781875,0.0016241679467485922,-4.013526369687661,-0.16905017921146948,8.939014848950329,0.0029505888376856124,-0.10709485407066052,0.04943036354326677,260.93772401433694,-24.159037378392217,1.0625,0.6348107293220685,0.129227782499232,-0.16520480190271375,0.7436525046159755
251.0,0.01787813620071685,-0.0066943164362519205,0.0038648233486943163,-4.002897849462366,-0.16968637992831537,8.943056835637478,0.02419674859190988,-0.028349014336917562,0.026507296466973886,260.93761200716847,-24.087596006144395,1.0625,0.6348450008612393,0.1289025107258065,-0.16481341704813107,0.7437607666961087
252.0,0.013778545826932925,-0.009777009728622632,0.0030404505888376844,-4.00196850998464,-0.16999999999999993,8.942602150537631,-0.0031778033794162847,-0.04336597542242704,0.06869559651817717,260.93755600358423,-24.079662698412697,1.0625,0.6348457500739889,0.1288208601497696,-0.16474194239196108,0.7437912668366616
253.0,0.0143399897593446,-0.004785458269329238,0.003079365079365079,-3.990612391193037,-0.16512544802867385,8.946587813620068,0.10296979006656426,-0.08703917050691243,-0.01415130568356375,260.9375,-24.006061187916025,1.0329301075268815,0.634958712747568,0.1285738832514081,-0.16415890027752184,0.7438714119487968
254.0,0.0233405017921147,-0.0002775217613927292,0.007046594982078852,-3.981753200204813,-0.1624014336917563,8.951547363031231,0.0844342037890425,-0.1554147465437788,0.05038402457757296,260.9375,-23.950352022529444,1.0154569892473118,0.6350373436641066,0.12838561216948285,-0.16369540841065033,0.7439339278730159
255.0,0.030156682027649775,0.006867383512544803,0.008379416282642087,-3.978852022529442,-0.16103942652329753,8.952984126984123,0.007587685611879162,-0.0017185099846390023,0.0034594214029697937,260.9357078853047,-23.93202444956477,1.006720430107527,0.6350602453189964,0.1283346787457757,-0.1634989293952893,0.7439692561095749
256.0,0.024845366103430622,0.004921146953405018,0.005094726062467998,-3.9790317460317466,-0.16523297491039426,8.956725038402457,-0.004998719918074754,-0.02219662058371735,0.050060803891449054,260.9043458781362,-23.932242063492062,1.0346102150537635,0.634911401189964,0.12808916754941113,-0.16356364538760887,0.7441228692555043
257.0,0.02554249871991808,0.018004352278545827,0.005754736303123399,-3.9679306195596524,-0.16304505888376858,8.960878648233486,0.01550179211469534,-0.11406490015360983,0.050980862775217614,260.8877432155658,-23.86517057091654,1.0273569508448541,0.634925650797747,0.12779150143829998,-0.16310506500716848,0.7442668970793651
258.0,0.02170046082949309,0.027788018433179733,0.00598668714797747,-3.9573210445468523,-0.17671070148489512,8.964471582181261,-0.04119623655913979,-0.12216461853558629,0.05027201740911418,260.84810547875065,-23.797308627752173,1.1094726062467997,0.6346439916175113,0.1268042653517665,-0.1632002066164875,0.7446559466041986
259.0,0.014020737327188941,0.041115207373271914,0.002375832053251408,-3.9479646697388633,-0.18501894521249368,8.967461597542247,-0.09447484639016897,-0.06857078853046596,0.001201676907322067,260.80340181771635,-23.73894809267793,1.1763952892985152,0.6344562785,0.12607424067127493,-0.16322354234511005,0.7449308940256014
260.0,0.011584741423451101,0.0553246287762417,0.0051932923707117265,-3.937369431643625,-0.19430158730158736,8.97099334357399,-0.07929947516641064,-0.15939740143369174,0.044255632360471066,260.7755248335893,-23.672761456733227,1.235151049667179,0.6343792794336917,0.12531594996825396,-0.16313570772273425,0.7451435950414746
261.0,0.009384591965237127,0.06555997010835721,-0.00036409681570971847,-3.9558993094476964,-0.1484021256279321,8.963404256791355,0.5822239001674485,0.7483211033614259,-0.23221775923388824,260.89065038540843,-23.794696655180523,0.9439432231770941,0.6349717610333235,0.1279621849642684,-0.16225190386875352,0.7443625818712168
262.0,0.0028438576825673603,0.05739032811613458,-0.004297767813896845,-4.068228200550781,-0.13382420669517445,8.913317591785336,-0.23362883332641393,0.3612861277175793,0.029980470101437853,261.05131277590954,-24.50798580838903,0.8578267063146094,0.6351092025125655,0.1326749707279099,-0.16622766698301986,0.7425210682822547
263.0,-0.006176637466960048,0.05764229667455476,-0.008699063118417956,-4.101766430024495,-0.15016479151963025,8.898258258258258,-0.3196874005341747,-0.0045327873956906295,0.04114390888584438,260.9731250259476,-24.725991112079818,0.9581752259171613,0.6343459032858527,0.13310641844191196,-0.16826460361695794,0.7426579012558228
264.0,-0.010576797996152836,0.06350778428197784,-0.008759669808056904,-4.091671233445426,-0.17387963078285668,8.903013921755857,-0.12899692607353896,-0.236943813052684,0.0562862401572079,260.89359016274335,-24.658358459265717,1.1043180277051245,0.6338991170945394,0.13165727204123245,-0.1687148500619352,0.743211685153257
265.0,-0.017062592546463515,0.07395819321625774,-0.008237361785748881,-4.071364290557838,-0.18762081897565774,8.910637785250689,-0.1683011064059451,-0.1352449800030445,-0.017107775978743717,260.85399714230357,-24.53698052891601,1.1882477235299815,0.6337636671897429,0.13038676807706784,-0.16842014366448022,0.7436257293463415
266.0,-0.02634920634920636,0.08165514592933949,-0.01331746031746032,-4.046709421402969,-0.19638146441372256,8.922407322068612,-0.09159466205837173,-0.2566116231438812,0.06754992319508449,260.8301971326165,-24.38964093701997,1.2608086917562722,0.6337616362314389,0.12912900412621603,-0.16776152114772147,0.7439989580686123
267.0,-0.030764208909370205,0.09925499231950846,-0.016999231950844858,-4.021414746543779,-0.19947209421402978,8.932390937019969,-0.01507936507936508,-0.1708125320020481,0.054272273425499236,260.81507616487454,-24.221534178187405,1.2773297491039424,0.633842126906042,0.12807199309805423,-0.16683792810522266,0.7443153830396825
268.0,-0.0415499231950845,0.10400409626216078,-0.02127496159754225,-4.008619559651818,-0.20468868407578086,8.939576036866356,-0.18733038914490527,-0.06757232462877623,0.0530241935483871,260.8125,-24.128408218125962,1.3100070404505888,0.6338896244126985,0.1273679009247312,-0.16641607850896054,0.7444871113092676
269.0,-0.04936175115207375,0.0987767537122376,-0.023402457757296477,-3.9987644649257548,-0.20869406041986688,8.94543778801843,-0.17161898361495134,-0.11783954173067077,0.011976766513056835,260.8125,-24.06229998719918,1.329286674347158,0.6339449816743472,0.12680852352636968,-0.16611115760983103,0.7446036062368149
270.0,-0.052705069124423985,0.09233640552995394,-0.026208397337429606,-3.9908786482334877,-0.22396620583717364,8.948202764976955,-0.2393433179723502,-0.09232590885816692,0.07008448540706605,260.7856182795699,-24.01051267281106,1.413831285202253,0.6339401428264211,0.12595999222017412,-0.16629093416333843,0.7447134979257549
271.0,-0.056177419354838734,0.09044930875576038,-0.023283922171018955,-3.9780015360983105,-0.23244854070660534,8.952294930875576,-0.08225806451612902,-0.24383000512032768,0.09466205837173579,260.7668010752688,-23.93054435483871,1.4599398361495135,0.6339712876021506,0.12520823455709168,-0.1660854938189964,0.744858441958269
272.0,-0.057931899641577085,0.10516641065028162,-0.024361495135688693,-3.9448161802355344,-0.22998771121351785,8.966505888376858,-0.0532258064516129,-0.24333077316948282,0.09493407578084997,260.7573924731182,-23.720116487455197,1.451296082949309,0.6342387550286739,0.1241354837480799,-0.16462643241577057,0.7451375851950841
273.0,-0.06297977470558119,0.1142242703533026,-0.02826267281105992,-3.9230890937019955,-0.2303394777265747,8.977260624679982,-0.042300307219662055,-0.16236239119303633,0.04483966973886328,260.752688172043,-23.58216845878136,1.4460685483870968,0.6343923355179211,0.12332735941833073,-0.16369783439733743,0.7453421971315921
274.0,-0.06716077828981057,0.1261041986687148,-0.031571428571428584,-3.9100660522273425,-0.2354703020993345,8.984128008192528,-0.10445628520225295,-0.11887800819252431,0.04219470046082949,260.75033602150535,-23.495929339477726,1.4865863415258578,0.6344232751536097,0.12259441311111109,-0.1633824122598566,0.7455065724175624
275.0,-0.06925243215565798,0.13808346134152588,-0.030239119303635445,-3.897210445468509,-0.24264106502816188,8.987709165386587,-0.1234927035330261,-0.10228174603174603,0.05587557603686635,260.75,-23.416871479774706,1.5445084485407066,0.6344198486431132,0.12182020831182795,-0.16319632748745516,0.7456705153978495
276.0,-0.07983358934971839,0.14429518689196108,-0.03278315412186381,-3.889711213517664,-0.25135279057859694,8.989407578085,-0.1716829877112135,-0.01899801587301587,0.03798963133640553,260.75,-23.370561315924217,1.6033602150537634,0.6343927258469022,0.12124436864439322,-0.1632548495179211,0.7457785409062979
277.0,-0.0771031746031746,0.14777931387608803,-0.04136021505376345,-3.8873108038914483,-0.25549718381976444,8.990734254992322,0.03280209933435739,-0.13200684843830005,0.029131464413722476,260.7410394265233,-23.35508352534562,1.6369175627240145,0.6343141150829493,0.12095663954173064,-0.1633058897007168,0.7458810162596006
278.0,-0.06843061955965182,0.12595954941116227,-0.03521863799283155,-3.884121351766512,-0.2038955453149001,8.995008704557094,0.038578469022017406,-0.16689388120839732,0.0388152841781874,260.6783154121864,-23.32866743471582,1.3060259856630825,0.6340484443425498,0.12278162361495135,-0.16139846654838708,0.746225945970302
279.0,-0.06374526369687662,0.10236226318484382,-0.02973374295954942,-3.8866044546850986,-0.18110445468509978,8.994868407578087,-0.1863271249359959,-0.07388472862263185,0.06580741167434716,260.6173835125448,-23.33622311827957,1.151976126472094,0.6336130446321045,0.12365294271070146,-0.1607460810207373,0.7465928880957504
280.0,-0.058687147977470586,0.08793292370711726,-0.031891961085509485,-3.8861920122887854,-0.17326728110599077,8.994871479774707,0.022119815668202758,-0.06782834101382489,-0.009463005632360466,260.6111111111111,-23.341554659498208,1.1066500256016383,0.6335441723922173,0.12396198393599588,-0.16049874711879158,0.7466525419242193
281.0,-0.06403020993343576,0.07873143881208397,-0.03307962109575014,-3.8578010752688163,-0.14674423963133637,9.007329749103942,0.06514976958525345,-0.40891417050691237,0.09351158474142345,260.6077444956477,-23.164354518689194,0.935813492063492,0.6337214081454173,0.12403585721684587,-0.15841844849948794,0.7469331787547363
282.0,-0.06795596518177165,0.0663325652841782,-0.03151740911418332,-3.8470143369175607,-0.12224756784434203,9.0121146953405,-0.13330773169482849,-0.027569764464925733,-0.007371671786994369,260.57520961341527,-23.094526049667177,0.773518305171531,0.6336210241623146,0.12461276302150538,-0.15710938971121347,0.7471980858827445
283.0,-0.06971274961597543,0.055706605222734275,-0.03292268305171532,-3.8426917562724014,-0.11540245775729643,9.012383512544798,-0.128257808499744,-0.14052099334357399,0.028712237583205315,260.5356726830517,-23.070980542754736,0.7256368407578084,0.6335201327352793,0.12476120587455199,-0.1567919759129544,0.7473344217854585
284.0,-0.0698794162826421,0.05486712749615978,-0.03346594982078854,-3.8395163850486442,-0.11556758832565285,9.01645442908346,-0.14149065540194572,-0.0677547363031234,0.006435611879160262,260.5168282770097,-23.04925755248336,0.7280257936507937,0.6334541106856117,0.12458082794649256,-0.15666176259242193,0.7474424294042498
285.0,-0.06591858678955455,0.05614592933947776,-0.03329237071172557,-3.839018945212495,-0.1170087045570917,9.01863492063492,-0.11574820788530467,-0.09369879672299027,0.04045058883768561,260.50665002560163,-23.019950076804918,0.7484671018945213,0.6333741638643113,0.12437980390937019,-0.15668781629697898,0.7475461244377877
286.0,-0.06566538658474144,0.05501203277009732,-0.0338709677419355,-3.8438100358422944,-0.11843061955965188,9.015321556579618,-0.03168042754736303,0.03384056579621096,-0.037516001024065534,260.5015681003584,-23.05480670762929,0.7745279697900666,0.6332934735378903,0.12446354283333333,-0.15698196252841778,0.7475314751415771
287.0,-0.060280593958013336,0.05431105990783412,-0.031336661546338976,-3.8544754224270363,-0.12303225806451612,9.009465437788018,-0.07528801843317973,0.10644681259600615,-0.026294482846902202,260.5,-23.135599078341013,0.7870135688684075,0.6331762109060421,0.1246742461600102,-0.15758428858090115,0.7474636260995902
288.0,-0.04763133640552997,0.05894316436251923,-0.026873527905785982,-3.867027137736815,-0.1268387096774193,9.002958525345623,0.03504864311315924,0.11463133640552994,-0.06615463389656938,260.5,-23.222817460317458,0.813421658986175,0.633061380233487,0.1249498967403994,-0.1582656606031746,0.7473738626779315
289.0,-0.04112442396313365,0.058669738863287274,-0.025427547363031246,-3.8768453661034292,-0.128626728110599,9.000866359447006,-0.04990079365079365,0.09870391705069124,-0.01720750128008192,260.5,-23.28038914490527,0.8417914746543779,0.6329898465130568,0.12519611083563748,-0.15873744131541218,0.7472911666292885
290.0,-0.035050691244239644,0.054779313876088094,-0.02250179211469535,-3.885662826420891,-0.1294746543778801,8.995236047107017,0.015772209421402977,0.12114535330261136,-0.0823076676907322,260.5,-23.341778673835123,0.8572628648233487,0.6329204263748079,0.12547007690937018,-0.15914526686763955,0.7472112565225297
291.0,-0.02808090117767538,0.06522119815668204,-0.020014336917562728,-3.8857839221710178,-0.1221566820276497,8.995557091653868,0.08676715309779827,0.007341269841269843,-0.08335253456221198,260.5376344086021,-23.343324372759856,0.7911706349206349,0.6331405468970812,0.12583765089196108,-0.15885314526625705,0.7470296251474656
292.0,-0.016980542754736306,0.07141244239631336,-0.013818228366615466,-3.8884541730670756,-0.11595391705069119,8.994469790066567,0.08318772401433691,0.14263952892985152,-0.07917626728110598,260.58241167434716,-23.360890296979008,0.7385288658474143,0.6333458288817204,0.12632515400819253,-0.1586995962598567,0.7468133942741937
293.0,-0.00876804915514593,0.06967127496159754,-0.012849974398361493,-3.8975873015873006,-0.10362211981566818,8.989685611879164,0.39780465949820787,-0.06308883768561185,0.08748399897593445,260.5071556579621,-23.420196492575528,0.656870839733743,0.632874619799283,0.12705569363492064,-0.15875382982795708,0.7470722091218638
294.0,0.006657962109575011,0.07174500768049154,-0.016785970302099336,-3.7646963645673326,0.0950885816692269,9.043024065540193,1.108797363031234,-0.758646953405018,-0.05172971070148491,260.64963517665126,-22.580246735791093,-0.6013040834613416,0.6347002385079363,0.13069053618561186,-0.14618738148796728,0.747340136998208
295.0,0.018149769585253456,0.050245263696876596,-0.0099342037890425,-3.7405650281618024,0.1700711725550436,9.054209165386585,0.08811283922171015,0.053976254480286756,0.02658250128008192,260.671591781874,-22.42719214029698,-1.0736415130568358,0.635019977112391,0.13292513254173066,-0.1425789892744496,0.7474236323566309
296.0,0.03323707117255505,0.047998975934459814,-0.004675883256528419,-3.747984126984127,0.18997286226318486,9.051392217101897,0.21091909882232462,-0.1040322580645161,0.018247567844342037,260.65630440348184,-22.475188812083974,-1.1990911418330774,0.6348735221628264,0.13399129420993344,-0.1422129207214542,0.7474672398745519
297.0,0.05611162314388122,0.05018842805939582,0.0035468509984639017,-3.7660473630312343,0.20264541730670765,9.044820532514082,0.11718189964157705,0.06336405529953917,-0.07264464925755248,260.69598054275474,-22.587796018945212,-1.2751792114695342,0.6349735114915516,0.13517734454275476,-0.1424964140243216,0.7471337953381973
298.0,0.07682821300563236,0.05152790578597033,0.009999231950844855,-3.772141065028163,0.21120174091141836,9.04185919098822,0.008859767025089609,0.16485855094726062,-0.09579813108038915,260.7280865975422,-22.62765136968766,-1.3244175627240145,0.6351331520988224,0.1357836453358935,-0.1424443495524834,0.7469071080588836
299.0,0.08099948796722992,0.051272401433691786,0.010496927803379418,-3.796618791602662,0.20946287762416793,9.03240117767537,0.05071844598054276,0.13091717869943678,-0.13064516129032258,260.7541794674859,-22.779886712749615,-1.3146969406041986,0.6351370238627752,0.1366129149201229,-0.14342950104531493,0.7465626068277009
300.0,0.08937071172555044,0.053118279569892506,0.014338965693804405,-3.8108945212493586,0.20935509472606245,9.02550614439324,0.028243407578085,0.15041602662570402,-0.1072132616487455,260.7853558627752,-22.87510240655402,-1.311050307219662,0.6352338313489505,0.13722865796185357,-0.1439836024178187,0.7462574351118791
301.0,0.09197030209933438,0.04888888888888891,0.01519815668202765,-3.8344884792626717,0.2056856118791603,9.016010240655401,0.007037250384024581,0.25587557603686634,-0.21411290322580645,260.8026241679467,-23.01920442908346,-1.3009664618535588,0.6351839285104968,0.1379316709656938,-0.14501949124475164,0.7459780478381975
302.0,0.11572247823860726,0.046239631336405546,0.036810035842293906,-3.846407578084998,0.22670250896057348,9.010564772145415,0.23698636712749616,0.15017921146953406,-0.08743919610855094,260.8679979518689,-23.095636520737326,-1.4415450588837686,0.6355244959710702,0.13926440969124426,-0.14472917378878647,0.7454908080133128
303.0,0.09476088069636457,0.03372913466461855,0.02130824372759857,-3.824350742447517,0.2672401433691757,9.018732206861236,0.15374743983614952,0.09077060931899641,-0.1217325908858167,260.8403609831029,-22.950624039938553,-1.7013952892985151,0.6355020291280082,0.14004976641372247,-0.14244254475729645,0.7458034914618537
304.0,0.08374551971326163,0.030510752688172046,0.02167562724014337,-3.786550179211469,0.29682795698924735,9.03390681003584,0.09873431899641577,-0.12298387096774194,-0.023241487455197135,260.8359094982079,-22.708165322580644,-1.8769041218637994,0.6357335464605733,0.1398408942831541,-0.13989821128136198,0.7461279325896057
305.0,0.07660394265232974,0.02298387096774194,0.008405017921146955,-3.780591397849462,0.33914874551971336,9.03512544802867,0.20564516129032256,0.3028113799283154,0.0174171146953405,260.72743055555554,-22.676579301075268,-2.1448812724014337,0.6350401187634407,0.14117097961469532,-0.1384036156451613,0.7467450101164876
306.0,0.07293010752688171,0.016935483870967744,0.004811827956989248,-3.775501792114695,0.36459677419354863,9.036505376344078,0.08674955197132615,0.22205421146953405,-0.05169130824372759,260.65165770609315,-22.64779345878136,-2.3204525089605736,0.6346066380734765,0.1420066040053763,-0.13736432259856624,0.7471520200806454
307.0,0.06462519201228878,0.005105478750640043,-0.009572452636968766,-3.7865509472606242,0.37209395801331285,9.031278545826929,-0.03305811571940604,0.2779569892473118,-0.11393529185867896,260.60212013568866,-22.71996607782898,-2.3744879672299026,0.6342601948965694,0.14267762314925753,-0.137617851141577,0.7472732063415259
308.0,0.060824172098365645,0.004007742765807282,-0.00390833229542907,-3.84960430245914,0.3755872047162371,9.003901163836645,-0.004515532237306431,0.8175254891988762,-0.03267949689320657,260.56958741575676,-23.117752401018528,-2.3974375441109315,0.6335488107171987,0.14495971398054275,-0.14017398346735443,0.7469518658291473
309.0,0.06636638712445164,0.0024115774760936053,0.0031444001605291957,-3.9213657713012546,0.37756958802120083,8.973357391954167,-0.04960879658460303,0.6165080402983628,-0.13750350292689,260.59846978314715,-23.571757024882025,-2.4124004476827055,0.6331932069311799,0.14755758389887352,-0.1430757690768672,0.746191599608122
310.0,0.06445111470917925,-0.005084533842598358,0.006083848825784312,-3.990960663428405,0.3454425001037904,8.94366346300217,-0.267131907252875,0.17580554344667243,-0.16460188587204716,260.68162736469185,-24.01815337803241,-2.2117445786800625,0.6331885021842281,0.14882635664029698,-0.14696525155008233,0.7451822185809427
311.0,0.06235100538326346,-0.008469686276137887,0.007746225488160974,-4.012043951785887,0.3239443683314651,8.934533344404315,-0.07481819376980667,0.2736946624043398,-0.15104534257760066,260.71850185438893,-24.154742011596852,-2.0823507839636872,0.6333211005768813,0.14880398620993346,-0.14849217961464692,0.7447795822071382
312.0,0.07903725384370545,-0.008575856962953736,0.02324177633855053,-4.034621054233957,0.3122302486818616,8.92423902243257,-0.1320231521844425,0.3500385754418012,-0.20734870815515977,260.7464629087613,-24.302198194738516,-2.0088885256223965,0.6333297870165513,0.14917410990681004,-0.14981464428197785,0.744436702771772
313.0,0.09178008192524323,-0.01079621095750128,0.022343061955965186,-4.033255504352278,0.3196441372247823,8.925483358934974,0.17461917562724014,-0.2091077828981055,0.029157066052227357,260.79991519457246,-24.281136392729135,-2.047188620071685,0.633681078187148,0.14942693203225804,-0.1493830157373272,0.7441743734569892
314.0,0.10696006144393241,-0.003507936507936508,0.025010496671787,-4.026445980542754,0.3364385560675881,8.928809011776757,0.13484863031233998,-0.13668874807987713,0.001740911418330781,260.8376632104455,-24.23678475422427,-2.1431691628264207,0.6339657660614437,0.14986030756195598,-0.1485158465391705,0.7440200617073732
315.0,0.11526318484383,0.006319508448540707,0.027563492063492075,-4.038626216077828,0.35998003072196616,8.921859703020992,0.2549523169482847,0.04117063492063491,-0.06515777009728622,260.8985023041474,-24.31521697388633,-2.305987583205325,0.6342532231920122,0.1513635885704045,-0.14810770020506914,0.743547078904762
316.0,0.11385919098822324,0.01007731694828469,0.02696722990271378,-4.013605222734254,0.3687624167946747,8.932972862263181,0.11848758320532514,-0.04981118791602663,-0.014237711213517662,260.9505952380953,-24.153744239631337,-2.3551107270865335,0.6347332199831028,0.15085624165079364,-0.1467321188166923,0.7435164440849973
317.0,0.11792959549411164,0.02611699948796724,0.026013568868407586,-4.000406298003072,0.37916461853558636,8.938767537122374,0.15627720174091142,0.10743887608806964,-0.10153129800307219,261.021438172043,-24.07597926267281,-2.4152281746031745,0.6352725529316434,0.15091927169175628,-0.14579273811341523,0.7432327247107016
318.0,0.12041781874039939,0.03125089605734768,0.02712237583205326,-4.010810547875065,0.37878904249871986,8.934705581157191,-0.06487775217613928,0.22358550947260625,-0.073371095750128,261.05563556067585,-24.14109383000512,-2.412525601638505,0.6354779050138248,0.15132298725960064,-0.14613614327444957,0.7429086493932411
319.0,0.11933947772657451,0.025744751664106516,0.025166410650281627,-3.998654121863799,0.39157014848950333,8.938046082949304,0.12651529697900665,-0.007472478238607264,-0.03885528673835125,261.082816500256,-24.06307123655914,-2.501600102406554,0.635733651157194,0.15147114519047622,-0.14515750691986687,0.7428518482245263
320.0,0.12709805427547366,0.029113415258576563,0.02558499743983616,-3.966105734767025,0.4019633896569381,8.951469278033795,0.027163338453661024,-0.17370711725550436,0.04366039426523298,261.1013040834613,-23.86299283154122,-2.570524513568868,0.6360327303277009,0.15075158036405534,-0.14349419521172552,0.743064806939324
321.0,0.1421300563236047,0.04413415258576551,0.02918689196108552,-3.9352923707117267,0.40713159242191505,8.964699436763953,0.0939900153609831,-0.15949180747567845,0.03330773169482847,261.11248719918075,-23.66329365079365,-2.6043074756784432,0.6363045915801333,0.14981571414746545,-0.14198924437685612,0.7433121599856629
322.0,0.1366379928315412,0.039477214541730685,0.02636968766001025,-3.89441628264209,0.4205519713261648,8.982397337429596,0.029720302099334357,0.01536738351254481,-0.03313172043010752,261.0871767793139,-23.399574372759858,-2.6827444956477215,0.6364846563087558,0.1488973736850998,-0.13990500067895545,0.7437301073123401
323.0,0.13286994367639526,0.041685355862775234,0.02707014848950333,-3.8489413722478245,0.44147363031234,9.001207373271892,0.140061763952893,-0.3556931643625192,-0.05004000256016385,261.17398393497183,-23.10594438044035,-2.8134152585765486,0.6373893038845366,0.14822168319790063,-0.1371784841065028,0.7435939781825398
324.0,0.11097798259088582,0.03586507936507938,0.017316436251920128,-3.771697388632873,0.4652798259088582,9.032807987711216,0.04888952892985152,-0.11316244239631337,-0.019559651817716336,261.2251248079877,-22.618524385560676,-2.954702700972862,0.6382138870453149,0.1464929583507424,-0.13314608821812593,0.7439540693108041
325.0,0.10177931387608807,0.019997951868919617,0.014545314900153612,-3.7479365079365077,0.4789078341013825,9.042801843317974,-0.03822324628776242,-0.06570980542754735,-0.018852406554019457,261.2397465437788,-22.4648681515617,-3.026270481310804,0.63840541669022,0.1461666728760881,-0.13172038862519203,0.7441208527019971
326.0,0.10456246799795188,0.00921556579621096,0.012940860215053763,-3.735226318484383,0.4807119815668202,9.047728110599083,-0.05664042498719918,0.04505408346134152,0.05655881976446492,261.1870679723502,-22.390124167946748,-3.0356870839733743,0.6381744324971836,0.14576144064541732,-0.13122392399462363,0.7444893557611367
327.0,0.11526062467997954,0.007914234511008707,0.016412186379928317,-3.742451868919611,0.47954505888376875,9.044966205837175,-0.15421626984126985,0.0919994879672299,0.17419674859190987,261.11403129800306,-22.43346934203789,-3.02812019969278,0.6376859465263696,0.14587942340066565,-0.13163715272759854,0.7448142375087046
328.0,0.10945826932923709,0.018737583205325137,0.020374551971326163,-3.6748594470046085,0.5195261136712751,9.069517153097799,0.10728366615463386,0.05182411674347157,1.1840405785970303,260.7580965181772,-22.008485343061956,-3.2724046338965693,0.635814947438812,0.14472411069226832,-0.1279788903781362,0.7472365369577573
329.0,0.0863376786925174,0.016561589239008592,0.01661358132325874,-3.636595542547155,0.561316505445538,9.08246539627185,-0.1821226612557258,-0.28898247325666687,-0.014948070190005658,260.29577849739144,-21.765793789180886,-3.533344923264278,0.6330084274472467,0.14451321120247435,-0.12560576178949917,0.7500567960671524
330.0,0.07864374974052395,0.009920579565740856,0.008109658045141917,-3.6336785956463373,0.5437227688518012,9.085444167669976,-0.1544853897676478,0.055777580575967656,0.06085033766485384,260.1313121877638,-21.739191697457827,-3.427514755538949,0.6320325374825839,0.14350839601342352,-0.12622051364564563,0.7509847238445079
331.0,0.08239560758915597,0.011001764437248308,0.006515658515658515,-3.6230282379153356,0.532501937421292,9.089984756646045,-0.0779915428100912,0.11216298383637091,-0.09238589107540719,260.0602701491814,-21.67959008836025,-3.3634693593362948,0.6316591303219371,0.14262583140302512,-0.12626983050024215,0.7514769113738669
332.0,0.09163687189493638,0.005810022003570391,0.008670015637757574,-3.664529351932578,0.5163360941586745,9.073724457176068,-0.1309256549175904,0.5090104793733825,-0.0587657501972018,260.0285669742323,-21.942869640954317,-3.27204045923804,0.6311091804611478,0.14339108743090323,-0.12856249701535405,0.7514010371564677
333.0,0.10549585530230689,0.004715046844079102,0.01440669240669241,-3.718210016468081,0.5022406277244986,9.052014558337138,-0.0059310174229529194,0.25108902104869846,-0.09678318871867257,260.0073670444638,-22.284858879616944,-3.1924998443143604,0.6305491011176705,0.14466329108552328,-0.13131794917523976,0.7511458126776964
334.0,0.12176088069636455,0.008753712237583207,0.020417818740399392,-3.7544889912954433,0.499516129032258,9.038937532002045,-0.020466909882232466,0.29753744239631336,-0.11698668714797747,260.0056451612903,-22.50278097798259,-3.174121543778802,0.6303171120179212,0.1457886990499232,-0.1328555772718894,0.7508575626065029
335.0,0.1415883256528418,0.0033195084485407034,0.010639016897081415,-3.5655867895545317,0.5870967741935484,9.104943676395287,0.8323124679979519,-1.9667946748591907,0.28167242703533024,259.914896953405,-21.322907066052228,-3.68503904249872,0.6308551900501792,0.14260951429646695,-0.12227383490834615,0.7526533103220685
336.0,0.11668182006891684,0.007887553452069576,-0.00020371984888113877,-3.440251110557562,0.6191107236268525,9.150428993509637,-0.8008742181121211,1.330373057389186,0.33379844418150867,259.74780375133196,-20.548643718603394,-3.861800409280248,0.6305192807976641,0.13938709344690084,-0.11640951780465258,0.7544546611039911
337.0,0.09096635806313227,0.005937504324601096,0.001439358713552262,-3.584198135923942,0.5572704155768671,9.099672382059481,-0.2863298061886771,0.5846533745727293,-0.03804589439670086,259.29546885595266,-21.447372934570517,-3.50065266879783,0.6267364545565381,0.14142347346628198,-0.12487377201164529,0.7559018273037876
338.0,0.08397114626146886,-0.003296480812609846,0.002162203678332711,-3.6516368303787656,0.5264325708196675,9.076892514634453,-0.15626894175281267,0.34312993869445474,-0.05853987628181177,259.0993473312022,-21.867077244294983,-3.31190467541274,0.6250206497943982,0.14225019601655114,-0.12891035474327783,0.7565500990689443
339.0,0.08710846099555777,-0.009884287513319772,0.004676083918019402,-3.707137923637923,0.5051876115747085,9.055915791367404,-0.10065431214624761,0.3062807911598234,-0.1197237271834046,259.0012865688269,-22.210141924758858,-3.1853878215773377,0.6240416797282283,0.14318820968057464,-0.1319930312185411,0.7566836838032895
340.0,0.09361247422537745,-0.011219025477089993,0.009493059880156656,-3.743206058593154,0.4895292896583221,9.042303773819903,-0.07838495177204854,0.18590249235410522,-0.07324672022252667,258.9550003632665,-22.439776383526386,-3.1061067692116078,0.6235182179779135,0.1437907638008608,-0.1340334338261164,0.7566754506785265
341.0,0.11021326164874551,-0.009054275473630314,0.006833589349718382,-3.7511093189964155,0.4831029185867898,9.041048387096776,0.12879544290834613,-0.09464605734767026,-0.0674203149001536,258.9513200844854,-22.488023233486942,-3.069858870967742,0.6234719021351766,0.14382145093804405,-0.1345544425343062,0.7566332130642601
342.0,0.10349820788530464,-0.005306707629288276,0.0088110599078341,-3.7212401433691755,0.4864618535586278,9.052706093189963,0.09407962109575012,-0.18055555555555555,-0.11421530977982591,258.9775921658986,-22.301219278033795,-3.0971774193548387,0.6239281221070146,0.1430583026016385,-0.13312143889708142,0.7566498040814131
343.0,0.10467997951868918,0.0012677931387608805,0.009511520737327188,-3.694947772657451,0.4897204301075269,9.063914234511007,0.1334069380440348,-0.0345142089093702,-0.10064324116743471,258.9924923195084,-22.12701132872504,-3.112909626216078,0.6242517030212491,0.14229073021070146,-0.13188631295391706,0.7567507273858166
344.0,0.11441909882232462,0.013861751152073738,0.015247823860727091,-3.692765745007681,0.49230926779313877,9.064281874039938,-0.0026145673323092755,0.13966493855606757,-0.048331093189964154,258.9935675883256,-22.11534658218126,-3.1171979006656425,0.6242359251838197,0.14225058289554532,-0.13176978447439835,0.756794050190988
345.0,0.12825345622119816,0.01788069636456734,0.01786584741423452,-3.6975970302099332,0.49131592421915,9.062718894009215,0.031006784434203787,-0.040242575524833596,-0.028561827956989246,258.96553379416287,-22.147587045570916,-3.0898489503328213,0.624075537251408,0.1422965218689196,-0.13207470279723502,0.7568556294234507
346.0,0.13420967741935486,0.02614772145417308,0.02332462877624169,-3.6990980542754732,0.4922616487455197,9.061755760368666,0.04646537378392217,0.13647433435739886,-0.09092261904761903,258.951027265745,-22.158672555043523,-3.0936571940604196,0.6239755980496671,0.1423602558653354,-0.13213209699308756,0.7569138783015871
347.0,0.1270645161290323,0.021411674347158228,0.01780030721966206,-3.685619815668203,0.4962921146953405,9.065976446492574,0.0033794162826420865,0.06440092165898617,-0.04722542242703533,258.9432555683564,-22.063935291858677,-3.1362103174603178,0.6239531667757297,0.14205487881976447,-0.13137218953149002,0.7571329114715817
348.0,0.1315898617511521,0.021649257552483366,0.018766513056835642,-3.6782478238607283,0.49825806451612903,9.068358934971837,0.0017665130568356368,0.10782770097286225,-0.10424027137736815,258.93928571428575,-22.01135752688172,-3.1628072196620582,0.6239349308970813,0.14191146330670765,-0.13097396038863285,0.7572460123266767
349.0,0.13707040450588837,0.020454941116231445,0.02109447004608295,-3.6846513056835644,0.49921658986175116,9.065553251408089,-0.005888376856118791,0.047977470558115715,-0.03685835893497184,258.9375,-22.0602294546851,-3.176248079877112,0.6238434764444444,0.14219371235791095,-0.1312014239592934,0.7572300713445979
350.0,0.13880849974398363,0.005447004608294934,0.01681515616999488,-3.485085509472607,0.6001280081925243,9.133309779825908,1.1707789298515103,-1.7987039170506913,0.17077892985151047,258.99843189964156,-20.811952764976958,-3.765431387608807,0.6253583765197132,0.1394161973169483,-0.11957703691244241,0.7582473080916537
351.0,0.11646979006656427,-0.004692780337941627,0.0066656426011264735,-3.3073492063492065,0.7443010752688172,9.188980030721968,0.6058003712237582,-0.44893593189964165,0.034045378904249864,259.03248207885304,-19.71402809779826,-4.630264336917563,0.6265187777565284,0.13914742716385048,-0.10760267524475166,0.7591304771231437
352.0,0.10606195596518178,-0.01378904249871992,0.00241884280593958,-3.298809011776754,0.7821505376344086,9.19142549923195,-0.4285906298003072,0.834923835125448,0.08795122887864823,258.99574372759855,-19.662093573988734,-4.857078853046595,0.6263119587572964,0.14033856278443418,-0.10611647899334356,0.7593639355821811
353.0,0.10160394265232975,-0.00881720430107527,0.0014695340501792113,-3.4359318996415773,0.7167741935483869,9.147186379928318,-0.25201612903225806,0.8209565412186379,0.011592741935483875,258.7435035842294,-20.518985215053764,-4.465837813620071,0.623915150080645,0.14211992358422937,-0.11425453066308243,0.7598243629928316
354.0,0.09496415770609318,-0.0009946236559139768,0.0033691756272401434,-3.506173835125447,0.6849462365591396,9.1241935483871,-0.21533378136200715,0.457997311827957,-0.03321012544802867,258.6317204301075,-20.951276881720432,-4.274697580645161,0.6227466220340502,0.14308582015232973,-0.11832020567204302,0.7600139773835124
355.0,0.10066205837173578,0.0015586277521761405,0.0035430107526881723,-3.5374503328212996,0.6670512032770097,9.113486943164364,0.03442460317460316,0.20956861239119307,-0.13126920122887864,258.60021761392727,-21.149553571428573,-4.176520097286226,0.622360402843062,0.14346399954608294,-0.1202116929562212,0.759996277676139
356.0,0.1102951868919611,0.006585765488991296,0.006829749103942651,-3.579034306195596,0.6554521249359959,9.099485407066052,-0.08829845110087045,0.44181387608806966,-0.07560323860727086,258.59300755248336,-21.406233998975935,-4.106573220686123,0.6220454332808502,0.1444195108707117,-0.12229457232488478,0.7597577312619046
357.0,0.12255350742447518,0.001921915002560164,0.013043010752688173,-3.62600460829493,0.6398228366615464,9.082807219662056,-0.05173771121351767,0.19676939324116743,-0.03642953149001536,258.57136936763953,-21.70283698156682,-4.036765552995392,0.6216193607130056,0.14546960721402963,-0.12468551205401948,0.7595178914329237
358.0,0.12879467485919102,-0.000710189452124936,0.01668279569892473,-3.6674377880184323,0.6355028161802354,9.065995903737836,0.014733742959549413,0.6950188812083973,-0.11658506144393242,258.5678587429595,-21.966029825908855,-4.017626728110599,0.621346738300051,0.1467434026661546,-0.1265695420261137,0.7591807122980032
359.0,0.12488120839733743,-0.0010614439324116742,0.010901689708141322,-3.7290092165898607,0.6308335893497186,9.04038044034818,-0.07462557603686636,0.39302995391705065,-0.06446172555043522,258.5767153097798,-22.349273553507423,-3.9950140809011776,0.6210259164946235,0.1486592508335893,-0.12925519111315925,0.7586161637788018
360.0,0.11619175627240143,-0.004891705069124425,0.012698156682027648,-3.7470089605734755,0.6249237071172555,9.033825652841784,-0.037524001536098306,0.12094854070660521,0.009698220686123905,258.5692620327701,-22.465583397337433,-3.963866487455197,0.6208918245145927,0.14900668341065024,-0.13021400909575012,0.7584948132503841
361.0,0.12091116231438812,-0.00276804915514593,0.011795954941116231,-3.7525993343573996,0.6312503840245778,9.03153046594982,0.014928955453149,0.1573316692268305,-0.06298963133640553,258.5901497695852,-22.5005376344086,-3.997235023041475,0.6209975806164872,0.1494812489723502,-0.13021502424859188,0.758323941968254
362.0,0.12037941628264207,-0.005201228878648233,0.01233614951356887,-3.745703789042499,0.6310552995391705,9.03255734767025,0.023649513568868408,0.018349974398361488,-0.0289186507936508,258.6085829493087,-22.46201836917563,-4.0004096262160775,0.62114312540681,0.14935509146646184,-0.1299335759459805,0.7582780989411162
363.0,0.12311981566820278,-0.0026902201740911414,0.014165386584741427,-3.7524531490015365,0.6408233486943163,9.029939068100358,0.026721710189452123,0.1711373527905786,-0.060634280593958007,258.6500576036866,-22.505510752688174,-4.063824884792627,0.6212716280215054,0.14998062662928824,-0.12987641862263183,0.7580603672841784
364.0,0.1337995391705069,-0.008110087045570915,0.0177647209421403,-3.7649823348694325,0.644605222734255,9.025011008704556,-0.05864375320020482,0.15414586533538144,-0.02732174859190988,258.6630760368663,-22.5761712749616,-4.086693548387096,0.621255088734255,0.15050728470634916,-0.1302642213527906,0.7579072369554533
365.0,0.1325494111623144,-0.009081925243215567,0.020553507424475172,-3.758499231950845,0.642625192012289,9.027509984639018,0.05384344598054276,0.0615879416282642,-0.03816244239631336,258.6773041474654,-22.534725422427037,-4.076612903225806,0.6213366620015361,0.15024017159600614,-0.13001111481618022,0.7579340306641067
366.0,0.12245954941116231,-0.0029592933947772664,0.01454608294930876,-3.7388538146441364,0.6413448540706608,9.034614695340501,0.00625800051203277,0.06505856374807988,-0.0447276625704045,258.6531746031746,-22.409749423963135,-4.070046082949308,0.6214640342859703,0.14954339656861237,-0.12920904408550948,0.7581042183376856
367.0,0.11650640040962622,-0.004602918586789554,0.014140809011776757,-3.7276879160266247,0.640820276497696,9.042111367127498,-0.008406938044034818,0.09431323604710701,-0.05286258320532514,258.63908730158727,-22.32732654889913,-4.067225102406554,0.6215358366868918,0.14910153549846394,-0.1287169352094214,0.7582075740120325
368.0,0.12159549411162317,-0.00545110087045571,0.015125960061443936,-3.7309810547875046,0.6419692780337941,9.039527905785972,0.0642889144905274,0.10870455709165387,-0.0929915514592934,258.6364119303636,-22.353011392729137,-4.074635176651306,0.6215042709375316,0.14924519271786996,-0.12882914833947773,0.7581910382560164
369.0,0.12793599590373783,-0.0007439836149513578,0.019908602150537635,-3.745352278545826,0.6429247311827957,9.033155657962109,0.04185067844342038,0.13695596518177164,-0.06225038402457758,258.62992831541214,-22.443469982078852,-4.070641321044547,0.6213761347959549,0.14967645882898106,-0.129447476672043,0.7581078360128007
370.0,0.13239989759344598,0.0028000512032770094,0.020908602150537636,-3.7456331285202245,0.6390250896057348,9.033011520737325,-0.004976318484382999,0.15416346646185355,-0.09849750384024578,258.62645609319,-22.446729390681007,-4.039688940092166,0.6213332783612391,0.14955327279262676,-0.12959571446057347,0.7581430554884792
371.0,0.12100768049155144,0.00326779313876088,0.015329237071172556,-3.7453466461853555,0.6395125448028676,9.033386584741418,-0.06085829493087558,0.19756464413722477,-0.06957885304659499,258.6256720430107,-22.44354518689196,-4.02897465437788,0.6212507252519199,0.1494779354449565,-0.12965425490424984,0.7582196827767537
372.0,0.12523911930363546,-0.00199231950844854,0.013608294930875576,-3.751930875576037,0.6397562724014338,9.030380952380948,-0.008578149001536101,0.24027937788018433,-0.0759536610343062,258.62533602150535,-22.492829941116234,-4.04304915514593,0.6211509831026625,0.1497589430737327,-0.12993549095391704,0.758192713252176
