time,linaccel_x,linaccel_y,linaccel_z,gravity_x,gravity_y,gravity_z,gyro_x,gyro_y,gyro_z,euler_x,euler_y,euler_z,quaternion_w,quaternion_y,quaternion_x,quaternion_z
0.0,0.019749999999999997,-0.04600000000000003,0.028250000000000015,-3.164,0.26549999999999996,9.270999999999997,0.7390625,1.103125,-0.2953125,141.990625,-18.8328125,-1.6390625,0.3208862302499998,0.040083313249999995,0.15952148400000005,-0.9327239995000003
1.0,0.026750000000000003,-0.042833333333333355,0.028750000000000008,-3.2063333333333333,0.27516666666666656,9.256833333333333,0.4317708333333333,0.6447916666666667,-0.1473958333333333,142.08020833333333,-19.08385416666667,-1.7130208333333332,0.31996256441666654,0.04014943508333334,0.16179199183333334,-0.9326416021666666
2.0,0.03160714285714287,-0.03750000000000002,0.02932142857142858,-3.246142857142858,0.28178571428571414,9.242357142857145,0.22790178571428568,0.3790178571428571,-0.09263392857142856,142.10580357142857,-19.315401785714286,-1.7341517857142859,0.31960623703571434,0.04049006732142858,0.16383230978571428,-0.9323957166428574
3.0,0.037816666666666686,-0.036433333333333345,0.03195000000000001,-3.265666666666668,0.2888333333333334,9.235766666666668,0.2321875,0.26937500000000003,-0.016562499999999997,142.14520833333333,-19.442187500000003,-1.7617708333333333,0.31940022755,0.040562843816666666,0.16493489470000003,-0.9322680662999999
4.0,0.0349152242328875,-0.03298701809598742,0.030691778127458706,-3.2675255704169945,0.2635031471282456,9.236315106215581,-0.028485198662470512,0.14293125491738784,-0.02925722856018883,142.11432189221085,-19.45393022226593,-1.618795485837923,0.3196428803330055,0.04181305415204563,0.16461601328127462,-0.9321877907588512
5.0,0.0322452793076318,-0.032242525570417,0.03062588512981905,-3.2745007867820615,0.2568792289535799,9.233125688434306,0.10837677025963809,0.07334284028324153,-0.15069949842643587,142.16588808025176,-19.503461841070024,-1.5878392997639654,0.31916014100039336,0.04212242076475217,0.16488810267368212,-0.9322962716581431
6.0,0.032537962234461065,-0.037391424075531095,0.03368391030684502,-3.2770649095200644,0.25656864673485447,9.232792682926831,0.027928304484657752,0.09367746852871754,-0.11852011211644375,142.29947629819043,-19.525773259244687,-1.5850486821400471,0.3181420230889064,0.042033727156569625,0.16508584969571205,-0.932614509708104
7.0,0.040877458693941784,-0.04182179386309994,0.03474134539732496,-3.2871571597167586,0.25029976396538167,9.228602675059012,-0.07221798780487805,0.02977847167584579,0.05644177812745869,142.34992500983478,-19.59016768292683,-1.5550145062942564,0.31777312499390253,0.042443358809795426,0.16553514772816677,-0.9326446774651846
8.0,0.039505114083398914,-0.04513768686073959,0.036582218725413077,-3.3016616837136112,0.25282297403619197,9.22325885129819,0.23309893784421715,0.205640243902439,-0.10948564122738003,142.35145062942564,-19.670112116443747,-1.5645948072383948,0.3176881762738001,0.04256865088670339,0.16626745798819823,-0.9325354073469709
9.0,0.042588119590873344,-0.04389535798583794,0.037815106215578306,-3.323520062942565,0.2656412273800157,9.214519276160505,0.19433762785208497,0.2371041502753737,-0.10246607002360346,142.42596134933126,-19.80900865460267,-1.6414142407553107,0.3170165422124311,0.04221321359913455,0.16764323238198264,-0.9325300956018883
10.0,0.04830586152635721,-0.04143233674272229,0.039190007867820634,-3.3514728560188813,0.2815507474429584,9.205078678206135,0.2736096085759244,0.23164707907159715,-0.04925132769472856,142.53216832218726,-19.97901258851298,-1.7503933910306846,0.3159876955649096,0.04173294606471283,0.16935126563552322,-0.9325918706231312
11.0,0.0467214791502754,-0.029966168371361148,0.04029661683713613,-3.3779622344610525,0.29869472856018886,9.194136113296617,0.3060336349331235,0.246897128245476,-0.026465381589299765,142.59957710464204,-20.139707907159718,-1.8616886309992131,0.3153745986695515,0.04118219751219512,0.17100808945082607,-0.9325184894728561
12.0,0.049283634933123543,-0.029211250983477592,0.03750944138473645,-3.398907159716758,0.3141640440597955,9.186348151062159,0.0895431746656176,0.10211693548387096,-0.0684352871754524,142.64830841856804,-20.272283143194336,-1.9601666994492524,0.31497948307199036,0.04066317403540519,0.1723653690566483,-0.9324245955830057
13.0,0.05370161290322582,-0.0495725806451613,0.037879032258064535,-3.4103709677419354,0.31810483870967754,9.182556451612907,0.06285282258064515,0.12001008064516128,-0.08477822580645161,142.6459677419355,-20.359627016129032,-1.986844758064516,0.31482219071774176,0.04076060533870965,0.17304283785483876,-0.9323461241935482
14.0,0.053862903225806474,-0.05275000000000001,0.036895161290322595,-3.4240403225806446,0.32180645161290333,9.177104838709681,-0.03618951612903226,0.13079637096774194,-0.005393145161290323,142.66189516129032,-20.443800403225808,-2.009375,0.3147424024758062,0.0407707940564516,0.17379578604032264,-0.9322305509193548
15.0,0.06547462627852085,-0.052059992132179406,0.045115460267505916,-3.4259988198269076,0.30731707317073176,9.176519866247055,0.08247565892997638,0.29473224822974037,0.008393981117230527,142.64344758064516,-20.448762047600315,-1.9166269177812745,0.314876594833202,0.04155421255841857,0.17362686867112512,-0.9321859840357987
16.0,0.0734348937844217,-0.05604209284028325,0.04976337529504329,-3.468991345397325,0.3033036978756883,9.160505900865456,0.06258359559402045,0.13836914830841854,-0.08118607395751376,142.66350806451612,-20.71830743509048,-1.8928144669551532,0.3145452507069235,0.04244817967840283,0.175761419077498,-0.9318614981066089
17.0,0.07214083398898502,-0.05219846577498034,0.04419217151848939,-3.4733343823760823,0.28882926829268274,9.159285208497245,0.16561639457120375,0.23196179189614477,-0.03414142407553108,142.6529233870968,-20.744940007867818,-1.8037913060582218,0.3146295031357198,0.043268536423878824,0.17572575562745868,-0.9318035575129822
18.0,0.05666935483870967,-0.046256884343036986,0.05232100708103856,-3.4906252950432726,0.28175531077891414,9.15252222659323,0.0032983379228953558,-0.04922674075531078,-0.16012490165224233,142.6860174075531,-20.847125786782062,-1.7618484461054287,0.31434891664260417,0.0438179471970889,0.17645322742997638,-0.9317326473237608
19.0,0.05478481510621558,-0.04665499606608971,0.04710621557828483,-3.4573406766325725,0.24580133752950425,9.165874508261211,-0.19693892604248622,0.12646538158929976,0.19498918174665614,142.56033880802516,-20.63800649095201,-1.53360051140834,0.3154616602966168,0.045261338557828476,0.17410233654799367,-0.9317279580594019
20.0,0.04882041699449253,-0.05171066089693156,0.03616915814319435,-3.463115656963021,0.21875826121164438,9.162921518489377,-0.014455891030684495,2.308511998426436,0.20493951612903225,142.50454981313925,-20.684783143194334,-1.3675821203776553,0.3158657650263572,0.046761934326121156,0.17403166868312347,-0.9314938630147521
21.0,0.0498035011801731,-0.056630802517702604,0.03811054287962236,-3.738604051927615,0.2107915027537372,9.050156372934698,-0.03717053501180173,0.8428415125885129,0.22315843823760817,142.22237903225806,-22.421230822187255,-1.3365263571990558,0.3172060097915027,0.05236813422580644,0.18783165436959087,-0.927944181127262
22.0,0.05435877261998427,-0.05184107002360348,0.03832415420928404,-3.806380802517703,0.21650668764752165,9.024405979543662,0.46508654602675054,-0.4066188040912666,-0.4086349331235247,142.34785601888277,-22.838808025177023,-1.3831628638867033,0.315977515263572,0.05298384608969316,0.1913756611487018,-0.9276690178284817
23.0,0.05004720692368215,-0.04426435877262,0.04828481510621559,-3.762376081825334,0.2291817466561762,9.043949645948071,0.30895948072383944,1.0983969315499607,-0.3429878048780488,142.65725806451613,-22.56958103855232,-1.4536290322580645,0.31362456460267507,0.05110414543666404,0.1895461908182533,-0.9289795690086546
24.0,0.03591188040912668,-0.0518206136900079,0.04798583792289537,-3.9655688434303697,0.24960031471282457,8.954571203776553,0.2776848937844217,0.9290814319433518,-0.00754327301337529,142.88924075531077,-23.86573564122738,-1.6021734854445318,0.3110475270275373,0.05319371822187255,0.20051894783949642,-0.9273922611282455
25.0,0.03518332022029898,-0.04912667191188043,0.04679779701022818,-4.05317859952793,0.29081825334382383,8.915600314712822,0.33933910306845005,0.3288257277734068,-0.3756884343036979,143.11632572777341,-24.422020062942565,-1.874134539732494,0.30883194563808025,0.05223666260739576,0.20582166874744298,-0.9270602508796222
26.0,0.034693154996066095,-0.053120377655389475,0.04068135326514556,-4.0066168371361135,0.3035082612116444,8.936640440597955,0.3004179779701023,-0.35972167584579073,-0.029435483870967755,143.23778520849726,-24.116527340676633,-1.9463709677419354,0.3080402270479937,0.05062383134382376,0.20362662643194335,-0.9279161602116446
27.0,0.037422895357985854,-0.05199449252557044,0.0398481510621558,-3.9856679779701016,0.35433634933123537,8.944261211644372,0.33254573170731705,-0.02269128638867038,0.02088906372934696,143.31278520849725,-23.97958054681353,-2.26933025177026,0.3075175957136113,0.04763616970338317,0.20340211448033038,-0.9283081752584577
28.0,0.042922043010752704,-0.05243855606758835,0.039751920122887884,-3.981999999999999,0.3826509216589863,8.944889400921655,0.3337005568356375,-0.016534658218125983,-0.02041090629800308,143.40897657450074,-23.953377016129032,-2.4525297619047617,0.3067892316912443,0.0460298665998464,0.20369145726152071,-0.9285778901102149
29.0,0.04586827956989249,-0.05300960061443935,0.04259370199692783,-3.9717499999999983,0.39874078341013836,8.95071889400921,0.23335733486943164,-0.05738527265745009,-0.13011472734254992,143.5335205453149,-23.887752016129035,-2.5530793970814134,0.305790640031106,0.04481701168701998,0.20345314378801843,-0.929017490099462
30.0,0.05256720430107528,-0.047686251920122914,0.04470007680491554,-3.959943548387095,0.41085829493087567,8.9563029953917,0.20306979646697387,0.004800307219662053,-0.0640240975422427,143.61650825652842,-23.81814516129032,-2.6294882872503837,0.30513774439055297,0.04386283188786483,0.2031338993859447,-0.9293530356424733
31.0,0.06688755573039601,-0.045453177100895456,0.05137256003896447,-3.960706923682139,0.4106129594245252,8.955678149938176,0.06049868167172455,0.08202618626128658,-0.08271093252407177,143.63833256060093,-23.825449940991344,-2.6263602431531226,0.30495558531830946,0.04385726727615114,0.20319238169936493,-0.9294018977332155
32.0,0.05846708628376607,-0.04872157281480651,0.04733891573938783,-3.9574339103068428,0.41047583455097225,8.957943913678765,0.05161231782248698,0.08804606421640254,-0.05690916413772433,143.7004666835263,-23.802301337529503,-2.626788992544303,0.304412382020681,0.043706564695215624,0.20300172455316398,-0.9296326694939681
33.0,0.052712037765538955,-0.057967545239968554,0.0436656176239182,-3.957265342250195,0.39753284815106216,8.957596380802515,0.0027598839496459464,0.049370574350904806,-0.47251180173092056,143.7713930959874,-23.802360346184106,-2.543214004720692,0.30385412559559394,0.044232497470495666,0.20284213526966954,-0.9298240918813927
34.0,0.047863493312352484,-0.07079189614476791,0.04740892997639654,-3.9442907159716754,0.33540676632572786,8.964685680566483,0.2690536487018096,0.013256048387096778,-1.5765010326514555,144.8899193548387,-23.71776775177026,-2.1411487018095983,0.29481730921125093,0.04512822540224232,0.2015894094350905,-0.9328937893306453
35.0,0.04277314450563861,-0.07059372072983403,0.03880296729234574,-3.790161102993519,0.2700536135776105,9.030799445505972,0.26296504439698776,-1.1671658986175115,-0.4146510059570641,145.81098310291858,-22.73719488778989,-1.7153996197220036,0.2878219339623843,0.04433780670937769,0.19291100300940392,-0.9368956559953916
36.0,-0.059710988722790445,-0.07676420890937022,0.08305608632123188,-3.7905880259263425,0.28065229852759366,9.030852122438272,0.5213084466674159,1.0769205912105204,-3.6008640552995392,146.57597738938216,-22.74266314019707,-1.7795133425124574,0.28156121164287584,0.0425114505498108,0.1934460311309805,-0.938752567635776
37.0,0.07305934584691469,-0.0021524764902026983,-0.03781649245063876,-3.341436720242778,0.2462785302161778,9.182338503615451,8.454110116706007,-4.083721572814806,-18.309181465662583,163.61767379453747,-19.94937285742385,-1.5194609723314976,0.13751739721516612,0.016047735699393058,0.16989221627659135,-0.9622088426399629
38.0,0.041178674459555656,-0.07901652242328874,-0.004929751601663463,-3.2884852572028023,0.45363830504664515,9.202093214941366,4.587056498445168,0.4963400584466675,-9.496286201341276,175.74627449327488,-19.619925724026825,-2.8113853920797274,0.03491499946011763,-0.015233888703682889,0.16780165397662133,-0.9736037160102654
39.0,0.030860777040950138,-0.09933595594020458,0.013229065977295732,-3.293074257240268,0.5379552658199396,9.205123712112691,2.30364331609906,-0.015952708778239677,-4.693245382338616,181.9967751301937,-19.631894411974073,-3.342519013899816,-0.01797284120070438,-0.030210386943501543,0.1682790722416545,-0.9789418702576899
40.0,0.038730283616200206,0.22198051777752786,0.15290120265257953,-2.95761342774718,-1.440553669776329,8.398754861189161,-27.54229047244389,5.424425368101608,-26.809900340938892,192.4263525158293,-17.596192068487504,10.276288355625493,-0.09876154314353153,0.06736639507054812,0.18533112163073695,-0.9488503073441983
41.0,-0.008979468734779523,0.24056618335768604,0.030819602113071845,-2.1813173354314186,-5.232645835674947,6.206401034056423,-13.222000861713687,20.35138951331909,-18.610954301075267,216.1595373908808,-12.913708740774043,38.425521243115654,-0.2611838475127571,0.24902124081300814,0.2600604797296092,-0.8409892880631299
42.0,-0.015730901802105575,0.05659645573414254,0.026641751901389992,-2.599086471095126,-7.056485744258363,4.776198212880747,-5.092072819489715,27.956378320407627,-8.52343509984639,246.22564043123148,-15.465514124611289,54.15714906241804,-0.43970786643840615,0.2416199560854595,0.3928498631589674,-0.6965068941029935
43.0,0.02356274586939419,-0.01908300550747446,0.03376081825334383,-3.1912891424075536,-7.866066483084188,3.9906811565696296,-2.283468971282455,13.966527340676633,-4.164845594020456,263.8860542879622,-19.081028717545237,62.20451293273013,-0.5400185514407947,0.20513594380684502,0.4765985789874115,-0.6085038965413061
44.0,0.029626034993068835,-0.02802959799183247,0.035043235547562855,-3.2709229890225178,-8.274447604061297,3.7965573601588547,-1.040163585103593,3.5621903216439996,-2.6027953008504743,271.55483589974153,-19.528115165224232,65.0830276357199,-0.5891586587125248,0.20116736830242407,0.5039878737510022,-0.5748915064787945
45.0,0.021618682327376276,-0.044372784833839135,0.02011013075568544,-3.2352018564310074,-8.443309561275335,3.742775139560152,0.40323154340414374,0.8587407155033532,-0.5774106323292497,275.01539493649545,-19.28018661487018,66.05946228363493,-0.6118295069290398,0.20155621757371406,0.5144641969463115,-0.5602033661780281
46.0,-5.278356576543519e-06,-0.04128130556828434,0.023725660911341477,-3.2109382938069015,-8.432818345567362,3.8082861429810673,0.2535543573100123,-0.03497452955187996,-0.06066755251698212,275.9523301708946,-19.118690676128224,65.65793562382738,-0.6191184010455786,0.19913754053458244,0.515240558952891,-0.5576519295343203
47.0,-0.0020875086099318976,-0.03281711207753695,0.02301720833585507,-3.1481312052751864,-8.429714856347431,3.8728467965289357,0.24411948856284021,-1.1108640408896113,-0.24755967871624834,275.8297665159388,-18.726062407956583,65.28062271782767,-0.6200364167854621,0.2020175427964771,0.5111585238182274,-0.5596814623255317
48.0,-9.568192101630274e-05,-0.033947501750806255,0.022468478282797723,-3.0840160353677266,-8.430597003311405,3.9287955461794954,0.07801961839629029,-0.49544972304118645,-0.1724275576901462,275.5636539109985,-18.322797136315035,64.96805526135286,-0.6200500017924161,0.20574422614332116,0.506998361228547,-0.5622192616922703
49.0,0.004157996213070957,-0.038013689431470724,0.015940844364133115,-3.042047956239932,-8.43322784113343,3.95469808030941,-0.015795298328736572,-0.6639450996158314,0.026809454641870067,275.2731287988172,-18.067547761705903,64.82727359841836,-0.6192235474200175,0.20879895974139942,0.5044346642448418,-0.5643372115427556
50.0,0.0032623183268344555,-0.0331610539997637,0.014842963488124779,-3.0127910906297997,-8.436511638898736,3.975212926858088,0.05739542715349165,-0.2519666489424554,0.007400596715112844,274.9953075150655,-17.888937138130686,64.715038254756,-0.6182904405943517,0.21125453503828429,0.5024347008368193,-0.5662345204653194
51.0,0.004265164287587577,-0.033732981154696355,0.012575812071484772,-2.999964913266643,-8.43246742347608,3.9932688734030206,0.14139667865572664,-0.09019671893147505,0.0017617127496159742,274.8936617211794,-17.813042551796485,64.60360034749542,-0.6181821826014384,0.2119642401407403,0.5012239113647674,-0.567176547102881
52.0,0.013044256490952007,-0.03848937844217154,0.0069630212431156585,-2.99141640440598,-8.42797718332022,4.00752537372148,0.0620721872541306,-0.14508875885129818,-0.05549395161290322,274.8398800157356,-17.75937745869394,64.51567786191974,-0.6182290572915028,0.21236898946361132,0.5003550120794651,-0.5677449021766325
53.0,0.018848741148701817,-0.04342210857592449,0.0007960267505900875,-2.9831396538158925,-8.428988591660111,4.015532848151061,0.051499803304484656,-0.12448490361919749,0.02207661290322581,274.77639162077105,-17.708468971282457,64.47142260031471,-0.6181097825892997,0.2129845251632573,0.4996474347494099,-0.5682788306367033
54.0,0.018178402832415425,-0.042452989771833226,0.004748819826907946,-2.975908536585365,-8.429421715184898,4.0186333595594,0.09107248229740361,-0.041854346970889064,0.0023689516129032267,274.7450506490952,-17.662626622738003,64.44992500983477,-0.6180495539478759,0.213305681992919,0.4992582811005114,-0.568566616169158
55.0,0.032012588512981915,-0.04798859166011017,0.0026687647521636505,-2.97444217151849,-8.42954956726987,4.020832808811958,0.07169551534225019,0.028921616837136115,-0.08891129032258063,274.73689024390245,-17.653112706530294,64.44051190007868,-0.6180516308166801,0.21337896452871752,0.4991360354897718,-0.5686351985845791
56.0,0.05683870967741936,-0.059701612903225815,-0.0018064516129032257,-2.9741935483870963,-8.429798387096778,4.020620967741936,-0.01774193548387097,-0.031098790322580647,-0.14445564516129034,274.7423387096774,-17.65131048387097,64.43775201612902,-0.6180795005483875,0.21338067858064513,0.49919251418548377,-0.568556806016129
57.0,0.06137096774193549,-0.06025806451612904,-0.0017096774193548388,-2.9749354838709685,-8.430000000000005,4.02033064516129,0.12510080645161292,0.08245967741935482,0.04747983870967741,274.76370967741934,-17.656703629032258,64.44879032258063,-0.6181347268467745,0.21328528671774188,0.4992981940241935,-0.5684353246612903
58.0,0.05997580645161291,-0.05219354838709679,0.01366935483870968,-2.977516129032259,-8.42625806451613,4.021040322580644,0.2417842741935484,-0.03865927419354839,-0.019707661290322587,274.78936491935485,-17.672379032258064,64.44233870967741,-0.6182818497983873,0.21304311569354845,0.49933274769354824,-0.5683366337741936
59.0,0.06634225019669553,-0.04632435090479939,0.03237411487018097,-2.9789193548387107,-8.422967741935484,4.025929189614476,0.1794834284028324,-0.028897029897718335,-0.001022816679779704,274.80236895161295,-17.68094758064516,64.40766129032258,-0.6185175100464201,0.21276184701022827,0.4991211566738787,-0.5683821308869001
60.0,0.07739437450826121,-0.04446715184893786,0.040970298977183336,-2.977928009441385,-8.420819040125885,4.032499606608969,0.1643907356412274,0.06419035208497245,-0.07479346970889064,274.8174247639654,-17.676224429583005,64.36357199055863,-0.6186578978935876,0.21263515544413847,0.4989439650224233,-0.5684286634126672
61.0,0.09657528899110332,-0.0499508009037907,0.045060935261958104,-2.9807731445056396,-8.415086939417783,4.035513657729631,0.10278185458653594,-0.05336737048356836,-0.06983831880812605,274.858981199187,-17.69316933844742,64.33601986624706,-0.6189417695161692,0.2121625737437814,0.49899082643015286,-0.5682583082844972
62.0,0.10763441868910006,-0.05251975529060504,0.04823208053420487,-2.9804510883818525,-8.412220889063732,4.038337474026106,0.14398165309971958,-0.037696790080493855,0.005756243821743431,274.86923354314183,-17.690712693417257,64.31947162667191,-0.6190958334677623,0.2119227696218906,0.4989386150416893,-0.5682167469527324
63.0,0.10261441626823216,-0.048331376465129444,0.05236623696261779,-2.954419092578023,-8.39831628638867,4.089817143779378,0.3566934475176017,-0.47814410216062453,0.09860245314611954,274.7039666928928,-17.530176370312088,63.9890538945712,-0.6193965096778229,0.2128288805873025,0.4958838042515684,-0.5702045164834473
64.0,0.0830656660412758,-0.045190078476467166,0.04963866529484155,-2.9246289011277202,-8.383351691581433,4.142094252456172,0.23855030361718008,-0.4242608787750408,0.030482383142689987,274.57678173354316,-17.350773669027014,63.66267210857592,-0.6198957840985493,0.21373370778224293,0.49278918591571347,-0.5719969345902682
65.0,-0.10283931489438963,0.46454894187899703,0.29320564263955295,-3.293913978494624,-7.067885129819041,5.009006213560895,-2.475827129859388,-43.15899314591781,57.01845716324719,251.79437041043798,-19.747633097298717,53.60031717151848,-0.47161033235297256,0.19595630803667616,0.43652112134495347,-0.6589433550520184
66.0,-0.14969630212431162,0.18206667977970104,0.25095180959874114,-2.58363808025177,-3.1430023603461845,7.391947678992919,-0.2125442564909521,-19.222730625491742,29.658255064909522,194.7198723937844,-15.387568843430369,24.234142653422502,-0.05854789212254127,0.09853682624311566,0.26245100481982686,-0.805705675702793
67.0,-0.03900867333558129,0.08872938443670152,0.11742310141995428,-2.1584089018770376,-1.3214474167322319,8.600021074519502,-0.08087850305346378,-7.680237720579973,15.694868939904836,166.88650469727622,-12.793294790378779,10.399356992993892,0.1423135163763254,0.05512176527900791,0.16971240972711774,-0.8813743674633396
68.0,-0.006188799595369228,0.030453074069911212,0.06703120902176764,-2.543590011614402,-0.25106333595594044,9.051831750402757,0.10717019547787643,-3.5215388614139593,7.254622286070211,152.4175285559739,-15.085609732681428,2.49434711138586,0.24611153623394594,0.03589950917878686,0.1554760873634652,-0.9140133960504288
69.0,0.023604306128797006,-0.005821474968045144,0.03743871028732793,-2.551152657720179,0.2054773342725925,9.33444635157047,-0.10964574903525534,-2.2478462780438138,2.677403158226403,145.71070714651657,-15.105046989371472,-0.9639503190257497,0.29420290426222806,0.02635052185533491,0.13793806160849553,-0.933147316669438
70.0,0.030872570058891033,-0.033847991614628405,0.014462274105111646,-2.654446608167721,0.35875194408358196,9.420583325273824,-0.3247044884043311,0.937993535840406,-0.09638951549734126,143.2990224363582,-15.71452499448904,-2.189956080047887,0.31147593729968215,0.02531285633915447,0.13595843418003456,-0.9399372912319455
71.0,0.03540818567011091,-0.04494280364516217,0.01217980888950461,-2.685572747716545,0.2944087546276814,9.417582135080808,-0.44402958862537933,-0.17369177878093212,-0.26455865381850685,143.48851008483828,-15.892622028547205,-1.802197936243643,0.30994622444130626,0.028699529700992318,0.13642146550296544,-0.9403878195086706
72.0,0.0487832018980355,-0.06482316833563793,0.007348737010036484,-2.655493747130162,0.25485491494824936,9.429115952333031,-0.17935446405155295,-0.7915405898512956,-0.210183512777149,143.6152611868124,-15.705455599527058,-1.5540271555258152,0.3090224651922352,0.029973372487208907,0.13426379955255796,-0.9410180271191586
73.0,0.04366886669402542,-0.0635674981463136,0.0073863500718385185,-2.5790886554391212,0.23265864026982358,9.450687776473737,0.30139419654565214,0.7011767096826469,-1.164884383116685,144.06057798203904,-15.257921732175204,-1.4100540923558413,0.30550147886647094,0.029348732206738094,0.13031491175246945,-0.942721314713957
74.0,0.038591884905024174,-0.055400659398299065,0.010344685474504517,-2.736569742609869,0.18409861001835826,9.406703008504746,-0.34858988048405826,0.8050150331572439,-0.029529382563410866,144.46903263272264,-16.212459255928962,-1.1186954404106253,0.3018306106306995,0.033796523952343484,0.13753688529493086,-0.9427131183524409
75.0,0.04426840508036417,-0.05679159641826835,0.01599452999138286,-2.8030134314937625,0.17599108313663783,9.387250009366458,0.526678702558915,-0.0802570388895133,0.11446426229815296,144.42211466411896,-16.607975300663142,-1.0766323386160128,0.3020617625930838,0.03526220823108913,0.14064876824935374,-0.9421501080983289
76.0,0.04816601101494887,-0.07228540519276162,0.005851691581431942,-2.774681943351691,0.5844189614476789,9.363212037765543,3.7172452793076314,-1.0498807533438237,1.8638166306058221,143.8717323957514,-16.436676337529505,-3.5871066089693153,0.30634076985719905,0.01530413799213218,0.14588843945849728,-0.9400725923200235
77.0,0.0606233280881196,-0.09688060582218727,0.015409716758457908,-2.3025869394177807,0.8529917387883554,9.458404405979545,-0.5024156667977973,-3.98867525570417,5.336721823367427,140.14750934303697,-13.581896636506688,-5.131355723839496,0.33744767986408336,-0.0019201630845790676,0.1272444909429583,-0.9312817040753345
78.0,0.07022974036191976,-0.042165224232887495,-0.018604248623131384,-1.8647647521636506,0.8005948072383948,9.55701180173092,-2.0613788355625493,-3.216955153422502,-1.197236428009441,138.04471872541308,-10.981146734854445,-4.783438237608182,0.3554226588922108,-0.004922506915814317,0.10482792427694729,-0.9274203444028326
79.0,0.09502495223108914,-0.048956239931062906,-0.01553606084447941,-1.2921351017196805,0.7005381214641637,9.660201228878652,-0.4527172080476568,-0.9440096849125174,1.6607611179798436,137.84006242740998,-7.596403750327825,-4.1525924000599455,0.3580535688543329,-0.01007585284890038,0.0752114561107864,-0.9295046755894496
80.0,0.08568556816904574,-0.06819881233374546,-0.013400603199580384,-1.1816348207260872,0.6738103667903039,9.69331776628826,-0.356792317635158,0.6496365816192726,0.9405202128058148,136.49497220505037,-6.929850183582481,-3.980126845191263,0.3692897749590311,-0.00985483421044547,0.06931332831660486,-0.9261412103163613
81.0,0.07064560151361882,-0.06440400322205989,-0.01106525607882807,-1.207071391105616,0.6060030066314486,9.702192021655236,-0.5380070763553257,0.6756692330748193,0.5806472687422728,135.53170526816155,-7.072954249559777,-3.5722388281630515,0.3771361444543385,-0.005394021172698663,0.06917271964854257,-0.9233506509086209
82.0,0.06297710838859541,-0.062111423326214846,-0.0078120340189577015,-1.2914214154583938,0.5640781162189499,9.696209995878759,-0.2109992600502042,0.7543373702746244,0.2628723165111836,135.05432074482036,-7.571195112584766,-3.3263159866621708,0.3808931498126336,-0.00146221156097561,0.07238239970694241,-0.9216857750483312
83.0,0.05938312539807426,-0.07444674234760783,-0.003861957214042187,-1.3675659398299054,0.5489470046082945,9.688592802817432,-0.13480234442321382,0.5651014152710652,0.2758696751714061,134.81413912929452,-8.018922693979244,-3.23834485407066,0.38273343895431067,0.0009494977505900873,0.07567627324135477,-0.9207080179191299
84.0,0.059544097261249124,-0.08484472294031697,-0.0027750646285264694,-1.4194742141545844,0.5437284946236554,9.68315200816755,0.007771638848300927,0.27667993190588586,0.0619795764489903,134.66739022516953,-8.322935809355213,-3.2088661674347154,0.3838542087743906,0.0022656198461091757,0.07800636168903377,-0.9200896977460468
85.0,0.06531276460230041,-0.08445756996740475,0.0007919523434865685,-1.4439710763927915,0.540376344086021,9.67974860439849,0.026957588700310967,0.15723933160990594,0.05258818515604511,134.6330902738751,-8.468102075606009,-3.1895641321044543,0.3840918612155786,0.0029345526545652098,0.0791445259617474,-0.9199049308680074
86.0,0.07111644374508262,-0.09285090479937057,0.001050354051927616,-1.4640538945712032,0.5399999999999994,9.674398111723058,0.024577104642014163,0.09769128638867033,0.02995672698662471,134.6255409126672,-8.589720200629426,-3.1875,0.3841477311723056,0.00336036900393391,0.08004289464830842,-0.9198005584055857
87.0,0.08400432730133754,-0.09540656963021243,0.0027242328874901656,-1.4672983870967737,0.5399999999999994,9.674335169158148,0.11191483084185681,0.01326834185680566,-0.04432533438237608,134.625,-8.601532995672699,-3.1875,0.3841256913375295,0.003296247857592447,0.08024880291030682,-0.9197843089470888
88.0,0.08767151848937843,-0.09448151062155784,0.0024185680566483087,-1.4711290322580641,0.5379354838709673,9.673554681353266,0.0634674960660897,0.09546985641227379,-0.02206186073957514,134.625,-8.624632425255705,-3.1762096774193544,0.3841089813139259,0.003425353735247837,0.08038838328579856,-0.919773597638867
89.0,0.07974704956726986,-0.08327301337529505,0.003951219512195122,-1.4626290322580644,0.5245161290322579,9.676777340676637,0.10625491738788355,-0.053550354051927616,-0.1012023013375295,134.65806451612903,-8.575194236821401,-3.0971774193548387,0.3838493971408339,0.003874208117623917,0.0797150213808025,-0.9199385015291106
90.0,0.06607966168371361,-0.07163414634146342,-0.004667977970102282,-1.4250918568056647,0.5175483870967741,9.682428009441384,0.09848052714398112,-0.024414830841856805,-0.03767825531077891,134.79395161290321,-8.346463168764753,-3.0600806451612903,0.382822132014162,0.003373399434893785,0.07776152386113297,-0.9205325051846969
91.0,0.05774232887490166,-0.07499095200629426,-0.004364280094413846,-1.4089000786782058,0.5132903225806453,9.686536585365854,0.04441876475216364,0.07815204563335956,0.006060680566483085,134.80624999999998,-8.270158831628638,-3.059274193548387,0.382701150039339,0.0031893227706530297,0.07703279199134538,-0.9206557804107001
92.0,0.056619394177812754,-0.07257887490165224,-0.0034103068450039332,-1.4081266719118795,0.5111612903225808,9.688258064516127,0.1199178796223446,0.0600486821400472,-0.006514309598741148,134.8123991935484,-8.254449006687647,-3.0588709677419352,0.3826414993548387,0.003210473331038554,0.0769368257682927,-0.9206998704555468
93.0,0.05498308418568057,-0.07439830841856807,-0.0021245082612116445,-1.4117730133752953,0.5101612903225808,9.684500000000002,0.046098052714398104,0.09645579268292682,-0.012153324154209284,134.81547379032259,-8.274931156569629,-3.0590221774193544,0.3825952809032259,0.0033004631211644405,0.07708491313414634,-0.9206929838487412
94.0,0.06800629425649096,-0.08512096774193549,-0.010210660896931548,-1.3462271833202204,0.5013623131392606,9.694083202202993,-0.20281643391030685,-0.9604236329661683,-0.6507757179386311,134.9945773505114,-7.886668961447679,-2.9827129228953577,0.38132726099311576,0.00239405396675846,0.0737406246754524,-0.921470198031668
95.0,0.11572895357985838,-0.09873249409913454,-0.014341070023603457,-0.6658044846577499,0.3586231313926043,9.742180173092056,-0.8140956923682139,-3.0531151652242325,-1.3399783634933125,137.02217741935482,-3.8861428009441377,-2.1175747442958297,0.36535523902989775,-0.004113397336742721,0.03833400166207711,-0.9290145363056648
96.0,0.07924763965381589,-0.09312391817466562,-0.008914044059795434,-0.9256221479150275,0.3021825334382377,9.732606215578283,-0.27786806648308415,1.6576871066089696,0.334062745869394,137.44637096774193,-5.421961054287962,-1.7811664044059794,0.3619215314181746,0.002943496905192763,0.04993778609854445,-0.9301922081142799
97.0,0.07445043273013374,-0.10412647521636507,-0.0076465381589299755,-1.0940167191188044,0.26673642800944153,9.724988591660109,-0.1203100413060582,0.8032135129819041,0.15367451809598734,137.6657258064516,-6.4053353658536585,-1.5678009441384735,0.36011647206392616,0.0074735467267899305,0.057329388658143195,-0.9307398334079464
98.0,0.05815263571990559,-0.09559952793076319,5.979543666404397e-05,-1.1966656176239185,0.22707789142407564,9.71887332808812,-0.3798878835562549,-0.09975413060582211,-0.2430468135326515,137.71572580645162,-7.005792682926829,-1.3320859559402045,0.3596995900118017,0.01114090356097561,0.06147576654681354,-0.930772778905586
99.0,0.05269944925255704,-0.07169433516915816,-0.01177183320220299,-1.225016522423289,0.186402832415421,9.718956726986628,0.23560680566483083,0.4656127065302912,-0.014742328874901678,138.05318154996067,-7.174513178599528,-1.0951096577498034,0.3569452692977969,0.013379830549173877,0.062190389347364275,-0.9318541021907947
100.0,0.05498259713011876,-0.0712961953467461,-0.00743419130043835,-1.243925592896482,0.2163906934921884,9.718273650294108,0.321289596680529,0.588167242703533,0.1310802330373534,138.03862198400208,-7.286174295642726,-1.2699308170357049,0.35707259022268745,0.01229676108291184,0.06364426957364841,-0.9318115951426418
101.0,0.047820566857742317,-0.0677262841407216,-0.003660644037315949,-1.2982523322468245,0.2293542767224908,9.710922033644298,0.15582575821437936,0.49897150490802145,0.07347800990970738,138.0229400242591,-7.604191839009404,-1.352782948840433,0.3571978958675397,0.012695918397868194,0.0664776915487243,-0.9315637225783038
102.0,0.051954638267580844,-0.06441556142519951,-0.00018112847027087803,-1.3392713274137351,0.23467713836124549,9.705194887789887,0.178845338784609,0.30591216374433333,0.09926420656775692,138.00277545567795,-7.847811645311154,-1.395620305065378,0.35728249403860857,0.013193175223127646,0.06855078451629762,-0.9313769343214098
103.0,0.05019909332733882,-0.05777632909969654,-0.00034056423513543913,-1.3749421153197705,0.2429272788580421,9.70124663744333,0.1260406129406916,0.31371717058184406,0.08786295005807201,137.9743968004196,-8.056516709752351,-1.4210712412423663,0.3573419216886591,0.01353808273253156,0.07037399486298751,-0.9312154905840923
104.0,0.05365186767075045,-0.06510374283466337,-0.0021844441946723614,-1.404044621782623,0.24797032707654268,9.695163051215761,0.07669064478663219,0.16534107939005657,0.056175770859091076,137.9502688172043,-8.231518583042973,-1.4375960061443933,0.3574524176539282,0.013891066425274434,0.07185027873361807,-0.9310606947963737
105.0,0.059140833988985064,-0.06403343823760818,-0.0030991345397324934,-1.421114476789929,0.24995751376868608,9.692101494885915,0.2246164437450826,0.16923928009441386,-0.0349257474429583,137.94203629032256,-8.329934598741147,-1.4479838709677417,0.3574654192324941,0.01410204175334382,0.07268414851888276,-0.9309943828367424
106.0,0.06736506687647523,-0.05097029897718333,-0.0027108575924468924,-1.4445643194335172,0.24790322580645163,9.69056451612903,0.11636506687647521,0.22429804287962235,0.0022755212431156586,137.97101814516128,-8.468301288355626,-1.4403225806451612,0.3571946182016129,0.014575224572187254,0.07380284096282454,-0.93100077393214
107.0,0.05442348544453187,-0.04826534225019671,-0.0035438630999213216,-1.4555131785995283,0.2439516129032259,9.690120967741933,0.12660429779701024,0.10962332808811959,0.00863862116443745,137.98588709677418,-8.535140883162864,-1.4192417387883556,0.35705625312903233,0.014957120775177026,0.07427978009402045,-0.9310138304785602
108.0,0.04965932336742723,-0.035418961447679004,-0.00525177025963808,-1.4586073957513774,0.24182258064516143,9.689935483870968,0.11730920535011802,0.05027537372147915,-0.03446597167584579,137.99395161290323,-8.553936369000787,-1.4106289339103069,0.35697267433870955,0.015095205173878839,0.07433855526475214,-0.931036128783635
109.0,0.03797757671125099,-0.03371420141620772,-0.008486624704956727,-1.457762391817467,0.23481451612903237,9.690096774193549,-0.026052321007081047,-0.019954760031471286,-0.4201194925255704,138.08588709677417,-8.54433148111723,-1.3780967250196694,0.35633628442741927,0.015325200665617624,0.07418555380940202,-0.9312792816412274
110.0,0.05542926454610169,-0.03279546476340341,0.00565223296242179,-1.4490182926829274,0.24016705069124428,9.690785714285713,0.23827232259937803,0.07153423672773594,0.1643090133378292,138.13150921658985,-8.496305285489491,-1.4235997738001573,0.35606461427188946,0.014813366920750439,0.07395687520980854,-0.9314147008835935
111.0,0.04483560001498632,-0.03383724851073397,-0.0003633996478213633,-1.4586986624704954,0.2442488479262673,9.689884792626728,-0.005989846764827111,0.212556432879997,0.06214442602375332,138.1326900921659,-8.554856271777004,-1.4564319433516917,0.356090291200461,0.014808180061181668,0.07451178504038813,-0.9313621041837323
112.0,0.051418586789554535,-0.03036866359447006,-0.001534178187403993,-1.365741935483871,0.2071566820276498,9.702587557603685,-0.03990975422427036,-1.373535906298003,-0.7926099270353303,138.42440956221196,-8.001857718894009,-1.2306451612903224,0.3537657538905531,0.014722757778033797,0.06935781573655914,-0.9325948547818739
113.0,0.04796351766513057,-0.039997311827957,0.0027826420890937026,-1.3968955453149,0.22800230414746545,9.696908218125966,-0.10000960061443932,1.4215269777265744,0.20395785330261146,138.6691940284178,-8.193085157450078,-1.3515240975422427,0.35171610971236555,0.014151802876728112,0.07131107882603688,-0.9332162114016894
114.0,0.06212903225806453,-0.04870967741935484,0.00477188940092166,-1.7243033794162823,0.1696705069124424,9.633112135176653,0.12312307987711213,5.659154185867895,0.38567588325652846,138.56917722734255,-10.153283410138249,-1.008851766513057,0.35193469727649773,0.023070196897849466,0.0862407956766513,-0.9313715409301075
115.0,0.016129800307219666,-0.04225806451612904,-0.005294546850998461,-2.085008832565284,0.1446509216589862,9.552285714285713,-0.3673699116743472,-0.7721414170506913,0.4515504992319509,137.6220982142857,-12.299087941628263,-0.8686011904761906,0.35886123348463905,0.03173428980837174,0.10279939708179722,-0.926505020733871
116.0,0.019975440288643596,-0.041809827456864235,0.00033425320615868394,-2.1217787036044724,0.11825391169220878,9.556102722109099,-0.18427983111849391,0.13714114912656739,0.053836952541706895,137.13078783088628,-12.50725683653056,-0.7118840536026864,0.3628706546920569,0.034029136340326144,0.10392129357456328,-0.9250636359683045
117.0,0.033760761618976176,-0.04712803200800201,0.004021005251312828,-2.1245039831386414,0.061632908227056755,9.561089379487727,-0.46509618476047576,-1.3321890740542277,-0.4104843175079484,136.87294479869968,-12.51386507341121,-0.3717938413174722,0.36500651346104385,0.03705570302557781,0.10282542168417104,-0.9243842642051585
118.0,0.043101672630701235,-0.02428738717780491,0.008952543013802232,-1.9108314752904252,0.03712981816882792,9.607146259561407,0.11136347893593612,-1.212702593113435,-0.7054739784684847,137.33564545862075,-11.235695275081836,-0.2243391858417566,0.3616859957480747,0.03380929017347978,0.09218887466575268,-0.926951137833631
119.0,0.037843032186618095,-0.04307865293849594,-2.9554426934258124e-05,-1.8190518884076419,0.06165106172013385,9.627547596829519,0.12745804046830525,0.05809493531919563,0.10928614122171659,137.38581931523822,-10.68784723946666,-0.3670132199861812,0.3614380907448552,0.03081493820455114,0.08826261483924554,-0.927605585998416
120.0,0.03857743007180367,-0.052834257344824026,0.002409185920173423,-1.8391019810701805,0.07205824975407613,9.62605874465132,0.16639799104828473,0.22458318194531213,0.01474291700102727,137.35868826745013,-10.80670683785929,-0.4367084149086052,0.3615556057856382,0.030614550902582797,0.08941684309934625,-0.9275168107257822
121.0,0.04547926267281107,-0.05543063204825598,0.002146828518976434,-1.8663739462740252,0.08092034768273945,9.62070754186805,0.1107590105278933,0.3368930538383724,0.04986020568731033,137.34892402869883,-10.975333914053426,-0.4992525570416994,0.3615774566272528,0.030656518211981565,0.09094621934562212,-0.9273722393006254
122.0,0.04764830841856807,-0.05331785995279309,-0.001185680566483084,-1.871641227380016,0.10185287175452395,9.619638080251773,0.16148210070810384,0.08069925255704169,-0.00859067663257277,137.3456333595594,-11.00502065302911,-0.610537962234461,0.3616296133233676,0.029796344357199057,0.09156432166561762,-0.9273258803532649
123.0,0.045389850511408356,-0.05405468135326516,-0.00030959874114870156,-1.8680786782061374,0.11128048780487806,9.619264358772623,0.18808762785208497,0.12775619590873327,-0.060058516915814326,137.35215381589302,-10.984709382376082,-0.6581653225806452,0.3617160963705743,0.029344943571203777,0.09155648642682926,-0.9273132866125096
124.0,0.04705133752950434,-0.05829012588512983,0.011337726199842644,-1.8680904799370577,0.11191325727773406,9.619864280094417,-0.04384957710464203,-0.045587873721479155,-0.20602257081038552,137.36610936270654,-10.9819003245476,-0.6715787273800158,0.36164617908064506,0.029260185511014947,0.09157710332199055,-0.9273429957838313
125.0,0.061319826907946504,-0.0625157356412274,0.003082612116443746,-1.8263912273800158,0.08909834775767114,9.62824055861526,0.071265243902439,-0.19612141030684502,-0.004467446892210847,137.41011506687647,-10.734767161683713,-0.5312745869394178,0.3613951535867427,0.029550164021439805,0.08915667259874113,-0.9276624089683319
126.0,0.05279701022816681,-0.057427222659323374,0.00499291896144768,-1.8136270653029112,0.08283949645948072,9.631059795436663,0.049291896144767894,0.14359756097560972,0.0006392604248623181,137.42572285601887,-10.66030192761605,-0.493661487018096,0.3613413860070811,0.029603967700236027,0.08843595989614478,-0.9277531522140048
127.0,0.05591856805664831,-0.059629425649095215,0.005789142407553108,-1.8201699449252553,0.07768961447678994,9.630738394964592,0.10879228953579859,0.07837332808811959,-0.015922501966955153,137.435092938631,-10.696663552321006,-0.46939171911880406,0.36123046267623915,0.029889686796616834,0.08867814440912668,-0.9277653449071597
128.0,0.05564614476789929,-0.055537765538945724,0.010233674272226594,-1.7594555468135324,0.09191640440597956,9.641498229740357,0.28780487804878047,-0.15581726986624703,-0.03881294256490951,137.56152266915814,-10.338954317466563,-0.546187795043273,0.3602481166308026,0.02802568574291896,0.08604037535562548,-0.9284455647509835
129.0,0.051376643812521085,-0.05797433591847441,0.0061137649394927135,-1.7861916750964744,0.11309587501404962,9.636258907496906,0.1750180304222397,0.3217937460192575,0.01405167003858979,137.581038552321,-10.494324748979055,-0.6707333464463676,0.36001415515353485,0.027509540366659174,0.08770716700730583,-0.9283991049242628
130.0,0.05713364055299539,-0.06055837173579111,0.00868394777265745,-1.8357480798771122,0.1277281105990783,9.627869815668202,0.13854166666666667,0.14768385176651305,-0.032313268049155144,137.60584677419354,-10.78821764592934,-0.7483534946236559,0.35982322896543767,0.027785235306067593,0.0903447632534562,-0.9282135370364826
131.0,0.0652684331797235,-0.059109831029185864,0.01055568356374808,-1.836906298003072,0.12107373271889398,9.626947004608294,-0.003763440860215045,-0.12830021121351767,-0.03241167434715821,137.64344758064516,-10.798065476190477,-0.7248319892473117,0.35950896538594457,0.028030600060291865,0.09030792901382487,-0.9283364021996929
132.0,0.0738581544340789,-0.059404836836386796,0.00970890000374658,-1.839645713911056,0.1054172754861189,9.625326374058671,-0.020339135851035927,0.15607326673785168,0.024474483440110897,137.60493951612904,-10.814259429676671,-0.6296944662995017,0.35973925995585593,0.028865933382329248,0.09015272990522086,-0.9282393751714435
133.0,0.07229689783072946,-0.049013394027949506,0.007897624667490914,-1.825151830204938,0.08837877936383048,9.629460492300773,0.11617410831366379,-0.1708575690307594,-0.10553358341763142,137.61332612116445,-10.72402647427972,-0.5305730396013637,0.35960915037889185,0.0293741408694691,0.08912700024519504,-0.9283748424382003
134.0,0.08272088906372935,-0.031084382376081833,0.012214988198269083,-1.7616099527930764,0.0667084972462628,9.64041896144768,-0.004908782454760022,-0.7587345102281667,-0.35341881392604246,137.80534765932336,-10.347446646341464,-0.4059402045633359,0.35820689280999224,0.02902889977852085,0.08572014753324157,-0.9292329723398899
135.0,0.08704996066089693,-0.03413493312352479,0.009030881195908735,-1.7237364280094414,0.0714832808811959,9.64749980330448,0.1845667781274587,0.25911560778914233,0.1905536978756884,137.8216254425649,-10.123496508654602,-0.4334136506687647,0.35815755808241556,0.02810926842151849,0.08399511085936273,-0.9294374210892995
136.0,0.04983949645948073,-0.02646262785208498,0.004188827694728562,-1.6444972462627852,0.07572147915027538,9.659197482297403,-0.31835169158143195,-4.066787962234461,-1.5477675059008655,137.94511211644374,-9.635916601101494,-0.44825924468922107,0.3572607536097562,0.026442801795436663,0.08004394323210073,-0.9300748107301338
137.0,0.08115027537372146,-0.029299763965381597,-0.012885916601101492,-1.3346042486231313,0.016937057435090472,9.676826121164439,0.5848642800944138,4.41456038552321,0.5659913453973251,139.67316089693156,-7.830414044059795,-0.10587136113296618,0.3433245504752164,0.023163778361132967,0.06480891539417782,-0.935643575011015
138.0,0.08709408449673395,-0.048469068486633855,0.002096920571606318,-1.863538195524491,0.10776527363548205,9.589490220116005,0.4240363063326807,2.579087321373026,0.4464982480376192,140.0392025597863,-10.979567052586317,-0.6550315170255979,0.3396008445695753,0.027523821802288993,0.09215969941538434,-0.9347062320346275
139.0,0.0676225733262584,-0.055092126690209145,0.008467815124512838,-2.1994284211296735,0.13695108685708018,9.527837163559186,0.09515643011362596,1.3534697031727443,0.2577937739007923,139.9474631996414,-12.977711339039029,-0.8254750425411231,0.3397883504201142,0.03205070369028691,0.10892591611996594,-0.9330102993532696
140.0,0.06835475637201985,-0.05689382101622967,0.014333828884050284,-2.349402644868534,0.16464853713428368,9.50112019468282,0.28400991253911034,0.5820560799498655,0.21029563793387374,139.69950608841236,-13.87226501747388,-0.9936396160777998,0.34158059458574547,0.03354863772289719,0.11663109891895228,-0.9316570191265758
141.0,0.06667364097121843,-0.04751063985508573,0.013339318061222625,-2.4312065348654235,0.19934983898413638,9.48700010520923,0.320132414963497,0.4624795299434614,0.12818455185442704,139.52626514098037,-14.355802060271166,-1.2099264907690337,0.3428530096460396,0.033442396696027665,0.12115239719806778,-0.930789801985298
142.0,0.06547391725980278,-0.04296499734689771,0.014488207417708088,-2.5057605254972275,0.23692895175013268,9.471560536475582,0.25457225586884524,0.5690421843265695,0.02782715495947158,139.41343498984503,-14.804917159167841,-1.438229374416775,0.34367916103269713,0.03309395260607835,0.12540409953451775,-0.9300782611297457
143.0,0.055118804091266724,-0.05240597954366642,0.011490165224232888,-2.5539417781274585,0.2717120377655388,9.45767899291896,0.31417191188040916,-0.15507474429583,-0.07414437450826122,139.35561565696304,-15.094895751376868,-1.647659323367427,0.3439808780047207,0.032313241192761605,0.12837085086703384,-0.9295850029189614
144.0,0.06362717770034844,-0.04796556891836201,0.013861488891386612,-2.4916754711325915,0.30527904537109873,9.472533063579487,0.16617492787831104,-0.04125524521374246,-0.1054472949683414,139.60888127084036,-14.721624096137274,-1.8434488685324641,0.3420741647260125,0.02931454420808512,0.12599621947701473,-0.9307057266887715
145.0,0.05305408190026602,-0.05123509941409235,0.01283211425343605,-2.4754772279909965,0.3097270168855535,9.477060576454758,0.10611849139583207,0.1471341085154028,0.024606690025159722,139.64702307101498,-14.619696128844929,-1.8694210793468269,0.34179925686642576,0.028787198657836265,0.12527218225943776,-0.9309301567044495
146.0,0.05042947997452325,-0.04628631445920983,0.006097410391863579,-2.34990619857457,0.3240059159958846,9.507751373986626,0.03688103956101595,-0.6365775169460751,-0.07414433398033911,139.79604792417786,-13.86642261202278,-1.9499544421124377,0.34085302948750085,0.0256803495846223,0.11941278456402254,-0.9321056671995889
147.0,0.03615725686648143,-0.04593207320859967,0.005939646681303133,-2.2914356574268195,0.3004484756273496,9.52342913785603,0.05001989900031292,-0.47093258349179223,-0.09951414467209004,139.89105190657506,-13.516960954360977,-1.8065091274703224,0.3402319886212823,0.025701577391711004,0.1161687934162011,-0.9327575424139354
148.0,0.03520834912560893,-0.03933818451932737,0.004339315866221985,-2.222981794094999,0.2791530340371209,9.54003252722857,-0.17608478397742025,-0.26378368454684026,0.006339873966079289,139.97836734294134,-13.10504629641731,-1.6761603711702517,0.3396589617500589,0.025409245791252824,0.11247713462086611,-0.9334342284071053
149.0,0.039063467957581734,-0.04464221053923359,0.005963820759531882,-2.1364755360643963,0.23754886724897523,9.560411808929187,-0.2955836746307992,-0.9064934167741882,0.026019399348631043,139.9960481107948,-12.580460936227087,-1.4240056848170766,0.3396589600378559,0.025879497265826105,0.10747071349706898,-0.93400705197237
150.0,0.040338185591694095,-0.04601778493403841,-0.0004075496225972859,-1.958579845309759,0.17632022117027513,9.599320875515048,-0.18484651650717557,-1.1143302485028923,-0.1984069079116469,140.07083363828764,-11.52222931603981,-1.0558525410969466,0.33939456296941833,0.025607987461342685,0.09772922397764947,-0.9351430155844362
151.0,0.05164824307122076,-0.038215029367097884,0.0035420945828791685,-1.8560570351647145,0.15217820657254905,9.620554222179237,0.02243708793051921,0.07063286945429736,0.0002998898679373724,140.30194415982044,-10.91092779728033,-0.9075928716499683,0.3376997091920262,0.02479442936875159,0.09241508814932828,-0.9363329558661756
152.0,0.059255479375070225,-0.047021243115656974,0.007609006781312054,-2.0073458469146903,0.16762923832003307,9.58871672099209,0.18753606084447944,1.4540758120714847,0.06741832452886741,140.22409192237083,-11.817176201715933,-1.0003877711588176,0.3380612959448503,0.026800687243265515,0.10011235165981042,-0.9353233688348133
153.0,0.06188018433179722,-0.05196927803379418,0.008795698924731185,-2.1089769585253455,0.16479416282642095,9.56758678955453,0.03995775729646698,0.3819508448540707,0.07504800307219661,140.07909946236558,-12.423723118279568,-0.9866359447004608,0.3390290010860215,0.02883975774193548,0.10494153197542243,-0.934406173809524
154.0,0.05465520212805815,-0.050359053613577634,0.005278202390318835,-2.1620029972649957,0.16565051890150234,9.556455809074222,0.1861760518526844,0.334735842606122,-0.023706258663969124,140.02445686280018,-12.737728190213929,-0.9924861142332622,0.3393899210694054,0.029757274719943043,0.10751414315641977,-0.9339762328339142
155.0,0.05052652579521188,-0.05021792926454612,0.006222818553070324,-2.179680454085647,0.16487057435090485,9.553432205612385,0.03534513038102731,0.24351039442134054,0.039030127196433256,140.04237436073956,-12.839174194953355,-1.0079414058109477,0.3392868803979899,0.02998315132924955,0.10838128605132816,-0.9339222649768649
156.0,0.06025834550972238,-0.05432188752763105,0.007526338466149638,-2.1615520681128464,0.1527757671125098,9.558597102019407,0.030616359447004606,-0.2803340779663557,-0.016553976527668497,140.07741197875688,-12.729598284534113,-0.9316906330785658,0.3390158982724608,0.030221111745073234,0.10728383906519989,-0.9341509143670712
157.0,0.06120175340002248,-0.0498786856992994,0.009126072458881272,-2.113788130830616,0.13725885129819043,9.569939680041958,-0.061203917050691246,-0.18437066801543592,0.000165552058746396,140.1203088119591,-12.44804006968641,-0.8229269697650894,0.3387527272451013,0.03018180992495597,0.10470235620598703,-0.9345369504496648
158.0,0.06389811172305271,-0.058097560975609766,0.009953973249409914,-2.101518489378442,0.1174520062942565,9.573184893784422,-0.04163306451612903,0.20492968135326511,0.026964496459480725,140.1434205350118,-12.376885818253342,-0.7035429779701023,0.3386023209535799,0.03090819382730133,0.10373969519669549,-0.9346787300236034
159.0,0.08666974822974038,-0.052649095200629444,0.013719708890637295,-2.11820692368214,0.11176534225019669,9.56810306845004,0.06128909323367428,0.031792142014162056,-0.03381810582218725,140.17701612903227,-12.475170879228955,-0.6702461152635719,0.33833779098347755,0.03143471003324154,0.10446315514909518,-0.9346728493084187
160.0,0.08240457457569968,-0.04935834176314116,0.012895376718744148,-2.1654897905661077,0.11052341613277886,9.55777426848001,0.00867474054924881,0.050255470008617124,-0.21261157787269114,140.15816052227342,-12.754320510659024,-0.6636212815181146,0.33833185353244544,0.03232011277372522,0.10673174688368738,-0.9343895052993707
161.0,0.07318497808249971,-0.04729128732531568,0.006935493237420853,-2.1259392304522127,0.10838523285002435,9.56697131992057,0.18950161102993518,0.08430849818290809,0.06467178777490541,140.25251653178975,-12.518559743921172,-0.6477036383987111,0.3376831043390002,0.031661256768451905,0.10477324976363755,-0.9348679447267896
162.0,0.0664271664606047,-0.04239161140459333,0.00806855307032333,-2.12753413135514,0.10419664868307671,9.568058240605444,0.07600080551496759,0.08570263618822824,0.04652440195196884,140.28492762073358,-12.531306081638006,-0.6347137143606458,0.3374306958993386,0.031795530928580784,0.10483733331327041,-0.9349476655045237
163.0,0.06978065640103406,-0.04694482222471996,0.009777490539882357,-2.0880735172904723,0.09177977595444159,9.575234667116256,-0.10715105278932972,-0.49717314591060663,-0.01695895854407852,140.33344163294743,-12.29497911280956,-0.5579265365666328,0.33709609794917755,0.031677614339290394,0.10271810673511672,-0.935306518547797
164.0,0.07797156344835338,-0.05846169120677382,0.008391105616125286,-1.9681802480236783,0.06844378254842458,9.599803604211154,-0.17352782773219438,-1.0167544771645873,-0.18003423438612265,140.4175752126185,-11.572317447828855,-0.4179931905885879,0.33660981942639834,0.0306432195339253,0.09643832363231052,-0.9361606072195121
165.0,0.09193509047993706,-0.07456878723165113,0.019241635757371398,-1.9157875126447115,0.061802536435502625,9.611192124686223,0.09063143943651418,0.29925044958974933,-0.10621815405942078,140.57677915776856,-11.262661220074182,-0.37640730958000823,0.33540140061181667,0.02992734154883668,0.09381631448128583,-0.936894128075962
166.0,0.09365047206923682,-0.07343309542542431,0.015265979169008279,-1.9036057940878943,0.03911527293844368,9.613286856992993,0.11032358753887078,-0.5080262307519388,-0.1260831132216852,140.74789488966317,-11.18918367848713,-0.2337632535311528,0.3340297368873403,0.030736720609194107,0.09283953793301111,-0.9374589010521432
167.0,0.07947608384272428,-0.07038393811800578,0.008542522256133585,-1.8368637944798445,0.03288714432695551,9.62592775438566,0.0880751002210483,-0.3480125467241911,-0.0577052766273852,140.8924803232435,-10.789472034652995,-0.19695813627756978,0.33292743051149476,0.029820167186317484,0.08949671533954112,-0.9382051689329161
168.0,0.07701341564284128,-0.07125727197009651,0.004731528633967658,-1.7460125424012125,0.058120991518316456,9.642928472000065,0.196166779064104,0.19581571719651972,0.007860579624938399,140.98293371000884,-10.253331611346955,-0.346305582694253,0.3323273527561408,0.026922296851223257,0.085583791729566,-0.9388678471171268
169.0,0.07172464645241985,-0.07152163362470207,0.0008630105797690379,-1.6687301106970658,0.0761376004011724,9.653958335134572,0.11276179236446743,-2.3201930462011107,-0.3250429595974442,140.99965430583052,-9.789505105437442,-0.45644350731880234,0.3322859327706746,0.024668134845753246,0.08204989077823695,-0.9391941010172573
170.0,0.042099538017712684,-0.051944642821118034,-0.0024365026528677196,-1.5014123746696524,0.08460967540196496,9.680783352498537,0.2892555074744296,0.3685244305917006,0.4101651233633924,140.92806958482115,-8.80595155238153,-0.5011742470092194,0.3331158622958502,0.021452162153684756,0.0741542906692691,-0.9396160698826685
171.0,0.039269281203978296,-0.059271298593879244,-0.002943664387016078,-1.5283584296637007,0.11515534910932235,9.678357057838571,0.09241492918961448,0.9757354647057637,0.43058413524581896,140.6599877821824,-8.964226759668342,-0.6810995153220762,0.3352877146530392,0.020617949532389192,0.07594794386964634,-0.9387651653229236
172.0,0.046530684500393396,-0.06771479150275372,-0.0013790322580645156,-1.5982655389457117,0.08052498033044847,9.666915420928405,-0.30885252753737213,-0.9372467545239969,-0.39307140047206934,140.64958816876475,-9.378759343036979,-0.47541920731707316,0.33528666801868606,0.02358615835129819,0.07870316861742721,-0.9384561371235248
173.0,0.05647233149750853,-0.0711680716346334,-0.001447004608294931,-1.5234511258476635,0.03228380352927953,9.680579446255294,-0.1344605859653067,0.45505413809898465,0.13415266381926488,140.7394770240905,-8.937764368139073,-0.18978213630062568,0.33463710988741524,0.02476164467603312,0.07423855192488105,-0.9390408500410249
174.0,0.05928337267243641,-0.07210488554194297,-0.0030028099359334613,-1.4932133678018802,0.0009695964931999475,9.6867468435053,-0.022413219811921632,-0.014703458094488808,-0.22005486399910082,140.7842546410775,-8.753156377617923,-0.0036341838072758703,0.3342360106927241,0.025840303469409166,0.0721229286351392,-0.9393401344548161
175.0,0.06307126934172569,-0.06634040500543253,-0.002071821962459256,-1.454881270840358,-0.018159576261661245,9.692004420965867,0.053924192611741764,0.263443904312315,0.005968830785658102,140.8808025762429,-8.530251477557979,0.10849958787606308,0.3335947792369992,0.02609462587632535,0.06996212842063805,-0.9397397142274083
176.0,0.06100524521374247,-0.06280956127533625,0.000774867933011127,-1.4460378030047585,-0.021436888838934482,9.69289678168671,0.0458338016559889,0.13516658236858864,0.03848979993256154,140.91376072458883,-8.479671986812033,0.12912685924094264,0.3333301913518787,0.026104511397250008,0.0694738965335881,-0.93987478043835
177.0,0.056442827170207197,-0.06580682627102769,0.0032788580420366415,-1.5310519463489562,-0.027941103742834678,9.679929901464916,0.09692358847551609,0.8376216468097861,0.18931275991907387,140.82325034655875,-8.983984301824584,0.16485355550560113,0.3339376083234611,0.02793040330680753,0.07346181013146752,-0.9392981979847141
178.0,0.0559203383162864,-0.052346577498033064,0.0011463414634146339,-1.585534421715185,-0.03440833988985053,9.670850511408343,0.07995180959874115,0.3412138571990559,0.06977158733280882,140.75297501966952,-9.301875983477576,0.21021095594020456,0.33439751591365086,0.029187669281667966,0.07598480713178599,-0.9388973089370576
179.0,0.05224645948072385,-0.054673288749016544,-0.0001284421715184894,-1.6151664044059797,-0.03742191188040915,9.664909126671919,0.05550009834775767,0.3176583398898505,0.05224970495672699,140.71786855822188,-9.47845815302911,0.23156717151848938,0.3346272492350514,0.029852967189221077,0.07737430507395752,-0.9386856068153031
180.0,0.05745790715971676,-0.05140519276160506,0.0004720692368214006,-1.6415428796223437,-0.036626278520849744,9.661849724626286,0.13193351691581431,0.11820416994492527,-0.04257474429583005,140.69807238394964,-9.637691778127458,0.22228560188827695,0.3347078329441387,0.030293437957513766,0.07862612132730136,-0.9385464810165227
181.0,0.06657215915477127,-0.04848465774980333,0.0020980105653591098,-1.6585766550522645,-0.033482297403619216,9.660389850511415,0.08662400247274363,0.15409407665505226,-0.02538004383500056,140.6888768686074,-9.741497485107338,0.20599921321793863,0.334745807239744,0.030555137393053832,0.07950119076862988,-0.9384500446388675
182.0,0.07322235023041473,-0.04945161290322583,0.005990783410138248,-1.6739043778801839,-0.03158064516129034,9.656475806451613,0.1348934331797235,0.03341013824884792,-0.06095910138248848,140.6883064516129,-9.832870103686636,0.19596774193548386,0.33472981494009235,0.03076678760368664,0.08025128729147468,-0.9383832376774198
183.0,0.07898741580999644,-0.042608354011579835,0.00658472172988302,-1.6878803320335576,-0.028643920595533515,9.655149710504553,0.1565958067470164,0.09679450254047028,-0.1458241019732955,140.75572787427626,-9.910706531371854,0.17666459884201818,0.3342077845039585,0.030728850546466967,0.08100359917871913,-0.9385065570909847
184.0,0.0745806473227795,-0.03888187173435012,0.0060860272693474896,-1.666344080257534,-0.03809851419233798,9.658581936290831,0.006171501917961383,0.05040723356763876,0.026757254678183073,140.79871857915228,-9.782065746016375,0.2196265559119611,0.3339711344195638,0.030754166618925854,0.0798287262842848,-0.938690786943604
185.0,0.07253629140332522,-0.031432871351046034,0.005736562021770518,-1.6488494594836054,-0.04350490225745932,9.661871613306708,0.14492042837833552,-0.05932259289359997,-0.061218146854456854,140.80843187022128,-9.678129647201736,0.2539665037624321,0.3339743589275238,0.030708746039301633,0.07888617206149724,-0.9387705700121245
186.0,0.07054003510258426,-0.024522887288426245,0.004098695757429038,-1.6416459278984852,-0.03920406403195548,9.660935806653358,0.11212035243801569,0.045569118299743784,-0.045038796929532575,140.84474012865903,-9.63661666691884,0.22637841317153867,0.33366012712274806,0.030378472024259105,0.07863001970355968,-0.938917715844772
187.0,0.07218937239000181,-0.022277572676471194,0.004085638201295164,-1.6329681252395654,-0.03834799975791323,9.66264532268152,0.09345936976739494,-0.07494729568883778,-0.24212625330347595,140.89674002400693,-9.581035147975548,0.20777085981157578,0.3333222792629868,0.0300844975363231,0.07822179671871533,-0.9390799133981924
188.0,0.07389260424862312,-0.02340007867820615,0.002308811959087332,-1.6079516129032259,-0.02819354838709679,9.667963808025183,0.1784520062942565,0.19374508261211645,0.06980969708890639,140.96151898111722,-9.431345889063728,0.15637539339103068,0.33285234624822957,0.029148230346970883,0.07718998367427224,-0.9393582186014949
189.0,0.07234126671911881,-0.02557336742722267,0.004164634146341464,-1.6393849331235248,-0.02314004720692369,9.663176239181748,0.14872147915027537,0.28941778127458695,0.018879081431943355,140.9833902930763,-9.622891669944924,0.13121680763178598,0.3326500433255309,0.029382329203383167,0.07886816768764754,-0.9392820835241933
190.0,0.07090853658536586,-0.02748426435877263,0.005481510621557827,-1.679946498819827,-0.03130389457120379,9.655701022816682,0.15692122344610543,0.03367058418568056,-0.1768759834775767,141.1156618804091,-9.86822506884343,0.18357715381589298,0.3314087041022815,0.030444584666207707,0.08071646705350119,-0.9395200699677417
191.0,0.07357120377655389,-0.02466955153422503,0.006055271439811171,-1.673465184893785,-0.033026947285601904,9.657850511408345,0.03042633752950434,0.1377778324154209,-0.004113394964594785,141.18887932730132,-9.827635719905587,0.17729764948859167,0.33078057719630194,0.03029302956294256,0.08041134940578287,-0.939785374137097
192.0,0.07636624704956729,-0.03264122738001575,0.008636506687647521,-1.6823737214791499,-0.03655782848151064,9.653957513768688,-0.02475658929976396,0.1372860936270653,0.04275177025963809,141.2244295830055,-9.878535601888277,0.2073736231313926,0.3304705992836347,0.030556635225019668,0.08074908935208497,-0.9398562288387099
193.0,0.08741129032258066,-0.030629032258064532,0.008177419354838709,-1.6844999999999999,-0.03501612903225808,9.654064516129038,0.15599798387096775,0.03795362903225807,-0.0506048387096774,141.24092741935485,-9.890826612903226,0.20519153225806452,0.3303066150887096,0.03055729988709677,0.08089304349193549,-0.939901095419355
194.0,0.09637096774193549,-0.025314516129032273,0.007346774193548388,-1.6910564516129036,-0.03268548387096776,9.652540322580645,0.08830645161290322,0.12424395161290323,0.013004032258064523,141.24949596774195,-9.928326612903225,0.1975806451612903,0.33020152653225804,0.030493902000000003,0.08129567807258067,-0.9399025720564518
195.0,0.10306451612903224,-0.03179838709677421,0.007435483870967742,-1.6989838709677425,-0.02641129032258066,9.651290322580643,0.065625,-0.004485887096774194,0.05352822580645161,141.25,-9.983568548387098,0.16108870967741934,0.33016795599193544,0.03047288312903225,0.08178238427419357,-0.939870283467742
196.0,0.09869354838709676,-0.0346451612903226,0.008129032258064517,-1.6805564516129037,-0.018064516129032267,9.655645161290325,0.16411290322580646,0.06648185483870966,-0.010534274193548389,141.25645161290322,-9.871925403225806,0.10761088709677419,0.3301146983629033,0.029692518838709665,0.08100782852419353,-0.9399809824838707
197.0,0.08652419354838708,-0.034741935483870987,0.008016129032258066,-1.6707096774193544,-0.013548387096774202,9.657975806451617,0.041330645161290334,0.0924899193548387,0.03306451612903226,141.28548387096774,-9.813104838709677,0.08225806451612903,0.330062128701613,0.029258775967741926,0.08064880450806451,-0.9400507777903224
198.0,0.08710483870967742,-0.0411693548387097,0.0068548387096774195,-1.6688467741935482,-0.01140322580645162,9.659072580645168,0.03946572580645161,0.06713709677419354,0.011340725806451613,141.3,-9.802772177419355,0.07016129032258064,0.330036434483871,0.02909166803225805,0.08054410912903226,-0.9400678585403224
199.0,0.0844516129032258,-0.03716129032258066,0.006935483870967743,-1.6726048387096772,-0.010379032258064521,9.659677419354846,0.1314516129032258,0.10912298387096775,0.004485887096774194,141.30725806451613,-9.827822580645162,0.06431451612903226,0.33002270127419364,0.029064547104838703,0.08075812570967743,-0.9400670227741932
200.0,0.08466148701809599,-0.03206687647521638,0.007500983477576711,-1.6841713217938628,-0.00359598741148702,9.657482297403618,0.19793592643587726,0.2683984067663257,-0.0816544551534225,141.33921125098348,-9.892799714791503,0.021436123131392603,0.32966756264339103,0.02873974378992919,0.08152907639339103,-0.9401304093341853
201.0,0.08674089652807199,-0.037008210776896866,0.007844267586596463,-1.713339693154996,-0.0009669349795234936,9.6519917690492,0.07257799733704533,0.1443380061126914,0.009884233341402898,141.35892014162079,-10.05943684560915,0.005649952591337328,0.329435218416712,0.02902632105894308,0.08300552317663759,-0.940070676464963
202.0,0.08810431923177794,-0.03858475054973876,0.00830923056749178,-1.7129642014162076,0.0007100808973350275,9.652124916782668,0.18276077286207104,-0.17571406145978336,-0.1543572784905889,141.38812942564908,-10.058599471191673,-0.005441152736589401,0.32915360530513016,0.02890045206576186,0.08303361665686718,-0.9401749470429652
203.0,0.08090188424216749,-0.03124870887046341,0.009726704190118826,-1.6355035405192764,0.005299965704371686,9.663993221569935,0.10006572278036675,-0.2804618940265085,-0.1839541850753495,141.53835562549173,-9.601444577255947,-0.03126601303233876,0.32798028165728577,0.02723143221767637,0.07939615415799692,-0.9409395303298029
204.0,0.09816042284492323,-0.02466339849502714,0.006135185297262403,-1.618523996852872,-0.0012170509794427963,9.666780245718094,-0.05417826665859711,-0.01681557525873026,0.037841947588210384,141.56783536585368,-9.498556179265265,0.008535954931509614,0.32775094780031866,0.027375603992394436,0.07842233870675219,-0.9410993220697007
205.0,0.0780219895499203,-0.017310456131856607,0.011066805866569832,-1.5630668764752165,0.022836006374952103,9.675597833323252,0.31552986745748346,-0.05937651304242571,-0.3325296556315439,141.86428255310778,-9.171691543605881,-0.1365905984587141,0.32536359229512396,0.02497240575780225,0.07623352932898586,-0.9421648173739534
206.0,0.0751243115656963,-0.035594020456333614,-0.0038892604248623123,-1.5414689221085758,0.053332808811959086,9.679235641227384,0.24152734067663256,-0.02846307041699449,0.222506884343037,141.86318966365067,-9.039691925649095,-0.31735960857592443,0.3254175665338315,0.023053478018686072,0.07570066390932338,-0.9422458779144375
207.0,0.06268843430369786,-0.04220298977183322,-0.002841070023603461,-1.5720912667191191,0.07812116443745083,9.673389457120383,0.3506884343036979,0.32075629425649094,0.046956136900078674,141.7577252163651,-9.221661093627064,-0.4613640833988985,0.3262699926624705,0.022406375804091272,0.07760600876081827,-0.9418097491463416
208.0,0.0602790843557956,-0.0458131498926149,-0.0015975609756097556,-1.6460917770642398,0.11912033512662942,9.660588130223065,0.27095152784570564,0.5464994178875965,-0.0708241409190465,141.79514740202438,-9.660049612456673,-0.7006148728390074,0.3258191289025242,0.02164544760625811,0.08191994019844984,-0.9416142303592085
209.0,0.049443240053586246,-0.05118352223190935,-0.00033851298190401243,-1.6986399089884532,0.13005584026197722,9.651710272821992,0.03162053182214472,0.2881985681098092,0.029767905937014914,141.84913743035918,-9.97171933809301,-0.7641548006995981,0.3253339834953218,0.021956981796834793,0.08468083034706128,-0.9415347314148519
210.0,0.05234996385055394,-0.047452303995577025,0.0014649881982690793,-1.7427371456822676,0.12988020179896656,9.64464998298849,0.15367538196142638,0.2902532720564782,0.01886642248070258,141.8256019813086,-10.236816715663341,-0.7576828537329618,0.32544629090973776,0.022737463000207327,0.08682375012917584,-0.9412843264703095
211.0,0.07596933676398665,-0.050218087481659485,0.0011518489378442168,-1.7351306696153275,0.12208122993174134,9.646425797945861,0.00811289259361643,-0.2791173155846641,-0.06163533714674548,141.8620449422672,-10.189401301380059,-0.709763805898739,0.3251254396927721,0.02295197302026495,0.08630241145571695,-0.941438710973058
212.0,0.07721605723966068,-0.06180699436088895,0.00047664006593982973,-1.6830737458825578,0.14569892675636184,9.654204806357443,0.6764530406544569,-0.13903413641808607,-0.4510810532348691,142.08805691158167,-9.882028307952776,-0.8592408160661503,0.3233297793582065,0.020736358280017457,0.08423272969998391,-0.9422898666121893
213.0,0.06273556629575512,-0.06268412573526658,0.0006069836274399608,-1.679495522835413,0.1874550597579709,9.653844629275783,-0.040346465100595696,0.30416479337604435,0.08780277059683039,142.33636197594694,-9.860788046532537,-1.1107606496571878,0.32128729052167393,0.01847596125484246,0.08478552100393391,-0.9429825622642463
214.0,0.0563874526994118,-0.06645221235622495,0.0015466074706830019,-1.7129145592147168,0.15875113334082652,9.646989191113104,-0.14035419242441272,0.27344352965419055,0.16368895414184553,142.2383521130718,-10.060803149938181,-0.9500252894234011,0.3220069357997828,0.020475796595163166,0.08595306172147915,-0.9425925032957736
215.0,0.06448848718813316,-0.0678726594674667,0.006934311623336013,-1.7467494985345104,0.14720192992163883,9.641657560312748,-0.00038234041725386525,0.29927799957058415,0.14244623926100125,142.1966419374292,-10.258028720967598,-0.87835634238565,0.32234769444037037,0.02166494735717528,0.08738360160515646,-0.9423209593256696
216.0,0.0679135000850186,-0.08179903626402446,0.009757380044555498,-1.7920170584726058,0.14277356527553225,9.635518296285404,-0.06028042079871348,0.325758934875772,0.14859391526386018,142.14483085266426,-10.529371485778842,-0.8432276401149335,0.322712487211924,0.02272014778136105,0.08946657881437997,-0.9419793519685983
217.0,0.06289837830671821,-0.08424437220267275,0.008237368977730898,-1.815907914796979,0.12417480107094583,9.632240714962977,0.00426359144396124,0.2141563491583161,0.08669135087309753,142.11768712372077,-10.670009283596027,-0.7337825988593101,0.3229217121074982,0.0240258392793134,0.0903520902182499,-0.9417956749981238
218.0,0.06318190804736833,-0.08045935968044543,0.006945873428957614,-1.828774233896186,0.11804054953700904,9.630744013395466,0.09290080493857049,0.12567456474812888,0.016713570981863664,142.1143111117836,-10.745541316145172,-0.6862749399826504,0.3229991915560534,0.024581295681131363,0.09084522994553049,-0.9417056840474489
219.0,0.06691746857915229,-0.0834916782666586,0.007175533095281326,-1.8538332223768892,0.11627440537432673,9.62517452440033,0.1035363584094898,0.21870372611914704,-0.012389673989792009,142.1195326211947,-10.890340484980532,-0.6941111127922693,0.3229577820392382,0.0249936199798261,0.09206825067300127,-0.9415899727035038
220.0,0.07257985837922898,-0.08105074744295829,0.005533438237608183,-1.890802911093627,0.10995830055074748,9.617035405192762,0.22725462234461052,0.7815499606608969,-0.4486796813532651,142.17152340676634,-11.116822383949646,-0.657447383949646,0.3224505757265932,0.025875813898505115,0.09381946754917388,-0.9415627459992129
221.0,0.07925452399685289,-0.06945456333595593,0.010053894571203778,-1.926923092053501,0.11327655389457121,9.608808025177026,-0.09975290125885128,-0.5086693548387098,0.20636432926829273,142.47952153815893,-11.330524685287175,-0.6762502458693941,0.3198444414053895,0.02605101968961447,0.09566695070062942,-0.9422415502356409
222.0,0.0677159716758458,-0.06069099134539732,0.006470495672698663,-1.866280094413847,0.08909795436664045,9.620307238394963,0.1088685090479937,-0.09062500000000004,0.0499815597954367,142.30271439811173,-10.965715971675845,-0.5294809697088906,0.32142454218253347,0.026376457869000787,0.09226731493095987,-0.9420387790452398
223.0,0.0638095987411487,-0.0527820613690008,0.005412470495672698,-1.8574765932336736,0.09845318646734857,9.622258261211645,0.2462996656176239,0.19291158536585362,-0.038996115263571975,142.2138571990559,-10.914637834382376,-0.582168322187254,0.3220151655397324,0.025868237915420925,0.09194646292682927,-0.9418910120489772
224.0,0.06471125098347758,-0.045261998426435884,0.010976396538158932,-1.8138552321007073,0.0893072383949646,9.630802517702595,-0.3712554091266719,-1.813372836349331,-0.03671075924468921,142.24765440597955,-10.657948957513767,-0.5224601691581432,0.32179682744728555,0.025605460965774977,0.08964159646341463,-0.9421803513107789
225.0,0.1108509984639017,-0.015592484358023314,-0.004532595256828148,-1.4988273200704354,0.10527011914128359,9.679514255741637,0.8518263998164175,-1.170559306039489,-0.14974798387096772,141.92517761136713,-8.793163016091567,-0.6190203977932636,0.32488018618776926,0.019770081214220143,0.07452374523481697,-0.942433012406167
226.0,0.08722619047619047,-0.021836948784234398,-0.002131505001685963,-1.3347139672548798,0.18161950657525022,9.703757511895398,0.22834095528455284,-0.40525733159117305,0.14891993087557603,142.15914938556068,-7.825209340227042,-1.0647581347645274,0.32314173840820876,0.013216523186411146,0.06784521905135626,-0.9436974723785827
227.0,0.07568774118616764,-0.035995972425162046,-0.002624761155445658,-1.3328540331947096,0.20542963920422624,9.705623150125511,0.2090766784683976,0.28945126634446067,0.21538369675171404,142.11768444887787,-7.814706853433742,-1.205858365179274,0.32349694318423816,0.012056197271215017,0.06819382400650031,-0.9436322236024504
228.0,0.058627280731332665,-0.037534908770746694,0.002180557116631075,-1.3349875800831739,0.19780773481697955,9.706120180959875,-0.14577426613839872,-0.3343309776703758,-0.10073749110186955,142.0652746361133,-7.824337381982691,-1.1556564595743883,0.3239361856665262,0.012513008195571539,0.06813709147610617,-0.9435061477183883
229.0,0.06450807388258215,-0.04608088868907122,-0.0009342100333445693,-1.286316173991233,0.17992225843917425,9.714118804091267,-0.033885485744258356,0.03319470982728259,0.2601778221123225,142.17609166011016,-7.537962234461054,-1.0564738582293658,0.323115157557791,0.012479324067101269,0.06550436749503577,-0.9439862092598628
230.0,0.05672945936832641,-0.05083383912180135,-0.0028657225281930217,-1.3522080101907012,0.1717560600951632,9.704986437375894,-0.024536828893634552,0.45563345322393317,0.2805929433142258,141.9022067363531,-7.927602468997041,-1.0110950320332697,0.3253547873695253,0.014111612535086734,0.06854899387347796,-0.9429801606936797
231.0,0.060016035367726955,-0.05181358740918143,-0.002767789776444378,-1.4115654253954804,0.1635747687927075,9.696150018877006,0.03464535726534153,0.39262604363902553,0.15190398376865727,141.70884294043225,-8.275994753345266,-0.960502171576129,0.3268907020352293,0.015583801606666607,0.07129749420573343,-0.9422273723606056
232.0,0.06923539769959912,-0.05954802108460645,8.26668741696283e-05,-1.469365718205215,0.16075276598565355,9.6876698166769,0.019038847004031897,0.25980633417199117,0.09821300683318779,141.59026431049935,-8.622807565500327,-0.9444918410988434,0.32774415528512046,0.01669103753189349,0.07405616342466059,-0.9417064427562272
233.0,0.07742184631523732,-0.06436617644092074,0.000446095341846719,-1.4960845488107486,0.16444704351510017,9.683447043515105,0.1413454603683754,0.08334978766971293,0.03874744043656317,141.53277136415903,-8.777878437128045,-0.9707818268474248,0.328279460937491,0.017065637618481302,0.07538781543813675,-0.9414174409725833
234.0,0.0800295698924731,-0.06627750206782466,-0.00010897435897435867,-1.519552109181141,0.16739267990074438,9.681086228287846,0.03122544458229943,0.13485447684036395,0.007267111248966087,141.50369882133995,-8.91070357733664,-0.986325217121588,0.3285517827826716,0.01734776027894954,0.0765466165554177,-0.941221751856079
235.0,0.09004761904761903,-0.060048505258182686,0.006911910669975188,-1.5062879593524756,0.16058785300720785,9.6839595887983,0.11160566583953681,-0.041293719721139086,0.002912309464728819,141.53357704123835,-8.834122429989366,-0.9477601028004253,0.32820359904590574,0.01746698692691717,0.07578687359683328,-0.9413960074487767
236.0,0.07613133640552994,-0.020539554531490017,0.001174731182795704,-1.4738164362519202,0.1662542242703533,9.687778801843317,0.13034274193548387,-0.39933275729646694,-0.09671899001536098,141.45238095238096,-8.633614151305682,-0.9798819124423962,0.3288993975510753,0.016674328593317973,0.07424680866359445,-0.941280956970046
237.0,0.07796889400921658,-0.043644777265745005,0.011768817204301077,-1.5030775729646697,0.11719162826420892,9.684405529953917,-0.23820564516129034,0.7091541858678956,0.031454013056835636,141.37311587941628,-8.810582277265745,-0.6941244239631336,0.32951977039247315,0.019616141187788014,0.07485708522695853,-0.9409522158076036
238.0,0.07388364055299537,-0.04162480798771122,0.0013521505376344082,-1.5042242703533026,0.08709984639016898,9.684267281105992,0.06814516129032258,-0.030604358678955446,0.12432075652841781,141.3189420122888,-8.819782066052227,-0.5059331797235023,0.32996886235752687,0.021153865985023036,0.07438579702880185,-0.9408053682546084
239.0,0.06884888164549849,-0.0380988910119516,-0.0006965643849986894,-1.464931175302536,0.06371908133827883,9.690316173991231,-0.13544944925255706,-0.2646143597092653,0.04807390599827657,141.34652844123485,-8.586674815480873,-0.3682301618523097,0.32977118747508516,0.021567333732381698,0.07208947428161178,-0.9410441616490393
240.0,0.10349510134502268,-0.0282583548761755,-0.02612401183919674,-0.5834486905698549,-0.14389698774867932,9.730511389606978,-1.3211329427522385,-6.289085213648796,-1.380076910288112,143.15799924365894,-3.3957999653441235,0.8490070388895132,0.3150886830078959,0.017324906171106363,0.02572119366922371,-0.9469527131939512
241.0,0.09387715896744223,-0.023493040725338137,-0.02650709040500544,-0.26465675695927454,-0.2128405829680416,9.749678505863397,1.122778862725263,4.953915294481286,0.06800325952568287,145.61593678580795,-1.5579710272189127,1.2433951285077367,0.29483336819154393,0.015277048882020156,0.009702790854389123,-0.9538257662515454
242.0,0.09714516237944507,-0.04187770940993088,-0.005922431173995592,-1.0600568105876642,-0.11020611293938463,9.686255982113991,-0.22208299924502028,2.0006178591686252,0.6128768173097281,146.01880860295648,-6.228949762484175,0.646556904088827,0.29106206706763993,0.021636245197949315,0.05037235637168068,-0.9534642446962903
243.0,0.0907440013313433,-0.04458145895358859,0.003600055066031315,-1.4116115091490644,-0.0861654089480558,9.663425394676189,0.10092434911863854,1.0714143583805362,0.2456263020458947,145.99675800918868,-8.295402792335715,0.5010524734842247,0.29110416233958314,0.025674155935717376,0.06799258393908582,-0.9529391438687982
244.0,0.08672976170871988,-0.04531084861807788,0.007127478733794946,-1.626781551659692,-0.06137164081961256,9.645281877960775,0.1917422408738073,0.581037299830184,-0.05800388468197187,145.9799926571364,-9.561032434720179,0.3514064491732689,0.2911082657335022,0.027670289912521684,0.07891902705946086,-0.9524873524547992
245.0,0.08618899759783152,-0.04414697576833235,0.010814123391475045,-1.7212963057837631,-0.04191623515635007,9.6410910157853,0.17607465346301732,0.3483335500687019,-0.017385198869403748,145.94381737311505,-10.114641601384667,0.24065138126866212,0.2913077548367973,0.028170315632144102,0.08383537621252612,-0.9523553973249415
246.0,0.09632721769292496,-0.03985382582579444,0.00931335969880972,-1.7584446198657684,-0.03212555229399686,9.64211924061154,0.08626601336745336,-0.0680615275770162,-0.07825385135482477,145.87731863279407,-10.329215001921213,0.19201827895998388,0.29181414200288414,0.02827630591668648,0.08576593517154724,-0.9521963014097825
247.0,0.0893554006968641,-0.0443804653253906,0.009577910156981754,-1.6888606646435131,-0.0502210108276198,9.654147465437788,-0.061906401034056424,-0.48108936532913715,-0.1902616986999363,145.9572561912255,-9.91816974822974,0.3015833988985051,0.29129127120756065,0.0280996839546289,0.08207150839991009,-0.9526826563748453
248.0,0.08756406653928289,-0.0506782998014312,0.00950384024577573,-1.7165212993143757,-0.0333868907122251,9.64851691581432,0.3477968931475029,0.60246536753962,-0.12789821475403693,146.07050012176387,-10.083820271814469,0.19840255142182758,0.29037327564780263,0.02747562810484807,0.08377858184298076,-0.9528267056148325
249.0,0.08374747105765988,-0.049904733805402585,0.006726836761455173,-1.6893106290509907,-0.013500702483983367,9.653872653703493,0.20584214950732457,0.2190180561799857,-0.1314554765651343,146.19944456933047,-9.915729962815181,0.08201500505788467,0.28929050341323853,0.025792618778361615,0.08277964909334606,-0.9532915848901409
250.0,0.08268318548747344,-0.04928332223768889,0.004485213252522458,-1.8605740490168108,0.011371133456105917,9.619260975321556,0.15126358405887322,1.2129732805713824,-0.08208940081358451,146.31100226812265,-10.9391414754109,-0.07037070259926279,0.28815478225407587,0.0270085270861411,0.0917455605470866,-0.9527073491740821
251.0,0.05826694679566434,-0.05529665718493414,0.006665600332004739,-2.041243259756242,0.0008822622433952076,9.582058890493197,0.2604106325093737,1.082162166446195,-0.01993865693708337,146.20393740471437,-12.018439123818746,-0.007525044454627459,0.28874703493427634,0.030410922568050884,0.1004604930171507,-0.9515481827386932
252.0,0.05121057803984634,-0.061346204280901366,0.010346962243107011,-2.1432180106806387,0.03499659925702413,9.56140710063606,0.2790300605505169,0.8513190847966615,0.017789326134133372,146.18701492580328,-12.623106265292536,-0.20296590539017761,0.28876538441048993,0.030182677538942826,0.10604084603257222,-0.9509799874236347
253.0,0.04706151021807986,-0.07633976880711735,0.011342451935685612,-2.2243747503480007,0.06397986644878854,9.544141338336457,0.19117593657326154,0.5355481752708345,-0.009380106518186767,146.18749747826263,-13.107496873045655,-0.36442938126651736,0.28869901031507605,0.029978714146583544,0.11048356929278383,-0.950523662517501
254.0,0.044692045431620586,-0.08950820068994736,0.010636607557142571,-2.258843551413182,0.10158474046278926,9.536291754927475,0.4597795497185741,0.11304847787931974,-0.16611314531259455,146.2233858359055,-13.317797413706145,-0.5946753515301902,0.28832071083967803,0.02858234737856321,0.11279704397526681,-0.9504275190534002
255.0,0.05044610542879623,-0.11210149488591661,0.01288985051140834,-2.263501180173092,0.15450039339103075,9.534042486231309,0.21704858379228953,0.143140243902439,-0.13654602675059008,146.32854051927615,-13.343410700236035,-0.9133064516129031,0.2874943568937845,0.025923283188040915,0.11386309161211645,-0.9506299391487019
256.0,0.05623800157356415,-0.11461880409126671,0.014108182533438235,-2.213512981904013,0.13632966168371363,9.545829268292678,-0.17503688040912666,-0.5554214201416209,-0.056299173878835554,146.36423583792288,-13.039403029110936,-0.8085169158143195,0.2872362213029111,0.025994304056648314,0.11106672819787569,-0.9510285957151849
257.0,0.05368529654190553,-0.09850493612078975,0.007075634108875651,-2.1525146116668545,0.13151165186767078,9.560044190925778,0.34344143391030685,0.14161602927953243,-0.053464768086620956,146.41753318066014,-12.674564108688323,-0.7845633827882057,0.28686805781173425,0.025241855764040318,0.10799080795679256,-0.9515138883682515
258.0,0.05038700310966245,-0.08960327451200781,0.008114429957663632,-2.196128273575362,0.15321550335319017,9.549401127720948,0.17376204760031472,0.4286457162526694,0.035162777247012104,146.4638069129107,-12.936677215634482,-0.9107292720392641,0.286446266841351,0.024846884664278226,0.11046446574855756,-0.9513694862567064
259.0,0.04552414671612155,-0.08420486306245552,0.00983544078528343,-2.2314552658199402,0.16217226780562732,9.539660241279822,0.17304533831628638,0.27326943070697984,0.04447150959124799,146.48575930322954,-13.146388002978531,-0.958590442471245,0.28621920219486907,0.024952654723268148,0.11235461788637552,-0.9512282004065787
260.0,0.04429433142257692,-0.07455404443445357,0.009454010715222361,-2.2455905361357766,0.1698280693866846,9.535934959349582,0.13042387883556256,0.1602738282567157,-0.0018821887527631052,146.4939633209696,-13.234106299876363,-1.0042952212356224,0.2861041176417894,0.02480966210760182,0.11318859929399422,-0.9511686338484503
261.0,0.0469662058371736,-0.07980337941628265,0.010031490015360987,-2.2572972350230414,0.1759761904761904,9.53252688172042,0.06824596774193548,0.1710397465437788,0.022052611367127495,146.49875192012286,-13.314732142857142,-1.0395689324116741,0.2860405972788018,0.02471529895545315,0.11385908173118278,-0.951103622364823
262.0,0.05440322580645163,-0.07961290322580646,0.009395161290322581,-2.2643951612903233,0.17887903225806445,9.531596774193543,0.14148185483870968,0.06244959677419354,-0.005947580645161293,146.5,-13.355191532258065,-1.0560987903225807,0.2860126602983871,0.02467021227419354,0.11426691804838707,-0.9510708201209672
263.0,0.05952874276261375,-0.07661414392059554,0.010503722084367246,-2.262632340777502,0.17956451612903218,9.532381720430099,0.04331963399503723,0.08938818238213399,-0.018950320512820515,146.5,-13.345459832506204,-1.0599798387096773,0.28600207259057076,0.02459139194272125,0.11422172422518603,-0.9510887178693128
264.0,0.05906777421372229,-0.078944562125522,0.009346471585063246,-2.272658813976477,0.16534087332808803,9.531190860215045,0.0319857168795013,0.11145562246565394,-0.043987232443664384,146.5,-13.402206583247594,-0.9882904701022817,0.2859488612409975,0.025336484004897207,0.11448209064396596,-0.9510451708520442
265.0,0.044693800560834405,-0.056896749984869585,0.0033910760757731636,-2.0741068460126293,0.08734854445318643,9.569583530028845,-0.12148132527386067,-0.9451290436058827,-0.6844444423429967,146.9209284028324,-12.214794528838588,-0.5290617623918175,0.28269283527038075,0.026005900509234597,0.10356295056598377,-0.9530189839452982
266.0,0.03186302931267527,-0.05131934273437029,-0.002348816800823096,-2.0295413262321214,0.07044846577498032,9.584114345659588,-0.2307255416691884,-0.5925494008351995,0.2514017707639855,147.34756097560975,-11.946510167645101,-0.42400668764752164,0.2792634255706743,0.025692504008649555,0.10117619384347576,-0.9543946830694231
267.0,0.03218584195767516,-0.04754027718937241,-0.0034515523815287787,-2.0547919062317175,0.043021243115656964,9.579936008392341,-0.0026992676874659643,0.45697815166737277,0.1120932437612217,147.0457317073171,-12.099981086969679,-0.25702202989771833,0.28177282301301215,0.02770064185119732,0.10196944843442474,-0.9535702220312694
268.0,0.03115731894646136,-0.04543621445431045,-0.00031433816642313954,-2.076531602412799,0.06272413922295905,9.576050953504925,0.2606400565733768,0.45519650818628,-0.01724668427559853,146.98254327301336,-12.22666769697651,-0.38019112247574094,0.2823161843282005,0.027019523125173278,0.10333774319216216,-0.953317118225844
269.0,0.021656450027811164,-0.04006816472276742,0.0012971672963805138,-2.123044291795275,0.08820384572154835,9.565862532170167,0.2332932827400766,0.4330687850701619,0.023037701054518515,146.9604610492445,-12.49762834202252,-0.5301083464463677,0.2824746307387135,0.026439160178354557,0.10600672973897277,-0.9530113341905913
270.0,0.017042229734597947,-0.04177837819143879,0.00442592432482283,-2.1770130979039317,0.11780137211333125,9.554324657115767,0.276545343179637,0.02036503769637127,-0.02098016599516403,146.95094747977566,-12.822216019949103,-0.7037540158667716,0.2823914918107414,0.025793610403103323,0.10911236451622122,-0.9527131689056813
271.0,0.02783661447390795,-0.04090217099973199,0.003466896072718259,-2.165649054852831,0.18411016678050504,9.556070078361191,0.5786806918494567,0.3608328433957859,-0.12426430113290853,146.98880600778713,-12.756906102028054,-1.0961611591922371,0.28212963167307337,0.02235025731170115,0.10951799172781951,-0.9528265490854131
272.0,0.0340245228152388,-0.045404665358245236,0.006187421285769044,-2.225697855514535,0.23830134617546095,9.541157777182166,0.33086276921347735,0.44398349486862465,-0.07620571468919227,147.0631726734451,-13.11977386139955,-1.4171059533175976,0.28147780450923543,0.020485404981578352,0.11337085010859899,-0.9526086510777182
273.0,0.0556594645847203,-0.04779449857774014,0.007323881861647402,-2.216044574229861,0.2738695858298532,9.541967933587522,0.45939517389900947,-0.5625013869555568,-0.11841082632290342,147.18494737134097,-13.059595399846678,-1.6332759638080252,0.28039975289640706,0.018447287670812402,0.113398906055105,-0.9529602263094371
274.0,0.06864909520062942,-0.039175649095200646,-0.027229543666404406,-1.7987004327301337,0.3043975216365067,9.617282258064517,0.05966881392604248,-3.337305763178599,0.3001844020456333,147.1078506097561,-10.575276603068449,-1.8039757081038552,0.2815277732486231,0.01090788461270653,0.0930709965832022,-0.9546483872846183
275.0,0.06102731257727323,-0.026140627927016605,0.000523285002435276,-1.4939544790378776,0.3084136225694054,9.670730414746544,-0.1440003184594058,-1.1991804353527404,0.15482770409501329,147.01090255142185,-8.768637485481996,-1.8183353002884868,0.28274424790157726,0.00636692508457907,0.0780889443574613,-0.9557097731855121
276.0,0.06074482035142932,-0.039210773294368895,0.0012093402270428228,-1.3913899629088458,0.27843707616799673,9.692431634258739,-0.17161824210408003,-0.12886623768311412,0.5481308072009291,146.4101944475666,-8.16089839505826,-1.6384244689221084,0.28786591681373874,0.006717007011773631,0.07255913579006032,-0.9547385395647316
277.0,0.061985313401521094,-0.05041587051815219,0.00046757333932786354,-1.347703045970552,0.25244434453561126,9.70247791390356,-0.16867202427784647,-0.24759844142220222,0.25032548424562584,145.87485528829941,-7.89826673785171,-1.4879622344610541,0.29240466728590164,0.007660620405080363,0.06996253256438498,-0.9536284393428498
278.0,0.04951114607920272,-0.04517567719455997,-0.001448353377542992,-1.3896713498932223,0.23295702671312424,9.698212206361696,-0.0800677194559964,0.6432346109175378,0.317260499793938,145.52865010677755,-8.146227192686673,-1.3736919748229741,0.29522117594979586,0.009505888540856468,0.07170348865512718,-0.952652465909033
279.0,0.05456989247311829,-0.051124423963133644,0.0010138248847926265,-1.4565437788018434,0.20331643625192009,9.689230414746547,-0.12917626728110598,0.370142089093702,0.019143625192012265,145.39130184331796,-8.541858678955453,-1.1983870967741934,0.2962852649646698,0.012039057751152073,0.0745268509892473,-0.9520921938325653
280.0,0.05376100558240607,-0.058946967142482494,-0.0020786032745120074,-1.5117185568169047,0.18394269603986357,9.68109772957177,0.00048764096511933613,0.3964285714285714,0.04724134539732493,145.3559489856131,-8.867591720992095,-1.0846831563073693,0.29658184934401105,0.013850730083286498,0.07694938183674271,-0.9517897504244875
281.0,0.04530291109362708,-0.060988788355625496,-0.002454760031471282,-1.5321203776553896,0.15833575924468923,9.678817663257282,-0.15206407356412274,0.3609780684500393,0.012937647521636505,145.38223224822974,-8.988388817859953,-0.932667437057435,0.296305081642801,0.015406897524783632,0.077540264618214,-0.951805824948859
282.0,0.04048210070810386,-0.06692584579071596,-0.002646734854445318,-1.5351166404405983,0.11277675059008654,9.679106412273802,-0.1871963512981904,-0.1592287077104642,-0.07906545043273014,145.46135301927615,-9.002788158929977,-0.6623266620771047,0.29568502211978764,0.01763694481077891,0.07698658170830056,-0.9520082394502358
283.0,0.038758654602675066,-0.0595013768686074,-0.0016526357199055858,-1.5384136506687642,0.0841199842643588,9.679404012588517,0.024777488198269082,0.07734805271439808,-0.05253614280094414,145.54925009834776,-9.016721577498032,-0.5041220003933911,0.29503360302262005,0.01900837327065303,0.07671845133418569,-0.9522042232560977
284.0,0.0524720692368214,-0.05271439811172306,-0.009624704956726989,-1.544049567269866,0.05995515342250199,9.678016522423292,0.20324055861526358,0.0022324940991345285,-0.8948416601101494,146.14302222659325,-9.052463611329662,-0.3584874114870181,0.29003246445082614,0.0198835347804878,0.07674844431628638,-0.9536991573619198
285.0,0.05751140833988984,-0.05111329661683715,-0.0010035405192761622,-1.5249909520062943,0.07228363493312352,9.68090519276161,0.1658807041699449,0.4448662470495673,0.16268931943351683,146.23650422895358,-8.943496754523997,-0.42848642800944137,0.2892389450601889,0.01892978194020456,0.07603007999842645,-0.9540241982891424
286.0,0.04841738788355625,-0.04506490952006295,0.00432513768686074,-1.7353396931549958,0.11211742722265933,9.641971085759248,0.7927407061369001,2.7440204563335957,0.016705595987411448,146.07406938434303,-10.196497590479936,-0.6639383359559402,0.2902863314758065,0.02026789751219512,0.08704161346892211,-0.9526541977677023
287.0,0.04030415530711946,-0.04668943150421753,0.010368964192267576,-1.9403985600058549,0.14335550655956672,9.600966506870623,-0.13571012798931448,-0.4701667223208239,-0.14048851389676692,146.05277163421954,-11.40877896684537,-0.851046202861691,0.29014907160240067,0.021823493122939266,0.09755879978584889,-0.9516111455563006
288.0,0.017036420690538494,-0.03761694234534244,0.019421303496605855,-1.866855456242109,0.1333929381735678,9.617320389548606,0.128274951740984,-0.419313298217847,-0.07002297449362342,146.38491256769984,-10.975190034170128,-0.7931961934843467,0.2874961592119005,0.02094244935061204,0.09383443802038315,-0.9528564740212659
289.0,0.027361528317619482,-0.048784469636572916,-0.004638810617288469,-1.632380301085724,0.14764481778110033,9.657191876801953,-0.35724909286990736,-2.481129623379277,-0.39714426374450756,146.3740723072754,-9.578425230218706,-0.8750771193996234,0.2878823425034157,0.016754364118854406,0.08245272742916239,-0.953811940978951
290.0,0.03307611746142111,-0.05160421638510673,-0.016322669517553602,-1.4262227926319557,0.11247659475844574,9.69004486313216,0.22867912099976212,0.7553321257143553,0.06727128210624089,146.69525427959775,-8.368537691914268,-0.6642702705293048,0.2854728855418385,0.015232825627591567,0.07189063450663186,-0.9554077113971176
291.0,0.06613286596910552,-0.047820204179964854,-0.002394222248942021,-1.3930563215716818,0.11422020139181138,9.697555869803686,0.08286827804512102,-0.866531419440226,0.060828796049186534,147.26747371729692,-8.168385683093247,-0.6764506348712613,0.28074547909664693,0.014263866299240315,0.07028169868919319,-0.9569987716781025
292.0,0.05613952268554944,-0.058633247161964705,-0.001329287025589147,-1.4235236596605596,0.15068974560713358,9.694462927578584,0.21178252969165634,0.42725075868270196,0.1534295268067888,147.21796438874526,-8.349436607845341,-0.891683994604923,0.28117037165224246,0.012937188792102206,0.07232999627365029,-0.956796651549586
293.0,0.05105953317597693,-0.05855344498145443,0.0010308718294556227,-1.6223204450938518,0.18378704432205617,9.658372297778278,0.339614710951257,3.4772711307182194,0.33399249747105764,147.09914741860553,-9.536539704394741,-1.0926997864448689,0.28190495864673487,0.014307097153722229,0.08273374194878423,-0.9556120914120865
294.0,0.03974635644973962,-0.05928440298227869,0.005359521936233187,-2.0833760443595217,0.19644037315949203,9.560663107414488,-0.1196271683338953,1.5806238526094938,0.20416502753737212,146.8056460979356,-12.28343402270428,-1.17482531564947,0.2836133728671462,0.020770712157506276,0.105714309394515,-0.9525147786645684
295.0,0.036009890974485786,-0.06257307706717621,0.008920160353677268,-2.25773564122738,0.17064568581169687,9.52765951069649,-0.12502575774605673,-0.16524202914840214,0.200436008392342,146.61098357124123,-13.312502341613278,-1.0341004458431682,0.2850583686355701,0.02469634219242442,0.11387968697605935,-0.9512064516057099
296.0,0.04337473305608632,-0.06998048031171558,0.006792888988797721,-2.17981589299764,0.1507831104117493,9.55047806376681,-0.2573397868195272,-0.4647758139447754,0.12854215840545502,146.496311022442,-12.84230054138099,-0.9055238657225282,0.28615969747671505,0.024618254660334946,0.10964007572642466,-0.9514734980373158
297.0,0.04236939417781275,-0.08549331235247838,0.007521636506687647,-2.1955369787568846,0.11250983477576712,9.549313532651453,-0.31088955546813535,0.3731756490952006,0.23960710070810384,146.30085808418568,-12.937202498033045,-0.6728560188827695,0.28776580534972473,0.02697155281864673,0.109820828061369,-0.9509578679449253
298.0,0.04451278520849725,-0.08952871754523997,0.008477576711250984,-2.23625,0.0778560188827695,9.541560778914238,-0.07561098544453188,0.006095102281667958,0.12592569826907946,146.16702522619983,-13.178524537765538,-0.468484461054288,0.2888507147598349,0.029386635166207705,0.1112768373076318,-0.9504101725287177
299.0,0.04936152635719906,-0.08395397324940992,0.011277143981117232,-2.210753343823761,0.05068745082612118,9.54744433516916,-0.08421641424075531,-0.15423264162077105,-0.011775914634146331,146.15400029504326,-13.02612116443745,-0.30618484461054285,0.28900704968391044,0.03030199418332022,0.10961452672659322,-0.9505384785377653
300.0,0.04845239968528718,-0.08800157356412275,0.007597167584579073,-1.9996904012588512,-0.010444138473642794,9.58512588512982,-0.5558123524783636,-3.6219954760031468,-1.0501524390243901,146.48305468135328,-11.760555173092053,0.0617255114083399,0.28654908327734074,0.030079774662470492,0.09817214791935483,-0.9522920781388671
301.0,0.04125034799975791,-0.09107385664427364,0.0061020395811898585,-1.8120985242792873,-0.019237381226169574,9.62297015271642,0.5081748421392401,1.3013380968952373,0.0951885881296779,146.87155757630777,-10.6539440918215,0.11035043953882467,0.2835551893605328,0.02752021036952531,0.08897224735363332,-0.9541774325876606
302.0,0.03900343820878833,-0.08079038454333498,0.002921987532530413,-1.9431973036142978,0.039511301706423654,9.600576858232248,0.42937063919558016,1.0841103886933943,0.11957250067006166,146.89899883423683,-11.433883288230259,-0.23616142577590257,0.28312893521578864,0.026384206296129788,0.0963765278836139,-0.9537087312959427
303.0,0.03259770651588118,-0.07075317810959039,0.0038292077709858982,-2.0115475109731604,0.05661245651804266,9.588219192294723,0.18363201511313232,0.5468742344725822,0.15061040454431487,146.75612313859756,-11.838597820354313,-0.33439660588559095,0.28416672291080547,0.0266080482660822,0.09996101137689745,-0.9530937775834549
304.0,0.03419421124377853,-0.06068343405872913,0.005718695152212069,-2.0442906713008995,0.058550130698045724,9.583196928956173,0.21079220739920973,0.4005270070868025,0.13583824711873493,146.66592545600216,-12.031685810255834,-0.34292115896167824,0.2848523005899425,0.02703014030534637,0.10158729030292551,-0.9527469718444419
305.0,0.03956366738428108,-0.051580111993959385,0.004856987229921928,-2.0858943521728732,0.06606342097451459,9.5761948452806,0.07553280708276774,0.29820311802019117,0.10367345086070498,146.6103771654519,-12.276194006622802,-0.3712786361291475,0.28524080513053374,0.02735044464441197,0.10371260520339037,-0.9524167207294593
306.0,0.045521524109250325,-0.06618530590835864,0.00825266943913679,-2.134795811322169,0.06535476377805252,9.564915926716871,0.007247527256378555,0.3671499756472219,0.10001334719568394,146.53413369675172,-12.570309280281744,-0.38128137761792363,0.2858597212430407,0.028159219188565433,0.10613885590903302,-0.9519575026611967
307.0,0.05261713686261288,-0.07194057922146044,0.009545689558278073,-2.1784002098085495,0.07394159079839649,9.555080851223261,0.17977103705368852,0.2323173073320595,0.028227679742235213,146.44607030459707,-12.831362397437339,-0.4401750590086546,0.28651142730047585,0.02842378059735491,0.10844467941995431,-0.9514893322215352
308.0,0.060997789517065686,-0.07425117080663897,0.011240193323592221,-2.201493574613165,0.0848897568468772,9.549373627814624,0.08368960979356338,0.15070330354801242,-0.04302620733580607,146.46047122625603,-12.977689459930314,-0.506648308418568,0.28633789552277933,0.028197873587426474,0.10980092343932411,-0.9513960570273687
309.0,0.06629354464051553,-0.07632700161102995,0.01367674497021468,-2.2389253868345134,0.07547398935970924,9.54018248660597,-0.013746265126821776,0.30600173045221235,0.030168642988273202,146.45011661234122,-13.200833321625268,-0.4483723446105429,0.2863645792523417,0.02926165896916564,0.11151023236875726,-0.9511559408818981
310.0,0.06738870780412873,-0.06945382338616013,0.012322243452849276,-2.2616965643849984,0.06526522048630624,9.534433985238465,0.1832730367914278,0.18084864748417068,-0.05517777528005695,146.46437282229965,-13.334111217264248,-0.39394423682140045,0.2862276293479452,0.03006361843619573,0.11247764614405607,-0.951060811944981
311.0,0.06937922895357986,-0.06942053501180173,0.014033438237608184,-2.3941553894571204,0.06537136113296617,9.500941188040912,-0.012813483477576729,1.5148873918174663,0.20003933910306845,146.36524390243903,-14.137827006294255,-0.3970606313926043,0.28677836855074756,0.032193146298387106,0.11910869292918963,-0.9499632446650272
312.0,0.06418961447678992,-0.0640409126671912,0.01433123524783635,-2.5302147915027535,0.047088906372934704,9.465531077891423,0.06453579858379228,0.5345102281667977,0.027237411487018096,146.2693154996066,-14.957371164437449,-0.28802124311565697,0.28738145414634153,0.035193563322580654,0.12558508222265932,-0.9488465409252556
313.0,0.06080369787568843,-0.06176081825334383,0.014832022029897722,-2.5948453973249412,0.040461841070023624,9.449400472069236,0.16313434303697877,0.4331087726199842,-0.03468479543666404,146.22935680566485,-15.344853953579857,-0.24854937057435092,0.2875926277136114,0.036558455457513774,0.12869649141109357,-0.9483392994130606
314.0,0.06269044809111686,-0.0629320370162227,0.015639569517814998,-2.528025523584729,0.03747905661084262,9.467418193398522,-0.029713316286388666,-1.3468401099621596,-0.19412951697201303,146.3156649245064,-14.934231049323742,-0.2270679957663632,0.2869909353350194,0.03561638905055075,0.1252865997529785,-0.9489991982646585
315.0,0.07431227754673861,-0.06797978719418529,0.01822074856693268,-2.4186275336255667,0.018851448053651052,9.495939623843242,0.02645308811959087,0.09440916413772427,-0.021701486456108796,146.40026706099434,-14.276370663332209,-0.11433430276123038,0.28655589409158533,0.03493385994099134,0.11955662646706754,-0.9498923414214717
316.0,0.08180521380009972,-0.07124362072493465,0.02143097788652471,-2.4357739536230882,0.02226721770230819,9.49209739165896,0.19846517606770359,0.23149756256070178,-0.014721610100494841,146.45379698447044,-14.38133440164936,-0.13674687862950058,0.2861002175760635,0.03486498041603622,0.12050975120081171,-0.9499297910360399
317.0,0.08614454238392083,-0.07492422971730604,0.02261065023358494,-2.4818184284244484,0.0447061894963154,9.480472082926251,0.1234513380338518,0.37668628128035087,0.08122286430459129,146.47319385513842,-14.653696434695647,-0.26532404415346,0.2858382642839995,0.03442462857092134,0.12317633820927681,-0.9496910988365685
318.0,0.0878551052933429,-0.0729920687757037,0.02494568609989539,-2.5399255352567707,0.03418815619209012,9.465081087546071,-0.0422033824423675,0.3520972209013121,-0.1475342091687489,146.58362673747706,-15.009144684321711,-0.20514546101682216,0.2847826008140428,0.035706401174861596,0.1259450134183865,-0.9495985315603735
319.0,0.09142371240089571,-0.06875793914975661,0.024250876844110522,-2.5283037814532703,0.015415890692051201,9.468250989241547,-0.030630301052212934,-0.25765914684581087,0.020798947642968094,146.57563153310105,-14.933719807598642,-0.09225206998613766,0.28487604448152215,0.036585907327062135,0.12496261498876313,-0.9496709005305708
320.0,0.0729109120619742,-0.06190847390217965,0.021488144952346373,-2.4996200260531496,0.021020297824389102,9.476426832150281,0.30972418857696193,0.39238895529463974,-0.013130227201332636,146.68597666348205,-14.761067220872492,-0.12932823798284065,0.28398563312982483,0.035696112735128224,0.12370122596802435,-0.9501363082825944
321.0,0.06813231051665354,-0.06097441085009929,0.019289030010115775,-2.513629940804017,0.038022404555842805,9.472928056273657,0.19716928224869806,0.16385760883818512,-0.019257017814993817,146.70628494857817,-14.84535096099809,-0.23113409014274475,0.28382692968551193,0.03502663007401371,0.12468546923852608,-0.950087788332425
322.0,0.07139522685549438,-0.06435109212843282,0.022231651118354512,-2.5371447304334795,0.0441307931512495,9.466968453785922,0.1441731295193136,0.19987542617361656,-0.06976017196807913,146.74031977070922,-14.99114518938968,-0.27218093177475555,0.28348707607957735,0.034969301399910085,0.12605953245738266,-0.9500122055093478
323.0,0.07681821587801131,-0.06640871454797498,0.02528455284552846,-2.5653070323329956,0.06208665842418794,9.458747517889922,0.34349944737926635,0.1804166198344011,-0.12887302836162,146.83915224232888,-15.162640262635346,-0.38076388108351134,0.28262621160128887,0.03436676178543329,0.1277452342742872,-0.9500634187490167
324.0,0.07444059795436664,-0.0660991345397325,0.022330448465774987,-2.540544453186467,0.07056176239181747,9.465633359559405,0.04715774980330445,-0.031009047993705727,0.0005212431156569747,146.82905192761604,-15.013630999213216,-0.4301140833988985,0.2827744176270653,0.03357670223603462,0.12662416940519278,-0.950195744245476
325.0,0.0723273013375295,-0.06376553894571205,0.023378442171518497,-2.577984264358773,0.05847678992918963,9.4550448465775,-0.1656569630212431,0.42068253343823764,-0.033752950432730126,146.82280684500392,-15.242977970102281,-0.3559992132179386,0.2827456338489378,0.03476307981274587,0.12832591210700237,-0.9499297734335169
326.0,0.008548387096774183,-0.005229740361919758,0.023151848937844225,-2.5788410700236035,-0.0685381589299764,9.451038552321007,-1.6061024783634932,3.0216119197482296,0.6972265932336743,147.09899193548387,-15.248647718332023,0.4208349724626278,0.28043703138001563,0.040978989533438245,0.12652111988198272,-0.9504801514531864
327.0,0.0049058671462290536,-0.023882900603199586,0.028743696377055948,-3.133725544190926,-0.1900489303510547,9.264408976808658,-0.4511992572402682,2.340205382900603,0.21369539357835973,146.10474164980707,-18.664452085909108,1.1916974588812708,0.2871938121745906,0.057053430803585485,0.15232022506650186,-0.9433847287099957
328.0,0.03751036866359446,-0.02954569892473119,0.03275422427035331,-3.32980376344086,-0.29577112135176664,9.200293394777264,-0.6984999039938556,0.02710013440860215,0.1656153993855607,145.57930827572966,-19.86149433563748,1.8519561251920122,0.2910248525176651,0.0660365065748848,0.16031197158832566,-0.9405077881708908
329.0,0.059259216589861746,-0.03693817204301077,0.02870775729646698,-3.2097446236559137,-0.4235710445468511,9.240783794162827,-0.39050499231950847,-2.124126344086022,-0.18543826804915514,145.32818740399387,-19.111165514592933,2.6205597158218126,0.2934525144201229,0.07069040629953918,0.15209376820545317,-0.9408850814362517
330.0,0.04767511520737326,-0.04205875576036866,0.03325614439324118,-2.850382488479263,-0.3279151305683564,9.354677035330262,2.173629512288786,-1.6376704109062983,-0.2606062788018433,145.16937163978494,-16.909408602150535,2.003705837173579,0.29561464036098306,0.06027134182411674,0.13546581126113671,-0.943292149390553
331.0,0.08647465437788018,-0.03473502304147466,0.03342242703533027,-2.4354815668202763,-0.13486482334869432,9.471536098310292,0.6359831029185867,-2.207469278033794,0.5901353686635944,145.28944892473118,-14.389482526881718,0.8300787250384024,0.2954914052127495,0.044093943420122884,0.11768508617895546,-0.9464881954170508
332.0,0.09595391705069126,-0.041313748079877116,0.019129800307219665,-2.233267665130568,-0.1824608294930875,9.527997695852534,-1.0470814132104453,0.5097398233486943,0.4307915706605222,144.74130184331796,-13.168723598310292,1.1055011520737328,0.30044995847119815,0.04387142321697388,0.10660557159101383,-0.9464359382507682
333.0,0.0754157862200742,-0.05834127608557191,0.025089487093027617,-2.5766469128170546,-0.26790763740586704,9.437757305833424,-0.2965934210033345,0.912849602862388,0.18454593776928552,144.5761534787007,-15.256247248604398,1.6333293525907608,0.3011011422404182,0.053798222989387814,0.12238246772007416,-0.9437782421726895
334.0,0.07756345555834147,-0.06457386384923755,0.027104090113924895,-2.6010950651761036,-0.33235818181294174,9.435387027606538,-0.2477952630244133,0.21070519845352664,0.157661461440474,144.4956372232213,-15.390815544277386,2.0195260286527006,0.3017795615151635,0.057416480638097546,0.12249140112451185,-0.9435286049967044
335.0,0.09053287985290345,-0.061995073245663314,0.018479080387223585,-2.3921066723729987,-0.38635190196637875,9.487996893219552,-0.0840790831251099,-2.2142758569944347,-0.7200363967759227,144.69297510162602,-14.120642987192454,2.325407215555229,0.30056539919076153,0.056518778329801456,0.11127701977500554,-0.9453423612080296
336.0,0.05672976557929352,-0.05713808961822337,0.010792343573028077,-2.0977445804261308,-0.4303038311675211,9.555193531095181,-0.14628061299112638,-0.936687419664652,0.0568632820267852,145.27131353967627,-12.359495840754445,2.575326015611716,0.2962846960777156,0.053611758919509034,0.09630608702555961,-0.9484724619429163
337.0,0.050759749036696326,-0.05058409201603538,0.009961179654334653,-2.0257756143672747,-0.4453005190456014,9.574194326523198,0.09663189551073106,0.22157011294501472,0.1698784594634319,145.05455490614813,-11.926179740794218,2.657737014493505,0.2981853754275281,0.05335913466982532,0.09242303849871608,-0.9483891004982088
338.0,0.05142629465996894,-0.03895058259338355,0.0052323600868054085,-2.0243197505353288,-0.45762665606095976,9.576290711648692,0.06685450007637261,0.05750515875417532,0.06617939495594885,144.97426801168933,-11.912883340106,2.729758554453676,0.2988666465689962,0.053947035517446104,0.09211593513448785,-0.9482599634395057
339.0,0.040893934284964975,-0.03948297178824324,0.007678805589899218,-2.0485429545539686,-0.45620077928889885,9.572356037615673,0.18711831703570492,0.4379086115169908,0.03514644449439886,144.9608763253531,-12.054120536885092,2.721955668577423,0.2989476184292458,0.054248101035929724,0.09330551075287549,-0.948129488941778
340.0,0.03719025139560152,-0.03742010415495861,0.009457307706717622,-2.1343316099059604,-0.44102862388070885,9.553687197931886,0.34177719081338276,1.3549335450151738,0.18511038364991944,144.93333778239855,-12.566289901090254,2.6378378947959984,0.2990295239951669,0.054884604722753,0.09778970516466225,-0.9476062579877111
341.0,0.04411202277921397,-0.04678378479637332,0.015244014836461735,-2.4334446067962983,-0.39183919673298107,9.47959859128545,0.18027799632835037,1.7476040612940689,0.2142861826083699,144.81363989734365,-14.380058353002884,2.361214454310441,0.2994926682748492,0.0573399004973212,0.11342190907234649,-0.9454634276466974
342.0,0.06324011839196733,-0.05480888689071223,0.018186130156232445,-2.5909512569780073,-0.37790071559701754,9.439534150088043,0.03293010752688173,0.24580242403806518,-0.032889363455846546,144.80813289123677,-15.33088775242591,2.2854754411599414,0.2992210908974561,0.05916537145479749,0.12145201547323066,-0.9444752885180775
343.0,0.06200400884193173,-0.05894024202914841,0.022746880971113867,-2.6203229927690987,-0.37536420516278907,9.435202952306021,0.15116214266981381,0.26105522460754554,0.0728796691768761,144.84391203963884,-15.502973380540256,2.2728665561425196,0.2988702425911356,0.05943954242920834,0.12293422927162713,-0.9444322547177327
344.0,0.06069984264358772,-0.05625255704169946,0.022907946498819838,-2.645444925255704,-0.37171951219512184,9.429306451612906,0.14404750196695515,0.3926337529504327,0.08195318646734855,144.8908020259638,-15.651413749016521,2.2454342053501177,0.29846938059992123,0.05953403473170732,0.12428251722423292,-0.9444080958678208
345.0,0.06525944138473644,-0.058511801730920535,0.02224075531077892,-2.676734264358772,-0.36672915027537356,9.422151258851299,0.04641399488591659,0.31632572777340673,0.13330055074744296,144.91144153225804,-15.846300894964596,2.222638424468922,0.2983274993511015,0.05985852037529504,0.12591351663099923,-0.9442260988654605
346.0,0.05661860739575139,-0.05604740361919749,0.020231117230527153,-2.6512964201416205,-0.3863715578284815,9.42736900078678,-0.026536683713611328,-0.4308738198269079,0.08129917387883556,144.83576907946497,-15.686788208103856,2.3464521046420144,0.2989231711890244,0.0605147958990952,0.12426875044472857,-0.9442087328491344
347.0,0.05859598741148703,-0.057609756097560985,0.01959992132179387,-2.5668780487804876,-0.40580704169944926,9.449095397324937,0.07179386309992133,-0.13044600708103854,-0.01805910700236034,144.88250762195122,-15.172487214791502,2.4528385621557827,0.29869555281785987,0.06004680209815105,0.11979656773033043,-0.9448783276014949
348.0,0.05928992918961448,-0.055804878048780496,0.015695121951219512,-2.5490035405192764,-0.4074236821400473,9.454946892210854,0.1340824154209284,-0.06950727773406765,-0.03357592446892211,144.91900078678205,-15.065074252557043,2.463894079464988,0.2983803694169944,0.05979846742407551,0.1188754718288749,-0.9451164064217153
349.0,0.061733084185680576,-0.05569000786782062,0.015481707317073174,-2.3558495279307627,-0.40857100708103866,9.49799272226593,0.2921739771833202,-3.4505925452399686,-0.9625688434303697,145.19034716758458,-13.903657307238394,2.462056205743509,0.2965045414693155,0.05665855915027536,0.10936955997580647,-0.9468705139551534
350.0,0.052737701847064555,-0.04948862912592261,0.01169918699186992,-2.178548611891648,-0.37500842980780025,9.53999962534187,0.46077352853021614,1.5755989846764828,0.12552241392229585,145.6147156344835,-12.851277818365741,2.2468271140084672,0.2933274484677606,0.05185750452905474,0.10140849429032259,-0.9489846167632912
351.0,0.04327128994792252,-0.0502014349406167,0.012393259900340941,-2.347527649769585,-0.3266631448802966,9.503678018807832,0.17387122531939603,1.3470933554381628,0.12023563654415345,145.69833932786332,-13.862047249072722,1.9619806301749656,0.29233119850374656,0.05197169948246601,0.11054664850629425,-0.9483293753194897
352.0,0.0505099846390169,-0.05646428571428573,0.01621236559139785,-2.471482718894009,-0.29770046082949286,9.475552995391705,0.21796995007680492,0.2874567972350231,-0.02854502688172042,145.74899193548384,-14.600156009984639,1.7939516129032258,0.2917104604327957,0.0523703180387865,0.1171330862453917,-0.9477579141877879
353.0,0.047827769660185086,-0.053289479599865144,0.01357343299239444,-2.4630331572440145,-0.2808691131842193,9.480113240418124,0.282023551946349,0.23027442536810164,0.054857969446629955,145.8127028422502,-14.542391513056835,1.695866935483871,0.2912214339635458,0.05134368076319735,0.11695768197232213,-0.9480370695770762
354.0,0.040379659810423,-0.05885736765201754,0.013208628376606347,-2.517803754074407,-0.2601086321231876,9.466666573002135,-0.0061422857892173555,0.7275148926604473,0.18911945974298452,145.83189909520064,-14.873788449290021,1.5794133556254917,0.29102853724809863,0.05118511460091417,0.1200117896748904,-0.9477536775128697
355.0,0.03684385186017759,-0.07278187403993856,0.014274783634933126,-2.6174317185568166,-0.26565311340901426,9.439669598366493,0.0579226143643925,0.5665130568356376,0.06763468959574388,145.7254762841407,-15.483679657937131,1.6105071114795249,0.29172962569600225,0.05306667626555768,0.12488276292753174,-0.9468166850787905
356.0,0.041032370461953474,-0.08252350979730996,0.018379228953579865,-2.684278408452287,-0.24799089580757566,9.421283953392527,0.1181086321231876,0.5188780862463003,-0.011270184706455362,145.70548007755423,-15.891861957214042,1.4953542392566783,0.29169911229646694,0.05322375802105579,0.12850537090367542,-0.9463340673002136
357.0,0.04526042486231315,-0.09444531864673486,0.020350904799370583,-2.740717545239969,-0.23829268292682945,9.404317859952787,0.01616837136113298,0.3948269079464988,0.011713217938630996,145.6951219512195,-16.23514948859166,1.4306648308418568,0.2916115513548387,0.05361297379701023,0.1314837676223446,-0.9459317376915817
358.0,0.04679779701022818,-0.10370259638080254,0.01954681353265146,-2.7744704956726984,-0.24526671911880413,9.394870180959867,0.07435090479937058,0.004386309992132159,-0.05273406766325728,145.71372934697087,-16.43773603461841,1.4810582218725412,0.2914121088119591,0.05447596644217152,0.1330683387411487,-0.9457248131785998
359.0,0.05029504327301339,-0.0943729346970889,0.01950983477576712,-2.734957513768686,-0.22254287962234465,9.407234461054285,0.3059107002360346,-0.10330940204563335,-0.10760228166797797,145.82878638867032,-16.199837726199842,1.3434992132179384,0.290550956487018,0.052606398122738,0.1314977135051141,-0.9463108413808025
360.0,0.042102675059008665,-0.09125413060582219,0.016686467348544457,-2.7302678992918965,-0.2190251770259638,9.409372541306055,0.11927124311565696,0.4462554091266719,0.025909716758457907,145.91011506687647,-16.17131933516916,1.3335070810385523,0.2899301442466561,0.052315748652242325,0.13135706387293472,-0.9465391458438237
361.0,0.04239201416207712,-0.09086939417781273,0.013920731707317075,-2.7915871361132965,-0.2119649881982691,9.392349527930762,0.19964840676632573,0.4410417486231314,0.0417264948859166,145.92783979150275,-16.540400029504326,1.2902979937057433,0.289622864087136,0.05289316926711251,0.13452927659421718,-0.9461517448487411
362.0,0.04884362706530292,-0.092081038552321,0.020197088906372944,-2.8877130212431155,-0.19744197482297415,9.362107395751377,0.053040175059008654,0.5675698269079466,0.05109411880409126,145.91309869197482,-17.12932607199056,1.2020431746656175,0.2894406167836348,0.05366436863985051,0.13960600739162077,-0.9454174051300155
363.0,0.05587018095987412,-0.09359716758457907,0.019367427222659328,-2.872980330448466,-0.2175082612116444,9.366510621557829,-0.27706038552321005,-0.8054681353265145,-0.14027340676632571,145.93327104642012,-17.033777537372146,1.3245033438237608,0.2893245727057434,0.054394474024390245,0.13850356956726986,-0.9455723386514555
364.0,0.047593627065302915,-0.07679228953579859,0.024340676632572777,-2.70121243115657,-0.26034736428009436,9.414791896144767,0.1435311762391817,-0.8329956726986625,0.09920830055074745,145.99501376868605,-15.989695613690007,1.5789462037765536,0.28926074755114084,0.053771291027930754,0.12925362208811958,-0.9468924296160502
365.0,0.04325000000000001,-0.06716955153422503,0.023300944138473646,-2.6849830841856805,-0.2790556648308419,9.41946518489378,-0.024025127852084993,0.518450039339103,0.1874434500393391,145.82524586939417,-15.892634982297404,1.7082821105428794,0.29065795986605036,0.0547143726012982,0.1280996951313926,-0.9465944253855232
366.0,0.04246184107002361,-0.05981982690794651,0.021787568843430374,-2.7260833988985054,-0.28399842643587714,9.408479150275369,0.23765735641227376,0.2301386703383163,0.02992230527143981,145.74132572777341,-16.144408929976393,1.7371803697875687,0.2912802374980331,0.05566952741542093,0.13005062784107002,-0.9460990045814319
367.0,0.04653540519276163,-0.061947678992918975,0.02414634146341464,-2.7689480723839495,-0.26276711250983475,9.396406372934694,0.06710267505900863,0.4403938827694729,0.08577645554681354,145.65708595594018,-16.403149586939417,1.599687745869394,0.2918532155924468,0.0553513472317073,0.13251732691266718,-0.9456044073229739
368.0,0.05400255704169947,-0.07394787568843432,0.02274193548387098,-2.7925975609756084,-0.2610924468922108,9.389502163650665,-0.031225413060582227,0.17700260621557828,0.024738149095200633,145.63585513375295,-16.543077547206924,1.582913306451613,0.2919406035192761,0.05562190393292681,0.13369592695594018,-0.9454022104600706
369.0,0.06339240755310778,-0.08747797010228169,0.02161290322580646,-2.7878068450039337,-0.25435267505900866,9.391561565696303,0.10595987411487018,-0.2028041404405979,-0.07913798190401258,145.63723200236035,-16.513045830055077,1.5371975806451612,0.2919875854531865,0.05522248034952792,0.1335543684376475,-0.9454364552018095
370.0,0.07210975609756096,-0.10196144767899291,0.023795436664044066,-2.7941038552321005,-0.251950039339103,9.389732887490164,-0.07224134539732494,0.3991763375295043,0.06540863493312352,145.61551190007867,-16.552330841856808,1.53386359166011,0.29225451537372155,0.05528765595003933,0.13389446221597168,-0.9452999880546812
