time,linaccel_x,linaccel_y,linaccel_z,gravity_x,gravity_y,gravity_z,gyro_x,gyro_y,gyro_z,euler_x,euler_y,euler_z,quaternion_w,quaternion_y,quaternion_x,quaternion_z
0.0,0.11902439024390239,0.054878048780487805,0.018048780487804884,-3.466585365853659,0.9124390243902438,9.021219512195124,-1.2789634146341464,-0.3307926829268293,-0.19969512195121952,114.20274390243902,-20.89481707317073,-5.800304878048781,0.5317233953658538,0.059339569512195114,0.17759592975609756,-0.8228462034146343
1.0,0.11173828881145952,0.06591173054587689,0.01839721254355401,-2.722988772744871,0.7754161827332557,9.331358885017423,-1.0255274874177314,0.7607675183894697,-0.5387872628726287,115.38702574525745,-16.212954897406117,-4.768752419667054,0.5276158684552846,0.04187264555168409,0.14062051071234993,-0.8351050539953542
2.0,0.10628505060560808,0.06532105525136886,0.025027376804380295,-2.6193993695039,0.7397079807532768,9.392324539571929,-0.21215986394557826,0.7938132570101211,-0.12637921022067367,115.95332462253192,-15.530290774846524,-4.508907831425253,0.5244030859233451,0.039460418267794915,0.1350648361589514,-0.8390454929666503
3.0,0.10020131629887728,0.06729616724738677,0.025988385598141702,-2.6178985675571043,0.7435060007742935,9.404222996515681,-0.13884533488192027,0.35581204026325974,-0.1768631436314363,116.19691734417344,-15.501127564847078,-4.520417150600077,0.5227932443252032,0.03878849619976771,0.1350934238335269,-0.840454144002323
4.0,0.0945584654003222,0.0661739912329999,0.026296504439698786,-2.54974635644974,0.733891573938781,9.429108688321907,-0.25050344685474507,0.39089252931699825,-0.09974101757146603,116.25893325465512,-15.078043628938595,-4.450870611816717,0.522725457104642,0.037164268169045736,0.13178402402645084,-0.8412631872867259
5.0,0.08742400059945299,0.06265347870068563,0.024986175115207385,-2.552379865872391,0.7290032220598702,9.433695964932003,-0.18123618448166048,0.48303969502828664,-0.05310123262522948,116.30764817728821,-15.084266700385896,-4.41897877561725,0.522450891078678,0.03730435367303585,0.13176259804941737,-0.841591545975385
6.0,0.09583122516088685,0.061539429885614005,0.03111827956989249,-2.591716637414513,0.7247128245476,9.423659101454541,-0.19191934475176015,0.3809096915410841,-0.07798775444330125,116.25093430369787,-15.319218160543889,-4.398957513768686,0.5226328711079911,0.03864568022804575,0.13337982314115676,-0.8411693629082291
7.0,0.11349311061348827,0.05398135931731528,0.034430107526881734,-2.6081533619802695,0.7253092053501179,9.41973198975166,-0.24189299259617908,0.21112262704512902,0.005636335209505947,116.1879179779701,-15.42141081119248,-4.4048977183320215,0.523029336021344,0.039147769665557094,0.13409178821180576,-0.8407907236767738
8.0,0.11366787710060722,0.04549028626762696,0.033169420403881475,-2.6183898202505596,0.7235121951219511,9.41608157316065,-0.12135463949242471,0.21406839456111681,-0.05974575843773325,116.1687967151849,-15.486905248239827,-4.392279701022817,0.5232499899312069,0.03956636605229075,0.13453091078253543,-0.8405631549729264
9.0,0.1158189896911376,0.03805985595836108,0.03453514293207449,-2.625386884948254,0.7289787568843427,9.413111596965852,-0.1257589483850794,0.3181376591216284,-0.11125564869172264,116.14616074940992,-15.527112144182855,-4.427527537372148,0.5233247525383806,0.03954248660993766,0.13496921881770357,-0.8404456970930724
10.0,0.11790103693840909,0.03494692247170612,0.039044322056123806,-2.6412837257156685,0.730874114870181,9.408666243014785,-0.13916352710363333,0.3107518055639613,-0.09240496832697855,116.14080202596381,-15.625024649982851,-4.441269177812746,0.5232698794985374,0.03990687385492949,0.13571675369553549,-0.8403452069448445
11.0,0.12926730920535012,0.032493312352478376,0.044092053501180194,-2.664540125885129,0.7305983477576713,9.402786388670336,-0.1288662962234461,0.3656840086546026,-0.12085095397324941,116.13189294846578,-15.764099380409126,-4.440392653422501,0.5232103488005506,0.040578947954760025,0.13675918754917382,-0.8401828314732492
12.0,0.127867230527144,0.03361605035405194,0.04548524783634936,-2.6951095594020447,0.7190420928402833,9.394581038552317,-0.13481756490952007,0.360383064516129,-0.10125147521636506,116.1354015047207,-15.949783634933123,-4.371761900078678,0.5231196872006293,0.04188140260739575,0.13782214748780486,-0.8399964086585363
13.0,0.12120377655389458,0.03554996066089694,0.043520849724626304,-2.7012926829268284,0.7175452399685285,9.3928308418568,-0.11897128245476002,0.31391129032258064,-0.11226888276947285,116.13531667977969,-15.985375688434305,-4.364358772619984,0.5230877345680565,0.04209843949724626,0.1380451765987411,-0.8399697448292683
14.0,0.12155232100708104,0.03855389457120379,0.04596026750590089,-2.7078752950432725,0.7249960660896928,9.390295043273007,-0.036305074744295826,0.3186934500393391,-0.15519030291109362,116.1325039339103,-16.029951809598742,-4.411044453186467,0.5230541124311566,0.04196903224429584,0.13856026324586937,-0.8399106800472069
15.0,0.12557946498819827,0.045437450826121176,0.043814122738001594,-2.7416756490952006,0.7350078678206133,9.379710857592446,-0.08257031864673486,0.43757253147128244,-0.1936700924468922,116.19774291896144,-16.23603707710464,-4.474355822187254,0.5224307163926043,0.04238286091365066,0.1403774930076711,-0.8399716261487018
16.0,0.1043477576711251,0.039213217938631,0.06165578284815108,-3.5112486231313924,0.7175236034618407,9.041193941778126,-1.1691384736428008,5.562962234461054,1.4366369984264358,114.62557287568843,-21.158334972462626,-4.544047501966955,0.5288543218933912,0.06849211346066089,0.17415413729622345,-0.8252345131679779
17.0,0.12690637293469714,0.04587883556254919,0.08272167584579072,-3.6353269079464985,0.6246319826907946,9.032285405192763,-0.2572334775767112,3.669448269079465,-0.3304521538158929,113.30167805861527,-21.87165371754524,-3.9670817761605037,0.5383711665902833,0.07741476298760817,0.17614691124527931,-0.8188635348916208
18.0,0.11192899291896147,0.08297974036191977,0.07450196695515343,-3.2613892604248615,0.6029571203776554,9.17769512195122,0.32299616443745083,-2.9179472364280095,-0.9567835365853659,114.865581972856,-19.49862927812746,-3.770511654209284,0.529180853016916,0.06526508186073957,0.1593257985460268,-0.8293069306353265
19.0,0.08716207710464202,0.08869551534225022,0.0731219512195122,-3.1695373721479143,0.5527608182533439,9.230065302911093,0.16729445318646732,-1.7940794649881981,-1.872797010228167,115.80569925255705,-18.904833792289537,-3.4335169158143195,0.5231497704036192,0.06329320707553107,0.15433072530527148,-0.8347875851321793
20.0,0.13691699449252556,0.12924154209284025,0.032111723052714404,-2.874823760818253,0.48114437450826125,9.266920928402833,-0.24156422108575923,7.057130212431156,1.9319384343036978,117.97341414240756,-17.218275472069237,-3.0015981510621557,0.5073807471018883,0.05730562009952793,0.14038827625609757,-0.8450066734158144
21.0,0.17774252557041698,0.09895987411487017,0.08792840283241543,-3.851625098347758,0.5751984657749805,8.88223308418568,-0.44346110346184103,1.8428599527930765,0.9653299567269867,115.41191360149489,-23.358842692761602,-3.7529873131392604,0.5207448018318253,0.08431084557297404,0.18630303057887493,-0.8250665684584972
22.0,0.14754733805402567,0.10701296317110634,0.07168923981866548,-3.6843171574688105,0.6099938181409463,8.97938862350605,0.5208013703120902,-4.065786805477502,-1.0359818150312838,115.5129736498258,-22.230850637855454,-3.9188947702409047,0.5215563022471338,0.07686725081509684,0.17945485257841592,-0.82787445771792
23.0,0.09452366902701284,0.11754680416619832,0.052852684425461774,-3.2986464819602115,0.6559404574575699,9.153093505301413,0.3197252819302386,-2.8554740479000413,-0.711740907515642,116.24648178459032,-19.753479754411597,-4.1094725867333555,0.5188053572243733,0.06222643410512907,0.16343842758759508,-0.8350843603670244
24.0,0.08046629950170467,0.11002330373534148,0.04076505189015024,-3.165878610767675,0.6653031358885018,9.223755348244726,0.1628081563073695,-1.4134956539657564,-0.23115750627552356,116.84873693379791,-18.886234123861975,-4.129991382863137,0.515474704585141,0.056828522141470904,0.15790949522161027,-0.839399778253044
25.0,0.08508759506949909,0.09563714360645909,0.04039039376568882,-3.105350792401933,0.7185130943014497,9.255740774043682,-0.09876901389981643,-0.11452221722678058,-0.13664976021880035,116.86543357311453,-18.483267534000223,-4.439553126522048,0.5158888829062607,0.05246595429260799,0.1566298360962497,-0.8401942267661758
26.0,0.0833974560713349,0.08449441759394552,0.047996141021318064,-3.195193098797347,0.7218214566707879,9.232162283166605,-0.15700154078153686,0.9453451069648945,-0.08238860945637105,116.95386155445655,-19.022637897605932,-4.472013974748043,0.5149428592344049,0.05450589265771233,0.16085992468069762,-0.8401032421321044
27.0,0.08267799070847852,0.06893307669251808,0.050975797085159806,-3.388752463377168,0.7338523565996027,9.162179451875163,-0.0728364078715672,1.6337948653104042,-0.13710444297703345,116.9227113071822,-20.22790881055412,-4.584437286913191,0.5142363945365573,0.059384745268948325,0.1700564793564778,-0.8384116384585254
28.0,0.07566445618373233,0.05366565508973063,0.057365778726911704,-3.6148432055749122,0.7427608557191563,9.073853358810085,-0.19385748004945486,1.6859498520100407,-0.1162540744071035,116.88976387171707,-21.641852590760934,-4.683278071259975,0.5132993852058747,0.06530857512794576,0.18069703661084258,-0.8363022705529954
29.0,0.08153639803679141,0.04518451912629727,0.068715147427972,-3.8306127908283694,0.7373560376156758,8.985214641639505,-0.17363999100820499,0.9517229590498669,-0.08162723389906709,116.81458590910793,-23.006798639991004,-4.69455996403282,0.5126114402858641,0.07172290092510583,0.19047799328575177,-0.8340288812111947
30.0,0.0848217001985688,0.043948671836948804,0.07489730620808513,-3.990040463077442,0.7298275073994983,8.917763890449965,-0.23086995616499945,1.4665135251582928,-0.04698493874339664,116.74954806863735,-24.02434247499157,-4.676587613802406,0.5121535269320744,0.07666912808489754,0.1976659249363456,-0.8322391636598852
31.0,0.08283256528417818,0.0471167434715822,0.07766973886328725,-4.112622119815669,0.71505222734255,8.864388632872506,-0.21575460829493087,1.0187307987711214,0.024481566820276503,116.69232910906298,-24.802995391705068,-4.609187788018433,0.5118498671505376,0.08086563693701995,0.20292233706298005,-0.830793811391705
32.0,0.08368894009216588,0.046151305683563765,0.08570506912442397,-4.189658218125961,0.70541935483871,8.83019969278034,-0.19507968509984638,0.6787298387096774,-0.04211789554531489,116.6461933563748,-25.297883064516128,-4.563028033794163,0.5117415885890937,0.08356874003840245,0.20623613781105987,-0.8298013480852535
33.0,0.07816935483870968,0.049637096774193576,0.08983870967741936,-4.249088709677421,0.6982903225806453,8.802129032258067,-0.21930443548387096,0.8405745967741935,-0.0814516129032258,116.59067540322579,-25.68402217741935,-4.534475806451612,0.5117210145241935,0.08564871441935482,0.2088180540483871,-0.8289652180403226
34.0,0.06311428009441383,0.04597167584579074,0.0872094807238395,-4.483456726986626,0.7009272226593233,8.676568450039339,-0.2134736428009441,1.171409077498033,0.08266743705743508,116.31846970889063,-27.224736919748228,-4.614135031471282,0.5119653303634932,0.09298714764752161,0.2198582619809205,-0.8249139365322581
35.0,0.09882806938668465,0.06995665205499982,0.07697282791952342,-3.9270090854595194,0.6691168371361131,8.92649927878311,0.5054775603199579,-3.2218043418193396,-1.3402607035142933,117.00518819545914,-23.653643901502377,-4.288751943539021,0.5104063730338971,0.0774468559719943,0.19328097986162,-0.8335539012177421
36.0,0.09758043909932188,0.11295983664905775,0.06262891986062719,-2.96605096287138,0.7411905979543665,9.224676567007608,1.2866742886178861,-8.027522327282606,-1.8572978134015212,118.76050371614026,-17.727873042411296,-4.5872691169308,0.5013826843044191,0.04611178123678394,0.15177425740819,-0.8478713098469708
37.0,0.09228138698437677,0.1131346802292908,0.020114383125398077,-2.0968271327413737,0.7900712974410848,9.463129182121317,0.192116666198344,-4.192079376006894,-0.8292669462552921,119.38657746290883,-12.447053840714096,-4.766015990877074,0.4998988121443372,0.0199818049736147,0.11393806497060807,-0.8559521408351599
38.0,0.08871941853059084,0.10253681016072834,0.002535686186354953,-1.7248551946348956,0.7799258176913566,9.576970889063734,-0.05589899216964517,-1.705455490614814,-1.006394945861901,120.0608374545727,-10.174850605072871,-4.648910213180473,0.49635057754336676,0.009824437386384922,0.09694843796111048,-0.8614450644411973
39.0,0.0867436589112435,0.09024165449027763,0.0010396762953804653,-1.6034307444456932,0.7806788805215241,9.626498819826907,-0.18356023565996027,-0.24137349668427555,-0.4472375988160803,120.66424543853734,-9.41571011764265,-4.634275130193698,0.49248331609269047,0.0058719254241129965,0.09147221440148365,-0.8651476759538794
40.0,0.09916061593795661,0.08079210220673635,-0.0008211756771945588,-1.609170057322693,0.7774362144543103,9.634432205612377,-0.11721694578696938,0.08924028698812332,-0.13205293919298638,120.91824023078941,-9.441231594919635,-4.6077001611029935,0.49058460971301193,0.005920942399460492,0.0916254878535836,-0.8664654120898427
41.0,0.10833325840170842,0.08111202277921395,-0.0014570079802180512,-1.6444001348769248,0.7850359671799481,9.628758195646475,-0.07665528642613614,0.589442134052677,-0.035268208384848815,121.0137277078416,-9.649289086208835,-4.657164399985014,0.4898453375591023,0.006372869535686184,0.09343678092128432,-0.866747531930051
42.0,0.10450372784833838,0.07312925705293918,-0.001809861001835824,-1.6983141133715483,0.7854151212019032,9.619486718369492,-0.2224118148439549,0.5023004008841931,-0.0049466580495298,121.06069695777603,-9.971967142482484,-4.665248819826908,0.48943252619085087,0.007639654092802817,0.09590191415027538,-0.8667094825087107
43.0,0.10662667191188038,0.06129504327301338,0.002896144767899293,-1.745338316286389,0.7912981904012587,9.610672698662475,-0.06520456333595595,0.37310680566483084,-0.0008556254917387908,121.07786191974823,-10.246189024390244,-4.702281667977969,0.4892674365239968,0.00854970006176239,0.09813977201062157,-0.8665490622797007
44.0,0.10319925255704168,0.05332651455546815,0.005692761605035406,-1.7684992132179382,0.8008969315499603,9.606685680566489,-0.11024783634933125,0.3791428992918961,-0.048716561762391815,121.03723446105428,-10.384109461054289,-4.75889063729347,0.48941091477261983,0.008753226820810384,0.09941961554504328,-0.866320717339693
45.0,0.11550118017309202,0.05256726986624707,0.009526357199055863,-1.8303981117230528,0.790483870967742,9.59572383949646,-0.233521833202203,0.6674223052714398,0.00481412273800157,121.00187352478363,-10.758566089693154,-4.710262588512982,0.48956772210306837,0.010811939132179385,0.10200121792446892,-0.8659047201888275
46.0,0.11599527930763179,0.047256884343037,0.00890007867820614,-1.8721675845790713,0.7856746656176236,9.587228560188827,-0.15430025570416994,0.35520013768686076,-0.015944630212431157,120.93259982297403,-11.003776553894571,-4.676713709677419,0.4899503817132179,0.012146416769079467,0.10372299262627852,-0.8654655754106999
47.0,0.12234461054287962,0.04156313926042488,0.01053579858379229,-1.8875511408339885,0.7887618017309201,9.583850314712823,-0.1724491050354052,0.2538933418568057,0.03402217741935484,120.89278496262784,-11.096375885129818,-4.691646587332809,0.49019308088808033,0.012424345992722265,0.10448827883870966,-0.8652341702977967
48.0,0.11645033906560262,0.032989134914390636,0.00933318347008355,-1.868774418343262,0.7960389269791313,9.586211831703567,-0.15817035704919263,0.15730021355513094,0.1104742703533026,120.73158953392529,-10.983993434116368,-4.744141986062718,0.4914929041723429,0.011756017964295084,0.10380278011981567,-0.8645896970747815
49.0,0.11236600352178636,0.028263253531152836,0.0113715484620284,-1.8630142744745424,0.7977370087295343,9.587494586190095,-0.15472935633734217,0.15023743958637742,0.12362324847326814,120.59643992825296,-10.951138141133715,-4.752563715297291,0.49253801469592756,0.011649269334625904,0.10359557384668988,-0.8640202267624104
50.0,0.11115546438874524,0.02839205162788956,0.00937971600914166,-1.8438517477801506,0.8025939174253491,9.591202053126514,-0.13708635401446181,0.25757839721254355,-0.07526056301749653,120.51074946845378,-10.84034090376906,-4.774786971732045,0.49318870018431304,0.011058723809720505,0.1028444507313701,-0.8637488469846673
51.0,0.11176321606534037,0.024466187104267366,0.011915664456183733,-1.8564581319545919,0.7995348619384809,9.588439736240675,-0.17141616087819866,0.33907145667078786,-0.10640548312165149,120.4913374358398,-10.916012185755497,-4.752791671349893,0.4932745781002209,0.011547797255666702,0.10334515257536246,-0.8636356187383013
52.0,0.1273686261286576,0.020800363418380735,0.01789803679142783,-1.8971031808474765,0.7947398935970922,9.58148658723914,-0.18576217170581844,0.4653411964707205,-0.10936914596680528,120.4898662002173,-11.151416793113782,-4.7198507924019335,0.4931772543962947,0.012781152415402194,0.10503791865117455,-0.8634629632590012
53.0,0.1386600899755896,0.016345472977062278,0.02033209768201901,-1.944917831709335,0.7921587332808806,9.571730532187454,-0.20398973526801023,0.5086790320058908,-0.11466071914906494,120.49354101101494,-11.434481511882426,-4.706910064758216,0.4930766654121378,0.014119680452354295,0.1071167847530362,-0.8632446684725231
54.0,0.1334260323992818,0.010173424922834838,0.021156115717484724,-1.993428624745305,0.7897891424075527,9.563253444693256,-0.16485322227601928,0.5736888226512538,-0.07909164497972523,120.47981412273799,-11.72310535566584,-4.693635008775646,0.4930918201566,0.015522724414119707,0.10922756016497205,-0.8629461582777642
55.0,0.13951159999193047,0.010937223869757307,0.021681913090843073,-2.0472532580846905,0.7802077104642011,9.551777784502413,-0.13441815323084993,0.35406018630595737,-0.1594858303576832,120.49890588119591,-12.049603425275876,-4.641290360406706,0.49282064981630147,0.017333388893133815,0.11141250102269057,-0.8627850311420293
56.0,0.14226386451209422,0.016222644192943173,0.01770789202929251,-2.0206871129133126,0.7775232100708104,9.557800182573786,-0.06557097177671528,-0.14973401975024714,-0.07838202808206741,120.53196302124312,-11.886117236831486,-4.639546389880772,0.4926284593476667,0.016687649200599168,0.11012709094279688,-0.8630725671637565
57.0,0.12831741612701486,0.017115354354536105,0.015958784724323674,-1.9895612983921405,0.7784712824547603,9.563952510641727,-0.12955967943674473,0.2053245223829409,-0.09957407855716274,120.5482395751377,-11.70225720712542,-4.639329646553289,0.4926666421657688,0.015886120253525392,0.1087510525923662,-0.8632396672955877
58.0,0.12795357985837924,0.018939811172305275,0.01265184893784422,-1.9864547600314713,0.7724937057435093,9.566188827694724,-0.15720643194335168,0.2585193745082612,-0.0770357985837923,120.52492623918175,-11.685955940204563,-4.602775865460268,0.49279803782730136,0.016088891084579074,0.10846892061959088,-0.8632010625857592
59.0,0.12501612903225806,0.02487903225806453,0.013330645161290325,-1.978709677419355,0.77225,9.566774193548383,0.16859879032258063,0.028074596774193522,-0.20806451612903226,120.52106854838709,-11.638508064516127,-4.610534274193547,0.4928998892016128,0.015853684782258064,0.10813672441129032,-0.863191074201613
60.0,0.12891070023603463,0.03389417781274588,0.013615853658536587,-1.9757779307631784,0.807351691581432,9.564810385523208,0.1465701219512195,0.2792498524783635,-0.1426374409913454,120.60548288749017,-11.622824055861525,-4.822022521636507,0.49220227451101495,0.014109515565106217,0.10891787854661684,-0.8635190634276162
61.0,0.11764811172305273,0.040014948859166025,0.012754523996852871,-1.9754577104642013,0.8141418174665617,9.564095003933907,-0.25789978363493304,0.11815868410700237,0.09943818843430371,120.5226224429583,-11.617194876081825,-4.858585759244688,0.492815887444532,0.013879054148111726,0.1090530442069237,-0.8631536777645555
62.0,0.10673477014724066,0.03937921022067365,0.011304681353265145,-1.9599003222059872,0.8013760162601624,9.56827234835712,-0.2141505446592484,-0.004499526994117861,-0.09042947529129669,120.51030315696302,-11.526112559008656,-4.779175272095463,0.4929492320241094,0.014064510463264773,0.10803380410883817,-0.8632027194024392
63.0,0.11181496571878162,0.043875088981304586,0.012075727773406767,-1.9531195159417032,0.7843130081300809,9.571228916114041,-0.24762466749091452,0.3869639461803604,-0.18704941506500317,120.5777070220299,-11.486922206923682,-4.669905176370312,0.4924492732459256,0.014604527812277546,0.10730713985280618,-0.8635684247254131
64.0,0.11638732156906824,0.05719560900678132,0.015872541306058224,-1.9839629837773032,0.7658903750327821,9.566791877411859,-0.12905426922932825,0.4947168521224383,-0.38901361882282415,120.67166601101495,-11.674055861526359,-4.5644636768948335,0.49162317618747886,0.01613653630130006,0.10824031289011277,-0.8638976632981905
65.0,0.11320703607957738,0.061211494511258485,0.014030684500393393,-1.9559720505039149,0.7602315761867293,9.571747630287362,0.041644187179198974,-0.07148500430856841,-0.18672750177962608,120.89172895357986,-11.507518686073958,-4.535944466299501,0.4900713638978308,0.015436268653403766,0.1068601205496984,-0.8649622963328089
66.0,0.1082880184331797,0.0587772657450077,0.010564516129032258,-1.958508448540707,0.7666397849462366,9.571496159754222,-0.24140745007680486,-0.017823540706605218,-0.08821524577572964,120.91532258064515,-11.522076612903225,-4.577856182795699,0.4899135979654379,0.015197519895545311,0.10714268753763441,-0.8650233026290323
67.0,0.10665322580645159,0.054967741935483885,0.009895161290322581,-1.8964032258064512,0.7618306451612907,9.58451612903226,-0.15907258064516128,-0.010433467741935478,-0.10257056451612903,121.01491935483871,-11.149949596774192,-4.535735887096774,0.4893887427177418,0.013790992467741932,0.1042085700483871,-0.8657009986532258
68.0,0.10575192012288787,0.049083333333333354,0.008428571428571428,-1.854424731182796,0.7610441628264212,9.592062980030729,-0.03895209293394777,0.07155337941628265,-0.1351502496159754,121.09620535714285,-10.8994383640553,-4.526869719662058,0.4888555946655145,0.012673552029953915,0.1023012460844854,-0.8662458474005377
69.0,0.09573945337379641,0.041678075006556535,0.007172782960548498,-1.836483215316024,0.7690200161102994,9.596636328725046,-0.21860751283204077,0.1617786074894159,-0.0809916029747855,121.18576187900416,-10.791191202090591,-4.583251318328275,0.4881548531241614,0.01173931232103518,0.10171985729420963,-0.8667250055664175
70.0,0.10444571924272947,0.03819408299542054,0.010535212820224623,-1.846855958361072,0.7645543628938598,9.594863346331088,-0.20035653764017258,0.24030242926166412,-0.10025076426654908,121.22032549595369,-10.853556725941903,-4.573505699486718,0.48786616249756437,0.012115216716865811,0.10215011775514866,-0.8668282710428241
71.0,0.11945673058910666,0.033032525368678026,0.015860348345596187,-1.8781134630515042,0.7625594395114461,9.58796393123006,-0.16343431720718307,0.3510735936630901,-0.13754977729456486,121.24042988507361,-11.04066445168063,-4.557266962646585,0.48766376135362094,0.013011235773755484,0.10349347821225174,-0.8667720386947994
72.0,0.12036142981068237,0.02756868203917772,0.016168077398604548,-1.9041252799128485,0.7664732681428197,9.583324707550512,-0.1586576827971399,0.42805695812186767,-0.16277690477631468,121.24770990221423,-11.190518717775799,-4.567343158742648,0.4876144638784231,0.013511789386877741,0.10472148952951296,-0.8666462907103034
73.0,0.1294510682079526,0.021472513062599615,0.018291411971191683,-1.9579873711392204,0.7634870180959876,9.572713813068649,-0.17158594585325504,0.5555991395832073,-0.13266053380136777,121.24948859166011,-11.51341892109988,-4.540617623918175,0.48751534728560186,0.015087399262563297,0.10704110957965662,-0.86639078832827
74.0,0.14771215880893304,0.02100454921422664,0.021559553349875943,-2.027628618693135,0.7574838709677421,9.558227874276263,-0.16828215467328372,0.48566739040529366,-0.08658498759305211,121.22056451612903,-11.928168941273782,-4.518145161290322,0.48744605183870965,0.01708594316708023,0.11004349417535152,-0.8660115065583126
75.0,0.14265381589299764,0.013703973249409918,0.022011998426435885,-2.0500696302124313,0.7566018882769476,9.553427419354843,-0.15771906963021243,0.30424493509047995,-0.07604986231313926,121.20302419354839,-12.064749704956728,-4.508064516129032,0.4875402503646733,0.01770418763217939,0.1110189943280881,-0.8658242562867823
76.0,0.14168981117230528,0.00922698662470496,0.023445515342250207,-2.061696105428796,0.758284815106216,9.550572580645168,-0.11532626868607396,0.3239218627065303,-0.09336767309205352,121.19425403225806,-12.136608723446106,-4.5033266129032254,0.48763924033556244,0.018019599614476793,0.11156359379307629,-0.865696080828875
77.0,0.1565102281667978,0.007855428796223448,0.024492918961447688,-2.084795633359559,0.7589811172305279,9.545427419354844,-0.10037986821400471,0.19842766522423289,-0.10658807041699449,121.17373991935483,-12.27195859559402,-4.5141633064516125,0.4876907055226199,0.018602975581431945,0.11261539680782848,-0.8655225722047604
78.0,0.14930251770259637,0.010337529504327302,0.02186880409126673,-2.073398701809598,0.7558318253343828,9.548003540519279,-0.19368361526357197,0.7658720987411487,-0.09251819433516915,121.16311467348544,-12.204508015342249,-4.5155094413847365,0.4877558503727378,0.018409017249016522,0.11207091795613688,-0.8655549755735641
79.0,0.12682214978831816,0.014538196395788842,0.02381516241429696,-2.169952999138286,0.741328163051216,9.52707742310142,-0.0825488928852422,0.3801482709527556,-0.2529771271215016,121.06844769772582,-12.780337004982954,-4.440166395039526,0.48818755641467154,0.021584821983571235,0.11605422144715447,-0.8646929684565209
80.0,0.11382413547637779,0.025026769322992776,0.020865094975834556,-2.159823077067176,0.7378906747592819,9.530482063242294,-0.03731594919635832,0.14866972949683413,-0.061677391255479386,121.24127046570004,-12.723518227117754,-4.421302709714885,0.48696555824667487,0.021273483155436285,0.11555834016889588,-0.8654674878199202
81.0,0.1038010846352703,0.03110363043722604,0.019495719530928032,-2.1992408396088567,0.6956120040463077,9.524285770484433,-0.3669106627702222,0.8467739008467274,-0.6357830120639916,121.51622855082238,-12.962572765632611,-4.172632921677719,0.48479708218785356,0.023885348476143646,0.11635646099497018,-0.8664993238143379
82.0,0.09133415758120714,0.038727661009328986,0.015886628451537977,-2.040189951669102,0.7120703607957739,9.554400359671801,0.7581605222734253,-1.9839786819527179,-0.5496000524521374,122.0463100857967,-12.00555430669514,-4.2642908658349254,0.48116261953767187,0.0185916487456446,0.10956574262110821,-0.8694149205938331
83.0,0.10066786557266494,0.02109081712936945,-0.014690045333633061,-1.9317684612790829,0.9433750702483985,9.554248960323704,2.094137302836162,-1.2131586958150686,-0.6001344086021505,122.98516330410999,-11.362026759956539,-5.639133041099996,0.47400940978614514,0.004537483199730247,0.11048040482038889,-0.8732741255038402
84.0,0.10526634446067962,0.0695968678580795,0.005401521111985309,-1.930836611591922,0.9798227117755048,9.552682851897643,-1.1032913716233936,1.7949135476377807,1.5725422427035332,121.69611947847588,-11.361288917612677,-5.846678655726649,0.48376068144453177,0.004312983252706906,0.11134241009299015,-0.867809535686636
85.0,0.10956944288336892,0.07217530253643549,0.010151586677157093,-1.9003364804615783,0.8783126147390508,9.569528680079426,-1.1855658274324679,-0.008571943726349507,0.022182805065377953,121.31246276834887,-11.175790996965269,-5.236154040687872,0.4868760578457906,0.008410823479225208,0.10730117504413474,-0.8666107324987076
86.0,0.11957120377655388,0.0623426435877262,0.01187686860739575,-1.9111789929189609,0.8028874901652245,9.576005507474425,-0.22218479543666397,-0.012470495672698576,-0.1191409323367427,121.07603265145553,-11.235965774980329,-4.790787273800158,0.48874462174547595,0.012194046128245477,0.10586757929779703,-0.865773861521243
87.0,0.11612313139260425,0.054991148701809614,0.013035208497246265,-1.906411683713611,0.8039653815893,9.5784551534225,-0.2852416896144768,0.7857100708103855,-0.054628491345397316,121.00465184893784,-11.20779897718332,-4.7947592938631,0.4893450739254524,0.01212550485011802,0.10572314908241541,-0.8655114896787961
88.0,0.11140892997639654,0.05563335955940206,0.011872934697088906,-1.994204760031471,0.8073558221872545,9.560260621557829,-0.13470446498819824,0.7531569630212431,0.4030340283241542,120.73075334382375,-11.732435090479935,-4.822881835169158,0.49116583244040113,0.014470422524783635,0.10976463333752949,-0.8639697716129033
89.0,0.10630251770259636,0.0478658536585366,0.01509244689221086,-2.0824091266719114,0.8192179386309992,9.540154012588513,-0.14414584972462627,0.8326059697088907,0.1675907258064516,120.40808910306845,-12.261065352084971,-4.902367722265932,0.4933273960476004,0.016525797510031474,0.11402744241365065,-0.8621492508465775
90.0,0.0957077104642014,0.043263571990558636,0.014917191188040914,-2.074777143981117,0.8141331628638866,9.542710070810386,-0.23613542486231315,0.04949350904799377,-0.006905241935483877,120.23237116443744,-12.21533610346184,-4.869429828874901,0.49467092412057434,0.01671447099291896,0.11350215229956725,-0.8614605590200628
91.0,0.09107159716758459,0.04143823760818255,0.01355940204563336,-2.0366829268292683,0.8053044846577497,9.55179858379229,-0.19382376081825334,-0.02575727773406765,-0.05524193548387096,120.22233477576711,-11.986624704956727,-4.80837922895358,0.4948871653627065,0.016161244657749804,0.11154265597639654,-0.8616073510180958
92.0,0.0882974036191975,0.04185601888276949,0.012468135326514557,-2.0539236821400473,0.7949299763965383,9.54914083398899,-0.186014948859166,0.4706235247836349,-0.12274783634933123,120.20939221085759,-12.088414634146341,-4.744792486231314,0.4949311059504328,0.01709939525177026,0.11205184037214795,-0.8615070686797797
93.0,0.10385759244689222,0.05579819040125886,0.014019276160503543,-2.0690704169944922,0.7866664044059799,9.54692289535799,-0.130330448465775,0.306859756097561,-0.03516424075531077,120.22780291109362,-12.177714398111723,-4.685707612116444,0.4947862978335957,0.01785333335365854,0.11248334380920537,-0.8615147931321794
94.0,0.10564712824547601,0.055085562549173885,0.015355822187254134,-2.094996262785209,0.7859044059795437,9.541316679779708,0.0401406372934697,-0.04703727380015735,0.1631072974036192,120.19783634933123,-12.332454760031471,-4.695051878442172,0.49490429261939417,0.018519285343233678,0.11364319554740364,-0.8612766642372147
95.0,0.10898485444531865,0.05735326514555471,0.01363355625491739,-2.069090873328088,0.8044360739575138,9.545972856018889,-0.11369984264358773,0.25657208890637295,-0.02938385129819039,120.09271857789142,-12.173737460660897,-4.804305173092054,0.4957546299508263,0.01713315347403619,0.11295442461644375,-0.8609097260782848
96.0,0.1086900078678206,0.0529346970889064,0.017845003933910312,-2.093311565696302,0.8126333595594021,9.539026750590084,-0.11934992132179387,0.5500098347757671,-0.06050845790715971,120.07486231313925,-12.321621754523996,-4.874178796223447,0.49587481811251005,0.017320125745082612,0.11434703157435092,-0.8606559937246263
97.0,0.11127498033044847,0.04165381589299766,0.018156963021243124,-2.1361742722265937,0.8241050354051926,9.529068843430366,-0.1325555664830842,0.42855035405192765,-0.08131146734854446,120.03467250196695,-12.579221577498032,-4.938953088119591,0.4959680373906374,0.018012531271439806,0.11652510006726988,-0.8602933393996852
98.0,0.11487903225806453,0.03158064516129034,0.01799193548387097,-2.1813145161290315,0.8317338709677418,9.517040322580641,-0.16920362903225805,0.4254032258064516,-0.058820564516129034,120.01320564516129,-12.853881048387096,-4.999546370967742,0.49605161457258073,0.018895992419354836,0.11877948431451613,-0.8599193458225807
99.0,0.12358064516129032,0.02137096774193549,0.023048387096774203,-2.2321693548387094,0.8315645161290317,9.504983870967742,-0.17323588709677418,0.37086693548387095,-0.12217741935483871,120.00393145161291,-13.15524193548387,-5.004385080645161,0.49605747196774197,0.02018368678225807,0.12108228165322579,-0.859563962814516
100.0,0.12268273013375296,0.015650472069236823,0.019261408339889857,-2.2513349724626295,0.8345538945712035,9.501047993705747,-0.13103855232100708,0.3894976888276947,-0.09999631195908734,120.00605084579071,-13.26653963414634,-5.025658929976396,0.495968643197089,0.02054264836191975,0.12201006011191973,-0.8594796540851688
101.0,0.12670023603461839,0.0073050747442958315,0.02476376868607396,-2.2709295830055085,0.8401801730920534,9.495604642014163,-0.07801927616050354,0.002586546026750597,-0.11705964791502753,119.98185606805664,-13.384933123524783,-5.061418174665617,0.4959797579856412,0.020778550608379232,0.123046429745476,-0.8593218190869393
102.0,0.12824665617623915,-0.00024232887490165068,0.023668961447679,-2.243161290322581,0.8422010228166799,9.502766915814316,-0.14600339299763965,0.144702743902439,-0.1229310090479937,120.00742525570416,-13.219043813926042,-5.070935778914241,0.49586887508182537,0.019951984842446896,0.12183140979307631,-0.8595791305603853
103.0,0.11343784421715183,0.01408851298190402,0.02367722265932338,-2.2318064516129033,0.8394634146341463,9.505927812745867,-0.0947506884343037,0.4600277832415421,-0.04642014162077104,120.01500295043273,-13.153851544059794,-5.0516473249409914,0.49585463921833195,0.019799674489771837,0.12123057234815106,-0.8596749135906765
104.0,0.10142722265932336,0.017039339103068457,0.02183949645948073,-2.2529142407553113,0.842536585365854,9.5002871754524,-0.09899193548387097,0.46285896931549964,-0.05825383556254917,120.00750147521637,-13.28090332415421,-5.058081726986625,0.49579925265106206,0.020266915204563342,0.12227968534893782,-0.8595467056365069
105.0,0.10256097560975608,0.018012195121951225,0.02254287962234462,-2.29756333595594,0.8464767899291901,9.489711644374513,-0.1245844807238395,0.5514039142407553,-0.09715406176239182,120.0036278029111,-13.548752212824546,-5.0831911388670346,0.4957566480194728,0.021345192893391034,0.12434159315912667,-0.859245726221086
106.0,0.12131274586939418,0.018288355625491744,0.026916601101494894,-2.3386365066876484,0.8483190401258855,9.479250983477582,-0.12070957907159716,0.33210316679779694,-0.10772521636506688,120.00244394177813,-13.795822678992918,-5.1046248033044845,0.49569769467505886,0.022337718793469706,0.12623585622069236,-0.8589791978847365
107.0,0.1240316679779701,0.01189398111723053,0.03235680566483086,-2.370553501180174,0.8492578678206142,9.471710464201415,-0.15921887293469708,0.49027955350118013,-0.1233944728560189,119.97159470889062,-13.989620623524782,-5.115574596774193,0.49573811551219504,0.023014241359756098,0.12779495237863886,-0.8587085778841463
108.0,0.1288021243115657,0.0023945712037765545,0.032960660896931566,-2.3890751376868606,0.8498426435877267,9.466355232100712,-0.16673141227380017,-0.07524832808811965,-0.1306992525570417,119.97657356412273,-14.10143833595594,-5.1217741935483865,0.4956285003044845,0.0234334389339103,0.12863995147560975,-0.8586361997364278
109.0,0.12562844217151847,0.0055363886703383184,0.03188945712037767,-2.3504935090479933,0.8500000000000005,9.476088709677427,-0.05649218135326514,0.2452731608969315,-0.17038503147128245,119.98828678206137,-13.868284077498032,-5.124395161290323,0.4957060383819825,0.022498332507867813,0.12686854955369786,-0.8588735877714396
110.0,0.1321005114083399,0.007885129819040127,0.034541502753737234,-2.376476593233674,0.8500000000000005,9.469790322580646,-0.1597229051927616,0.5003331530291109,-0.10721872541306057,119.97156274586939,-14.024439417781274,-5.125,0.49571139796518476,0.023214296092643583,0.12802970061959085,-0.8586812963373326
111.0,0.14624783634933125,0.0031361132966168377,0.039476396538158945,-2.430161683713611,0.8488387096774199,9.455064516129031,-0.17237657356412273,0.43970790715971675,-0.10895210464201416,119.95352330841857,-14.351332612116444,-5.125,0.4956789831479149,0.02471572763099921,0.13042870533398898,-0.8582935616726985
112.0,0.14127183320220302,0.001743509047993706,0.036555664830841876,-2.430877852084972,0.8461935483870973,9.455506294256491,-0.08460488788355626,0.20151209677419354,-0.15062573760818251,119.9454133064516,-14.354732985837924,-5.116935483870968,0.4958205766030684,0.024788358198662472,0.13039396418076318,-0.8582170722966165
113.0,0.12436978756884343,0.006904012588512984,0.030257671125098362,-2.425217151848938,0.848096774193549,9.457841856805665,-0.1016522423288749,0.19425403225806454,-0.16913847364280093,119.91008064516129,-14.322880605822188,-5.120967741935484,0.4960150989386308,0.02459505767191188,0.1301949438202203,-0.858142246438631
114.0,0.12435483870967742,0.006919354838709679,0.03347580645161291,-2.4221774193548393,0.8454354838709681,9.459016129032257,-0.17338709677419353,0.19369959677419354,-0.15141129032258063,119.92923387096774,-14.305342741935483,-5.102016129032258,0.4959082317903224,0.02461237775806452,0.12999567818548385,-0.8582350705080644
115.0,0.1347983870967742,0.0050967741935483875,0.03627419354838711,-2.4543064516129034,0.8425564516129034,9.450024193548387,-0.15831653225806452,0.4694052419354839,-0.14833669354838708,119.93870967741935,-14.49672379032258,-5.091733870967742,0.49569204905645137,0.02551018471774194,0.13141907694354835,-0.8581150184435484
116.0,0.12637096774193546,0.0019193548387096775,0.03987903225806454,-2.4935967741935485,0.8411532258064518,9.439185483870968,-0.14153225806451614,0.33195564516129034,-0.13124999999999998,119.92923387096774,-14.733719758064517,-5.105141129032258,0.4956465191935481,0.02656791473387097,0.13318589664516123,-0.8578366194032258
117.0,0.1127338709677419,0.009596774193548386,0.03191129032258066,-2.4421774193548385,0.8358709677419354,9.453395161290326,-0.07232862903225806,-0.26199596774193545,-0.28996975806451614,119.97691532258065,-14.422479838709677,-5.056451612903226,0.4954809368306451,0.025440339379032256,0.13071220099999997,-0.8583388799274193
118.0,0.10610798583792289,0.018460267505900872,0.03104838709677421,-2.401647718332022,0.8274516129032258,9.464246656176238,-0.0837910601888277,0.32900890047206927,-0.2552825039339103,120.15250049173878,-14.179852232494099,-5.000245869394178,0.4942936979010622,0.024515143134343033,0.1287202098420535,-0.8593525958815894
119.0,0.11904996066089693,0.019310778914240764,0.031967741935483886,-2.4481827301337535,0.8233548387096774,9.45294590873328,-0.1558320220298977,0.36604174862313144,-0.18028742132179387,120.24076637490165,-14.46384244689221,-4.968116886309992,0.4934130741964988,0.02590783877281668,0.13068193944925255,-0.85951495927144
120.0,0.12944433516915815,0.01929209284028325,0.03587411487018098,-2.498397521636506,0.8221101494885916,9.4398987018096,-0.12983502163650668,0.5777660306845004,-0.1012256589299764,120.27463734264359,-14.767111280487804,-4.968560680566483,0.49301988982553085,0.027225332104838712,0.13295568735464203,-0.8593548035597955
121.0,0.11957297403619198,0.01727911093627066,0.03542899291896146,-2.544888276947285,0.8258937844217147,9.427743705743513,-0.11932779307631786,0.627592692761605,-0.10441827301337529,120.26763621164437,-15.044669551534223,-4.996881146734854,0.49294711638453964,0.0282722765,0.1351448556974823,-0.8590238673605427
122.0,0.11375267808509353,0.01895665637797818,0.03320426072747081,-2.6058403336762894,0.8222401097460101,9.411860790009882,-0.15142490770441203,0.6084025550243095,-0.06908904759022777,120.23023947678993,-15.413719701325425,-4.980894435029959,0.4929914904494039,0.030048861522746065,0.13782599113554844,-0.8585153482754948
123.0,0.11823511166253102,0.018593985152010335,0.03095696907341283,-2.512163282495107,0.8159587645504243,9.437113715225244,-0.1402925089269503,-0.6328364880267909,-0.2414878754866953,120.2600548288749,-14.844792580796465,-4.934000521999637,0.49308581489740044,0.02779721599583409,0.13341064102961525,-0.8592122785098955
124.0,0.11402481389578165,0.03117199257600518,0.02320429098831932,-2.403755028344328,0.8174632532429541,9.464327018902946,0.01256543908491195,-0.22443235691662128,-0.27628829258205734,120.33378245476003,-14.192834798462748,-4.934086954548206,0.4929232031624099,0.02489175348985253,0.1285259601115818,-0.8601376221097865
125.0,0.12084403558675784,0.04348135427384052,0.022038809538219458,-2.3378295204664212,0.8199668744578263,9.480818112126531,0.014273474853234887,-0.2752029998587827,-0.2643980802013355,120.43668371361133,-13.796112521182593,-4.937588323851601,0.49237087647498934,0.02300618280708205,0.12559579655067682,-0.8609453685371907
126.0,0.12096096350541667,0.043784441889083925,0.021151092416631368,-2.306692297605359,0.8249834372289128,9.488239111138014,-0.060335971070628824,0.026378633823559094,-0.12180552613528618,120.5046321793863,-13.603898732070448,-4.9659801867094355,0.49196247148483907,0.02185855079742379,0.1243449184462668,-0.8614026359617504
127.0,0.11525963808025175,0.03898072383949648,0.023498623131392612,-2.3086654209284028,0.8346372934697088,9.486600118017314,-0.0724601691581432,0.2826268686073957,-0.09483059598741149,120.51622738001574,-13.617582120377655,-5.024661929583006,0.4918419916679779,0.021487974067859954,0.12469626328599527,-0.8614398055342251
128.0,0.11514594807238393,0.03545003933910308,0.025995279307631798,-2.353675452399685,0.8429638080251773,9.474675059008655,-0.13093774586939416,0.6475634343036979,-0.09728928992918962,120.5114907061369,-13.896442269866245,-5.078636408339889,0.49177820927753746,0.02239978217505901,0.12694975944944922,-0.8611168373396931
129.0,0.12211329661683713,0.027612116443745095,0.031191188040912685,-2.4028135326514555,0.846981904012589,9.461821400472065,-0.14697088906372935,0.45538453973249404,-0.08727871754523997,120.48873426435877,-14.18647718332022,-5.104892800944139,0.4917775739653818,0.023454470918174666,0.1292543385916601,-0.860750221722266
130.0,0.11834618410700237,0.02260228166797798,0.032152635719905606,-2.4353343823760816,0.8490645161290328,9.455053894571199,-0.11561762391817468,0.42351740755310774,-0.1146808615263572,120.45997983870967,-14.383541502753737,-5.133219413847364,0.4919250304280097,0.02415930367859953,0.1308143358992919,-0.8604138246864673
131.0,0.11283870967741935,0.02350806451612904,0.0270967741935484,-2.430096774193548,0.8461129032258069,9.455830645161285,-0.14193548387096774,0.21113911290322582,-0.10680443548387096,120.41446572580645,-14.351108870967742,-5.112651209677419,0.49217760674193567,0.024205066862903222,0.13050212296774188,-0.8603174519758066
132.0,0.11495220298977184,0.023798190401258863,0.02672462627852086,-2.451310582218725,0.8460212431156573,9.450632769472852,-0.13328579858379228,0.3336964004720692,-0.10267260031471281,120.39243951612903,-14.47863394964595,-5.106967938631,0.4923161467576711,0.0248345979425649,0.13141690452852087,-0.8600783691048386
133.0,0.13097206923682142,0.024552321007081046,0.032257474429583016,-2.476377065302911,0.8428493312352481,9.44507848151062,-0.11442515735641226,-0.08516792879622345,-0.14150767112509835,120.38170362903224,-14.623540765145554,-5.083725904799371,0.49236582324173883,0.025566388318056646,0.13246917404248623,-0.8598641130645162
134.0,0.13231667977970105,0.019171321793863105,0.03413276947285603,-2.446716758457907,0.8452633752950437,9.452051337529502,-0.1571621754523997,0.3274009146341463,-0.12745746459480725,120.3688508064516,-14.443247197088905,-5.099524242722266,0.49255528254425635,0.024741803171125093,0.13116856122285603,-0.8599802053951613
135.0,0.13049704956726987,0.014960660896931556,0.03744138473642803,-2.4738422501966952,0.8476276553894576,9.445223249409914,-0.13210931353265146,0.5359534815106215,-0.11380433713611329,120.33870967741935,-14.604763719512196,-5.111783290715971,0.49265766624390217,0.0253631452629819,0.13244174781707316,-0.8597087851129033
136.0,0.13847836349331238,0.010819040125885132,0.04081746656176241,-2.5343969315499613,0.8489307631786001,9.428518882769474,-0.13190647128245475,0.6016964988198269,-0.11988099921321793,120.31733870967741,-14.974282061369001,-5.128648701809599,0.4926419657509832,0.026914527837136118,0.1352685432714398,-0.8592274127258066
137.0,0.12838709677419358,0.0066935483870967745,0.0291451612903226,-2.558491935483871,0.848629032258065,9.422282258064516,-0.13492943548387099,0.16360887096774193,-0.09627016129032258,120.28245967741935,-15.11975806451613,-5.146572580645161,0.49275886892741927,0.02754738117741936,0.13636632119354838,-0.8589684752016129
138.0,0.11629032258064517,0.00874193548387097,0.03267741935483873,-2.546435483870969,0.8480564516129039,9.425975806451616,-0.14410282258064516,0.30937499999999996,-0.11300403225806452,120.26663306451613,-15.047782258064515,-5.13679435483871,0.4928848764112902,0.02732214074193549,0.13578274667741935,-0.859002142580645
139.0,0.10823426435877262,0.013838316286388673,0.027843036978756897,-2.4877818646734857,0.8485609756097564,9.440490361919752,-0.03895308811959087,-0.7303341365066877,-0.28757499016522425,120.29510474036192,-14.69422206923682,-5.127901258851297,0.4928741950409126,0.02574062632218725,0.1330950594398112,-0.8594633739905585
140.0,0.11385503540519276,0.014741738788355628,0.027848937844217166,-2.3747981904012594,0.8544417781274587,9.46852340676633,-0.12421444728560188,-0.04634146341463413,-0.1873106805664831,120.43283462824547,-14.01873401848938,-5.153869984264359,0.4922289931494886,0.022423003919158146,0.12817930448603465,-0.8606527132533439
141.0,0.1192299370574351,0.011382966168371363,0.027674468922108588,-2.3679555468135334,0.8573821793863098,9.470306058221873,-0.09786831235247836,0.37204096184106994,-0.13357469512195122,120.4817650963808,-13.976126081825335,-5.17139063729347,0.49189019842958276,0.021998407616837138,0.1279883417147915,-0.8609013520137687
142.0,0.13499803304484656,0.01209067663257278,0.03522836349331237,-2.4302519669551543,0.858880605822187,9.454620771046422,-0.12332931746656176,0.6150779405979543,-0.11237706530291108,120.49488960464203,-14.350260621557828,-5.181461447678992,0.49163734535188797,0.023509983695515345,0.13087858708320216,-0.8605712304504327
143.0,0.1345715971675846,0.008702596380802518,0.036384343036978774,-2.46355743509048,0.8615814319433517,9.446310385523208,-0.1382523603461841,0.41033634933123525,-0.09761998426435878,120.47801435877263,-14.549827891424075,-5.217746852871754,0.4916119960590084,0.024257058654209285,0.13243327757789142,-0.8603326571365064
144.0,0.15175865460267507,0.005181353265145555,0.025367623918174674,-2.371393194335169,0.8328953579858379,9.471361329661686,-0.5641596184107003,-0.7258408733280881,0.3196007081038552,120.41394325334382,-13.995655487804877,-5.033784913453973,0.4924244529311565,0.023233374075334386,0.12747178057100705,-0.8606132151221477
145.0,0.14217761605035406,0.02172698662470497,0.026201416207710472,-2.1637299370574348,0.8409087332808813,9.518495476003148,0.049334923288749,-0.7178636408339889,-0.2628638867033831,120.51654578088119,-12.746495131785995,-5.051785011801731,0.4922475182393783,0.01745720148210071,0.11824177636270651,-0.8621130215147521
146.0,0.12093961447678994,0.02957317073170733,0.015358772619984268,-2.0897319040125883,0.8352285601888274,9.536566286388673,-0.12011580448465775,-0.08531790912667192,-0.11560533044846578,120.63692712431157,-12.305077202989771,-5.0019005704169945,0.49158616466404415,0.015760515237018095,0.11477572168135323,-0.8630335436162471
147.0,0.11598996852871754,0.02981077891424077,0.015776160503540526,-2.084749016522424,0.8292916994492521,9.539021046420137,-0.07459923288749017,0.3416404405979543,-0.0942441974822974,120.66523775570417,-12.275270456333594,-4.965617623918174,0.49144383500137684,0.015877511985444532,0.11442317191325724,-0.8631906461750591
148.0,0.11649095200629427,0.030042486231313933,0.0221219512195122,-2.1157616050354053,0.8115531077891421,9.533933910306843,-0.4832169551534225,0.20126376868607393,-0.26108379228953577,120.67689811172306,-12.457695712037767,-4.856195908733281,0.49122453658536575,0.017451257291109364,0.11533059099291895,-0.8631697444020457
149.0,0.12136113296616838,0.03963099921321794,0.034179779701022824,-2.1624630212431155,0.7868473642800942,9.525561762391813,0.0020579268292682806,0.38138522816679776,-0.08134343036978756,120.07556058221873,-12.74224282061369,-4.716674862313139,0.4956482991219511,0.020363971669158144,0.11673783289771833,-0.8603600044645948
150.0,0.12190322580645162,0.036629032258064534,0.021040322580645164,-2.138814516129032,0.802048387096774,9.529048387096768,-0.13583669354838712,0.5893649193548387,-0.04274193548387096,119.32137096774193,-12.595211693548386,-4.806350806451613,0.5013749640967742,0.019804972927419354,0.11593263695161289,-0.8571562737822582
151.0,0.10339044059795438,0.03862273800157358,0.021261605035405196,-2.1682991738788355,0.7615078678206137,9.526399881982684,-0.23802247246262787,0.5406532749803303,-0.23268218922108574,118.93183025177026,-12.773169502360346,-4.5639407946498824,0.5042680120424863,0.022754315659323367,0.11612162609303697,-0.8553718809559403
152.0,0.09318922108575925,0.042753737214791525,0.021812155782848154,-2.2354781667977974,0.7618536585365854,9.510694728560189,-0.05003196302124313,0.8298928009441384,0.017809549567269878,118.70108920141621,-13.17916502753737,-4.574481215578285,0.505701044447089,0.024764177183713612,0.11911282302812747,-0.8540624046689616
153.0,0.09476396538158931,0.043739771833202226,0.023345594020456342,-2.321388276947285,0.7720881195908733,9.49008929976397,-0.08842323957513767,0.7195330940204563,-0.08114058811959088,118.50084702006293,-13.698352675059008,-4.645103511014948,0.5070015514614477,0.026809617962824557,0.12322361074390245,-0.8526499704675454
154.0,0.09693843430369789,0.04600295043273016,0.021781667977970105,-2.381540912667191,0.781471479150275,9.474520456333597,-0.05295657946498819,0.6793482002360346,-0.0964926730920535,118.40443056648309,-14.059004966561762,-4.700197924862313,0.5075140583436271,0.028090999703186473,0.12614560562195123,-0.851881191552321
155.0,0.10765066876475218,0.049940991345397354,0.02314083398898506,-2.428214004720692,0.7865704169944923,9.462203776553892,-0.07010228166797797,0.2848101888276947,-0.07518686073957513,118.35332415420929,-14.338852281667979,-4.742009244689221,0.507687053740362,0.02913380842014162,0.12837475994807238,-0.8514169891793861
156.0,0.11038394964594808,0.050123918174665646,0.022845003933910313,-2.4662289535798587,0.7945047206923679,9.451801337529503,0.16960070810385522,-0.05588365460267508,-0.4011654209284028,118.36196400472069,-14.565084087332808,-4.807432631785995,0.5074565874878051,0.029713769663257276,0.1303091848867034,-0.8512471403733282
157.0,0.12132258064516127,0.05308870967741937,0.022806451612903234,-2.428983870967742,0.8389919354838707,9.457120967741936,0.2818548387096774,0.021118951612903225,-0.09264112903225805,118.80050403225806,-14.335030241935483,-5.065877016129032,0.5042599098225807,0.02627745606451613,0.12984875114516128,-0.8533074652661289
158.0,0.11664516129032255,0.06273387096774194,0.023387096774193553,-2.414241935483871,0.923,9.452185483870966,0.010282258064516131,0.19213709677419355,-0.10216733870967741,118.78613911290323,-14.251864919354837,-5.576209677419355,0.5043335455000002,0.02223116952419355,0.13145658425806456,-0.8531265258306451
159.0,0.10769315499606609,0.0668436270653029,0.01953737214791503,-2.282567663257278,0.9164213217938628,9.484656569630213,-0.17498155979543664,-0.5073969807238395,-0.017923878835562547,118.76751573564123,-13.458175157356411,-5.520303894571204,0.5049065762588513,0.019062878562942562,0.12534446187922896,-0.853763760664634
160.0,0.0991242272676183,0.058369394177812756,0.015525982540931401,-2.210612940691618,0.9121565134314934,9.502802555168405,-0.17279343926791801,-0.06803100764302575,0.04258615966055974,118.67595256828145,-13.026668223839497,-5.480937277546738,0.5058501081171367,0.01748838474998126,0.12198603621841633,-0.8537461210990223
161.0,0.10504195234348657,0.050313729346970905,0.016561378367239896,-2.1667500187329063,0.9131105147802627,9.513272245326135,-0.1740731309242816,-0.11435824575699674,0.004634813701247607,118.62220007446331,-12.7676435877262,-5.4742388000636915,0.5063630062440521,0.016372209282248692,0.12001278267775654,-0.8537601304366081
162.0,0.10768983927166462,0.04439929189614479,0.015844516878348508,-2.1365226293507176,0.912924356524671,9.520820426360938,-0.19396946770446966,0.1728298513543891,-0.054686797516016634,118.57313595875014,-12.588547403619197,-5.470650453336331,0.506871098311444,0.015647590181250233,0.11864686557078227,-0.853667552265511
163.0,0.11578846802292907,0.04414319433516918,0.01618032295530329,-2.1427209920947137,0.9056234685849158,9.51989408414821,-0.12347162901352515,0.29334536922558163,-0.06260045520962121,118.53238451163313,-12.62380999213218,-5.429780871829456,0.5070776501920123,0.01613240298175415,0.11873286316039111,-0.8535250649754973
164.0,0.11707519388557938,0.03758379228953581,0.013124779888351881,-2.1480095912479857,0.9078746768573671,9.519763721853806,-0.1665892763478326,0.30069510790153986,-0.1306708019557154,118.535768376981,-12.652743902439024,-5.440824739612603,0.5070688707986024,0.01617558869858754,0.11901159561874786,-0.8534887180463638
165.0,0.11357907159716757,0.03282415420928404,0.0170800550747443,-2.161153029110936,0.9042553107789135,9.5165462234461,-0.18138891620771044,0.30345815302911094,-0.12337111526357197,118.51666011014947,-12.723045338316286,-5.426523160896931,0.507140793504524,0.01664073294453186,0.11947788259047992,-0.853372500384933
166.0,0.1211927616050354,0.03495239968528719,0.0185763178599528,-2.1922136113296613,0.9019583005507468,9.509349724626276,-0.14218135326514553,0.3850708103855232,-0.10435188827694729,118.50732199055861,-12.911875491738787,-5.399577104642013,0.5071592387804877,0.01762293635129819,0.12080778996459476,-0.853152175414241
167.0,0.12358064516129032,0.034653225806451624,0.02000806451612904,-2.220443548387097,0.9014354838709671,9.504249999999999,-0.12439516129032258,0.44979838709677417,-0.09566532258064515,118.48679435483871,-13.079133064516128,-5.406048387096774,0.5072486623870965,0.01842055723387097,0.12204191117741933,-0.8529075857983872
168.0,0.1197983870967742,0.03466935483870969,0.020701612903225818,-2.235693548387097,0.8982419354838709,9.501467741935482,-0.2104334677419355,0.12631048387096772,-0.12973790322580647,118.46113911290323,-13.174949596774194,-5.395614919354839,0.5074129144919353,0.01898808540322581,0.12265984389516127,-0.8527107480241937
169.0,0.13237551695616212,0.033886476426799025,0.02513999172870142,-2.2250814722911496,0.8890341191066995,9.503198511166252,-0.10259124276261374,0.18464510959470634,-0.1246562241521919,118.44758064516128,-13.115750361869313,-5.351814516129032,0.5075658302191894,0.019076380401571547,0.12199219233705544,-0.8527163670202647
170.0,0.12862304565353344,0.034229331840464824,0.022683784219976202,-2.2159893986160712,0.8921131453125941,9.50389921624402,-0.11423511292339969,0.07634288819625168,-0.13373473088018722,118.42107592446891,-13.05576992424701,-5.358868509047994,0.5077497450136074,0.01875092387682826,0.12161731629244588,-0.8526697354263402
171.0,0.12814868163569973,0.030939004216344906,0.025841478545058416,-2.2096491658092763,0.896718276543807,9.506801862050875,-0.12821647602332104,0.28075700034295625,-0.11513426990659484,118.3960218332022,-13.014117127135911,-5.3843039815711435,0.5079247871544463,0.01839416018262422,0.12143101310083419,-0.852598488323075
172.0,0.11572756662430148,0.025493695656559553,0.02251348120801308,-2.2096552280659285,0.9035002673041613,9.506497705218985,-0.1397634799471444,0.37243495178438135,-0.11986552205007162,118.3823859166011,-13.009931547438924,-5.41128001497912,0.508102399307062,0.01816412997034437,0.12156630254638484,-0.8524733591212149
173.0,0.11641364562528998,0.015329459944723522,0.015319978212189077,-2.2114806431439007,0.8994349290887447,9.506282192499341,-0.16986145574855252,0.14896457463333937,-0.12263990598963062,118.35880212431157,-13.029207266638423,-5.3929635961992375,0.5081773418902539,0.01837391309060098,0.12157419721644581,-0.8524209007531722
174.0,0.11202735580705682,0.019342088805503442,0.01839643728943493,-2.1930750469043154,0.8927263007121388,9.510607355403572,-0.1761715991849745,0.1366431136395731,-0.09948140470858802,118.36825334382375,-12.91553213702112,-5.362959964897415,0.5082441964412031,0.0181455352629466,0.12058674891516877,-0.8525296651698038
175.0,0.09813641590510197,0.016729266275293028,0.019581381508604175,-2.173733432185439,0.8861153140067382,9.515547580140808,-0.14973017410074846,0.17027867719744194,-0.18697024602069842,118.36238690007868,-12.80632527386068,-5.332812594565151,0.5083929744715849,0.017931534168058667,0.11960206597135309,-0.8525878110648393
176.0,0.09591188040912668,0.014881589299763966,0.016166207710464207,-2.1816433910306854,0.8827143981117229,9.513298190401255,-0.11130015735641227,0.2603978166797797,-0.14112780291109364,118.3364353855232,-12.863227773406766,-5.321105428796223,0.5084458836278523,0.018285078405782848,0.11991665311801736,-0.8525051325613695
177.0,0.10292368214004721,0.014981117230527145,0.02015971675845791,-2.202003147128246,0.8808733280881195,9.508874901652238,-0.13952104642014163,0.4484952793076318,-0.1476052321007081,118.32351003147127,-12.987057435090477,-5.314786585365853,0.5084560505074746,0.01889711420692368,0.12078451073642803,-0.8523619785145556
178.0,0.11292840283241543,0.017585759244689227,0.020780881195908738,-2.2556081825334378,0.8786404405979542,9.496214004720695,-0.14874852478363493,0.5884047993705743,-0.14837480330448466,118.31758703776553,-13.303127458693941,-5.299732002360345,0.5084008082159717,0.020500126767505907,0.12306944987490169,-0.8520294842580644
179.0,0.11891109362706528,0.02767171518489379,0.021244099134539736,-2.290129032258064,0.8860236034618412,9.487044846577497,0.11573195318646735,-0.006840086546026747,-0.17678869984264362,118.34307262981903,-13.505541896144766,-5.339627999606608,0.5080466756343429,0.021068412589103067,0.12480942989417784,-0.8519714381400472
180.0,0.11536683713611329,0.028694728560188835,0.01970672698662471,-2.284354838709677,0.9064956726986626,9.486619197482304,-0.034497934697088894,0.5038884244689221,-0.10500221282454761,118.41415224232887,-13.472024980330449,-5.459254523996853,0.5075298817889458,0.019960176096970886,0.12509771354386312,-0.8522661283442171
181.0,0.1268648701809599,0.02212962234461055,0.028478363493312363,-2.3538225806451605,0.9127317073170733,9.469519276160506,-0.1724909028324154,0.7002557041699449,-0.0501573564122738,118.42461644374508,-13.88888547403619,-5.5044256490952,0.5072555353501179,0.02155208242348545,0.12836995678402835,-0.8518964470914632
182.0,0.12750019669551535,0.013588316286388673,0.031224232887490176,-2.3739915420928406,0.9012753737214793,9.465930173092058,-0.30935533044846575,-0.08412913060582217,-0.043852035798583794,118.40868410700236,-14.009186909913453,-5.438360542879622,0.5073145927757672,0.02254432843823761,0.1289686536349331,-0.8517480139252556
183.0,0.11967741935483871,0.015161683713611335,0.022574744295830063,-2.2151640440597955,0.887916601101495,9.503864280094419,-0.1080473052714398,-0.6969930173092054,-0.2075727773406766,118.49591856805665,-13.054292879622345,-5.332560483870967,0.507169299133753,0.018813671119984263,0.12148761158615265,-0.8529827469386309
184.0,0.11847757671125098,0.015237018095987416,0.018421125098347764,-2.0931304091266716,0.8789716758457908,9.532334972462628,-0.14213340873328087,-0.42947605232100716,-0.13844413847364279,118.56458988985051,-12.324245180959874,-5.25937622934697,0.5069892875110148,0.01591612718548387,0.11581223027773409,-0.8539369907250196
185.0,0.11835169158143194,0.013340283241542095,0.017690401258851303,-2.034004720692367,0.873590676632573,9.54734087332809,-0.1366665027537372,0.009631933516915797,-0.11614747246262785,118.59711349331235,-11.973967348544452,-5.222102429189615,0.5069593979087331,0.014540901338709677,0.11305935215499606,-0.8543709176125098
186.0,0.11799842643587727,0.020097560975609764,0.014966168371361136,-2.018550747442957,0.8747671125098346,9.550730920535017,-0.09328284815106216,0.2680468135326514,-0.1097118410700236,118.60934303697876,-11.881136900078678,-5.231338512981903,0.5069780476640438,0.014177193645161287,0.11234672012588512,-0.8544742030723838
187.0,0.12236113296616835,0.016542879622344617,0.0184240755310779,-2.05823052714398,0.8720688434303697,9.54208064516129,-0.1726494885916601,0.38840479937057437,-0.07515981510621557,118.58869984264359,-12.114801337529503,-5.210501081825335,0.5070395313450036,0.01538983387686861,0.11403273873957512,-0.8542019159067663
188.0,0.1210483870967742,0.01109677419354839,0.019306451612903234,-2.0875645161290315,0.8709596774193549,9.535491935483869,-0.13608870967741934,0.5449596774193548,-0.11396169354838709,118.56733870967741,-12.28891129032258,-5.22172379032258,0.5071238368951612,0.016175005346774192,0.11532578058064517,-0.8539636931854838
189.0,0.12082919768403638,0.012701406120760962,0.02146236559139786,-2.1382992142266337,0.8713941273779984,9.522100082712981,-0.08284351736972703,0.48208488420181966,-0.13850935690653432,118.53165322580645,-12.599081110421835,-5.236794354838709,0.5071616041602562,0.017511240461745244,0.1176642803668321,-0.8535905282131926
190.0,0.11812427626137303,0.013382961124896611,0.021940860215053773,-2.1682423490488016,0.8758583540115797,9.5162758478081,-0.10540865384615383,0.22950010339123242,-0.11776778329197685,118.51381048387097,-12.780513337468982,-5.244254032258064,0.5072657499228701,0.01818318842845327,0.11907612802212575,-0.853323922788048
191.0,0.11612262200165427,0.012199545078577338,0.02521236559139786,-2.220637303556659,0.8544896608767572,9.506670181968566,-0.2316105769230769,0.6851129549214227,-0.06694840777502067,118.47762096774193,-13.091617555831265,-5.130997983870968,0.5074128695138544,0.02050573436745244,0.12087261269251447,-0.8529261278496694
192.0,0.10466211745244003,0.014023159636062866,0.023731182795698934,-2.257496071133169,0.8437932175351528,9.497798800661705,-0.16890508684863523,0.5374405500413565,-0.12878670388751035,118.45554435483871,-13.309468052109182,-5.07202620967742,0.5074515312206369,0.021972896332919774,0.12224434558416047,-0.8526766783804802
193.0,0.10808105872622001,0.012463192721257241,0.023672043010752698,-2.291792390405294,0.8414127377998345,9.49107278742763,-0.13939205955334988,0.5148392266335815,-0.11908085194375516,118.44475806451612,-13.515167493796525,-5.05,0.5074591233643508,0.02310032686807279,0.12363799747353188,-0.8524428298192723
194.0,0.1136451612903226,0.009354838709677422,0.023846774193548394,-2.326564516129032,0.8401935483870968,9.482854838709681,-0.14979838709677418,0.3364415322580645,-0.08760080645161289,118.41431451612902,-13.723387096774193,-5.0532258064516125,0.5075277495887097,0.02410809913709678,0.12512335010483872,-0.8521555263629033
195.0,0.11018548387096777,0.013096774193548391,0.019306451612903227,-2.2937419354838706,0.8464193548387096,9.490201612903228,-0.05912298387096774,0.04254032258064516,-0.15756048387096774,118.43860887096774,-13.519405241935482,-5.087903225806452,0.5074553941935485,0.02290521402419355,0.12384382683064513,-0.852422358233871
196.0,0.10576612903225806,0.006362903225806454,0.019653225806451617,-2.2881451612903225,0.8536209677419353,9.490475806451617,-0.11507056451612903,0.3370463709677419,-0.13009072580645162,118.46370967741935,-13.48946572580645,-5.140322580645162,0.5073201334677419,0.022399608209677423,0.12382920804032259,-0.8525161254193547
197.0,0.11884677419354836,0.0029274193548387106,0.0248225806451613,-2.3408387096774197,0.8572258064516125,9.47758870967742,-0.0783266129032258,0.5428427419354839,-0.11043346774193548,118.45060483870967,-13.806149193548388,-5.1666330645161285,0.5071921061774192,0.023620409798387094,0.12629379766935483,-0.8521939686048388
198.0,0.1292338709677419,0.006193548387096773,0.029709677419354853,-2.397266129032258,0.8635806451612902,9.462959677419352,-0.07933467741935485,0.4867943548387097,-0.13084677419354837,118.4376008064516,-14.146118951612904,-5.209375,0.5071236876774192,0.024806755879032253,0.12901350508870968,-0.8517945808225806
199.0,0.1243772619984264,0.005006097560975609,0.03133634933123526,-2.3778204169944925,0.867274193548387,9.467897718332022,-0.06940524193548386,-0.007110542879622345,-0.13684967545239968,118.42340799567269,-14.023556746656176,-5.227991001180174,0.507271247357199,0.02415977197521636,0.12819672649508262,-0.8518473181972857
200.0,0.12202065302911091,0.011800157356412273,0.028895948072383958,-2.3165385523210076,0.8678961447678992,9.482848151062154,0.07659200432730134,0.2395579268292683,-0.7044748229740362,118.73293666404406,-13.660311762391817,-5.222890440597954,0.5051369889492525,0.022173135999213216,0.12554472973878839,-0.8535443754706924
201.0,0.10796085759244689,0.02213926042486232,0.024569826907946506,-2.368103265145555,0.8557655389457122,9.47054642014162,0.01675354051927616,-0.3115829071597167,-0.9501524390243903,119.40817269866247,-13.975039339103068,-5.161922206923682,0.4999261212385916,0.023282433076121163,0.12768023232179387,-0.8562438037216757
202.0,0.10838768686073957,0.032747049567269884,0.021482494099134546,-2.2984024390243905,0.8364634146341465,9.489313532651458,-0.15946597167584575,0.4444101593233675,-0.12759638080251767,119.86961054287963,-13.557630556648308,-5.032775619590873,0.49671367726042476,0.021869355187254132,0.12414243214476789,-0.8586672659051928
203.0,0.11040755310778913,0.03854287962234463,0.029414634146341476,-2.343886703383163,0.8287317073170732,9.479084185680565,-0.11309992132179383,0.3990952006294257,-0.09847560975609755,119.9924665617624,-13.827025963808024,-4.986624704956727,0.4957274052431154,0.02330231986782061,0.1259750734917388,-0.8589533047348543
204.0,0.11611487018095987,0.055079464988198296,0.028502753737214802,-2.415454760031471,0.8342690794649883,9.460301337529504,0.09284520062942565,0.8024537765538946,-0.12036290322580645,120.03561172305271,-14.260272423288749,-5.031363099921322,0.4951741844712824,0.024830470753737212,0.12940551342722265,-0.8587223991644375
205.0,0.11006923682140048,0.05936978756884345,0.030475609756097574,-2.490705350118017,0.8462305271439811,9.439928009441386,-0.10142358379228952,0.6187524586939417,-0.08293420535011801,120.00450924468922,-14.712438532651454,-5.113021243115657,0.49512891176750595,0.026275863232100703,0.13312703746577498,-0.8581377258103853
206.0,0.10592307692307694,0.05154301075268819,0.03357133995037222,-2.5737400744416874,0.8490037220843673,9.417022952853596,-0.21206704921422664,0.6616534842845326,-0.11206187965260546,119.9545673076923,-15.217970688585606,-5.1466501240694775,0.4951628212380066,0.028321492771712156,0.13701059887551695,-0.8574393955314309
207.0,0.10835669975186105,0.04561021505376346,0.03609615384615386,-2.6283901985111675,0.8435583126550869,9.402789702233246,-0.16366961331679072,0.5366987179487179,-0.07732630272952853,119.94144696029777,-15.548980303970222,-5.123123449131513,0.49508047054239046,0.029993881740694783,0.13935798545388756,-0.8570618643624897
208.0,0.1105452853598015,0.04275268817204303,0.040156947890818875,-2.6909813895781634,0.8472227047146406,9.384423076923078,-0.13639629859387925,0.6150227460711332,-0.09314903846153846,119.91326380272952,-15.934041563275434,-5.155916563275435,0.4950317391461953,0.03156988145099256,0.14228887570678247,-0.856548653354632
209.0,0.12272828784119107,0.039997311827957,0.04466315136476429,-2.744926178660049,0.8450186104218365,9.36907444168735,-0.13896427832919767,0.45181580851943753,-0.10073278535980149,119.89168734491315,-16.25542803970223,-5.154067152605459,0.4949862323916459,0.03301021810856079,0.14471820905500415,-0.8561176307619937
210.0,0.12006575682382134,0.03499462365591399,0.04400496277915635,-2.7791042183622823,0.8507270471464019,9.358375930521097,-0.11093879239040527,0.4245218155500413,-0.11032102977667493,119.86207351116624,-16.465516439205953,-5.193238213399503,0.49508126736517777,0.03371155926799007,0.14639615148717952,-0.8557552636592228
211.0,0.12058870967741936,0.032282258064516144,0.04554838709677422,-2.798177419354837,0.8554999999999997,9.353314516129036,-0.09637096774193549,0.337953629032258,-0.12091733870967741,119.83573588709677,-16.580695564516127,-5.222782258064516,0.49522399960483876,0.03408734666129033,0.14734177087096778,-0.8554991191612906
212.0,0.1284435483870968,0.03162903225806453,0.04603225806451615,-2.8292016129032245,0.8578548387096772,9.343233870967742,-0.10670362903225807,0.46759072580645156,-0.13835685483870966,119.81643145161291,-16.765423387096774,-5.23891129032258,0.49529512406451603,0.03485141901612903,0.14879549026612904,-0.8551787331209679
213.0,0.12182100708103855,0.030653225806451627,0.04383280881195911,-2.8254771833202192,0.8540533044846579,9.345551140833992,-0.15468135326514557,0.18422993705743507,-0.13195564516129032,119.78094758064515,-16.739025619590876,-5.214093233674273,0.4955678305739575,0.034942900964594806,0.14849194167505902,-0.855068776403029
214.0,0.11727773406766324,0.03220771046420143,0.04417112509834778,-2.842121361132966,0.8532765538945715,9.341754130605821,-0.12090750393391031,0.3647583103855232,-0.1169281077891424,119.74378810975611,-16.83953456923682,-5.21162962234461,0.49576405991483097,0.035430811314122734,0.14921122564988198,-0.8548075441439811
215.0,0.11326789929189615,0.03470062942564911,0.04642427222659325,-2.834266325727773,0.8486947285601887,9.34329642014162,-0.1598237116443745,0.003372098741148688,-0.11541969905586152,119.72454022423288,-16.793532405586152,-5.18031077891424,0.4959648864453186,0.03545943301593234,0.14872584535719907,-0.8547705329348937
216.0,0.10643233674272226,0.03570515342250198,0.04168391030684502,-2.81693961447679,0.8418312352478363,9.348587726199842,-0.06960439614476789,0.41839471872541306,-0.11201932533438237,119.71126204760031,-16.698958743115654,-5.13773603461841,0.4961009853839495,0.03531645523780487,0.14783116208988983,-0.8548555163505113
217.0,0.10845003933910306,0.04909047993705745,0.0413863099921322,-2.8443690007867817,0.840601101494886,9.340245476003146,-0.05871852871754524,0.21416207710464202,-0.138242525570417,119.69754130605821,-16.86699449252557,-5.129351888276947,0.49613135654681345,0.036070638082612114,0.1490626804602675,-0.8545882064413846
218.0,0.12022029897718332,0.05628796223446106,0.03928088119590875,-2.8009767899291895,0.8320786782061369,9.3543359559402,-0.005682041699449254,-0.12224134539732494,-0.10565745476003147,119.73242525570416,-16.59690204563336,-5.075002458693941,0.49605252626317864,0.03527842270771045,0.1468511572403619,-0.8550453335865458
219.0,0.11769866247049567,0.05529189614476791,0.04095043273013377,-2.7337378048780487,0.8387380015735644,9.372620377655391,-0.07458571007081038,-1.921884834775767,-0.3297022521636507,119.77408536585365,-16.181220495672697,-5.108114919354838,0.4959720771520457,0.03316749631058222,0.14392154417092842,-0.8556470226666009
220.0,0.14910523210070808,0.05952753737214792,0.0402122344610543,-2.5477911093627066,0.8464718725413061,9.42257100708104,-0.31108993902439025,0.1726962037765538,-0.19684303697875688,119.95152561959087,-15.062091856805665,-5.132651455546814,0.49527235934736447,0.027808363905586157,0.1357757770550747,-0.8575309558676236
221.0,0.13435503540519275,0.05201376868607396,0.021827891424075534,-2.513637490165224,0.7989173878835563,9.436676632572775,-0.23646734854445317,0.3377089889850511,-0.16036708300550745,120.06444728560189,-14.855945121951219,-4.84455153422502,0.494615628109166,0.02887093758988985,0.1330017926081825,-0.8583431880588117
222.0,0.12241542092840282,0.05649881982690795,0.030248623131392618,-2.567024390243902,0.8198457907159717,9.421112509834774,0.051927616050354036,0.9942073170731707,-0.10253737214791503,120.1154897718332,-15.181500786782061,-4.969453186467349,0.49406950430055074,0.0292970865570417,0.13599764177183318,-0.8581913504044059
223.0,0.10937682825959771,0.0501372833827594,0.03278545058403439,-2.707192519518248,0.8670977425407012,9.376269906594846,0.1775164417276927,1.2206020900159373,-0.00953456293247796,120.0416555710222,-16.03276934676915,-5.282075364643225,0.4939867274659968,0.030911724302547957,0.14362279514220583,-0.8569129589024994
224.0,0.0973477374972261,0.052332213681938314,0.03222042002057739,-2.8111375658173463,0.9035229074623254,9.342888690512215,0.08298029010066776,0.9294690229780709,-0.04606350491234441,119.9770777855111,-16.66071000776695,-5.521791026145372,0.4940417177251307,0.0320541824612661,0.14929992186221228,-0.8558814189248926
225.0,0.10489495450785773,0.05302212572373864,0.0365012406947891,-2.8751116625310176,0.9129565756823826,9.322855045492144,-0.05388751033912324,0.4657671629445822,-0.09213580438378825,119.92215415632754,-17.053250361869313,-5.582556606699752,0.49417792248097603,0.0333854268207196,0.15246227008767577,-0.8552168596575681
226.0,0.1051087675765095,0.05134574028122417,0.03804900744416875,-2.9139187344913156,0.924187965260546,9.309560587262204,-0.02361714226633582,0.47703680727874276,-0.11020600703060379,119.88506901364764,-17.284513285773368,-5.661868021091811,0.49432645654693974,0.033933471414392055,0.1545051543180314,-0.8547562280384613
227.0,0.11954631927212572,0.049721257237386296,0.037109181141439226,-2.94114888337469,0.9296947890818861,9.301050454921423,-0.11387510339123241,0.13045388751033915,-0.12367659222497931,119.85299317617866,-17.45105200578991,-5.6947192928039705,0.4944374917613733,0.0344288936426799,0.15588569468320926,-0.8544294622369724
228.0,0.11665322580645163,0.04246774193548389,0.040435483870967764,-2.9604354838709677,0.9267903225806454,9.296129032258062,-0.20443548387096772,0.6251008064516129,-0.08004032258064515,119.84243951612902,-17.570413306451613,-5.683215725806452,0.4944304442983871,0.0350781340967742,0.15668418622580643,-0.8542558251854838
229.0,0.11448387096774193,0.03700000000000002,0.043959677419354866,-3.0115161290322576,0.9289274193548387,9.278645161290317,-0.09632056451612903,0.5334173387096774,-0.10781249999999999,119.81542338709677,-17.885332661290324,-5.713508064516129,0.4944483611935484,0.03636814222580645,0.15908872491935486,-0.853742242798387
230.0,0.10223387096774192,0.0325967741935484,0.041967741935483895,-3.04483064516129,0.9347822580645161,9.267516129032254,-0.17716733870967738,0.5397681451612903,-0.1186491935483871,119.78069556451612,-18.08881048387097,-5.763558467741936,0.4945813592499998,0.03699990583064516,0.16076625713709675,-0.8533278916774194
231.0,0.10605645161290322,0.02079032258064517,0.042427419354838736,-3.0777338709677418,0.9366532258064515,9.256516129032256,-0.22328629032258063,0.19667338709677418,-0.15,119.75796370967741,-18.288306451612904,-5.784122983870968,0.494641704451613,0.03779149145967742,0.16235326956451612,-0.8529539535725807
232.0,0.1085344217151849,0.023837922895357997,0.047694335169158164,-3.0828528717545236,0.9392069236821401,9.254907946498818,0.027494345003933912,0.43764998033044844,-0.16645972659323366,119.75503171715184,-18.318158684107,-5.796852871754524,0.49453565689811185,0.037823952226199845,0.16264040457867818,-0.8529613890999215
233.0,0.10095672698662471,0.02205605822187255,0.04533910306845006,-3.1044022423288746,0.9450308811959087,9.245962037765542,-0.11405020653029109,0.44014555468135325,-0.085926435877262,119.75112976986625,-18.454013817859952,-5.839253048780488,0.49454014811841096,0.03814262747600315,0.16380734567643587,-0.8527221944935091
234.0,0.10520239968528719,0.018438630999213224,0.05010975609756099,-3.1414034225019662,0.9478178599527931,9.232795043273011,-0.12486477183320219,0.5063852281667978,-0.09980453383162863,119.73100167191188,-18.687674567269866,-5.859243459874115,0.4944958772523603,0.03902703224901652,0.1656156624156176,-0.8523535899813142
235.0,0.11694394177812747,0.021783831628638874,0.05666778127458695,-3.1914557435090467,0.9490702202989771,9.215720102281663,-0.08894448269079464,0.4873660011801731,-0.11232666207710464,119.70824277143981,-18.99686147718332,-5.876269915420928,0.49438086291247063,0.040305167471282446,0.16796098042958302,-0.8518999126963023
236.0,0.11657277734067664,0.019500786782061373,0.05822501966955154,-3.2132560975609747,0.9419826907946499,9.209291502753734,-0.2781667977970102,-0.7607272816679779,-0.1702006294256491,119.7010719905586,-19.12900029504327,-5.830045239968529,0.494420347218332,0.041230213977576716,0.16874040579543667,-0.8516776276223448
237.0,0.11764594807238396,0.02349940991345398,0.051363493312352494,-3.0248876868607395,0.9164516129032256,9.2737000393391,-0.18285306845003932,-0.83604814122738,-0.1966905979543666,119.78272029897718,-17.965739329268295,-5.635887096774193,0.49466561792938624,0.03729517019492525,0.15941133328638868,-0.8534561559118804
238.0,0.12156490952006295,0.028834382376081838,0.03969787568843432,-2.7275204563335955,0.9047096774193547,9.363063729346969,-0.25664830841856806,-1.4763154012588513,-0.21437352478363492,119.90023111723053,-16.1512416404406,-5.512701612903225,0.4948904678316287,0.029935643520849726,0.14546317182061366,-0.855991161859166
239.0,0.1195668764752164,0.03330389457120379,0.0328151062155783,-2.5717854051927613,0.885812745869394,9.411232887490161,-0.18600511408339893,-0.3437094315499607,-0.09275422895357986,119.94687008261211,-15.20748057631786,-5.371270161290322,0.49517821775924475,0.026723260324547603,0.1378573699071597,-0.8572514887895356
240.0,0.11361998426435876,0.03877812745869397,0.03189044059795438,-2.5743717545239964,0.8744760031471281,9.413743705743506,-0.08339029307631786,0.7064761998426436,-0.13484092250196694,119.92654774783634,-15.225215135719907,-5.303449547600314,0.495390179059402,0.027315289129425647,0.13769239647954368,-0.8572002565139651
241.0,0.10668095987411488,0.038598741148701834,0.03718312352478365,-2.661395554681354,0.8745444531864672,9.389771046420144,-0.1455509933123525,0.6717864870180961,-0.09602429189614477,119.87463980133752,-15.74993115656963,-5.31971872541306,0.4954468783442172,0.02962210362116443,0.14162843178815893,-0.8564734567045633
242.0,0.11284854445318648,0.03292033831628641,0.04057946498819829,-2.696564712824548,0.8770706136900077,9.37992584579072,-0.10218577891424076,0.30706259834775773,-0.14523996852871754,119.86375639260424,-15.96609461054288,-5.332389604642014,0.495395858914044,0.03045729174606608,0.14329107692230525,-0.8562114788684103
243.0,0.12396459480723844,0.03139968528717547,0.04331392604248625,-2.748479937057435,0.8789425649095199,9.364708890637296,-0.040155389457120376,0.5089496459480725,-0.14721675845790716,119.85995279307632,-16.280325531077892,-5.356441778127459,0.49523872933202207,0.03172903240125884,0.14569678574744296,-0.8558584016317856
244.0,0.12089260424862318,0.028571597167584593,0.041491738788355645,-2.735864673485444,0.882158143194335,9.368550354051926,-0.192874704956727,-0.32147423288749016,-0.12671616837136113,119.8397423288749,-16.19730281274587,-5.380325531077892,0.4953726127777339,0.031212720661683707,0.14518047925845792,-0.8558905250409126
245.0,0.1417964201416208,0.023259047993705755,0.0462950432730134,-2.7006168371361134,0.8813072383949645,9.379347560975607,-0.14832071203776553,0.05431992525570417,-0.10407897324940991,119.85133261211644,-15.978991689614476,-5.362645062942565,0.49549999827084973,0.030340473021636498,0.14352303158910307,-0.8561255547218725
246.0,0.1367651455546814,0.02147226593233675,0.03780881195908735,-2.6647035798583794,0.8892261998426438,9.38953265145555,0.017220692368213997,0.039962381982690795,-0.09780561565696301,119.84875098347759,-15.762605723839496,-5.407935434697089,0.49562184020397326,0.029043429518882766,0.14209340887116445,-0.8563405865786782
247.0,0.11730192761605035,0.020103068450039348,0.03677537372147917,-2.6357187254130605,0.9033227773406768,9.395266325727771,-0.16946425059008652,0.30518784421715184,-0.10139776750590086,119.88642186270653,-15.58851052321007,-5.488670338316286,0.49544797359795445,0.02762239388040913,0.14116295631864675,-0.8566486316683717
248.0,0.11234854445318647,0.009567663257277738,0.03881510621557831,-2.641383556254918,0.9071250983477575,9.394141227380011,-0.14458595594020457,0.30944876081825334,-0.12406077891424075,119.88093774586939,-15.621220987411487,-5.528508556254918,0.4953808029925256,0.027468502278914238,0.1415726997077105,-0.8566292225035408
249.0,0.1255,0.004879032258064518,0.044580645161290344,-2.66516935483871,0.9089677419354836,9.387153225806449,-0.11844758064516128,0.36910282258064514,-0.15151209677419353,119.87878024193549,-15.758014112903226,-5.548135080645162,0.49530575647580644,0.027957103975806454,0.14272967933064515,-0.8564586518709676
250.0,0.11466148701809598,0.004780684500393392,0.04501632572777343,-2.670840676632573,0.9100936270653026,9.385920928402827,-0.12370058025177025,0.3122922403619197,-0.08462332808811959,119.87313262195121,-15.79809205350118,-5.5439221085759245,0.4953922884687255,0.028120766815302914,0.14301820098328083,-0.8563539248809993
251.0,0.1036089693154996,0.00270889063729347,0.04293154996066092,-2.673855822187255,0.9102645554681349,9.384855625491733,-0.1533069433516916,0.3756269669551534,-0.12391448662470496,119.84228707710463,-15.821273849331236,-5.532444925255704,0.49554482683516937,0.02829762089555469,0.14313097758438234,-0.8562392300574352
252.0,0.10957061369000787,-0.0002423288749016522,0.04565932336742724,-2.7130125885129823,0.9100314712824543,9.373718135326516,-0.15251032651455548,0.4224909028324154,-0.14328284815106215,119.82562942564908,-16.05839398111723,-5.545859559402046,0.4955891267240362,0.029426574685680572,0.1448950209817073,-0.8558801268271048
253.0,0.12478127458693941,-0.0010243902439024389,0.04978127458693944,-2.7450950039339115,0.9100157356412268,9.36466955153423,-0.15100314712824547,0.28022226593233673,-0.10959505310778914,119.81805664830841,-16.247241345397324,-5.554179779701023,0.49559424599508245,0.030304545584775765,0.14629894149488593,-0.85560850390952
254.0,0.13487450826121164,-0.0036250983477576705,0.0511809598741149,-2.770712824547601,0.9080723839496454,9.35633477576712,-0.14888867033831626,0.30251032651455545,-0.11324006687647523,119.78846380802517,-16.409104543666405,-5.5397915027537366,0.4956364776789928,0.03107900399803304,0.14743198710228167,-0.8553625347934697
255.0,0.13071319272125725,-0.0024245244003308518,0.052911083540115825,-2.7825905707196035,0.9022828784119103,9.35432526881721,-0.13275951199338298,0.34388311621174517,-0.14149477874276262,119.76733870967742,-16.480987644747728,-5.509429280397022,0.495774796108354,0.031637436281430925,0.1478405733676592,-0.855192166979942
256.0,0.13786495592003067,0.002544130404083198,0.05299350400451898,-2.7810924922834843,0.895818858560794,9.355134998688705,-0.12576336142548772,0.225643736508705,-0.1279470599063931,119.75766129032257,-16.47288035364845,-5.472154156327543,0.4957831366826194,0.03181532644706873,0.1476500670530271,-0.8552113416187083
257.0,0.13253790675623883,0.00118650265286772,0.0517807803264137,-2.7521128275736855,0.892586848635236,9.363801271964334,-0.18464788350582015,-0.003364943311343793,-0.09835652070850734,119.75282258064516,-16.30055553874397,-5.451287788234581,0.49596448853672653,0.031194077948258986,0.1462561968178196,-0.8553692292947004
258.0,0.14157871351046014,-0.003084064637172427,0.054010117210353266,-2.7398294700316734,0.8909708436724568,9.367114345659589,-0.11474368430874134,0.06382362842704109,-0.14386524339809154,119.75040322580645,-16.228818919082492,-5.442377765085032,0.4960130066380904,0.031057788984158452,0.14564584343827292,-0.8554406860402368
259.0,0.14677725998103655,0.0010063547781879805,0.05351312312130567,-2.7345437672739004,0.890223325062035,9.368895882507214,-0.12196357602533842,0.3097091932457786,-0.14340439589259416,119.75,-16.2023126853477,-5.431244326090903,0.4960642320851742,0.031013537520305032,0.1453597597151042,-0.8554629633507635
260.0,0.13329351005668869,-0.0019318929169440582,0.05129915874841133,-2.7431627024955114,0.8853548387096775,9.367007081038558,-0.13328844640803728,0.4164447537775626,-0.10129793822752123,119.72096774193548,-16.251471685932742,-5.401416207710463,0.49619867904424114,0.031378357962799336,0.1456732415391071,-0.8553220216298896
261.0,0.13814006738082274,-0.0032775121547741525,0.05499340313502391,-2.7749306824830033,0.8825161290322581,9.357490165224238,-0.1267986291835623,0.3595549890052251,-0.12942552300833182,119.7032258064516,-16.44194355343057,-5.387200039339103,0.4962480066645282,0.032296287978252534,0.14706228068064717,-0.8550238969022776
262.0,0.12883699633699636,-0.0005288313836700931,0.053840600259955115,-2.784514533853243,0.8810967741935483,9.355107526881724,-0.08409215112844146,0.3467649621883493,-0.19412553172633817,119.69435483870967,-16.49533040883847,-5.380141129032257,0.4963743157100319,0.03264144568108236,0.1474309736206428,-0.8548740887902044
263.0,0.13979201790865833,0.000480808137574463,0.05798941590798398,-2.7925216458731406,0.8803870967741936,9.352482953055341,-0.13017701425574163,0.069768074912892,-0.1452052541118729,119.68991935483871,-16.54476684556592,-5.3765625,0.4963162357140607,0.032960549202783705,0.14771047880400695,-0.8548473160096195
264.0,0.13919036379303884,-0.00022330560863212336,0.058075353115282315,-2.7821438874526994,0.8795161290322577,9.356080186205094,-0.13315806357948373,0.2599092390693492,-0.12192218350754935,119.68770161290323,-16.48145600342812,-5.354838709677419,0.4964080585667078,0.03280087803687572,0.14717441012377766,-0.8548917424120679
265.0,0.13449840770297106,0.0030617342924581315,0.057662676557641165,-2.7816364598553824,0.8765161290322581,9.355511867296098,-0.08926048340264509,0.3546522001798359,-0.1655981885279682,119.68266129032257,-16.4801181226818,-5.339112903225807,0.4965000666220635,0.03287889675634109,0.14711751282398558,-0.8548455120931306
266.0,0.12455565546438872,0.004567157468809712,0.05188778989172382,-2.784919036379304,0.8730967741935485,9.355364804615794,-0.1628510078303548,0.3072152129931437,-0.13753699748979056,119.65282258064516,-16.499308053276387,-5.324798387096774,0.49666088035135436,0.033110807483009264,0.14718167497650897,-0.8547309675505976
267.0,0.12279779701022817,0.002119984264358773,0.05025649095200632,-2.8026546026750583,0.8713870967741937,9.350047993705742,-0.12178648701809598,0.4130114083398898,-0.10017210857592446,119.63790322580644,-16.603110247836348,-5.317641129032257,0.49675841536231324,0.03379801864319433,0.14787645881313927,-0.8545278869012589
268.0,0.13458064516129037,0.00439516129032258,0.05574193548387099,-2.8516774193548384,0.8705322580645163,9.335564516129029,-0.08795362903225806,0.4193548387096774,-0.10735887096774194,119.60060483870967,-16.905090725806453,-5.3140625,0.4967298955725807,0.03522289566935484,0.15008175747580646,-0.8540964447661292
269.0,0.13459677419354837,0.0056935483870967744,0.05661290322580646,-2.893153225806453,0.8701209677419356,9.321975806451611,-0.09904233870967741,0.47656249999999994,-0.11980846774193549,119.57953629032258,-17.153981854838708,-5.312903225806451,0.49677798487903224,0.03634220317741936,0.15191192608064516,-0.8536985823387095
270.0,0.12766129032258067,0.0048145161290322576,0.05448387096774196,-2.923540322580645,0.8697419354838711,9.312677419354841,-0.09873991935483871,0.39954637096774187,-0.11628024193548388,119.53770161290322,-17.343548387096774,-5.3125,0.4968540333548388,0.037195809233870974,0.1533106154032258,-0.8533696320887093
271.0,0.12390322580645163,0.011217741935483872,0.05797580645161291,-2.93433870967742,0.8684516129032259,9.310225806451616,-0.10932459677419354,0.3270161290322581,-0.10877016129032258,119.51683467741935,-17.40851814516129,-5.3125,0.4969475537903226,0.03751663787096775,0.1537735469112903,-0.8532224084193547
272.0,0.1163771712158809,0.009450785773366418,0.05559615384615386,-2.942289081885855,0.8692258064516131,9.306769230769234,-0.13939852150537635,0.34465467328370547,-0.12027372828784119,119.50640120967742,-17.456384408602148,-5.3125,0.4970731550936724,0.037697801233250616,0.1541845365082713,-0.8530690019412738
273.0,0.12098697270471466,0.01055603804797353,0.05519727047146404,-2.96428163771712,0.8696129032258066,9.299416873449134,-0.07279905913978493,0.2698071753515302,-0.11474875930521092,119.50211693548385,-17.594522849462365,-5.3125,0.49710941434119105,0.038268834092431744,0.15515345052026466,-0.8528411950270884
274.0,0.12025558312655087,0.024051917529100856,0.061667281970586456,-2.963262179991526,0.8643933910306847,9.301183653089637,-0.15498787044322054,0.29864031072847946,-0.11820000907825455,119.48274119787568,-17.588667060057695,-5.29597757671125,0.4972253597152453,0.03845499009214427,0.15501739088700095,-0.852795335096648
275.0,0.12288113538703624,0.02580880691561259,0.06145814924650489,-2.9874971403498156,0.8620434697088906,9.293839269503113,-0.08851994820351429,0.40605144470334276,-0.11152304741874962,119.4590873328088,-17.73709513506425,-5.271980723839496,0.4973016357927131,0.03928477657262602,0.15607732135665942,-0.8525222198153382
276.0,0.13227927737093748,0.03133585507070953,0.06226133268776858,-3.0261961508200677,0.8609047993705741,9.282060763783813,-0.07694646603724101,0.40456302073876815,-0.1371879349996974,119.44647915027537,-17.975099986886963,-5.281756490952006,0.49729130933184046,0.04037069048792593,0.15778655545655554,-0.8521581559802499
277.0,0.11960365853658536,0.02522541306058223,0.061500393391030694,-3.056418174665617,0.8640330448465774,9.27069787568843,-0.12933344807238395,0.556039781667978,-0.1382744885916601,119.40872344610543,-18.16046666011015,-5.305999213217939,0.4973836806435876,0.041084919226593235,0.15928859395987413,-0.8517889587651457
278.0,0.12163650668764753,0.021717545239968536,0.06083084185680568,-3.1030558615263577,0.8670165224232887,9.255010228166798,-0.0976052321007081,0.4941237214791503,-0.15124409913453973,119.38984559402044,-18.451755507474427,-5.341507671125099,0.4974008477088907,0.04226784988749016,0.16148193267348543,-0.8513085582132182
279.0,0.12321007081038551,0.019206530291109372,0.05940833988985052,-3.1449307631786,0.8686774193548388,9.240066089693157,-0.12135867427222657,0.47928550354051924,-0.0917510818253344,119.34868951612903,-18.707929287962234,-5.359778225806451,0.4974289376664044,0.043283467902045625,0.16347572905900865,-0.8508574956762394
280.0,0.11184107002360344,0.016912470495672703,0.06059166011014949,-3.161469315499608,0.8695,9.234112509834777,-0.10383433320220298,0.3919391719118804,-0.07966291306058222,119.32857862903225,-18.808424714791503,-5.380695564516128,0.49752368607867836,0.04358279263945713,0.16430113358929974,-0.8506369734793469
281.0,0.11429150275373721,0.020258654602675067,0.060763571990558624,-3.1889120771046437,0.8699112903225807,9.22493528717545,-0.06293027143981117,0.4419625295043273,-0.10900988394964595,119.31854838709677,-18.981808123524782,-5.409022177419354,0.497494550926436,0.044276255420535024,0.16563014593981118,-0.8503550346872542
282.0,0.12445220298977183,0.019891424075531086,0.06747049567269867,-3.226677812745871,0.8700000000000001,9.211487804878043,-0.13015465184893785,0.2960316679779701,-0.09258457907159717,119.31451612903226,-19.20915002950433,-5.424999999999999,0.4974217296487018,0.0452468499038159,0.16736262074409913,-0.85000735838395
283.0,0.13468174665617622,0.027461841070023613,0.07134815106215578,-3.2279114870180967,0.8697419354838711,9.21114712824547,-0.09226986624704957,0.2153545436664044,-0.10334874114870181,119.31814516129032,-19.2189147324941,-5.412096774193548,0.4973405766872541,0.04532938837529505,0.16737889379543666,-0.8500484718210073
284.0,0.12713709677419355,0.02803225806451614,0.06518548387096773,-3.1244758064516134,0.8740000000000001,9.244612903225805,-0.12439516129032258,-1.2860383064516128,-0.4011088709677419,119.49274193548388,-18.576058467741934,-5.414516129032258,0.4964503132177419,0.04216318388709677,0.1627004312580645,-0.8515734776854839
285.0,0.11741935483870967,0.03196774193548388,0.05766129032258065,-3.009387096774195,0.8673548387096773,9.284016129032256,-0.042288306451612905,0.07535282258064524,-0.19944556451612902,119.75181451612903,-17.871471774193548,-5.340372983870967,0.495011113798387,0.03914307542741935,0.15733101118548387,-0.8535685875403223
286.0,0.11513709677419356,0.03520967741935485,0.03481451612903226,-2.852895161290323,0.8653225806451613,9.332177419354837,0.03004032258064516,-0.5782762096774194,-0.3119959677419355,120.04909274193548,-16.917590725806452,-5.291431451612903,0.49337172975806454,0.03477546923387096,0.15019993933870968,-0.8559373419112903
287.0,0.10538768686073957,0.03705428796223448,0.03736644374508262,-2.814516522423289,0.8767250196695517,9.343759834775764,-0.039239525963808024,0.15977822580645157,-0.24207071203776553,120.21738173682141,-16.678518391030682,-5.355024341070023,0.49227986495771037,0.03301026419630212,0.14880848982415418,-0.8569352808459874
288.0,0.10185424862313139,0.040755900865460284,0.042906372934697096,-2.8151077891424072,0.882811959087333,9.344452006294256,-0.06358428402832414,0.05947457710464199,-0.14749459087332809,120.28168027143981,-16.68083571007081,-5.379583005507474,0.49173766506353267,0.03269647322010227,0.14896923889201413,-0.8572641696549959
289.0,0.11407828481510622,0.04497344610542882,0.044042092840283265,-2.8305963808025174,0.8796758457907161,9.340858379228955,-0.20236403422501967,0.14858993902439022,-0.19734952793076319,120.31711619787569,-16.779235100314715,-5.365621311959087,0.49141242036368993,0.03323640127006294,0.1496162637051534,-0.8573280197435089
290.0,0.12149881982690797,0.04204720692368216,0.036819433516915835,-2.7320885129819037,0.8557572777340676,9.371195318646738,-0.26869713808025175,-0.5555689417781274,-0.23012637686860737,120.40712160700235,-16.17799960660897,-5.209902389850511,0.4911455550971676,0.03158426661487018,0.14450521055822185,-0.8584037344282061
291.0,0.12125933547176664,0.039335431418830336,0.034866912788234596,-2.644378623736609,0.8373093667413101,9.398966249066957,-0.26744991829570897,-0.4341339849502713,-0.13813623434001088,120.45655979543668,-15.645477264015817,-5.078611632270169,0.49107567518981626,0.030104387879602165,0.1399839122119066,-0.8592467516335613
292.0,0.14448726018277552,0.03943718856543405,0.03393384978514799,-2.520008351994189,0.8229198289253365,9.433184934132218,-0.1891881770864855,-0.9932766698944905,-0.2647260636688253,120.55969708890638,-14.893190048215619,-4.975286343279065,0.49077120759648174,0.027389651285985188,0.13395301612404928,-0.8604424177916035
293.0,0.13708627367911397,0.04687752425911357,0.024946468558978405,-2.278769714942807,0.7852616453832031,9.495221892715202,-0.510128116867397,-1.1872018675987008,-0.03147790201537251,120.65784815106215,-13.438333812463434,-4.723869568177692,0.49088430666920857,0.02276859241639936,0.1220626721296879,-0.8622164526424579
294.0,0.12807612548741582,0.041826420890937036,0.018742201347040063,-2.1188888101146164,0.7476474949781402,9.53627248020796,-0.18897904850525818,-0.6719981463429043,-0.08219510664067117,120.72067012288787,-12.480961612312418,-4.4821906755878524,0.49094607773496396,0.020281409227194847,0.11386874849731182,-0.8633950815306629
295.0,0.11987667407336958,0.04772713648795475,0.016184534977217904,-2.0218983783067177,0.7343970165685351,9.559922628774315,-0.13018545757284938,-0.10223075590158598,-0.0621667163809178,120.83408358622756,-11.901081465086186,-4.393141585826971,0.49037403388046386,0.018317742439816934,0.10918264176645684,-0.8644088353868893
296.0,0.11451286950657524,0.04681268967067553,0.017138445543441613,-1.9963531714810239,0.7307427597317449,9.566542645461013,-0.16877206970514405,0.45711809458244357,-0.3078869047619047,120.98962243827508,-11.744070332696413,-4.368393782080102,0.4892901564974148,0.017679511669382933,0.10797793671590611,-0.8652175576164807
297.0,0.10658707991457794,0.045607957738563576,0.017581319545914357,-2.046821747030835,0.7116455734142596,9.557468903375666,-0.1358225267880559,0.7426971521299315,-0.3251632104454685,121.10927694494399,-12.044363795380466,-4.256147495878761,0.48826801186967517,0.019684448181465662,0.10978002321682402,-0.865526958767918
298.0,0.11728144318309543,0.0498039788692818,0.02554872428908622,-2.1075681315799337,0.7025324641264847,9.544436064591054,-0.14762396500693117,0.5897205518714174,-0.10280337941628265,121.25960319021392,-12.406330083174101,-4.2086937076168,0.48703197532999876,0.021516058647184443,0.11229328065276685,-0.8658569140855716
299.0,0.11865224232887489,0.05178678206136902,0.02584579071597168,-2.140575924468923,0.6998591660110147,9.53786703383162,-0.10877261998426435,0.442397718332022,-0.035483870967741936,121.29884441384735,-12.608133359559401,-4.1934549567269865,0.4866225738332023,0.022427350848937846,0.11375365554681352,-0.8658781603131391
300.0,0.10783910306845003,0.046197088906372946,0.026114083398898515,-2.1880409126671907,0.704693548387097,9.527356018882765,-0.07568843430369787,0.5459382376081825,-0.07905192761605036,121.30614919354839,-12.891070023603461,-4.220473544453187,0.48646441120298994,0.023404365282848158,0.11603628879464988,-0.8656350476593234
301.0,0.11150806451612905,0.04442741935483873,0.02953225806451614,-2.2420645161290316,0.7040564516129032,9.514249999999997,-0.1473790322580645,0.7104838709677419,-0.11391129032258066,121.28170362903225,-13.218951612903226,-4.233417338709677,0.4863968397903226,0.02479326845967742,0.1185112736129032,-0.8652973789838709
302.0,0.1083855232100708,0.035850904799370586,0.03523878835562551,-2.2905102281667973,0.7024663650668763,9.503365853658535,-0.1428365952006294,0.26753540519276164,-0.13402340676632574,121.32313016325728,-13.5085599429583,-4.227308713611329,0.4859918364600707,0.026044378147521634,0.1206565514065696,-0.8651938060399293
303.0,0.11122501966955153,0.034086742722265945,0.0336032651455547,-2.301432533438237,0.7062130212431158,9.499618410700236,-0.10077817663257277,0.36310238001573564,-0.18430000983477576,121.34158020259638,-13.572853560188829,-4.239914437450826,0.48585091604858377,0.02615764446085759,0.12122713665086544,-0.8651944266852871
304.0,0.12283831628638865,0.03566837136113299,0.034063729346970904,-2.3325267505900866,0.7072718332022032,9.492962431156574,-0.170323564122738,0.31411167387883554,-0.10306230330448467,121.3591721577498,-13.758604199449252,-4.240420928402832,0.4856164254154209,0.026977709202202983,0.12261947946656174,-0.865108375931353
305.0,0.13610464201416206,0.034334185680566495,0.03699960660896933,-2.355642407553108,0.7034746262785208,9.486630409126674,-0.0973593627065303,0.1886334579071597,-0.060880950039339105,121.36827055468135,-13.892684156176239,-4.219404012588513,0.48551564425609756,0.027732909722069238,0.12355612399134538,-0.8650066783406762
306.0,0.13484264358772619,0.03144531864673487,0.03371754523996855,-2.3458453973249407,0.7077332808811958,9.488101494885921,-0.06369984264358772,0.21966955153422502,-0.10848987018095987,121.34779455153422,-13.83845397324941,-4.2516374901652245,0.4856247558296617,0.027268519332808813,0.12323748565696299,-0.8650055923800155
307.0,0.12391935483870967,0.03488709677419356,0.03195161290322582,-2.3582822580645164,0.7094032258064515,9.48562903225807,-0.13931451612903226,0.3814516129032258,-0.17585685483870966,121.32777217741935,-13.912701612903227,-4.269858870967742,0.48571737954032257,0.027478223225806453,0.12387449183870965,-0.8648565957903225
308.0,0.11520967741935484,0.034330645161290335,0.027588709677419367,-2.353016129032259,0.7075161290322582,9.48770161290323,-0.09929435483870967,0.21481854838709674,-0.15206653225806452,121.31935483870967,-13.879586693548386,-4.256703629032258,0.485772704532258,0.027427476258064513,0.12359545340322581,-0.8648684576612904
309.0,0.1147983870967742,0.03487903225806453,0.02614516129032259,-2.3535806451612906,0.7060806451612907,9.487983870967746,-0.07893145161290321,0.23377016129032258,-0.17006048387096773,121.32056451612902,-13.885635080645162,-4.239818548387097,0.48578402581451613,0.02750662431451613,0.1235936817983871,-0.8648614683145159
310.0,0.11031566820276498,0.03619662058371737,0.0264447004608295,-2.3633233486943164,0.7258974654377882,9.483721966205842,0.2551003264208909,0.3836237519201229,-0.40802611367127495,121.63733678955452,-13.944378840245776,-4.367067492319508,0.4833198744639017,0.026510362509600614,0.1246263548548387,-0.8661120591820273
311.0,0.10324083960885694,0.04255582406054477,0.023682421040800275,-2.3530092353227685,0.7757017814993816,9.482329118429437,-0.030013394027949503,0.11270770109774833,0.18245675040275744,121.76110545221235,-13.882191387078041,-4.671497824641264,0.48237225413478324,0.023875137497227528,0.12546644317191186,-0.8665943337904629
312.0,0.060502107451950116,0.04861150762429285,0.05792677306957402,-2.2985701172679933,0.7744359615600762,9.494829586752088,-0.5261347457944625,-2.098404951575437,-0.46980009647446697,121.70522449046494,-13.556686886497321,-4.656864790566107,0.4829587125085796,0.02265067068940841,0.12286795419335167,-0.8666479632275486
313.0,0.049948634371136336,0.2721484957476302,0.03916499943801282,-1.8085995747630288,-0.5907457288973814,9.454092212730883,-8.373400034187554,6.130459822599378,-22.82875085468885,134.65321708394214,-10.651906951313176,3.573079701491139,0.37801957831880595,0.0688685671350268,0.08459709011683714,-0.9039727903557099
314.0,0.25021625266943914,0.37556460979356343,0.06865212993143756,-2.2272721516616087,-1.5990765426548277,9.259832003296992,-3.100694288336893,-2.635154874302199,7.66882493162489,148.0550660803267,-13.160894589936682,9.77440804016335,0.267868122016897,0.11223341089678165,0.09948582094649883,-0.9348945136580871
315.0,-0.11971675845790705,0.24859874114870184,0.13801730920535013,-2.1016829268292687,-0.3430267505900865,9.402697875688432,2.5138473642800943,-0.46385719905586154,8.49371066089693,134.66969413847363,-12.400560582218725,2.1377704563335955,0.3773652108387097,0.06046292383241541,0.10575930755389457,-0.9003668449811173
316.0,0.0016687647521636956,0.12055271439811176,0.08247285601888277,-2.1648021243115654,0.2774228953579858,9.45178088119591,0.879607592446892,0.8389555468135327,4.549373033044846,127.3958571007081,-12.768528717545239,-1.6286265735641225,0.43618422189063727,0.03875784773839496,0.11420105085877262,-0.8801911380019671
317.0,0.05740322580645163,0.07088690007867822,0.051651848937844226,-2.2440776947285603,0.5745304878048781,9.465719708890639,0.36636752557041696,0.6615509441384737,2.2552431648308415,124.04972339693154,-13.23499704956727,-3.440424616443745,0.46327352270849714,0.02933371465204563,0.12028822025314712,-0.8711331030544847
318.0,0.10274193548387098,0.036971675845790725,0.04510818253343825,-2.333284815106216,0.7609547600314712,9.465121951219512,0.3495648111723052,0.30234805271439813,1.8337455743509046,122.01228609362707,-13.770925944138472,-4.579914929189615,0.4797420389913454,0.024296383378442164,0.12598411196931547,-0.865401421974823
319.0,0.10866129032258064,0.018983870967741942,0.03958870967741937,-2.3497903225806454,0.867959677419355,9.472838709677422,0.0642641129032258,0.44692540322580643,0.3294858870967742,120.74884072580645,-13.865877016129032,-5.2334173387096765,0.48994504854838694,0.02079886106451613,0.12748747817741934,-0.8621068155806451
320.0,0.12675826121164438,0.010593823760818258,0.03240184893784423,-2.504018489378442,0.9097871754523997,9.42353048780488,0.44063729346970887,4.21540494689221,0.08947924862313139,120.66336914830842,-14.815599183713612,-5.518300059008654,0.48999799577812736,0.02307510059303698,0.13572607409480722,-0.8605998060674662
321.0,0.08029012588512985,0.025405389457120377,0.02986860739575138,-2.6570243902439024,0.9194429583005508,9.364577891424076,0.16066704366640439,4.589652586546027,-0.5260646144767899,121.57116566679778,-15.773861624704956,-5.610986673878835,0.4823265132903226,0.025653656167387885,0.14328896734402044,-0.8630945516494885
322.0,0.07776888276947287,0.04205271439811173,0.024004720692368215,-2.5247509834775763,0.9112366247049568,9.401383949645947,0.16889014555468135,-5.550138916207711,-1.4444064712824547,122.24583251376868,-14.943111968922109,-5.539346479150275,0.4777024676921715,0.021778728782454754,0.13679068942741934,-0.8668047361740752
323.0,0.088036782061369,0.06114516129032259,-0.02184421715184893,-1.6804285995279302,1.167235444531865,9.526190401258852,0.9549874606608969,-5.289454661683713,-1.384673731313926,124.48746680763179,-9.911201809598742,-6.95980404209284,0.4619643096182139,-0.01217652689437451,0.10383909944984265,-0.8786939931042486
324.0,0.013103068450039338,0.05896774193548388,-0.016922108575924466,-1.3798473642800941,1.0692588512981902,9.610514555468134,-0.49349921321793866,-2.242761605035405,0.3025472069236823,124.61376868607395,-8.113463808025177,-6.3359756097560975,0.46210501521636504,-0.015364253306058223,0.08803695561605035,-0.8811935365601888
325.0,0.04633202202989773,0.0593249409913454,-0.01669866247049567,-1.2493217938631003,0.9838190401258846,9.654878048780485,-0.34736428009441384,-0.9760031471282453,0.15714988198269086,124.41655192761604,-7.327881589299764,-5.816492918961448,0.4641838987663257,-0.014761316321007079,0.08023222568056648,-0.8814481366325728
326.0,0.08035719905586151,0.054465774980330464,-0.015839496459480722,-1.185514555468135,0.9422124311565689,9.678036978756882,-0.2713660503540519,-0.6004376475216364,0.05755310778914246,124.21272619984263,-6.9442564909520055,-5.558349724626279,0.4661004254728561,-0.014309108986624703,0.0763947187804878,-0.881126911070024
327.0,0.09773564122738002,0.040907159716758464,-0.013753737214791503,-1.1396966955153425,0.9097450826121163,9.691205743509045,-0.38305222265932337,-0.052874213217938615,0.04370082612116445,124.08317761605036,-6.6719463021243115,-5.360655979543667,0.46730069220141623,-0.013870005972462626,0.0735738109166011,-0.8808752738867036
328.0,0.11422659323367426,0.035448859166011024,-0.011773800157356414,-1.1424187647521638,0.8740078678206137,9.695455743509044,-0.3025164732494099,0.22855895948072383,0.0748106805664831,123.91023062549174,-6.684881490952007,-5.146771734854445,0.46863225506687645,-0.012091829835169158,0.0728685078210071,-0.88029560581668
329.0,0.1193068450039339,0.031538945712037775,-0.010233674272226594,-1.15160051140834,0.8536490952006293,9.695731904012584,-0.2692269866247049,0.2314417781274587,-0.025951514555468135,123.8484116837136,-6.73992058418568,-5.022629819040126,0.46911844806569636,-0.010915880490165225,0.07280301111211644,-0.880059134392211
330.0,0.12273406766325724,0.02864044059795437,-0.007068450039339104,-1.1347962234461055,0.8270180959874112,9.699329661683713,-0.27473446105428795,0.5241886309992132,0.05451416207710465,123.7732985837923,-6.647757671125099,-4.867564909520063,0.4697570418796224,-0.010078498745082612,0.07144712917702596,-0.879837927188041
331.0,0.12343233674272223,0.028880409126671922,-0.007830055074744297,-1.1821416207710462,0.8201306058221871,9.694680566483083,-0.07698662470495671,0.3091192958300551,-0.1312155782848151,123.72440991345397,-6.925894964594807,-4.831967938630999,0.47010436343705764,-0.008616244836742726,0.07344209516522424,-0.8795019926317864
332.0,0.13536290322580646,0.036306451612903246,-0.009032258064516128,-1.2089032258064512,0.8184838709677418,9.692241935483871,-0.14294354838709677,0.2988407258064516,-0.13830645161290323,123.72721774193548,-7.0864919354838705,-4.825302419354839,0.47006575065322576,-0.007885200572580646,0.0746187261451613,-0.8794328758548389
333.0,0.12881451612903227,0.022548387096774203,-0.004975806451612903,-1.2169516129032252,0.8238225806451609,9.690991935483872,-0.18175403225806452,0.2705141129032258,-0.13951612903225807,123.73739919354838,-7.128729838709678,-4.847530241935484,0.4700461603870967,-0.00789155139516129,0.0750903211451613,-0.8794082154354839
334.0,0.12266502753737213,0.00867446892210858,-0.0038573957513768683,-1.22272462627852,0.8255314712824542,9.690403225806453,-0.21055148505114082,0.3208140735641227,-0.14428107789142408,123.73088980133753,-7.1582722757671124,-4.860483870967743,0.47004219839516115,-0.0078063706125098345,0.07536315337608179,-0.8793828693365459
335.0,0.11003009441384735,-0.001255507474429581,-0.00186014948859166,-1.2258219905586145,0.8230318646734852,9.69,-0.1685569925255704,0.2497971577498033,-0.12506392604248623,123.70881687647521,-7.178102871754524,-4.870060483870967,0.4700643093306453,-0.007749088757867818,0.07550890130094413,-0.8793663051964993
336.0,0.12076101494885919,-0.0030430763178599506,-0.0014341070023603459,-1.222269866247049,0.8229998033044844,9.69,-0.10219684303697875,0.07668789339103069,-0.09383236624704956,123.71837013178599,-7.154474822974036,-4.8735383064516125,0.46999195888709683,-0.007860361616837135,0.07533505148918176,-0.8794165972232499
337.0,0.13660228166797797,0.00023249409913454018,-0.0002936664044059794,-1.2264817073170722,0.8188103855232101,9.69,-0.11856313926042486,0.24431672895357986,-0.08091315892997639,123.73441188040911,-7.183235395357986,-4.843548387096774,0.4698952669919355,-0.007553773429386311,0.07541855724055863,-0.8794670176237216
338.0,0.12812847747584175,0.0006247251306259962,-0.0038322136819383076,-1.2243956303334738,0.8192439024390245,9.69,-0.12605938187173435,0.3547608510359297,-0.13010065514737035,123.73145325203252,-7.166872944784038,-4.827016129032258,0.4699453923366418,-0.007541078153382155,0.07527930226244224,-0.879448397768333
339.0,0.12147572575601687,0.004533448324557686,-0.0055195686820391785,-1.2205849119409307,0.813709284028324,9.69,-0.14254385301297182,0.25957456399160767,-0.12720611042183622,123.72221266063467,-7.148272231636708,-4.7864919354838715,0.47000952640435556,-0.007344432479523492,0.07498423527362866,-0.879439449777164
340.0,0.1080564112651052,0.010815111259053038,-0.0037920424055357185,-1.2226553591962714,0.8110481904012585,9.69,-0.1425420877968085,0.10965119328612641,-0.17814438585607942,123.72663052386572,-7.155134099689321,-4.764616935483871,0.46994876846024225,-0.007195248715568198,0.07498271629004014,-0.8794750481506786
341.0,0.12026689564042042,0.012643491900179547,0.0013971534628497637,-1.228519261030079,0.8101925649095199,9.69,-0.07942161431539872,0.20262875360608446,-0.1823519677116746,123.7819662995017,-7.193442221953237,-4.759226249016523,0.46951699269992847,-0.00700835941875971,0.07523157544144021,-0.879690382777149
342.0,0.134193931691178,0.021729004014605903,-0.0043417458492202785,-1.2292475337408455,0.8208583792289533,9.69,0.010087579939074831,0.2052206268030422,-0.26020320159777277,123.96356379491213,-7.198938852912102,-4.830192761605035,0.4681186638459319,-0.007615611298089532,0.07552420595862333,-0.8803989675579293
343.0,0.12413335955940207,0.02335995279307632,-0.00037765538945712103,-1.2425220298977178,0.8250743509047989,9.68651612903226,-0.21453333988985052,0.18231461447678993,-0.2167486231313926,124.08615017702596,-7.278491345397326,-4.876185090479937,0.46718250947797024,-0.007648304787175452,0.07626853613729348,-0.8808325928988985
344.0,0.11497383949645948,0.015830251770259637,-0.007376081825334385,-1.2300493705743505,0.8222145948072381,9.688887490165225,-0.043291453579858384,0.07502827498033046,-0.23853756884343036,124.20977453776553,-7.201647324940991,-4.861086250983478,0.466292998342447,-0.007905993062352477,0.07560058575157355,-0.8813561871142801
345.0,0.1220483870967742,0.018856805664830844,-0.006425255704169946,-1.2635948072383947,0.8245617623918174,9.684156569630218,0.04201662077104641,0.943629523996853,0.014179287962234471,124.33348003540519,-7.401900570416995,-4.863028619197482,0.4652656289040128,-0.007253510284028324,0.07718293331707315,-0.8817604196424074
346.0,0.11956471282454759,0.023303304484657755,-0.0010489771833202214,-1.348197875688434,0.8327686860739576,9.671594413847371,-0.04481092643587726,0.7213721970889064,-0.05447605232100708,124.34565917584578,-7.898285060975609,-4.9149672993705735,0.4649996814622346,-0.005606051845397325,0.0811981119811172,-0.8815460195576317
347.0,0.11868154996066088,0.01903874901652243,-0.0013994885916601108,-1.4072924862313134,0.8317553107789138,9.663248819826906,-0.18760203579858378,0.5636850904799371,-0.09772693745082611,124.33197777340675,-8.249873377261999,-4.927670141620771,0.46495289764240755,-0.004201887922698663,0.08388713307120375,-0.8813262944925255
348.0,0.13633674272226592,0.01687018095987412,0.0009252557041699442,-1.4545051140833984,0.8308937844217146,9.65608811959087,-0.0900963808025177,0.3783143194335169,-0.09203383162863887,124.32415420928402,-8.531363099921322,-4.932887490165225,0.464936815216365,-0.0030568590621557834,0.08604872702753734,-0.8811328778914244
349.0,0.15536034618410702,0.014236821400472072,0.00778756884343037,-1.4974209284028317,0.8306239181746649,9.64889535798583,-0.12599822974036193,0.20247836349331236,-0.12253147128245476,124.31830251770259,-8.780600904799371,-4.932685877261999,0.4649584460582218,-0.0019761092179386313,0.0879592481526357,-0.8809399507631784
350.0,0.1500664830841857,0.025865066876475218,-0.000406766325727774,-1.4728575924468919,0.830370967741935,9.652064516129034,-0.05201367033831628,0.09874606608969315,-0.12419354838709677,124.3231117230527,-8.634035700236034,-4.922612608182533,0.46497968086546027,-0.002550958087332809,0.08681945103619196,-0.8810429741101494
351.0,0.14733064516129035,0.022040322580645158,0.001919354838709678,-1.4343225806451612,0.8318306451612898,9.658741935483874,-0.1263608870967742,0.022883064516129037,-0.15604838709677418,124.3649193548387,-8.40640120967742,-4.924042338709677,0.46477109896774177,-0.003527930370967741,0.08510112146774193,-0.8813199453870966
352.0,0.12787903225806452,0.016193548387096773,0.003443548387096774,-1.3981451612903224,0.8354193548387094,9.664596774193551,-0.11129032258064517,0.11628024193548388,-0.14904233870967742,124.4032258064516,-8.187752016129032,-4.930745967741935,0.46456603922580636,-0.004525313233870968,0.08349673363709677,-0.8815747667016126
353.0,0.1292177419354839,0.017145161290322584,0.0023145161290322584,-1.3855564516129035,0.8369677419354836,9.667620967741938,-0.1289314516129032,0.14375000000000002,-0.16743951612903224,124.42237903225805,-8.114566532258063,-4.9308971774193555,0.4644485453548388,-0.00487665858064516,0.08295588389516126,-0.8816897487983868
354.0,0.1365403225806452,0.019225806451612905,-0.0008709677419354834,-1.370548387096775,0.8280645161290321,9.669887096774195,-0.178125,0.06502016129032258,-0.12716733870967742,124.43195564516128,-8.027923387096774,-4.876260080645161,0.4643577810080647,-0.004864796999999999,0.0820675272983871,-0.8818224019354836
355.0,0.1329112903225807,0.01714516129032258,-0.0032661290322580643,-1.3546370967741943,0.8238709677419355,9.670685483870969,-0.16849798387096776,0.22767137096774193,-0.10367943548387096,124.43644153225804,-7.942842741935484,-4.842792338709677,0.46433154459677434,-0.005004340443548387,0.08127111636290324,-0.8819012559032251
356.0,0.13083684863523573,0.021375930521091817,-0.003686724565756824,-1.3440210918114142,0.8207913564929694,9.673198511166255,-0.07029569892473118,0.19216552936311,-0.14644204921422663,124.46644954507856,-7.8766361662531015,-4.836559139784946,0.4640734562781225,-0.0052132261980976004,0.08071667145306038,-0.8820979689689825
357.0,0.12314826302729528,0.030776674937965272,-0.007468362282878411,-1.348187965260546,0.824093258891646,9.672889578163774,-0.0834845430107527,0.3530888130686517,-0.11366961331679072,124.4842328370554,-7.896584212158809,-4.8539650537634405,0.46397859148180326,-0.0052847036635649295,0.0809621206579818,-0.882123355290943
358.0,0.13455397022332505,0.036517369727047166,-0.00530272952853598,-1.3629851116625304,0.8154296939619519,9.671444789081889,-0.16525537634408602,0.26167545492142263,-0.1425958953680728,124.48989867659222,-7.991613678660049,-4.799865591397849,0.46396785328928875,-0.004498558230976012,0.08145625024834574,-0.882078236576923
359.0,0.12851429825092295,0.03201910972583673,-0.006119696786297887,-1.360217575500817,0.812058080655248,9.670702233250623,-0.06090266850249147,0.26951298316488126,-0.1564074824991426,124.46842003066433,-7.974992151092416,-4.791819105691057,0.4640382474921069,-0.004454862357521838,0.08127543945609655,-0.8820610201942446
360.0,0.13197085880288084,0.031239393572595787,-0.006580009683471524,-1.3739474974278276,0.8076419435534308,9.670334987593055,-0.18604609231576189,0.24637443513082774,-0.13011906383021646,124.45296001533215,-8.050777325546207,-4.776353101232625,0.4640713186855696,-0.0039788445497286615,0.08179407049014503,-0.8819985374922833
361.0,0.1340190794649882,0.023644571203776565,-0.004486821400472069,-1.3753015342250192,0.8078074350904798,9.670080645161292,-0.15472806845003934,0.23562770456333595,-0.14540838906372935,124.44432533438237,-8.059729051927615,-4.773634195515342,0.46416409753933924,-0.003923946063926043,0.08185587218489378,-0.8819416956195907
362.0,0.131602281667978,0.01286664044059796,-0.014199055861526356,-1.3651870574350904,0.8118432336742724,9.670000000000002,-0.09354346970889064,0.23467373131392605,-0.1302394767899292,124.43990460267506,-7.9981104937057435,-4.804987460660897,0.4642025627132179,-0.004361048253737213,0.08150122850373721,-0.8819524602533433
363.0,0.11997049567269867,0.007570416994492527,-0.006405979543666404,-1.3643717545239968,0.8161191974822974,9.670000000000002,-0.15896931549960663,0.2815253737214791,-0.1333153029110936,124.437795043273,-8.001701416207709,-4.822629819040126,0.46426791573564113,-0.0045306239897718315,0.08158844973170731,-0.8819155609653813
364.0,0.12935346184107002,0.005925255704169945,0.0018103855232100702,-1.398999409913454,0.8147527537372147,9.66587096774194,-0.04859854445318647,0.4194999016522423,-0.19863050747442956,124.44314516129032,-8.203933910306844,-4.821233280881195,0.464246278244689,-0.003685620772226592,0.08313526839063728,-0.8817826794032257
365.0,0.1298501180173092,0.010736821400472073,0.0015342250196695509,-1.4197214791502755,0.8193158929976395,9.662774193548394,-0.1483920141620771,0.34155438630999213,-0.14039388276947284,124.50483870967741,-8.323438729346972,-4.838640833988985,0.46369209792879607,-0.00340156952321007,0.08415230599370574,-0.8819801569032255
366.0,0.13331451612903228,0.014266129032258065,0.0037741935483870974,-1.4364516129032256,0.81275,9.660322580645165,-0.0908266129032258,0.16718750000000002,-0.049042338709677426,124.52681451612904,-8.424445564516128,-4.802822580645161,0.4635239158951612,-0.0027425463225806447,0.08476877570967742,-0.882012593645161
367.0,0.12840440597954372,0.014381982690794652,0.003776750590086546,-1.4363237608182535,0.8382136113296618,9.657608182533435,0.06765096380802517,0.5037630310778914,-0.08798436270653029,124.5175624508261,-8.423326858772619,-4.952025963808024,0.4635636860763178,-0.0038921334392210856,0.08538657107592448,-0.8819259660953973
368.0,0.12009146341463417,0.02035247836349331,0.0011129032258064518,-1.4439195515342251,0.8797126278520851,9.652852084972459,0.41353633949645946,0.4921407848151062,-0.5500356510621557,124.73874286978756,-8.464881245082612,-5.2020800550747435,0.461793395359756,-0.005767762586742721,0.08670949379307634,-0.8827123032014162
369.0,0.10477104642014162,0.033887883556254925,0.0019138473642800946,-1.4855312745869393,0.8937732100708105,9.644938237608184,-0.1152217741935484,0.04131589299763966,0.10999336152635725,125.08204415814319,-8.709985985444531,-5.287283634933123,0.4590220575765145,-0.0056755228808025165,0.08891795667918961,-0.8839242507714398
370.0,0.11322324940991345,0.03519099134539733,-0.003339299763965383,-1.4125576317859951,0.8767240361919748,9.657252753737215,-0.3737989280094414,-0.05359952793076317,0.014632916994492554,125.00637908143193,-8.278775324547599,-5.180629179779701,0.45974633338040916,-0.0065751854988198265,0.08516114545967741,-0.8839081242513769
371.0,0.10122625604136223,0.04741673223183845,-0.007906785058633998,-1.3617121876287888,0.8273241916750964,9.668977183320223,-0.22702643213068077,-0.36013309729871495,-0.6023261586302499,125.44370293357312,-7.9798410512906965,-4.880551965081863,0.4564967220077928,-0.005791976014386871,0.08164625382488479,-0.8859191780753812
372.0,0.09242666067213667,0.05293731969577761,-0.008910119515941704,-1.3273155745382341,0.803972874751789,9.67664830841857,-0.24606140646659924,0.430599265670076,-0.32508617136862605,125.8214777453074,-7.777218912742122,-4.740507099771458,0.45364960841931734,-0.005789803349443632,0.07952280160166347,-0.8875854557686111
373.0,0.09161852309767336,0.05941515866771571,-0.01085159791690083,-1.297158967442209,0.8017189314750288,9.681345397324943,-0.08442920834738302,-0.06931877786519805,-0.13013749953167733,125.92148336517926,-7.598237701847065,-4.7240104342287665,0.452916599111311,-0.0064826740429358215,0.07805262919973023,-0.8880907520699859
