time,linaccel_x,linaccel_y,linaccel_z,gravity_x,gravity_y,gravity_z,gyro_x,gyro_y,gyro_z,euler_x,euler_y,euler_z,quaternion_w,quaternion_y,quaternion_x,quaternion_z
0.0,-0.03804878048780488,-0.09048780487804876,-0.0012195121951219497,0.958048780487805,1.24,9.673170731707323,0.20121951219512196,-1.0350609756097562,0.9878048780487805,81.76371951219512,5.609756097560975,-7.300304878048781,0.7534105248780486,-0.07899586853658537,0.01585127658536585,-0.6525700270731704
1.0,-0.03093689508323654,-0.08174990321331785,0.005149051490514904,0.9183972125435541,1.2309523809523808,9.678517228029422,0.17620015485869145,0.8881145954316685,1.0207365466511806,81.00358110723964,5.367934572202865,-7.245934959349594,0.757815831467286,-0.07696497744870305,0.017377439179248933,-0.6476177429926441
2.0,-0.02886842541894806,-0.09008793761407002,-0.0004413472706155633,0.8568740666998506,1.2287356893977102,9.684103202256516,0.046768707482993194,-0.37199269951883196,0.5942529450804712,80.45885183341628,5.009602621536419,-7.2264808362369335,0.7609758469354571,-0.07442339535258005,0.019634939160444665,-0.6441076193313421
3.0,-0.02413859852884243,-0.0887402245451026,0.0008346883468834689,0.909403019744483,1.2123693379790939,9.682044909020522,0.07873596593108788,-0.05814943863724356,0.48382210607820364,80.01900890437476,5.318302361595045,-7.1292682926829265,0.7634061696105303,-0.07586007815640727,0.017572524388695318,-0.6411426577367401
4.0,-0.030814506762579144,-0.08939043123150127,0.0039286650931025435,0.9591839946049228,1.207999325615376,9.678345884380509,0.22613896069836273,-0.665430294855944,0.1821798546326477,79.6724551346896,5.617431905885879,-7.10582218725413,0.7652713090719718,-0.0776283767003859,0.015994935845041396,-0.6387648443966132
5.0,-0.029245176276647557,-0.07794541231126598,0.00043561500131130424,1.095494436326852,1.2300641789367202,9.659799220711104,0.14450142370087293,-1.3756980349181374,-0.7772617642651081,79.89326434940617,6.422268273950021,-7.250486821400472,0.7636660482637593,-0.0837700575673448,0.012193824880821248,-0.6399354131164813
6.0,-0.011269462769069379,-0.07676515564163086,-0.003357461316548649,1.1837090520284854,1.2187083862898187,9.650955677943877,0.10931277613024268,0.42458340898545455,0.6632918255361214,79.88446634993645,6.932129203736206,-7.194502612519922,0.7635647229467206,-0.08682260612681314,0.008913329984425749,-0.6397235201408944
7.0,-0.018097359236619658,-0.07011900583025682,-0.00457172829792814,1.2791653049284837,1.2112401097460108,9.639924731182793,-0.09695159777280155,-0.4801748572696646,0.5514138120599569,79.82448632209648,7.496857284794933,-7.154317592648631,0.763658209690512,-0.09037045066372128,0.005502690667271882,-0.6391690237706831
8.0,-0.027822873166696925,-0.07893755169561621,-0.0029624967217414112,1.3143670741794269,1.1746837842199762,9.640216496197215,-0.08487430400048417,-0.325030386935383,-0.018441402388589656,79.53911176844397,7.702647761201558,-6.942574807339264,0.7652471442331397,-0.09055099540267103,0.003156991406806673,-0.6372851248475762
9.0,-0.03534337993504004,-0.07590858702011336,-0.0037314450563860476,1.348056865177833,1.1447297756662431,9.639042158405449,0.04688719890455728,0.011609511489035468,0.249679770874942,79.28676674181443,7.89939134716254,-6.766158568107083,0.7666621291228641,-0.09088167717419152,0.001108486745889568,-0.635552724571703
10.0,-0.03308160342149327,-0.07627166172406141,-0.007733936532913717,1.3271546127620084,1.1302398878331217,9.644016653553626,0.22456291986927313,0.057802444572212466,0.5787006495995481,78.92631388821641,7.77414922885271,-6.679271381811212,0.7687524649639694,-0.08956573874543564,0.0015076997561076476,-0.6332186372963746
11.0,-0.03198662470495673,-0.0703351691581432,-0.004146538158929977,1.3047989771833204,1.131830448465775,9.646083595594014,0.12394399095200631,0.0544957218725413,0.38579366640440604,78.48817245279307,7.6447617525570415,-6.684135277340676,0.7712127009964594,-0.08871579306667976,0.0026279322610149483,-0.6303412041345395
12.0,-0.035228166797797014,-0.06219964594807239,-0.0041205743509048,1.2127311172305273,1.1492258064516125,9.656031274586939,0.25792314122738,0.6270493214004721,0.01909298780487806,78.32720544846578,7.100008605428796,-6.778021734854445,0.7722832954966561,-0.08557367917643588,0.006435321753343824,-0.6294295877486231
13.0,-0.04256569630212431,-0.05484579071597168,-0.0026852871754523997,1.1522808811959087,1.1351935483870963,9.665406766325727,0.013916207710464215,0.4854248623131393,0.2080595987411487,78.1020603855232,6.742973052714398,-6.694807238394964,0.7736952258733282,-0.08271606327773404,0.00798849354602675,-0.6280621732856018
14.0,-0.04356215578284815,-0.05230330448465777,-0.003856412273800157,1.1166243115656962,1.1161522423288748,9.671815892997644,0.13140243902439025,-0.28630015735641223,0.08469954760031471,77.96805910700235,6.53394718725413,-6.581997442958301,0.7745700615275373,-0.08068641136270652,0.008504043854051926,-0.6272553348678205
15.0,-0.03979051927616051,-0.043551337529504346,-0.00791168371361133,1.1387645554681352,1.1091382769472857,9.670620771046424,0.05544846577498032,0.0332857985837923,-0.03079637096774194,77.9685889555468,6.66862583595594,-6.538318745082612,0.7745365532618016,-0.08133931002832412,0.007479490066286387,-0.6272291093182532
16.0,0.06077340676632571,-0.041124704956726994,-0.010112116443745075,0.7749244689221084,1.028964988198269,9.699492918961447,-1.617840283241542,5.313704760031471,12.206350806451612,75.21701662077103,4.537322974036192,-6.042240361919747,0.7889879993080252,-0.06314633411762391,0.016365004433123526,-0.6078927603457907
17.0,-0.10641896144767898,-0.004201219512195127,-0.013505310778914235,0.19223564122737993,0.8855824154209282,9.728441974822971,-0.23989476789929187,-0.24587185287175428,12.436613640833988,62.61550083595594,1.1356117230527143,-5.195643194335169,0.847425943764949,-0.03081623502498032,0.030088264857002365,-0.5153457254278129
18.0,-0.13060464201416205,-0.008282061369000795,0.013525570416994478,0.7765774980330447,0.7977307238394963,9.699676632572775,-1.2461570613690007,-1.3766153619197483,7.539803796223445,55.71306795830054,4.562463119590873,-4.692730871361133,0.8778406218784423,-0.0546705079600708,0.017074338505114084,-0.4638918778550354
19.0,-0.2519394177812745,0.07641542092840284,-0.028253343823760838,0.9101919748229743,0.5359984264358773,9.717886703383162,-0.866576514555468,0.19339594807238392,0.7823514948859165,52.92069728560189,5.339648898505114,-3.1500196695515346,0.8912109997537372,-0.054426446314712815,0.0036373012202989795,-0.4436698571573564
20.0,-0.37414044059795426,0.08775924468922108,-0.01833988985051141,0.9317836349331237,0.4502454760031471,9.725308418568051,-0.7581063139260424,3.0486796813532653,-11.106562254130607,59.9215750393391,5.456606510621558,-2.6464348937844218,0.8611103457344611,-0.053222123007867814,-0.003302852273406768,-0.49680459840951996
21.0,-0.04040224232887485,-0.06298898505114084,0.04590873328088119,0.3715841856805665,0.8469559402045634,9.718027930763174,2.460713758851298,0.5719647423288751,-10.792930025570417,75.68135695318647,2.1770886605035407,-4.975115558615263,0.7788698434297797,-0.04615395704287962,0.02399275148328088,-0.6057413851410307
22.0,-0.0440480873702746,-0.09932091341650745,0.029119113184219395,0.42468840620433856,1.1123677550485185,9.70555428796223,1.149408098703683,-0.8611986484208158,-5.6756352796822895,83.1426742043198,2.487753479637331,-6.52750353583605,0.7407623206809038,-0.05696558370193136,0.02838386975680941,-0.6579499274474354
23.0,-0.03248372110449214,-0.11253948896631824,0.01586197594694841,0.5154288805215241,1.2111072646210335,9.700664240755305,0.6616244122550673,0.10841277256378556,-2.560751107583081,84.74842883603087,3.0045118204638266,-7.10785459049867,0.7345360498969035,-0.06264968170983666,0.027996512039695026,-0.6707410994737176
24.0,-0.020583717357910904,-0.11024869806301749,0.015699674047431722,0.544616387546364,1.270927353789667,9.69738788355625,0.31705396950282866,-1.1734643700123637,-1.3294111310928778,84.27948278445919,3.1855269566520548,-7.453953111535723,0.738811172247724,-0.06496384466441871,0.02950920677771534,-0.6688782924713199
25.0,-0.024800119890599822,-0.09945558427934509,0.0077357536248173564,0.6596567382263685,1.2790317335431418,9.691778127458692,0.23949177625416807,-0.6193590536135776,-0.15900139560151363,83.05712927578584,3.8562862950058068,-7.50768564310067,0.7461824490585591,-0.06907516363039976,0.02669321901828332,-0.6611249700712226
26.0,-0.044504701959462,-0.09055391330411,0.003915083736090818,0.7275821063279757,1.2562035142932073,9.690924468922107,0.012153441234873184,-0.4699863718107227,0.46096940448091117,81.51794308006444,4.2580015267318565,-7.373335347120753,0.7550592447731821,-0.07054191344383874,0.024376829501273838,-0.6511403746933611
27.0,-0.039068787231651116,-0.07758110411749278,0.0012816586115169917,0.7794784571578435,1.2366079015398446,9.690504477164588,0.18853639803679142,-0.45362317822486975,0.3705096638379978,80.44128720823497,4.559396308680828,-7.265560722715522,0.7611771837767598,-0.07165902011669664,0.02254470288043723,-0.6440709695663426
28.0,-0.035721029560526016,-0.0627481173429246,-0.0012629725375594765,0.8160836986250048,1.2325577910156982,9.688696939043123,0.04734039563897943,-0.4782276797422352,0.16301140833988984,79.92463985987786,4.776743565246712,-7.237076636319358,0.7640531119609606,-0.07284262914840209,0.021469260033344574,-0.6406288687422728
29.0,-0.025799932561537592,-0.05763605709789819,0.003805177775280056,0.8670654527743433,1.2292702409051737,9.684100633172232,0.15739856131280205,-0.26369094451313174,0.10450432730133752,79.68756088194522,5.0713920422614365,-7.2215821812596,0.7652996335249334,-0.07466478602660073,0.01983038546199093,-0.6390072130351804
30.0,-0.021493986737102393,-0.05328695065752503,0.0047491663856730724,0.9165571166310742,1.2307153722228468,9.678831591173054,0.14261548836686522,-0.1885527893297366,0.05009834775767113,79.57959377692855,5.362131898392716,-7.243108163800532,0.765826780985126,-0.07666430266868983,0.018370728020531267,-0.6381894980793528
31.0,-0.032470046082949316,-0.070036866359447,0.003222734254992319,0.9527726574500769,1.2354639016897084,9.674855606758832,0.05904377880184331,-0.39978878648233485,0.12419354838709679,79.51369047619048,5.5764976958525345,-7.278984254992319,0.7660901721920124,-0.07831308396927805,0.017442066675883258,-0.6376971412442396
32.0,-0.036972350230414744,-0.08620122887864823,0.004723502304147465,1.0009746543778801,1.2385476190476192,9.670682027649772,0.08113959293394776,-0.23459581413210445,0.04570372503840246,79.4967309907834,5.854512288786482,-7.299443164362518,0.7661136863225808,-0.08030532315053765,0.016029411646697387,-0.6374615420299539
33.0,-0.04816129032258064,-0.08874193548387097,0.008354838709677419,1.068008064516129,1.2749112903225805,9.657935483870968,0.33553427419354837,-0.834929435483871,-0.548538306451613,79.75095766129031,6.253024193548388,-7.524395161290322,0.7644521417903226,-0.08419041745161292,0.015050038419354837,-0.6389472228951613
34.0,-0.06032926829268291,-0.09687529504327301,0.010452399685287175,1.1506768292682925,1.2942777340676628,9.645427222659322,-0.003975708103855252,-0.15982002360346187,0.13270431746656175,80.02349527930764,6.739589889850511,-7.642619000786782,0.762681163414241,-0.08809943097856021,0.012870782387883552,-0.6405778321298189
35.0,-0.06256248360870706,-0.10600293169982392,0.007349471732044512,1.150572477614177,1.2760996965269187,9.648186729609233,0.034348071447304326,-0.04440213929789069,0.11466365066876473,79.88105927559852,6.737695290547375,-7.52742029148402,0.7635412961429884,-0.0874658829579821,0.012265041187797384,-0.6396678510399477
36.0,-0.05701147390506163,-0.09301848001198906,0.002513543891199282,1.1030195196882842,1.2766808474766773,9.653530225544195,0.1458227375332509,0.49814831076018135,0.9932717840283241,79.50210516887715,6.452344891536473,-7.525388941965456,0.765755333493406,-0.08552023351026565,0.014147962231192163,-0.6372211773410792
37.0,-0.05426130530890562,-0.09169645198756135,0.0030033157244014844,0.9919690532389194,1.2895378123712116,9.663529897718337,0.217051393728223,-0.06295421443557753,-0.39469115291671353,79.42370643428497,5.80381981519988,-7.594777324285339,0.766358035168362,-0.08158396651588551,0.018340695616172117,-0.6368866270996871
38.0,-0.041056535910981226,-0.0833520662395564,0.0030366040987598823,0.9741673223183844,1.2899580382900604,9.665915102469002,0.396587332808812,0.44509619347345547,-0.5489092765351616,79.64208675208872,5.696405155295793,-7.59432486605972,0.7652031161335282,-0.08092073528904875,0.018788993244914017,-0.6383706732213106
39.0,-0.03902551421827583,-0.07739593870593084,0.004213030609568767,0.9053094676108049,1.3007185942827166,9.670546064216408,0.04460070810385522,-0.09386122663069948,-0.15579806863736842,80.01805852159904,5.295168549323742,-7.650230883069199,0.7632071161902889,-0.07863922625585404,0.021179636378554564,-0.640964193070136
40.0,-0.030233187216664792,-0.08500288486755837,0.0033277134614664115,0.9078720917163086,1.2853086058971184,9.672633247161968,0.07997124498894757,0.1366907384511633,0.36736306245550937,79.81415598891012,5.311279551159567,-7.562087407740437,0.7643735444492151,-0.0781797314727811,0.020626941749953165,-0.6396588452946688
41.0,-0.04916065340376907,-0.08979884605297667,0.005601700947885055,0.8883734966842755,1.280703083436364,9.675140384399242,0.0989205162788955,-0.4267618298302799,0.343939202352853,79.376590189577,5.193675770859091,-7.530773247536622,0.7668540015086357,-0.07715440948147316,0.02138837492297029,-0.6367789622893485
42.0,-0.07108748267206175,-0.07830647034580945,0.00966692892735379,0.886230789404668,1.3054500768049153,9.672138773369305,0.3234208160053951,0.3802040013487692,-0.4075603667903038,79.35810713349069,5.182768067888052,-7.676565134314937,0.7669052802190248,-0.07788263075699675,0.022458299111198527,-0.6365959713298488
43.0,-0.06914358772619986,-0.07574232887490166,0.009811959087332808,0.9054110936270652,1.3240322580645159,9.668527143981123,0.008066974822974027,-0.5418248426435878,0.06663552321007082,79.54494738394965,5.299117328874901,-7.789924272226593,0.7657902750833987,-0.07929587620338316,0.022427483899685286,-0.6377634325719904
44.0,-0.05309264358772621,-0.07711191974822976,0.010606215578284815,0.9094522029897718,1.3031451612903229,9.670963021243121,0.016867869787568844,-0.4752790617623918,0.1661118214004721,79.47192294453187,5.319282307238395,-7.6715160306845,0.7662598826479149,-0.07876434194512194,0.021534494440007865,-0.6373051761089694
45.0,-0.054251770259638094,-0.08753186467348546,0.006269866247049567,0.938177025963808,1.2990432730133752,9.668276947285609,0.071897128245476,-0.18990952006294257,-0.03790814319433515,79.54706431943352,5.48647718332022,-7.649154209284028,0.765800680851298,-0.0797767382281668,0.0203899687938631,-0.6377744947450826
46.0,-0.05352006294256491,-0.09644099134539733,0.00920653029110936,1.0068524783634933,1.2959071597167582,9.661669551534231,-0.00634097167584579,-0.007400668764752177,0.08318499213217939,79.5719979346971,5.889855428796222,-7.635060975609756,0.7655348058638867,-0.08238158747993707,0.018014000860346185,-0.6378279402018097
47.0,-0.05587096774193549,-0.10340145554681354,0.005519866247049567,0.9842720298977183,1.271171518489378,9.667357199055864,-0.06852257081038551,0.05358723446105428,0.24940130802517702,79.39223913257277,5.755288650668764,-7.488458890637293,0.7666379577470493,-0.08064694911369,0.017929682369590874,-0.6367311366351298
48.0,-0.04542703533026114,-0.10041174927878313,0.006166423138885766,0.9382798321531604,1.241545052639466,9.676132516578622,-0.04895142557416357,0.17595116331347643,0.540574069911206,79.09515590461203,5.4875833614326925,-7.304314890787156,0.7684520290190701,-0.07778805753725976,0.018433904006031995,-0.6348751738703684
49.0,-0.03914782136300625,-0.09087857330186205,-0.00793645798209134,0.8882453448728036,1.2310439661309056,9.681398280319208,0.2591493855606759,0.5470825840170843,0.5813314881420704,78.43016056442247,5.1917312951931365,-7.2407392707279605,0.7722236790665767,-0.07532980328161179,0.02008486393535274,-0.6304976219627216
50.0,-0.028263918549323738,-0.08250852347233148,-0.00261496384549099,0.8062076448990295,1.2530278839309128,9.6862144824098,0.25971336311865423,0.1137261857929639,0.12957211700573223,78.17475770156608,4.708596764827095,-7.361321641658236,0.7737286605993781,-0.07273502485481062,0.023744752380736946,-0.6288328692032334
51.0,-0.03107953991982316,-0.08188329399423025,0.003918324528867408,0.7756643063204826,1.2663163613202952,5.3933048218500605,0.14160063317223034,-0.02201795549061482,-0.11359095762616611,78.07888590723465,4.53322983402645,-7.442480377280731,0.7742837789448503,-0.0719632154475666,0.02533845484762654,-0.6281991329000037
52.0,-0.03329350717470308,-0.0869251245738264,0.005278595781349519,0.8034568581169683,1.2481094001723423,7.539347139485219,-0.03952619796935296,-0.08998222715522086,0.4348843008879398,77.96982257596193,4.698764798995916,-7.337261038364992,0.7749003363961073,-0.07247361039805553,0.023763382740886442,-0.6274475270967368
53.0,-0.038829490205572026,-0.07657670620750874,0.0025279307631786,0.8031345498194437,1.2476187435695698,8.613442327866206,0.30507184429784745,0.5192868463656721,-0.37562472891323206,77.83757139668946,4.692715142024249,-7.336691121214873,0.7756017170719756,-0.07241825363191207,0.02387083350237043,-0.626577689051736
54.0,-0.03361104722709758,-0.08242240109746012,0.003365066876475216,0.7839195565776996,1.2433363190703868,9.152536958582985,0.014632696342472107,-0.2013868925134661,0.3043007600516452,77.88318196604732,4.584247274001896,-7.306916936492566,0.7754012792487139,-0.07152656897577114,0.02426760155803022,-0.6269185479827917
55.0,-0.05779686901087373,-0.08232607072968993,-0.0004252557041699444,0.7320290151102503,1.251416389275555,9.423845190542472,0.03221800041356494,0.045377560824305496,0.054869695525429196,77.76945290277189,4.282933039046581,-7.35045394424943,0.7760713099359227,-0.0696545461440618,0.026343544010329033,-0.6262101140157861
56.0,-0.03866456353769493,-0.09119529342936109,-0.001414240755310779,0.7294459591680285,1.2229985172184226,9.696055659787362,-0.07696055624483043,-0.1249170663620408,0.4304842429240049,77.4656488304182,4.263769946942645,-7.181250157608586,0.7778095833107033,-0.06857801664461155,0.02545955192451936,-0.6242110434675705
57.0,-0.03745728176884747,-0.09455732413403539,0.00292997639653816,0.7491866892614337,1.2067492586092117,9.69685041053884,0.11340984284532671,-0.30361276705198814,0.34969272630071213,77.15454820553168,4.3788607799229355,-7.086819635255905,0.779523811175513,-0.06878804739891867,0.02437075529290484,-0.6220905043789464
58.0,-0.005759244689221087,-0.10180802517702597,0.002626278520849724,0.7141152635719906,1.1935979543666404,9.70082140047207,0.08850806451612903,-0.09698318253343824,0.37441728953579856,76.84920338316286,4.165179976396538,-7.006633556254917,0.7812463504661684,-0.06684366004602674,0.025139072103855232,-0.620087673531078
59.0,-0.023709677419354848,-0.10070967741935485,-0.0049354838709677416,0.7732016129032258,1.2036612903225803,9.695129032258064,0.3418346774193548,-0.13371975806451614,0.07878024193548386,76.60564516129033,4.512600806451613,-7.074697580645161,0.7824480613629032,-0.06951279175,0.023867551709677415,-0.6183251169999999
60.0,-0.031839103068450045,-0.09095200629425651,0.002758064516129031,0.7375245869394178,1.2396355232100706,9.693616837136112,0.23295264555468131,0.3992255114083399,0.7011273111723052,76.15085931353265,4.304445318646735,-7.282717840283242,0.784859268887687,-0.06909462789457121,0.026694583824154208,-0.6151916974708889
61.0,-0.025416011014948864,-0.08856038552321008,0.00871262785208497,0.7657734067663258,1.2309400078678205,9.6922846184107,-0.2047797010228167,-0.07028668371361127,0.4553697875688434,75.70691999409914,4.471557828481511,-7.232172010228167,0.7872029225993311,-0.0698812895312746,0.02569669039870181,-0.612142593038749
62.0,-0.030802283541268592,-0.08030726649432393,0.0005527424974710554,0.8256278708178787,1.1988903188340638,9.691394037315948,0.12722804503390656,-0.8616338372485106,0.057866825428046914,75.46605000280994,4.83130022760481,-7.048497679461241,0.7884666816754337,-0.07130181861145143,0.02267709993187779,-0.6104748721036678
63.0,-0.027784206286763327,-0.07170605260200066,0.0014013712487355285,0.7341849031508747,1.218566127158967,9.695112341238616,0.1897228934846952,0.6346568716983254,-0.3436724340601701,75.56881129172754,4.2934726944475665,-7.1534575090854595,0.7880142032086845,-0.06821063031782248,0.0262600707925518,-0.6112382498744148
64.0,-0.028710651530478432,-0.07218770372035518,0.0014103630437226028,0.6613142257689857,1.2180814506762578,9.701596493199952,0.10988160803267019,-0.09247499157019212,0.10041680716346332,75.62939052489602,3.87014864561088,-7.15016625454273,0.7877943128462777,-0.06528416501374994,0.02847858055756622,-0.6117525432275299
65.0,-0.027109849762092082,-0.07904192424412723,-0.0031980442845903137,0.7695406691394102,1.1878290809636205,9.6965370349556,-0.20186486081450675,-0.29158564684725186,0.18527429657937133,75.54924974710576,4.504542261436439,-6.9736669195609,0.7881476254097635,-0.06868434545573412,0.023892396103330705,-0.6111169484241505
66.0,-0.04137711213517664,-0.07567281105990784,-0.002601382488479264,0.8508356374807988,1.1614393241167433,9.6931198156682,0.06887480798771121,-0.8783410138248848,0.06558659754224269,75.45408986175116,4.977649769585254,-6.824303955453148,0.7885921351966204,-0.07114492654454685,0.02035267410752688,-0.6103981732403995
67.0,-0.05249193548387096,-0.07691935483870968,-0.0023467741935483876,0.8389354838709678,1.141241935483871,9.696838709677412,0.16824596774193545,0.4739919354838709,0.29682459677419354,75.2491935483871,4.903830645161291,-6.70539314516129,0.7897439277903224,-0.06995923428225806,0.02003419972580645,-0.609059930637097
68.0,-0.046147465437788006,-0.07195084485407066,-0.0028072196620583714,0.8273909370199694,1.1374669738863288,9.698558371735785,0.12468798003072196,-0.3639592933947773,0.39951036866359446,74.89518049155146,4.8359302995391715,-6.682022849462365,0.7916724868678955,-0.06931281021390168,0.020463726853686637,-0.6066254976793395
69.0,-0.04159851635382712,-0.06764595743883706,-0.0038115563298490125,0.8372532969914952,1.12753856168746,9.699284103255774,0.14420005807200928,-0.08017004795623997,0.26844248763628187,74.60486306245551,4.892742637967855,-6.622277406241804,0.7932180293971656,-0.0693175143598029,0.019924404476508936,-0.6046335720773763
70.0,-0.03427568497592101,-0.06724553868633334,-0.00602374756111971,0.8419443697529849,1.1227069359305784,9.699779148402076,0.07427382969770853,-0.20657463315926142,0.2170330976229383,74.4225114009548,4.924806492681197,-6.594872677479876,0.7941629944414489,-0.06934470533250692,0.01968755476430906,-0.6034055130743583
71.0,-0.03329106829441213,-0.07090099514961827,-0.004148970554753404,0.8703955719732666,1.1262284679652894,9.695925864523616,0.0644050600101446,-0.11077219561188877,0.1592473955856627,74.3135490472516,5.089419375372858,-6.625006903256067,0.794667975168305,-0.07059843333964055,0.019053096644251304,-0.6026122793678244
72.0,-0.029697953502044773,-0.07832146531674462,-0.0024252917289896052,0.9094437537285689,1.130170685595548,9.692281480648905,0.30924386065023357,-0.27262400103175083,0.053792044567024896,74.24062028975483,5.3198608973638475,-6.652095185499001,0.7949700569067333,-0.07232909795207834,0.018081068189061134,-0.602041662978267
73.0,-0.03408630393996248,-0.07459775262765035,0.0014179224918800062,0.9341658092759589,1.1716513950251164,9.684523996852874,0.13710080897335025,-0.146800671790837,-0.0596247150436765,74.42309432306482,5.461759365732615,-6.895772055115092,0.7938678187982207,-0.07464267220952611,0.018894725645221815,-0.603184265340132
74.0,-0.04225558312655087,-0.07085277088502895,0.0012998345740281227,0.9192237386269646,1.1862009925558312,9.684903225806453,0.15709780810587262,0.04478908188585609,0.024229735318444988,74.44447890818859,5.371944789081885,-6.980453887510339,0.7937167091898264,-0.07449414258312656,0.019924865734491315,-0.6033646301799007
75.0,-0.034415027537372155,-0.06895712037765539,-0.00035070810385523174,0.9211599134539734,1.1949067663257278,9.682506687647525,0.13459136506687647,-0.1893292682926829,0.1100831038552321,74.40263571990559,5.38643538552321,-7.031695023603461,0.7939131926669944,-0.07484129735129819,0.020220240105035404,-0.6030579558821795
76.0,-0.03190106215578285,-0.06359952793076318,-0.0037519669551534223,0.994583988985051,1.1957437057435096,9.675511408339894,0.197739230920535,-0.7533843922108576,0.07847905192761606,74.38050132769473,5.816453579858379,-7.037520898898505,0.7938802525875297,-0.07785065577242328,0.017958576697678995,-0.6027801742757674
77.0,-0.029317466561762394,-0.07351750590086548,-0.0009606608969315499,1.0674734461054287,1.1980371754524,9.66741699449253,0.0183000590086546,-0.22318917191188037,0.16640686467348545,74.37581013965381,6.249708644767899,-7.077202989771833,0.7937345250558616,-0.0809683613902439,0.01587345636093627,-0.6026114556136903
78.0,-0.039844217151848924,-0.09390243902439024,0.0008237608182533442,1.0303204169944924,1.1860049173878835,9.673371164437453,0.013587972069236818,0.10250540912667189,0.3681279504327301,74.08531176239181,6.030189073564123,-6.990952006294256,0.7953922331398506,-0.07901809672777341,0.016675329109559402,-0.6006608548939814
79.0,-0.027103368176538904,-0.0872837847963733,-0.0021848937844217145,1.1379042561162938,1.1506343711363378,9.664426941665731,0.028523776741223625,0.13733421377992583,0.7053413369675171,73.76637899947548,6.661272292158405,-6.785760181334532,0.7968930508535274,-0.08227962612963172,0.012174314622176014,-0.598305575748642
80.0,-0.04686010265632609,-0.08045149113933533,-0.004707710464201416,1.1081220729834025,1.1566704507137235,9.668551000337192,0.09355476799295642,-0.28725342812183885,0.21104989743733843,73.29283249737739,6.48292764883294,-6.813120059195983,0.799427645237936,-0.08115229615293545,0.013659190163172978,-0.5950544904431643
81.0,-0.0410187610055824,-0.08917063804278594,-0.004207157843467836,1.22927013787419,1.1035852253568617,9.658104801243864,0.4827616869918699,0.2779098642800944,1.3689526080888688,72.92026537503278,7.204191839009404,-6.512046780750065,0.8011532734044904,-0.0845478655353771,0.008064663841379115,-0.5922744211286483
82.0,-0.006482334869431642,-0.04638567307332058,0.05086583492563035,0.6074186055224607,1.2899168258963694,9.668867408489755,1.7031045108838185,4.390047206923683,3.3925574163575734,69.3409388932599,3.54917622044884,-7.591496197220036,0.8190294191513994,-0.062303489522310886,0.03602556676520176,-0.5667795060994343
83.0,0.08233947772657446,-0.07208111348394589,-0.006481323292495612,-0.458225394327676,1.0345209621220635,9.628768086620962,-1.547764227642276,8.936747639653817,8.05922619047619,61.85804812483609,-2.731917593945525,-6.109270915289797,0.8514495210280992,-0.005236524676969764,0.0529206471135214,-0.5106262523219437
84.0,-0.1980645161290323,-0.06971413585103592,-0.047934210033344596,-0.747350792401933,1.190714398111723,9.622764227642278,3.6930917725075867,-2.130402101832078,-3.2528609831029183,62.81887621295568,-4.374493743209322,-7.042615488366865,0.8474658489710387,0.001385339112359971,0.06875995068809711,-0.5180762383076691
85.0,-0.09552635719905588,-0.15625360608444794,0.002727623543516536,-0.2624724064291333,1.3367136113296616,9.65149619722004,0.37385214117118126,-4.356285826683152,-2.1374257708590907,72.69706104117492,-1.5271809786070212,-7.868121276834889,0.7974711296019631,-0.02835006243752576,0.05866128276419018,-0.5874142416502941
86.0,-0.06668253343823762,-0.15063217938631002,0.0043929976396538135,0.17061172305271455,1.365921321793863,9.666904012588518,0.3368828678206137,-2.7914781667977966,-0.8267678009441382,90.93394718725413,0.9997639653815893,-8.031857297403619,0.6875419511896145,-0.052133882510621565,0.03728324108025177,-0.6999609324142407
87.0,-0.0570548780487805,-0.14445456333595597,0.003813335955940203,0.5555182926829269,1.3830039339103064,9.6616345397325,0.08978781471282457,-1.5908856215578286,-0.7255150963808025,110.19582882572776,3.2487755704169943,-8.13571621754524,0.557532948143981,-0.06945090789575138,0.012390127668371359,-0.8021467675446499
88.0,-0.04225452399685287,-0.14101239181746655,0.008819236821400471,0.7312191188040912,1.3946445712037763,9.665321007081044,0.20641473249409914,-0.8253700334382374,-0.4493656569630213,125.78544576121163,4.276059697088906,-8.20529479740362,0.445822318224823,-0.0777176191542093,-0.002657989120967739,-0.8748636816042488
89.0,-0.03982749803304484,-0.12543233674272228,0.009333595594020456,0.7695377655389456,1.3989234854445316,9.668499213217942,0.03440081628638868,-0.5810692859952793,-0.013351937450826124,137.13528963414632,4.502989771833202,-8.225682287568844,0.3602309817120377,-0.0803039007846184,-0.010912303978756885,-0.9206365027317074
90.0,-0.03792584579071597,-0.11062745869394178,0.010932926829268292,0.811333398898505,1.387191581431943,9.667410896931553,0.24943327104642016,0.11589176829268291,0.23926657159716758,144.83019522029898,4.748672305271439,-8.159035700236036,0.2995797743398898,-0.08021422046892211,-0.018325734997442958,-0.9469905852448861
91.0,-0.037579858379228955,-0.09854760031471282,0.0074382376081825324,0.8493642800944137,1.376168371361133,9.665943351691586,0.1276652242328875,-0.31682730133752945,0.05277340676632571,149.45738591660108,4.969295830055075,-8.095092446892211,0.26184925307317075,-0.07954106384736429,-0.023565909309205352,-0.9602678426184108
92.0,-0.044372147915027534,-0.09192525570416993,0.004498033044846577,0.8632895357985837,1.3671518489378442,9.665536585365858,0.20412568843430368,0.7333792289535799,0.37259539732494096,151.86933025177024,5.048573957513769,-8.043489378442171,0.24181153105271436,-0.07879101348151063,-0.026059274398898505,-0.9663499883154998
93.0,-0.02586821400472069,-0.07951494885916599,0.0038265145554681355,0.8100830055074744,1.3609992132179385,9.670844610542883,0.10486575531077892,0.2839299763965382,0.08994148308418565,153.3966291306058,4.735267505900865,-8.001804681353265,0.22900260473170733,-0.07757424556451614,-0.024512242089299766,-0.9698787664984264
94.0,-0.03185778914240755,-0.07065204563335954,0.007609559402045634,0.7520021636506686,1.346544453186467,9.67751907946499,-0.008650914634146335,-0.35681549960660897,0.30917215774980333,154.55964422698662,4.395746459480724,-7.917252655389457,0.21917480410228168,-0.07599157064850512,-0.022560704300354055,-0.9723918852539337
95.0,-0.020142604248623127,-0.06699940991345396,0.006034618410700236,0.7671905979543666,1.3462641620771048,9.676908733280886,0.14711103461841069,-0.39998033044846576,0.10950039339103068,154.95756908929977,4.4828026652242325,-7.914926730920534,0.21583676229307636,-0.0760397615298977,-0.02357932963808025,-0.9731523852439024
96.0,-0.029212431156569636,-0.062398898505114084,0.003856018882769473,0.8509622344610543,1.3449103068450046,9.6696640440598,0.11685188827694729,-0.4167240361919748,-0.04262883556254918,155.21111821400473,4.975398308418567,-7.913360542879623,0.21365829449331236,-0.07682677146656175,-0.02796469485129819,-0.973458211444532
97.0,-0.03971951219512195,-0.059992525570416996,0.002416601101494886,0.9168634933123524,1.3380114083398902,9.664753343823767,0.011332120377655394,-0.3587504917387883,0.0809918371361133,155.36614624311565,5.3613419551534225,-7.867970594020456,0.2123154055841857,-0.07713805978599528,-0.03145022459087332,-0.9736293049763964
98.0,-0.027088709677419352,-0.06126612903225807,0.0027016129032258066,0.9481209677419353,1.3259758064516134,9.663411290322587,0.03694556451612903,-0.35761088709677413,0.1990423387096774,155.25216733870968,5.542993951612903,-7.8038810483870975,0.21328105305645162,-0.0769327472903226,-0.033066780112903225,-0.9733852764032258
99.0,-0.039120967741935485,-0.06819354838709676,0.0015564516129032257,1.0397419354838708,1.3263709677419353,9.654225806451613,0.09692540322580645,-0.6676915322580645,0.09450604838709677,155.21214717741935,6.085735887096774,-7.825403225806451,0.21353114975000004,-0.07805293872580646,-0.03764436786290323,-0.9730697156129031
100.0,-0.0449659716758458,-0.07233261211644373,0.0013310385523210067,1.0437482297403617,1.3211134933123523,9.655092446892214,0.10334382376081826,0.11574055861526356,0.1633076809598741,155.10129941974822,6.105902094807239,-7.789700531077892,0.21451201958497246,-0.0778512072236428,-0.03782358031136901,-0.9728603122814712
101.0,-0.034124114870180966,-0.07018646734854445,-0.0012981904012588502,0.9936644374508259,1.3093269079464986,9.661892997639654,0.10837554091266718,0.6311565696302125,0.2500762195121951,154.97844708890636,5.816534716758458,-7.717178894571203,0.21558718625216364,-0.07673961542230529,-0.03535318440165225,-0.9728045993141227
102.0,-0.023552911093627074,-0.06171852871754525,-0.0015464201416207704,0.9461793863099919,1.2955871361132965,9.668373721479155,0.0846343922108576,-0.10781372934697087,0.12150988394964594,154.76235247836348,5.539717741935483,-7.628474134539733,0.21743728226966952,-0.07556880615145556,-0.032992866755507486,-0.9725686931323758
103.0,-0.025095003933910308,-0.062105232100708105,0.0035654996066089694,0.8949525963808023,1.2917411487018091,9.672662667191188,0.11149562352478364,0.5251253933910307,0.21718135326514554,154.58737583595592,5.2378528225806456,-7.598964889850512,0.21897828151789928,-0.07480222501121164,-0.03035916661565697,-0.9723515703524778
104.0,-0.020540912667191193,-0.0664795436664044,0.0010153422501966952,0.8815015735641227,1.2956868607395746,9.673728560188833,0.053353658536585365,-0.6508507081038553,0.11871803697875688,154.3761555861526,5.15374704956727,-7.62256589299764,0.2207915353280881,-0.07491079761369002,-0.029489143452006296,-0.9719683674402041
105.0,-0.024697678992918956,-0.07498013375295043,-0.004673288749016523,0.9193392997639653,1.295378442171518,9.670403225806457,0.013517899291896144,0.2792805861526357,0.3751241640440598,154.23893341856802,5.374813139260425,-7.622425747442959,0.2219316287057435,-0.07537726641502754,-0.031274707302714394,-0.9716204555336347
106.0,-0.02177222659323367,-0.08104248623131392,-0.0045987411487018095,0.9365849724626278,1.2894472856018881,9.669838709677425,0.08558959480723839,-0.48692220692368215,0.16949252557041697,153.96024291896146,5.478132376081826,-7.589388276947286,0.2242680080302911,-0.07536885926396539,-0.032045966300550746,-0.9710622146498815
107.0,-0.02274291896144768,-0.08850314712824547,-0.008440204563335956,0.9659832808811959,1.2850462234461058,9.667708497246267,0.09932017112509835,-0.1632339201416208,0.09497442958300549,153.8087750786782,5.654732985837923,-7.5627901258851296,0.22555110635975611,-0.07553234903009441,-0.03348069463335955,-0.9707066472265928
108.0,-0.011206136900078678,-0.08634028324154208,-0.003841070023603462,1.0682859952793073,1.2892206923682141,9.655071990558614,0.17246754523996854,-0.5479224036191974,-0.10352084972462627,153.94012342643586,6.255441089693155,-7.598733772619984,0.2243617239500393,-0.07690587917230526,-0.038645249929583,-0.9706750090971673
109.0,-0.023581038552321,-0.08155330448465774,-0.004162863886703384,1.1004726593233674,1.2981272619984265,9.65114339103068,0.17435336349331237,-0.22840160306845003,0.1524832808811959,153.86775545830056,6.4409581530291105,-7.651550206530291,0.22493879887116436,-0.07775713113611328,-0.04008149300570417,-0.9704199069364674
110.0,-0.027830841856805656,-0.06936939417781274,-0.006307238394964596,1.1615952006294252,1.295390243902439,9.64449508261211,0.12946498819826907,-0.1335304386309992,0.16948760818253344,153.78985051140833,6.804980084579071,-7.638249901652243,0.2255225554880015,-0.0783636600438631,-0.04311363554720693,-0.9701113818432336
111.0,-0.041996066089693154,-0.06903147128245476,0.0016931549960660878,1.171870180959874,1.2947273800157355,9.643969315499596,0.10253491345397325,-0.059028324154209284,0.1254696105428796,153.6381712234461,6.865720889063729,-7.632683418568057,0.22681006975609752,-0.07851714233241544,-0.043542763910700236,-0.9697855816353267
112.0,-0.04294295830055074,-0.06473131392604248,-0.0011542092840283263,1.187992525570417,1.2901905979543669,9.641954760031462,0.14140809402045634,-0.36063630999213214,0.2454796911880409,153.4967311664044,6.959247147915027,-7.613332267899292,0.22798449912981902,-0.07854829455173093,-0.044302877355822196,-0.9694748495934306
113.0,-0.035527930763178596,-0.05514791502753739,-0.0022706530291109364,1.2355365853658542,1.2848815892997645,9.636017702596373,0.1272816679779701,-0.2687254130605822,0.1700432730133753,153.40670731707317,7.237738493312353,-7.586782061369001,0.22872121485523203,-0.07883004756215578,-0.04668831004484658,-0.9691630258410701
114.0,-0.03667741935483871,-0.053435483870967755,0.00035483870967741916,1.2801451612903227,1.2814919354838714,9.631169354838706,0.06733870967741935,-0.41633064516129026,0.0689516129032258,153.36612903225807,7.503881048387097,-7.57157258064516,0.22907084862903218,-0.07917317966935483,-0.04894246775806452,-0.9689447726451611
115.0,-0.04130645161290322,-0.05997580645161291,0.00031451612903225746,1.3030645161290324,1.2802822580645168,9.627604838709676,0.0783266129032258,-0.16864919354838706,0.14899193548387096,153.34153225806452,7.637096774193548,-7.5668346774193544,0.22923933481451614,-0.07941510483064515,-0.05006049374193549,-0.9688280665967741
116.0,-0.04028225806451613,-0.061903225806451606,-0.00257258064516129,1.3416129032258066,1.2712741935483876,9.623411290322581,0.029838709677419355,-0.33961693548387095,0.04097782258064517,153.31199596774195,7.860735887096775,-7.516885080645161,0.22949312267741934,-0.07948037356451612,-0.05204763125806451,-0.9686573143548383
117.0,-0.0349274193548387,-0.06028225806451614,-0.0035403225806451607,1.3825887096774192,1.2600645161290327,9.619435483870971,0.04753024193548387,-0.3014616935483871,-0.10216733870967741,153.31622983870966,8.101915322580645,-7.455342741935484,0.22940954375806447,-0.07941505619354838,-0.05422574908870967,-0.9685616757177418
118.0,-0.03263394964594807,-0.0643831628638867,-0.01052970102281668,1.3545952006294257,1.2666333595594024,9.622947285601889,0.17372393784421714,-0.14753024193548386,0.05379622344610542,153.31784520062942,7.940318892604248,-7.490038601494886,0.22942543381864666,-0.07942151769315499,-0.05276444587863887,-0.9686386797694725
119.0,-0.026546813532651453,-0.06011900078678206,-0.004276947285601888,1.3733217938631,1.2761715184893787,9.618651062155786,0.11166035601888277,0.11164314516129031,0.08042633752950432,153.3800415519276,8.048662470495673,-7.549681599134539,0.2288949497238395,-0.08012166767722265,-0.05361330399980331,-0.9686608926266718
120.0,-0.0232397718332022,-0.05882572777340678,-0.004278520849724626,1.316156372934697,1.2733101888276952,9.626302517702598,0.1621828284815106,1.0593073859166011,0.37091610936270647,153.20830669748227,7.7105035405192766,-7.523807533438237,0.23039295343292682,-0.07933720373760819,-0.05065462120692368,-0.9685141774588905
121.0,-0.028914240755310783,-0.0638644767899292,-0.00644571203776554,1.1939854445318647,1.2806671911880407,9.640699645948072,0.12892407553107788,0.3811909913453973,0.3542080546813533,152.85110395357987,6.98917314122738,-7.552679976396538,0.2334777858253344,-0.07832278116719119,-0.04422539415184894,-0.9681585737576709
122.0,-0.03991204180031875,-0.07399541043797536,-0.002620912263713209,1.1676943351691582,1.2805527850067588,9.64443842926022,0.06831594595412456,-0.22266959944723516,0.21218919586838547,152.6383091624806,6.834635810688131,-7.551939657346325,0.23529630589736528,-0.07807856259124654,-0.042798217368728436,-0.9678195705153116
123.0,-0.03521015150598156,-0.07125891686336219,-0.003873792087796809,1.2259581038552323,1.2767697048558577,9.637919450664729,0.17860624205652728,-0.9814960900461983,-0.2335149614678529,152.66076551751092,7.1855466622284085,-7.539261528122415,0.2350618051776362,-0.07867317757335733,-0.045812268413711194,-0.9676922166872388
124.0,-0.04023410801105531,-0.06943994230264884,-0.004549799269704856,1.3728863099921327,1.294683239524703,9.614334725332359,0.22077993554439262,-0.7051381659908411,-0.05954981944360388,152.89588175069093,8.049325750469043,-7.673537014061207,0.2328979800767213,-0.0813048538794206,-0.053086566710887864,-0.9676007651299098
125.0,-0.04986921765619643,-0.062489444007343305,-0.002333908289455103,1.46182474429583,1.3127940194476393,9.599700800903786,0.19986184031350238,-0.6137069665516754,-0.11496865480441405,152.98260845992453,8.575902056981178,-7.781103676188747,0.23210122270555178,-0.08320190214820757,-0.05739804367409067,-0.9673945796971342
126.0,-0.07195870402872764,-0.05380225544190928,0.00035487905747543826,1.532859166011015,1.3354303496136701,9.586265034598233,0.17240153876414693,-0.0533412389800077,-0.09577110946357603,153.12180432831002,8.993985278097199,-7.920172953357946,0.23087821361025035,-0.0851188314287458,-0.0607735629479816,-0.9673280827727413
127.0,-0.05891070023603463,-0.058718332022029904,-0.00022619984264358718,1.4705908733280877,1.3383040912667188,9.596113493312357,0.13362632769472854,0.2638018784421715,0.45677738985051136,152.8906840086546,8.625528619197482,-7.927885277340677,0.23289191495731706,-0.08456420379956725,-0.05743546270476002,-0.9670974090786784
128.0,-0.059027930763178596,-0.05702852084972465,0.0010078678206136905,1.4872067269866245,1.336490755310779,9.593681746656175,0.08150570416994492,-0.16348716561762391,0.29051067073170733,152.6283561172305,8.724961890243904,-7.919965824154209,0.23509844886172304,-0.0848220308634933,-0.05811659368705743,-0.9665065321764359
129.0,-0.07073170731707318,-0.050526357199055884,0.0007136113296616845,1.565478363493312,1.3325074744295828,9.581623131392602,0.117264948859166,-0.21553894571203777,0.18293174665617623,152.52723249409914,9.188463808025176,-7.906731904012588,0.23590471083005501,-0.08567430908497245,-0.061988658871754525,-0.9659914659228954
130.0,-0.061780487804878055,-0.048237214791502774,-0.00105861526357199,1.5703890637293467,1.3294630212431153,9.581995672698657,0.20895702202989772,0.010700236034618421,0.15347905192761604,152.40525177025964,9.212799960660895,-7.88680910700236,0.2369091363119591,-0.08563685009323367,-0.06215462080330449,-0.9657430391109364
131.0,-0.04282258064516129,-0.048411290322580666,-0.002379032258064516,1.47275,1.3316370967741937,9.596685483870967,0.16184475806451615,0.5725806451612903,0.1108366935483871,152.15685483870965,8.630342741935483,-7.890272177419354,0.23908396168548385,-0.08466230778225806,-0.057022980370967744,-0.9655959102258063
132.0,-0.032376671911880414,-0.04242977970102284,-0.006968135326514555,1.4260483870967744,1.3216056254917383,9.605275373721483,-0.006323760818253338,-0.44149783634933126,0.11357444925255702,152.0214730035405,8.35900127852085,-7.82441974822974,0.24025814612588509,-0.08366601801239182,-0.05472303889929189,-0.9655280202102674
133.0,-0.042603658536585376,-0.0512834382376082,-0.007129228953579859,1.5011370967741942,1.310274586939417,9.59488768686074,0.022039732494099133,-0.23405536978756886,0.08823883752950432,151.99417904209284,8.802333300550746,-7.757371164437451,0.24042163845003933,-0.08403726912313136,-0.05861636771577497,-0.9652291765123917
134.0,-0.05018489378442173,-0.06001671911880411,-0.005375098347757669,1.524508064516129,1.3141050354051926,9.590955940204562,0.061725511408339886,-0.26344905586152634,0.1090135719905586,151.91808246459482,8.943454956726987,-7.783675501573564,0.2410525774266326,-0.08460357627930765,-0.0596940928941778,-0.9649653615908731
135.0,-0.04126986624704957,-0.06113335955940206,-0.004965774980330448,1.518927419354839,1.3081734854445315,9.592792486231318,0.14220348151062157,0.0010879720692368033,0.22683541502753735,151.7887539339103,8.912352478363493,-7.7560766620771044,0.24213647475767114,-0.08431474709933123,-0.059391483237411474,-0.9647396126341465
136.0,-0.040215578284815104,-0.057784421715184914,-0.0020393391030684503,1.5058225806451615,1.3075302911093627,9.595069630212436,0.13052714398111723,0.7083816876475216,0.31077153815893,151.69034470889062,8.833797206923682,-7.748224822974036,0.24297971120141623,-0.08413075809402043,-0.05865155825177025,-0.9645872622202991
137.0,-0.04180645161290322,-0.05861290322580647,-0.005870967741935484,1.4991693548387097,1.3096290322580648,9.595379032258066,0.055040322580645167,-0.9886592741935485,-0.09450604838709675,151.45871975806452,8.800907258064516,-7.763407258064516,0.2449223184032258,-0.08428295495967741,-0.05819938393548388,-0.9640913438064516
138.0,-0.06301612903225806,-0.06679032258064517,-0.003983870967741935,1.5522016129032261,1.3133306451612907,9.586580645161288,0.11784274193548387,-0.07585685483870974,0.2202620967741935,151.4772681451613,9.108820564516128,-7.801108870967742,0.24471888420161286,-0.08518898283064515,-0.06074455014516128,-0.9639127672258063
139.0,-0.06430173092053501,-0.06452498033044848,-0.0030684500393391035,1.5333389063729346,1.3143017309205351,9.589353855232096,0.06119197482297404,-0.08356977773406771,0.1678599527930763,151.23340258654605,8.996123869000787,-7.795789486624705,0.246800831122738,-0.08506864367151848,-0.05962155557140046,-0.9634634981282453
140.0,-0.07316699449252556,-0.060427812745869405,-0.005977773406766326,1.5969396144767898,1.3049089299763965,9.580447088906372,0.10438630999213216,-0.771043961447679,-0.03199744295830055,151.2025127852085,9.374800845790716,-7.752204219118804,0.24695949350491736,-0.08548429329543665,-0.06290507347521637,-0.9631810743141226
141.0,-0.060087529504327296,-0.05514535798583793,-0.009839693154996066,1.6482560975609752,1.3052972069236821,9.571421125098347,0.14543912273800158,-0.6073969807238395,0.05280168174665617,151.2374963119591,9.676362116443745,-7.764887391817466,0.24664268645810383,-0.0861667898412667,-0.0654862067940598,-0.9630293031127063
142.0,-0.05787037765538945,-0.06107671125098348,-0.01121420141620771,1.6739183713611325,1.3114913453973247,9.566545239968526,0.16505827104642012,0.38170977576711246,0.22687967151848937,151.19538626081825,9.829360493705742,-7.809409421715185,0.246950070402439,-0.08685770989240754,-0.06665401494944925,-0.9628129626087727
143.0,-0.06810857592446892,-0.0635302911093627,-0.007506294256490952,1.6869551534225018,1.3148988985051142,9.56349842643588,0.09500393391030684,-0.3189737411487018,0.13488640833988985,151.095903815893,9.906439319433517,-7.822698662470495,0.24778191662863883,-0.08721968420023604,-0.06720144570456335,-0.9625272730503542
144.0,-0.059309992132179384,-0.06210346184107003,-0.008627261998426436,1.6298583792289536,1.3184053894571206,9.57306707317073,0.25194236821400473,0.5210796125098347,0.39759662667191187,150.94933369394178,9.560418715578283,-7.843120574350905,0.24907019772423286,-0.08673348534952793,-0.06415107557848151,-0.9624433181616838
145.0,-0.029615460267505903,-0.06702478363493314,-0.002284225019669552,1.365402832415421,1.3263916207710467,9.609766325727769,0.11883113690007868,1.4090811860739576,0.2219204858379229,150.56408954563335,8.000984706923681,-7.851503491345397,0.25257324966207706,-0.0837538528066483,-0.050577332919354845,-0.9624962073434302
146.0,-0.019214988198269084,-0.06186723052714399,-0.002992918961447679,1.3304917387883557,1.3367159716758459,9.615407356412275,0.18789339103068448,-0.29971847954366637,0.05297133162863886,150.40812844217152,7.7958300550747435,-7.910807189221086,0.2539272069761998,-0.08390863919767899,-0.048601413612903224,-0.9622817243491344
147.0,-0.021490558615263576,-0.06379248623131395,-0.006198072383949647,1.4049071597167586,1.3453015342250199,9.60482061369001,0.15558984067663256,-0.1368804091266719,0.07207538355625491,150.47735051140836,8.231080350118017,-7.970700973642801,0.25324142830664825,-0.0853467964254524,-0.05221587429838709,-0.962176131283438
148.0,-0.029995279307631795,-0.07018253343823762,-0.0020062942564909514,1.4530180959874115,1.3559047993705744,9.596200629425649,0.025703186467348545,-0.3916256884343037,0.0012342643587726146,150.51589299763964,8.516901062155783,-8.036383752950433,0.25286432993154995,-0.08649058568450041,-0.054545102129032255,-0.9620595190086545
149.0,-0.041401258851298195,-0.08159559402045634,-0.004591660110149487,1.5566546026750592,1.3661829268292682,9.577601494885918,0.060491247049567265,-1.0871926632572777,-0.24201662077104644,150.6819876081825,9.133381687647521,-8.111558320220299,0.2513642389154209,-0.08829040515617623,-0.05973323251140834,-0.9619698008394963
150.0,-0.03640322580645161,-0.07396774193548386,-0.004806451612903223,1.5362903225806455,1.3679112903225803,9.580217741935488,0.13765120967741934,0.2002520161290321,-0.041784274193548396,150.67147177419355,9.013558467741936,-8.121824596774193,0.25144082383064514,-0.08809327121774194,-0.05868515519354838,-0.9620236296290323
151.0,-0.04233615263571991,-0.07295692368214005,-0.0053599527930763185,1.54767781274587,1.3728715578284811,9.5787204956727,0.190602871754524,-0.5575174567269867,-0.24417289535798584,150.72847413453974,9.08025422895358,-8.14882474429583,0.2509763200867427,-0.08846415001711251,-0.05922445570790715,-0.9620980965232102
152.0,-0.038644571203776554,-0.06638571990558616,-0.007310385523210069,1.5674950826121166,1.3763717545239962,9.574614673485444,0.05945367820613691,0.23240312745869396,0.26654455153422507,150.84527930763178,9.194353609362707,-8.173930468135326,0.24995557543450042,-0.08883645146203777,-0.060233995501770256,-0.9622714250310779
153.0,-0.02293922108575925,-0.06551140833988986,-0.007558418568056648,1.473630605822187,1.3652665224232885,9.591133949645949,0.1660171616837136,1.0606572088906372,0.5028791306058222,150.46588562155782,8.639288699842645,-8.097549911487018,0.25325055139063735,-0.08719112133182534,-0.05541102456943352,-0.9618322127816679
154.0,-0.015134933123524786,-0.07411054287962233,-0.002630015735641227,1.3131782061369002,1.3536211644374505,9.615183910306841,0.08373942761605035,1.32768243509048,1.0353105330448467,149.89508998819827,7.691695761211644,-8.008830399291895,0.2582080159211252,-0.08468713511349332,-0.04715793350649095,-0.96114494845535
155.0,-0.0212690794649882,-0.07236978756884344,-0.0014964594807238395,1.3345326514555467,1.3464799370574352,9.61390243902439,0.10222757671125099,-0.7443745082612117,0.29419256490952006,149.3346921715185,7.822133162863887,-7.968553304484657,0.26286565412588514,-0.08489518666561764,-0.04793728557985838,-0.9598326040865459
156.0,-0.022778520849724624,-0.07116129032258066,-0.003879622344610543,1.3985047206923682,1.3688394964594806,9.600845790715972,1.0415347167584579,1.4453186467348544,-0.01522669158143189,149.35492968135327,8.191701907946499,-8.109773308418568,0.2626093063870968,-0.08686910513847362,-0.05075403915263572,-0.9595776212698661
157.0,0.02168548387096774,-0.030354838709677423,0.00014516129032257998,0.5420887096774194,1.673532258064516,9.581661290322582,0.5895665322580644,5.359072580645162,0.749546370967742,146.8016633064516,3.147631048387097,-9.89289314516129,0.2836654168387097,-0.08900185859677417,-0.0019434285645161288,-0.9526816089999999
158.0,-0.011991935483870972,-0.0549032258064516,0.010774193548387094,0.0625322580645161,1.6323387096774193,9.62400806451613,-0.04652217741935483,1.8197076612903227,0.3277721774193549,146.14596774193546,0.358366935483871,-9.618649193548386,0.2894933883870968,-0.08035627766935483,0.021427228403225806,-0.9522475212177419
159.0,-0.014415027537372147,-0.05204523996852872,0.014418568056648309,-0.05820220298977187,1.5515812352478364,9.656604051927616,-0.08470569433516914,1.4994762981904013,0.16164683320220302,145.8966475708104,-0.3433725904799371,-9.121262785208497,0.29186444940027545,-0.07489005974626278,0.0263214626007081,-0.9525157879677421
160.0,-0.02900666891461541,-0.04835710539133041,0.014344844704207414,-0.2439785976546402,1.4989970308343634,9.673212356224944,0.02017235444531866,0.326778279663557,0.18296675377468063,145.55624309224083,-1.4217426988497994,-8.80208924590686,0.2948031366600071,-0.06958324397758606,0.0348552572339178,-0.9520827816989248
161.0,-0.03268075381214641,-0.056726939792439396,0.021595809448877904,-0.2639449439886104,1.4768735154171813,9.683517468435053,0.19030291109362707,-0.305638077910157,0.10645313495185643,145.38265783644297,-1.537131430070061,-8.662360147146977,0.296359244963068,-0.06819525237185756,0.035624645020184705,-0.951888992172043
162.0,-0.04316295755123449,-0.07973178224869806,0.017157562474242258,-0.1813607489415908,1.4703252313513913,9.68792995766363,0.10404946892210858,-0.6380969943051965,0.01187502341613278,145.45971195815068,-1.0559685966243304,-8.619042116256416,0.2957610450791933,-0.06920179367127496,0.0314565231465007,-0.952209760898374
163.0,-0.030670188453036602,-0.08104331047918775,0.015732007043572742,-0.06486182608369863,1.4754247124498887,9.689376269154396,0.11336546026750588,-0.915671481023566,-0.03246974635644974,145.46962412423665,-0.37876554831216513,-8.64898678393466,0.2956625598016935,-0.07127748780337942,0.02566141356921809,-0.952256845376606
164.0,-0.03313210445468509,-0.08087256003896445,0.01906663294743547,0.01274375257577462,1.4746989809299007,9.689727473680266,0.10053599527930762,-0.7157232306770072,0.03388314413098048,145.40394561837323,0.07592013693754451,-8.64784606702634,0.29620830151611033,-0.07248340562080853,0.021726953394365145,-0.9520995059786257
165.0,-0.03858064516129031,-0.07957376081825338,0.01989122738001574,0.11304622344610546,1.471364083398898,9.689905979543667,0.16841315892997638,-0.6545830055074744,-0.053776553894571213,145.47570072777341,0.6625184402045633,-8.630120230133752,0.2956193548463808,-0.07388128673052716,0.016643707668764753,-0.9522789176559796
166.0,-0.039096774193548386,-0.08389575137686861,0.016852871754523997,0.16886585365853662,1.4583151062155775,9.690332022029896,-0.028041404405979534,-0.11277537372147917,0.2582931746656176,145.37187254130606,0.9882400668764753,-8.554349429583006,0.2965304496530291,-0.07410411279268293,0.013765672592446893,-0.9520351748804093
167.0,-0.03964516129032257,-0.0707983870967742,0.016741935483870967,0.16649193548387103,1.4321370967741924,9.695354838709672,0.05015120967741936,-0.1280241935483871,0.29662298387096775,145.05040322580646,0.9683971774193549,-8.396219758064516,0.2992308091451612,-0.07271925357258065,0.013674483532258065,-0.9513004421451614
168.0,-0.03525806451612902,-0.0636209677419355,0.013169354838709676,0.15036290322580648,1.4187177419354833,9.697838709677413,0.04768145161290323,0.5699596774193548,0.20035282258064516,144.86819556451613,0.8765625,-8.315070564516128,0.30074142936290316,-0.07176277329032257,0.014399374677419353,-0.9508840734919356
169.0,-0.01838792390405293,-0.05474255583126553,0.012710504549214227,0.13802398676592226,1.4045961538461536,9.699080645161283,0.13171138337468982,0.005425454921422657,0.14242659222497933,144.74976736972707,0.803428711745244,-8.226531482630271,0.3017278866093879,-0.07084941597725393,0.014850417703060382,-0.9506345563668321
170.0,-0.03139537815973692,-0.05772247775827636,0.016976613407573286,0.1296905929108919,1.4032275615808263,9.698694531864668,0.08491733114446529,-0.9033737693921604,-0.07301123181827351,144.71352820689341,0.7570134559906393,-8.22305318722387,0.30204486374716044,-0.07066818715090076,0.01524872470322177,-0.9505385468928967
171.0,-0.02194231273578244,-0.06754920413968409,0.01447848453670641,0.2677694072908472,1.3999535243801564,9.69433516915814,0.08215379067562387,-0.670559661784583,0.06375415456232725,144.77299975791323,1.5596404128588433,-8.208008060733523,0.30151006109814604,-0.07266244965630232,0.008437306172537271,-0.9506230152249845
172.0,-0.021414704754987995,-0.08185524723113237,0.014198919687708044,0.35446938106477854,1.395972729932014,9.69200629425649,0.06889947598297322,-0.33835442766648505,0.1613377627650346,144.70257850798887,2.0685298838487762,-8.182204635205471,0.3020541934200407,-0.07380789341282856,0.004182203981429926,-0.9504007222052343
173.0,-0.031490003833040806,-0.08293106578708467,0.013991769049204138,0.45093207448203526,1.396476628537997,9.688450039339104,0.12260006253908692,-1.0160755714256895,0.02557999959652202,144.62149049809358,2.636367739918094,-8.18308267263814,0.30269204873755773,-0.07532717746821603,-0.0004859540535415278,-0.9500791030181361
174.0,-0.030809861001835828,-0.0749494643829813,0.00968859569488995,0.5939401843894371,1.3953287336843587,9.680251770259641,0.1884939427868224,-0.6509175341443241,0.05390629728257581,144.68729611753312,3.4709639593294193,-8.185834140289293,0.3021472528077226,-0.07751250110272549,-0.007493106086162725,-0.9500411449298554
175.0,-0.02423734592184632,-0.06693893360769837,0.006308499263652685,0.6833626964433417,1.3875369081482376,9.67596380802518,0.11853395015029555,-0.45651698894470333,0.10491341614718876,144.70325663469103,3.997190280215457,-8.150470177933789,0.3020015862079526,-0.07856421984089855,-0.011983869014757207,-0.9499714755231492
176.0,-0.035516522423288746,-0.0492486231313926,0.011734067663257278,0.7726532258064518,1.385539339103068,9.67007867820614,0.12909741345397324,-0.38613173682140045,-0.17756810582218727,144.71701293273014,4.519128638867033,-8.146978265145554,0.30179724361762394,-0.07985700437785209,-0.016375534682730133,-0.9498603720444531
177.0,-0.04050826121164437,-0.05431785995279309,0.009254130605822187,0.7501935483870968,1.375987411487018,9.673974822974035,-0.06702891424075531,0.766787962234461,0.4215234067663257,144.69905586152635,4.388193351691582,-8.093499213217939,0.30196996074429583,-0.07901800066876474,-0.015415535861526358,-0.9498869193690009
178.0,-0.03326671911880409,-0.07459166011014949,0.008019669551534225,0.6798969315499606,1.3085531077891424,9.556900865460268,-0.02338955546813533,-0.0028373328088119876,0.4003368410700236,144.30524193548388,3.973482985837923,-7.934879032258064,0.30528156235011805,-0.07669555497010228,-0.012112955798583794,-0.9490625653359559
179.0,-0.04007946498819827,-0.0751243115656963,0.0042970102281667975,0.6691420141620772,1.3154724626278518,9.623222265932336,0.02434967545239968,-0.03129179779701026,0.20434820023603462,143.98788847364278,3.910448219905586,-7.8471847954366645,0.3079120336416208,-0.07588151732769473,-0.011593317832415424,-0.9482918319952793
180.0,-0.037031667977970105,-0.07480409126671911,0.0048017309205350125,0.677917781274587,1.3175346184107,9.655474036191976,0.11623229740361919,-0.31630114083398897,0.13617107592446892,143.82186762391817,3.9640194728560187,-7.8015157848151055,0.3092915231514556,-0.07562915547029898,-0.012071934504917389,-0.9478666404089301
181.0,-0.035068253343823755,-0.07686978756884343,0.003287962234461055,0.7158701809598741,1.3125737608182528,9.66914024390244,0.08896292289535798,-0.1618804091266719,0.38242525570416996,143.5563471184107,4.18513473642801,-7.74518833595594,0.31147921355959873,-0.07578806796498821,-0.013884866619394177,-0.9471121105955942
182.0,-0.035695121951219516,-0.07472108575924469,-0.00023131392604248632,0.7456540125885129,1.3028103855232098,9.675983084185685,-0.029327301337529504,-0.28638252360346184,0.33642432140047207,143.33054681353264,4.359157405586153,-7.667325186860739,0.31335121603383165,-0.07566268933005506,-0.015393635615066873,-0.9464860148025183
183.0,-0.036051140833988984,-0.07498662470495672,0.00493273013375295,0.729987804878049,1.3068080251770255,9.68602163650669,0.18241542092840282,0.06795584185680567,0.11592004327301339,143.1046198859166,4.26952448859166,-7.682068745082612,0.3152379262745869,-0.07555021387057434,-0.014451211317073168,-0.945882023751377
184.0,-0.03224586939417781,-0.08208418568056648,0.003228756884343037,0.7486673878835564,1.3052002360346182,9.683381392604252,0.07946990558615263,-0.09719831825334381,0.18762662273800157,143.03288626081826,4.380597216758458,-7.6713107297403615,0.31580617389496457,-0.07578453164732495,-0.015360698650668763,-0.9456619757891424
185.0,-0.02629228953579858,-0.07481628638867034,0.00023937844217151853,0.7618054681353266,1.2990275373721478,9.683509244689224,0.05500713021243116,-0.2600154897718332,0.09832440007867821,142.88758728363493,4.456755261605036,-7.632152340676632,0.3170182691894178,-0.07572677743253343,-0.015985142180173093,-0.9452516115719907
186.0,-0.03854130605822187,-0.07706136900078678,0.005889850511408341,0.8218583792289538,1.292255704169945,9.679653815893001,0.09663158929976397,-0.2805369787568843,0.14359264358772622,142.8190204563336,4.811064122738002,-7.5926386703383155,0.31756426621164435,-0.07637571060739576,-0.018984190880409126,-0.9449563295924472
187.0,-0.03390637293469709,-0.06923721479150277,0.006870967741935484,0.790063729346971,1.2823961447678998,9.68339653815893,0.12010474036191975,-0.149301730920535,0.15062696695515343,142.611865656963,4.622905192761605,-7.538195810385522,0.31929639700904794,-0.07540305449016524,-0.017453207437844214,-0.9444769593666403
188.0,-0.024370967741935486,-0.07055645161290325,0.009596774193548386,0.8240806451612904,1.2775080645161296,9.681048387096777,0.05710685483870968,-0.2881048387096774,0.08079637096774193,142.5444556451613,4.8217741935483875,-7.50297379032258,0.3198145715241935,-0.07572026327419355,-0.01914623689516129,-0.9442479781774193
189.0,-0.016482009925558313,-0.06838771712158812,0.005832919768403638,0.83273676592225,1.263805417700579,9.682625516956165,0.08595300868486352,0.10821960297766753,0.2092108664185277,142.4201225186104,4.86895032051282,-7.423571908602151,0.32087002711931345,-0.07521067097808107,-0.019683901416666663,-0.9439248953992969
190.0,-0.030745037220843676,-0.059423697270471476,0.0008922663358147224,0.8915256410256411,1.258390612076096,9.67712324234905,0.1803000930521092,-1.530113988833747,-0.8342806555004136,142.5177729528536,5.223714071546732,-7.398101478494624,0.3200444328056245,-0.07589635593258892,-0.022758860583333332,-0.9440413744617454
191.0,-0.013787841191067,-0.054756203473945414,-0.0024449958643507044,0.959343465674111,1.2582557899090157,9.670884201819685,0.08473169975186105,0.8275589330024814,0.45299576095947053,142.7222937344913,5.611983043837882,-7.400537634408602,0.3183341717092638,-0.07692020788564932,-0.02606623640053763,-0.9444471200252276
192.0,-0.044353598014888335,-0.05928535980148884,0.00317266335814723,0.77117576509512,1.27181741108354,9.685522746071129,0.12890818858560796,0.9602008374689827,0.3287156224152191,142.34698356079403,4.509418941273779,-7.472244623655914,0.32149800922559973,-0.07453456427750205,-0.016485221865591395,-0.9437486164964846
193.0,-0.036120347394540946,-0.06525558312655087,0.005388751033912325,0.7020153019023987,1.2717514474772535,9.692971050454915,-0.023549937965260545,0.07770626550868492,0.25536083540115795,142.1631591191067,4.10158447063689,-7.4703965053763435,0.3230606332700579,-0.07342226896939619,-0.013031705166666666,-0.9433851642522741
194.0,-0.04539516129032259,-0.05593548387096774,0.0025322580645161298,0.7169596774193547,1.2585241935483868,9.693258064516124,0.25498991935483867,-0.5971270161290323,-0.28256048387096777,141.94420362903224,4.191885080645161,-7.3931955645161285,0.32486247475,-0.07310407051612904,-0.013877474798387099,-0.9427964240806449
195.0,-0.04404838709677421,-0.05153225806451614,-0.003443548387096773,0.7521451612903225,1.2645161290322582,9.690112903225803,0.03931451612903222,0.17696572580645153,0.6211189516129032,141.89193548387095,4.394405241935484,-7.431602822580644,0.325289719798387,-0.07398130376612902,-0.015396954822580645,-0.9425692646774191
196.0,-0.018951612903225813,-0.05913709677419356,-0.0013790322580645152,0.7426774193548387,1.259693548387097,9.690459677419351,0.046370967741935464,0.09208669354838706,0.3639112903225806,141.57706653225807,4.340372983870967,-7.41164314516129,0.3278656007580645,-0.07368917116935483,-0.014822879701612904,-0.941716445362903
197.0,-0.02183870967741936,-0.057056451612903236,0.0027822580645161295,0.7164274193548388,1.266282258064516,9.691362903225805,0.01799395161290322,-0.012953629032258086,0.3052923387096774,141.40569556451612,4.185685483870968,-7.445463709677419,0.32930765448387095,-0.07356877449999999,-0.013328946032258066,-0.9412492313225806
198.0,-0.03073387096774194,-0.04647580645161292,0.00010483870967742262,0.7006693548387095,1.2650161290322577,9.691685483870966,0.30045362903225803,0.19097782258064513,-0.1340725806451613,141.2779233870968,4.097127016129032,-7.437752016129032,0.33035170045967743,-0.07325405005645161,-0.012511074709677421,-0.9409231368467743
199.0,-0.01627045633359559,-0.049541109362706545,-0.0012023996852871738,0.7221736821400471,1.2694138473642798,9.690790322580643,0.0214570220298977,-0.24837234461054286,0.09195638276947285,141.31815376671912,4.224659470889064,-7.4560889555468135,0.33000737536349334,-0.07381307785503538,-0.013532047310778915,-0.9409858408217939
200.0,-0.005053894571203777,-0.052962037765538955,-0.004354445318646733,0.7508892604248621,1.2564889850511407,9.690577498033043,0.13923460857592446,-0.24370820220298975,0.2591045436664044,141.15379499409914,4.388612559008655,-7.384159864280095,0.33133497644099136,-0.07371046592604248,-0.015019730038552318,-0.940504651859953
201.0,-0.014582808811959091,-0.05587667191188042,-0.0028147128245476,0.7945035405192762,1.2694030291109364,9.68563099921322,0.15061098544453186,-0.6852797993705744,0.09634761014948857,141.00416871557826,4.645957907159716,-7.453260228166798,0.332503248697679,-0.07504588476199842,-0.016843776124704956,-0.9399510567964202
202.0,-0.021706726986624705,-0.0714343036978757,-0.0006170338316286386,0.9217840283241545,1.265778127458694,9.673194531864677,-0.00042535405192761777,-0.5760068351691581,0.23776553894571203,140.90034544649882,5.39455153422502,-7.439029307631786,0.3332408342077105,-0.07706392905841855,-0.02300385157041699,-0.9393810159909519
203.0,-0.03073642800944139,-0.08544295830055075,0.002308418568056648,0.982642014162077,1.2628245476003146,9.668141620771053,0.06576514555468135,-0.3607100708103856,0.12291502753737214,140.77797010228167,5.7529209284028315,-7.4117525570417,0.33421227461998426,-0.07796582002517702,-0.025942178978756877,-0.9388933488261212
204.0,-0.04176475216365067,-0.08974665617623917,0.002870967741935484,1.0352014162077106,1.265719905586153,9.662941778127461,0.12132179386309991,-0.4456087726199842,0.11817466561762391,140.68865558615263,6.0635474036191965,-7.450722856018882,0.33492251058693945,-0.0791076855350118,-0.02833914162785208,-0.9384829928072385
205.0,-0.04598937844217152,-0.09300078678206136,0.0028477576711250984,1.0697942564909522,1.2597568843430373,9.659047600314718,0.09140440597954366,-0.021904504327301344,0.2525177025963808,140.54486378835563,6.265565991345397,-7.421860247836349,0.33606842975059015,-0.07947136855900866,-0.029983183946105423,-0.93799133838631
206.0,-0.04578060380479735,-0.09874937965260544,0.003825682382133995,1.087184243176179,1.2551650124069484,9.658126757650958,0.022466914805624474,-0.06783886476426797,0.19173387096774192,140.4627184139785,6.364982681968568,-7.394464691894127,0.3367675205322581,-0.07957328954983456,-0.030826369340157152,-0.9377094167580644
207.0,-0.04629755996691481,-0.0962456575682382,0.0045942928039702235,1.0811767990074441,1.2432196029776676,9.659551282051288,0.10876369933829612,0.046801333746898266,0.14627016129032258,140.2706989247312,6.327224203887511,-7.325836176592224,0.33833659645161296,-0.07892477475475601,-0.030604170424110833,-0.9372060847661289
208.0,-0.04108829611248967,-0.0873244416873449,0.004797146401985111,1.0391650124069476,1.2268356079404472,9.66706596360629,0.05768326095947064,0.11823433622828784,0.4192540322580645,139.9785450268817,6.083042545492143,-7.225241677005789,0.34076686827419356,-0.07746452474028122,-0.028675921433829608,-0.9365024888145159
209.0,-0.050298180314309354,-0.07068238213399504,0.0028622828784119103,0.9952437965260545,1.2307605459057074,9.671037014061213,0.2536148159636063,0.1121161600496278,0.031098790322580644,139.75663642473117,5.821990022746071,-7.250700475599669,0.34261450557258066,-0.07694206689433418,-0.026322804571753518,-0.9359414731451612
210.0,-0.04849586435070306,-0.05793796526054591,0.002035980148883374,0.9913275434243174,1.235420595533499,9.670740281224155,0.022497932175351523,-0.1646324441687345,0.11008064516129032,139.7425067204301,5.794739971050454,-7.267436931348222,0.3426797220161291,-0.07705780369313482,-0.02607324224152192,-0.9359208561774195
211.0,-0.03655645161290323,-0.06098387096774194,0.0014596774193548396,1.0017258064516126,1.214556451612903,9.673790322580649,0.04979838709677419,0.0022681451612903136,0.3546370967741935,139.60035282258065,5.8568044354838715,-7.147883064516129,0.34392065236290326,-0.07631747327419353,-0.026801275354838706,-0.9355032650887098
212.0,-0.043209677419354844,-0.05453225806451614,0.0030967741935483887,1.0194112903225805,1.1982419354838707,9.673330645161293,0.09692540322580645,-0.061643145161290325,0.11748991935483868,139.4259576612903,5.9609375,-7.056804435483871,0.34533214000000007,-0.07593398496774192,-0.027810373758064513,-0.9349839738709678
213.0,-0.039151652242328874,-0.053057238394964616,-0.0005464201416207697,1.0096079858379228,1.18432474429583,9.676254523996857,0.13876622738001573,-0.05024218135326515,0.21551804681353262,139.23209579071596,5.900351593233674,-6.9743324645948075,0.34693671728933917,-0.07511306494964594,-0.027458327427812748,-0.934466313383163
214.0,-0.024159126671911873,-0.04540145554681355,-0.0062059402045633386,0.993440794649882,1.1733324154209284,9.679223052714402,0.07250442564909519,0.2402119394177812,0.42484387293469705,139.0156077891424,5.813685090479938,-6.9015661880409125,0.3487401726225414,-0.07430433209382376,-0.02678384609992132,-0.9338784115889063
215.0,-0.030164240755310774,-0.040269276160503555,-0.0050586152635719904,0.994805074744296,1.177625885129819,9.678482494099141,0.230607051534225,-0.5522226593233674,-0.21895407159716762,138.8819974429583,5.8223667387883555,-6.930823416601101,0.3498278254685288,-0.07461980283320219,-0.026674526791896143,-0.9334515291654208
216.0,-0.03467486231313926,-0.04114673485444534,-0.006932533438237608,1.0153581825334386,1.188240361919748,9.674527537372153,0.07460292092840283,0.038253589693154955,0.09964594807238396,138.9726519472856,5.942080546813532,-6.994620377655389,0.34904610575039346,-0.07544515909402044,-0.027542162339496457,-0.9336517247722266
217.0,-0.05859952793076319,-0.0495814319433517,-0.00031707317073170586,1.023191188040913,1.1888379228953583,9.673126671911886,0.14463512981904011,-0.33382179386309996,0.015347167584579081,138.81732395751376,5.9892358379228945,-6.997713414634147,0.3503005126050354,-0.07566673279701022,-0.027814531984264357,-0.9331546862651454
218.0,-0.05466561762391818,-0.046730133752950445,-0.003494492525570418,1.0601911880409127,1.1953788355625496,9.668018882769477,0.18357346577498032,0.17192171518489374,0.09763719512195122,138.72910356018883,6.2064835759244685,-7.039818548387097,0.35095923876514556,-0.07665635952989772,-0.029375668336742725,-0.9327789698988983
219.0,-0.05976396538158931,-0.048805664830841866,-0.005590676632572778,0.9748320220298977,1.2003998819826913,9.677250983477578,0.04032626868607395,0.28533634933123525,0.14765809402045632,138.64710488788353,5.7009502852084974,-7.066501524390244,0.3517230750356018,-0.07540004995771046,-0.025123598047206923,-0.9327122447094804
220.0,-0.05824685287175453,-0.05228029110936273,3.461841070023569e-05,0.9790462234461057,1.1954266325727774,9.677532848151065,0.11411167387883556,-0.10519153225806455,0.17139678402832415,138.51554017505902,5.728910552714398,-7.035303156963021,0.3528022614940991,-0.07534604032907159,-0.025332194703579856,-0.9323086106945317
221.0,-0.07365971675845791,-0.05409579071597169,0.00015440597954366592,0.9702448859166011,1.195797993705744,9.679560778914244,0.10909716758457907,0.2560483870967742,0.20628810975609754,138.40089004720693,5.679651848937844,-7.032848151062156,0.35374699814221083,-0.07518667896695516,-0.024832693009047998,-0.9319808201900079
222.0,-0.06803147128245475,-0.05940676632572779,-0.0047977970102281685,0.8737797010228165,1.2015562549173882,9.68804248623131,0.14870180959874113,0.3786290322580645,0.15105232100708105,138.1491345397325,5.116640440597954,-7.054327301337529,0.35584226099449257,-0.07366391046734855,-0.02001091639968529,-0.9314035339417781
223.0,-0.06933438237608182,-0.0575769533377716,0.0018098811757348335,0.8694656539369363,1.2010270733724708,9.687200246121566,0.10552525267808509,0.1688165738667312,0.23136007383647036,138.03672418749622,5.090241632875386,-7.058192368214004,0.35678305309584624,-0.07357188682791663,-0.0197239515780629,-0.9310630950774675
224.0,-0.06616443745082612,-0.050554802396659215,0.00025663216929935916,0.8087296798402226,1.201220853759406,9.692143002683125,0.3583930354657145,-0.10676008442776735,0.03889994250438783,137.76314966259156,4.7336387157295885,-7.059170928402832,0.359066173104178,-0.07252174398358853,-0.016641397342139243,-0.9303217149990013
225.0,-0.05191935483870966,-0.04774317617866006,-0.0011195202646815555,0.9141767990074441,1.2225742349048798,9.679784325889162,0.10268687965260549,-0.6933584057071961,-0.09527760545905706,138.06873061414393,5.354575062034739,-7.190826612903225,0.35645122318072786,-0.07541882426323407,-0.021523414236765924,-0.9309825959212157
226.0,-0.05629032258064517,-0.05355707196029778,-0.0004307278742762616,0.9886408188585607,1.2167669561621175,9.674065550041357,0.06991702853598017,-0.5606660980148883,-0.0048464640198511155,138.1753179280397,5.7870657568238215,-7.161038306451612,0.35550643114681557,-0.07650387438564929,-0.025241658356286185,-0.9311700968114143
227.0,-0.047903225806451614,-0.0374801488833747,-0.00355004135649297,1.0817841191066997,1.2264681555004135,9.662714226633579,0.09803815136476426,-0.3829792183622829,0.05901830024813895,138.26391904466502,6.330629652605459,-7.229334677419355,0.35471864521050467,-0.07869356063234076,-0.02955919285153019,-0.9311615891476426
228.0,-0.06230645161290321,-0.045201612903225816,-0.0020322580645161297,1.0219193548387098,1.212709677419355,9.670104838709678,0.037449596774193544,0.4515625,0.2987399193548387,138.0578125,5.977318548387096,-7.143497983870968,0.35644339181451623,-0.07695903137903226,-0.02679103826612903,-0.930730660137097
229.0,-0.07065322580645161,-0.0451209677419355,-0.0016370967741935485,1.0234677419354838,1.2033629032258064,9.671556451612906,0.09954637096774192,-0.3111895161290323,0.1452116935483871,137.90514112903224,5.9861895161290315,-7.0885080645161285,0.3576833902983872,-0.07660448618548388,-0.02692920358064516,-0.9302943088709679
230.0,-0.06464516129032259,-0.038991935483870976,0.0008951612903225806,1.0136290322580646,1.1936451612903225,9.674169354838712,0.1141633064516129,0.01144153225806449,0.1591733870967742,137.77313508064515,5.930695564516128,-7.031149193548386,0.35875637866935484,-0.07600388072580644,-0.026545617112903225,-0.9299434549596775
231.0,-0.0559758064516129,-0.03815322580645163,0.00018548387096774255,1.0130725806451615,1.1954919354838713,9.67378225806452,0.1282258064516129,-0.317741935483871,0.0563508064516129,137.6787802419355,5.929838709677419,-7.039314516129032,0.35951114743548385,-0.07609700850806451,-0.026418427854838708,-0.9296513219112903
232.0,-0.052138080251770254,-0.04715971675845791,0.0003274980330448459,0.9762165617623917,1.1928973249409909,9.67909303697876,0.08171592250196695,0.5404049468922109,0.191433910306845,137.48773726396539,5.714357543273014,-7.0212640145554674,0.36112404347344607,-0.07530905584421715,-0.024585171103068452,-0.9291380333931943
233.0,-0.04948033044846577,-0.05420889063729348,0.003780684500393391,0.8926365066876476,1.1889809205350113,9.687324744295829,0.03312106608969315,0.5356006589299764,0.3298903422501967,137.26476076907946,5.220762440991345,-6.991957612116444,0.36300998495849723,-0.07357347092210857,-0.020518327882179384,-0.9286332157006296
234.0,-0.03845436664044059,-0.059108772619984276,-0.0012366247049567266,0.8601984657749804,1.1857712431156568,9.690560975609754,0.05543740165224233,0.11717643587726204,0.34374631195908734,137.04168100904798,5.0298313335955935,-6.968673780487805,0.36488750363257283,-0.07285611480389456,-0.01889648661742722,-0.927992125388867
235.0,-0.03958202202989772,-0.06230841856805666,-0.0033804091266719117,0.8497726199842642,1.1836961054287962,9.69049822974036,0.16852011211644374,0.08384023406766325,0.24347093823760815,136.7044846577498,4.972526553894571,-6.957976003147127,0.3676004200017703,-0.07262067434952793,-0.018242868224036188,-0.926954122577498
236.0,-0.035795043273013374,-0.07105743509047995,-0.004004720692368213,0.8210476003147127,1.1816907946498818,9.693874114870178,0.08927517702596381,-0.055836939417781284,0.261125590086546,136.44004474822975,4.7993681156569625,-6.945923485444531,0.3697750445613691,-0.07207597936428009,-0.016725184180566482,-0.9261632674177811
237.0,-0.040993509047993704,-0.06780094413847365,-0.0008450039339103067,0.8267440991345394,1.1877533438237606,9.692172305271438,0.15047452793076316,0.26725757277734064,0.2084640538945712,136.37842127261996,4.832109313532651,-6.983248918174665,0.370264843463218,-0.07246054876160504,-0.016830559872344608,-0.925936938645948
238.0,-0.024242722265932333,-0.0593682140047207,0.005658143194335169,0.8261825334382376,1.1982395751376864,9.690747442958298,0.18194089299763966,0.12309451219512194,-0.17432140047206926,136.31070761211646,4.831301632572776,-7.046211152635719,0.37079447560660894,-0.07293455318725416,-0.01655958523052714,-0.9256933392907157
239.0,-0.04186565696302124,-0.062146734854445315,0.0035568450039339104,0.8165767112509834,1.1913385129819036,9.693343823760815,0.0817995180959874,-0.5185815794649882,0.07248229740361918,136.29903988001575,4.776857543273014,-7.008205891030684,0.3709248806750589,-0.07242111328914241,-0.016211553799370573,-0.9256884322653423
240.0,-0.029205350118017302,-0.057350118017309215,0.0019889850511408333,0.845839693154996,1.1853892604248624,9.690916601101492,0.07735174075531077,-0.07454268292682925,0.3533561172305271,136.2019509736428,4.949106264752164,-6.968742623918175,0.3716849816679779,-0.07270714130251771,-0.01768480110837923,-0.9253335475049175
241.0,-0.03407848151062157,-0.053602478363493314,0.00042191188040912664,0.8248674272226592,1.1843680173092048,9.693837332808808,0.13522324940991345,0.008041158536585359,0.14169821990558615,135.9885510916601,4.82508236624705,-6.961185828088119,0.37342365788237597,-0.07225959319158144,-0.016576465332415417,-0.9246846212081039
242.0,-0.03564811172305271,-0.05544236821400472,-0.0008575924468922111,0.8328853265145555,1.181059008654602,9.69191463414634,0.10783339889850511,-0.2639481707317073,0.1553501180173092,135.8830104248623,4.870832513768686,-6.94316851888277,0.3742553411105427,-0.07229563681353265,-0.016964847779110934,-0.9243386975476002
243.0,-0.02632808811959087,-0.05799134539732496,0.000409913453973249,0.8628741148701808,1.1854972462627846,9.68954602675059,0.08929976396538158,-0.23998819826907947,0.17323957513768684,135.77668666404406,5.04625295043273,-6.970702202989772,0.3751029815633359,-0.07307962543902438,-0.018202493998426432,-0.9239109616931549
244.0,-0.03349449252557041,-0.06798072383949647,0.0001852871754523994,0.8712167584579072,1.1835590086546026,9.689552714398111,0.1542584579071597,0.09499409913453973,0.14439909520062943,135.68358330055077,5.092043666404406,-6.95594512195122,0.37585424012470486,-0.07316995843941779,-0.018583257487018095,-0.9235951727820614
245.0,-0.030661487018095977,-0.0646205743509048,-4.032258064516171e-05,0.9164769866247051,1.18707769472856,9.685154799370578,0.1185926435877262,-0.7623377261998427,0.0025398308418568064,135.6052702104642,5.360282258064515,-6.982329366640441,0.37643353276573566,-0.07426723953206138,-0.020644542260424864,-0.9232208171738789
246.0,-0.03831864673485444,-0.05562077104642016,-0.00232258064516129,0.9615328481510623,1.1969057828481513,9.679339496459484,0.14498180566483085,-0.20264063729346973,0.17561467348544452,135.56490829071595,5.6293346774193544,-7.041920731707316,0.37671614350786786,-0.07564749232651458,-0.02255226496892211,-0.9229509868127459
247.0,-0.037393194335169154,-0.058882966168371374,-0.0013870967741935482,0.9850123918174665,1.2030617623918176,9.67602458693942,0.1420977576711251,-0.1271267702596381,0.1447629819040126,135.49462652439024,5.762802419354839,-7.0809906077891425,0.3772293201652242,-0.0763879488084186,-0.02348139146026751,-0.9226614414870182
248.0,-0.03132966168371361,-0.06021164437450828,-0.00020967741935483863,1.0562037765538945,1.204780881195909,9.66795987411487,0.08274242722265933,-0.6924444335169159,0.07369197482297403,135.45877999606608,6.180443548387096,-7.093695908733281,0.3774106728568056,-0.07780192715420928,-0.026837938036585365,-0.9223696191628641
249.0,-0.02041935483870968,-0.06472580645161291,-0.003975806451612902,1.1134354838709677,1.202685483870968,9.661564516129033,0.07424395161290323,-0.2402721774193549,0.19455645161290322,135.38240927419355,6.521270161290323,-7.0905241935483865,0.377951149016129,-0.07887110562903227,-0.02953427207258064,-0.9219771352258064
250.0,-0.023235837922895353,-0.06259854445318647,-0.0046274586939417765,1.1934608575924468,1.1978493312352476,9.652512785208494,0.049948367427222654,-0.5694396636506688,0.02203850314712824,135.4074289437451,6.989151012981903,-7.078206136900079,0.377676334729937,-0.08024949942466561,-0.033402279089496445,-0.9218317045513376
251.0,-0.0258477576711251,-0.06202911093627067,-0.0045637293469708885,1.2151780094413844,1.1878601494885914,9.651897521636505,0.10446007081038551,-0.25404946892210856,0.10398800157356411,135.30318523800156,7.117786191974822,-7.014153471675846,0.3784994523528717,-0.08020776752281666,-0.034573660476199836,-0.9214616195861529
252.0,-0.032077104642014166,-0.0520790715971676,-0.0005963808025177028,1.2079236821400472,1.184377655389457,9.653412470495674,0.17178648701809596,0.2587111526357199,-0.035354789535798584,135.23569040125886,7.073157208890637,-6.990720889063729,0.37907428002321,-0.07991571340656961,-0.034240107564712824,-0.9212554356398506
253.0,-0.031119197482297405,-0.04491856805664833,-0.0037981904012588516,1.1741553894571202,1.1875759244689217,9.65708123524784,0.11613517899291895,0.026532995672698664,0.12816433910306846,135.2245992328875,6.87440622541306,-7.007406815499607,0.379201378027734,-0.07941026823151062,-0.03257696136703383,-0.9213123397433125
254.0,-0.04364830841856806,-0.04753186467348546,0.0008025177025963804,1.1509244689221085,1.1882395751376866,9.659891424075536,0.09967545239968528,0.306537667191188,0.1373180566483084,135.05075727773408,6.741915814319433,-7.008819335169158,0.38060356557435093,-0.07900714766011016,-0.031359414465774976,-0.9208169981821401
255.0,-0.04429818031430935,-0.057331265508684864,0.0036600496277915634,1.0493734491315134,1.1911900330851943,9.669722084367246,0.18339019851116628,1.1498979011579817,0.20423645574855254,134.85953784119107,6.144086021505377,-7.019919613316791,0.38223983458436717,-0.07717918491894127,-0.026345114555004136,-0.92042032651799
256.0,-0.05403382658516411,-0.06116720631846518,0.003539112146704593,0.9415515947467166,1.1955601030886243,9.68022217514979,0.0891245347394541,0.2889997717827674,0.17300114486876877,134.63921645206682,5.509758146472594,-7.039014807641873,0.3841095855030412,-0.07533655569845567,-0.021009819218690107,-0.9199370435391876
257.0,-0.04389801085355767,-0.06237245052351269,-0.0005487956182291353,0.9142634055558918,1.1907730688535174,9.684912228408884,0.1666419536403801,0.24813567955778812,0.05612709682462829,134.55476201733947,5.347845364542355,-7.006585737809921,0.3848284722075591,-0.0745750216864623,-0.01972471056341665,-0.9197461570164465
258.0,-0.05203585406201455,-0.05888618390526339,0.00274597026367286,0.8519165456232725,1.2001595906715894,9.688721933063002,0.1352996265306946,0.000520486594444064,0.17155830130726862,134.45538258538602,4.982358114446529,-7.052492233048881,0.385712777543606,-0.07377519650586555,-0.016554815967398977,-0.9195098092821068
259.0,-0.042167120579394375,-0.05301164033972848,-0.0006431439004216343,0.8573010147471201,1.206833827593859,9.688901289112145,0.1340560632653473,-0.1791752405737457,0.21236685226653754,134.36010056688656,5.013507686255522,-7.081689664911536,0.3864463682395449,-0.07418714191825534,-0.01664247308047368,-0.9191692579434727
260.0,-0.03894873812261696,-0.04465222215497591,0.0012565918215013418,0.8759135346688451,1.206866872440437,9.68718513587121,0.1192922996227481,-0.20091412979886625,0.16976386451209424,134.29065822388992,5.117976961407331,-7.070973037583974,0.38706089528850707,-0.0744989994314188,-0.017470396564223604,-0.9188705005399747
261.0,-0.04039883798341706,-0.046699045774576876,0.0021255421735358795,0.9578584195767512,1.1971226573059774,9.679310113175578,0.06771066594040631,-0.7972017541205187,-0.02549375617825657,134.30510979644538,5.603372823740644,-7.03540784058585,0.3868303245529867,-0.0757242037503278,-0.021572562658193628,-0.9187641839458331
262.0,-0.030589625428335106,-0.04457727756114855,-0.007960120524636651,1.1321179250856668,1.2029676828547795,9.657151778329201,0.1543453857969987,-2.5742581679073613,-1.0032656859269762,134.66304649651423,6.63264652014652,-7.088014371381306,0.38374448992963484,-0.07938315870199691,-0.029986974049864105,-0.9194239223683682
263.0,-0.0385094226518302,-0.05136427072796075,-0.007847598441422202,1.2766093065078112,1.2165711944101005,9.63805146865985,0.15183629313251656,-0.4782704727248883,0.0728119965531453,135.0672811059908,7.476856431006706,-7.185650652373459,0.38028915282991455,-0.08280340117895546,-0.03681635208737027,-0.9203207808249878
264.0,-0.022077291971076392,-0.06027487729946425,-0.012121379865872393,1.3585788468022928,1.211563823011502,9.628312024652503,-0.08506975665954816,0.1339242394440074,0.5775350305346371,135.09921514976958,7.9643354735678695,-7.167699318122214,0.37993629883027985,-0.08422839624270353,-0.04079803735013675,-0.920200402916526
265.0,-0.020006387921022068,-0.06166566445618374,-0.005338915739387809,1.3748942621108238,1.1913544921509125,9.630329399423022,0.07586229908958075,0.35415970036716504,0.5495538055898992,134.58693116359447,8.056613301300064,-7.050633933254655,0.3840284198264302,-0.08380822406490017,-0.04155971087668127,-0.9185314698372951
266.0,-0.02557577460567233,-0.06461912255067251,-0.0038791352890487434,1.370902776216702,1.185810310591585,9.631422764227636,0.12235655277059682,0.6531635195384211,0.5523474673110786,134.0705069124424,8.028256247424226,-7.014001442433779,0.3881882652640216,-0.08362944339938555,-0.04106887663995353,-0.9168257022049382
267.0,-0.0289622344610543,-0.06722738001573564,-0.0004940991345397335,1.299297010228167,1.1774197482297408,9.642345790715966,0.14519325334382377,0.25413552321007077,0.42409520062942563,133.62469758064515,7.607897324940991,-6.9564294846577495,0.39186938297993706,-0.08191843408064517,-0.037570738390637286,-0.9155669549488592
268.0,-0.025080645161290327,-0.06106451612903227,-0.000129032258064517,1.2311693548387097,1.1692661290322581,9.652314516129032,0.10246975806451614,0.1293346774193548,0.40927419354838707,133.27222782258065,7.207862903225807,-6.901965725806452,0.3948103385080646,-0.0802646762983871,-0.034259279814516125,-0.9145813473870966
269.0,-0.026500000000000003,-0.06091129032258064,-0.0005806451612903225,1.1919919354838708,1.1650403225806452,9.657951612903227,0.0860383064516129,0.48543346774193546,0.2811491935483871,132.9570060483871,6.982207661290323,-6.875201612903226,0.3973684502580646,-0.07934275012096774,-0.032291240145161285,-0.9136348106693546
270.0,-0.025983870967741938,-0.06170967741935485,-0.0028951612903225805,1.1870967741935485,1.1561290322580646,9.65887903225806,0.10700604838709678,-0.35488911290322583,0.3638104838709677,132.5796370967742,6.953074596774194,-6.824092741935484,0.4003716750241936,-0.0789446927419355,-0.03199236482258065,-0.912368479733871
271.0,-0.02796774193548387,-0.06280645161290324,-0.005798387096774195,1.1858629032258068,1.148701612903226,9.659991935483873,0.07585685483870969,-0.11421370967741938,0.383820564516129,132.24662298387096,6.947681451612903,-6.780947580645162,0.40303708978225805,-0.07866176513709677,-0.03186192645161291,-0.9112261871612903
272.0,-0.026701819685690648,-0.058743589743589744,-0.00492059553349876,1.2009214226633582,1.1438629032258063,9.659318858560798,0.12451147642679901,0.04818806865177832,0.40248268196856907,131.93712391439206,7.032649658808932,-6.749719551282052,0.4054778220510752,-0.07880923016211744,-0.03243908388068652,-0.9101132770055831
273.0,-0.03699607113316791,-0.059194375516956166,-0.00246029776674938,1.2071300661703888,1.1490403225806451,9.657578784119107,0.17818315756823822,-0.6428918527708849,0.10257702646815552,131.62261941687345,7.075170595533498,-6.785167235318445,0.4079944318360215,-0.07932982715363938,-0.032433359145988425,-0.9089374653052111
274.0,-0.0403401874155218,-0.05542684944219171,-0.004982509229558798,1.3623017561379087,1.162288749016522,9.633827846032801,0.11727005537735277,-0.27201142599205147,0.11209447310819262,131.75329682488047,7.985635553470919,-6.879928105267405,0.40671187125760555,-0.08317324701515563,-0.039497851608596105,-0.9088515264956426
275.0,-0.04695402368415744,-0.05628836571244125,-0.007446014646250681,1.3820484980532184,1.1595755310778904,9.632075606730012,0.08405546435272045,-0.256868960438984,-0.02278279393370858,131.71508333081158,8.104802680354656,-6.855423090792632,0.40699831565466826,-0.08346367390657468,-0.040473570667201274,-0.9086789429661535
276.0,-0.03873507635820775,-0.057305473178801275,-0.0017794589360285668,1.3280887651556417,1.157876475216364,9.63996925497791,0.13398841766023117,1.2183397133288953,0.04574065948475861,131.6169670686316,7.781055574048296,-6.836658117976961,0.4078550009765277,-0.08222506966296478,-0.03785254058360064,-0.9085222994871092
277.0,-0.044631392604248615,-0.05860228166797798,-0.005085759244689222,1.1466184107002362,1.1539704956726977,9.66265460267506,0.09807361329661685,0.512468036978757,0.30569187647521634,131.38222733084186,6.710363394964594,-6.799387785208497,0.40998143149901656,-0.07825429030625494,-0.029309395241345394,-0.908192727319237
278.0,-0.0406624704956727,-0.061502753737214796,-0.00589771833202203,1.0338898505114082,1.1550094413847356,9.674682140047207,0.1486083792289536,0.6439860346184108,0.5831382769472856,131.07238886703385,6.055836939417781,-6.79611526357199,0.41254042021321796,-0.07596506145554682,-0.023853753818253345,-0.9073963230991344
279.0,-0.03952478363493313,-0.06579071597167585,-0.006481510621557828,0.9522557041699449,1.1594008654602668,9.6836038552321,0.14105773013375295,0.43174911487018097,0.44693400865460264,130.52426976789928,5.57392063335956,-6.82142014162077,0.41695895992564913,-0.07454549472856022,-0.019569525768292684,-0.9056103096966955
280.0,-0.05129976396538159,-0.06100314712824548,-0.01043823760818253,0.8417549173878836,1.1605297010228157,9.693685483870969,0.14466832218725412,0.12103289732494098,0.28054312549173877,130.2170522718332,4.925920780881196,-6.8191089693155,0.4195064580485838,-0.07224940177734068,-0.014232189497049567,-0.904719699157553
281.0,-0.03148052714398111,-0.05729996066089693,-0.004501376868607394,0.8495306845003936,1.1519463021243113,9.694580645161288,0.08637145948072383,0.27803156963021247,0.3705386998426436,130.03541625688433,4.96711865656963,-6.770592791109363,0.42097643741542096,-0.0720747772677026,-0.014624231034815105,-0.9040676273570025
282.0,-0.02293784421715185,-0.050912077104642024,0.0012372147915027526,0.7332008261211644,1.1458158929976394,9.70347580645161,0.22115952006294254,-0.47902857002360344,0.11170584185680568,129.57151357199055,4.286205497639654,-6.727055468135326,0.42472238009480734,-0.06928592077498034,-0.009133596948859166,-0.9025584208357593
283.0,-0.02377537372147915,-0.049064909520062955,-0.003534618410700238,0.9251447678992921,1.16148859166011,9.684677419354838,0.12993459874114868,-0.5888842446892211,0.07152832415420929,129.72557533438237,5.411575531077892,-6.828144669551534,0.4232781894586939,-0.07420255280684501,-0.017771853038945712,-0.9026944139138476
284.0,-0.03771774193548387,-0.05915322580645162,-0.0024274193548387106,0.9475645161290325,1.162612903225806,9.682951612903224,0.03623991935483871,0.6440020161290323,0.2574596774193548,129.6734879032258,5.538709677419355,-6.844707661290323,0.42369138706451615,-0.07478293166935485,-0.018682468104838708,-0.902469807233871
285.0,-0.039911290322580645,-0.0718951612903226,0.0005645161290322575,0.7982983870967744,1.168766129032258,9.696612903225803,0.11980846774193549,0.629133064516129,0.27620967741935487,129.41391129032257,4.663709677419354,-6.869657258064516,0.4258364278790323,-0.07179767232258065,-0.011505570411290321,-0.9018133839112903
286.0,-0.04711290322580644,-0.0828225806451613,-0.005548387096774195,0.7591774193548387,1.1708387096774193,9.699564516129028,0.12066532258064516,0.10080645161290325,0.19375,129.2850806451613,4.440171370967741,-6.88039314516129,0.4269123200241936,-0.07107849129032259,-0.009584685782258065,-0.9014090266451613
287.0,-0.035265538945712036,-0.0834864280094414,0.0007716365066876467,0.699530487804878,1.1760645161290317,9.703373328088118,0.13262932730133753,0.32944654799370576,0.17048829661683715,129.15865091463414,4.087716365066877,-6.905136211644374,0.42793911192171513,-0.07001158597757673,-0.006641773955546812,-0.9010348068599527
288.0,-0.03913355625491738,-0.07823505114083398,0.001274193548387097,0.7950991345397325,1.1779628245476004,9.696058615263572,0.14114009638080252,-1.0788478560188826,-0.1564184205350118,129.18978166797797,4.64943327104642,-6.924666846970888,0.4276295846732887,-0.07221165224960661,-0.011058526001770257,-0.9009618770397324
289.0,-0.02641915814319433,-0.06796125098347758,0.00015774980330448489,0.7804970495672698,1.1796211644374508,9.696061762391814,0.2854064221085759,0.43350093430369807,-0.2638903914240755,129.24516251966955,4.5655844315499605,-6.9346786487018095,0.4272020092714398,-0.0719444881972856,-0.010341309147128244,-0.9012025105263572
290.0,-0.016649095200629422,-0.06424272226593233,-0.0017759638080251765,0.8847606215578283,1.2018347757671126,9.68277281667978,0.10235542879622343,-1.1145247344610543,-0.12128491345397324,129.58177984854444,5.180246852871754,-7.07230404209284,0.42441015874862315,-0.07520069550590086,-0.014947920557435091,-0.9021413105373721
291.0,-0.01699824487078618,-0.06556739090964112,-0.0021622788436321087,1.0317826060642739,1.2196320280820676,9.666073029514411,0.23205809074219774,-1.6459558897698157,-0.5357264621033306,130.0233101837842,6.0477304363614355,-7.186875113478182,0.4207368430854364,-0.07919506726494382,-0.02172740262301035,-0.9033645966669492
292.0,-0.025673788053017003,-0.060220359498880355,-0.00622748088523069,1.2410604611753313,1.2430418204926466,9.6371120458351,-0.023501835824809844,0.29874707478464346,-0.052358707054812464,130.71106500534606,7.270103416449798,-7.343078587423592,0.41497277745695893,-0.08455124168912022,-0.031409263566422554,-0.9051924779164802
293.0,-0.04853949040731104,-0.07178445197603342,-0.002492182614133834,1.0774082793681536,1.2320409731888882,9.659200397425813,0.08508228429058484,-0.038047784401541385,0.29827973380540257,130.2008167276927,6.305188411608062,-7.261158687889608,0.4192320207198248,-0.08062156054558292,-0.023650400518852505,-0.9038448806962416
294.0,-0.04111118988538344,-0.06924166962070188,-0.000615916341722794,1.0374628973177362,1.2412775020678246,9.663941362401044,0.26626824116743475,-0.1993491891173343,0.48114199308755756,129.7436261151483,6.074342173283705,-7.312005199101973,0.42290078913665363,-0.08031549979191775,-0.021251364596656032,-0.9022743560412383
295.0,-0.03993875780657843,-0.06346770735165701,-0.008559925126014821,1.0570955320577666,1.2691192781778935,9.659279591507364,0.344364205162789,0.06515563262465307,0.29831403843992355,129.5375456254341,6.183888115556093,-7.479291348567509,0.4244619146574299,-0.08208872139753244,-0.02138583751961047,-0.9014083614010284
296.0,-0.029868307669251817,-0.0580850005619872,-0.006752173017121877,1.1785913416507439,1.2921478494623657,9.641405314525496,0.40093079127795883,-0.3084947290285115,-0.3065537072421416,129.78552660541004,6.899929517440336,-7.62681053538646,0.42230557758482257,-0.08580493482765725,-0.02671675933234049,-0.9019223013774493
297.0,-0.04819221835075495,-0.05485298415196134,6.978007568093653e-06,1.0974085740511783,1.344271505376344,9.644263141133717,0.4192657988647859,0.7701225951631635,-0.5963716116855869,129.79477943173728,6.421033307107265,-7.93144962253194,0.42226889036499193,-0.08647381672834475,-0.021787039537137988,-0.9020151148661442
298.0,-0.061152560788280685,-0.050603911430819395,0.0011446180360421112,1.0535873515417182,1.3906559139784944,9.642881570566853,0.30733955265819934,-0.3272118879022892,-0.33389649132666444,130.1767999981267,6.168782782585891,-8.20166231126597,0.41926477056959266,-0.08763720298917238,-0.019078211240343187,-0.903384262025814
299.0,-0.060365066876475214,-0.06732730133752951,0.005198269079464989,1.104366640440598,1.4064193548387096,9.635158143194333,0.059372541306058235,-0.6766915814319433,-0.12392309205350119,130.3926386703383,6.465809402045633,-8.296803697875688,0.41748251486467336,-0.08940018103068449,-0.02128275240204563,-0.9040036678646739
300.0,-0.05589535798583793,-0.0799571203776554,0.004665224232887491,1.1689307631785995,1.4152317073170737,9.627012588512983,0.10457317073170731,-0.4720446498819827,0.003960955940204569,130.52939860346183,6.84135769079465,-8.347875688434303,0.41629445157395745,-0.09117514030763177,-0.024227269798190405,-0.9043017218151066
301.0,-0.053822580645161294,-0.07744354838709677,0.0053790322580645165,1.1185322580645163,1.4198629032258063,9.63169354838709,-0.003427419354838708,0.624899193548387,0.22636088709677418,130.39218749999998,6.54984879032258,-8.375403225806451,0.41744591529838704,-0.09032036588709677,-0.021673190637096777,-0.9039203282096773
302.0,-0.0534236821400472,-0.08245043273013375,0.00787588512981904,1.0654702989771834,1.4013703776553896,9.64015597954366,0.06160626475216365,-0.23445613690007866,0.5949498426435876,129.96481363099923,6.240815548780487,-8.262165617623918,0.4209333238756884,-0.08840270688630998,-0.019264537122147915,-0.9025341604110932
303.0,-0.05196990558615263,-0.08845908733280881,0.009579071597167584,1.1078520849724627,1.398132769472856,9.63603363493312,0.24136260818253344,-0.3261998426435877,0.04182976003147121,129.90609633162865,6.486562008261211,-8.249127163650668,0.4213461047039732,-0.08919186815283242,-0.02123451020220299,-0.9022327152136111
304.0,-0.05265027537372147,-0.08920535011801731,0.0058056648308418566,1.163635719905586,1.3820220298977177,9.632004720692365,-0.05079047010228166,-0.2662753245476003,0.6700580251770258,129.7293838512982,6.817751770259638,-8.159896243115657,0.42266862667053506,-0.08972043118528718,-0.024053750907553108,-0.9014871463568055
305.0,-0.059954169944925244,-0.07241719118804092,0.006201219512195122,1.1987775373721479,1.3638497246262782,9.630647521636504,0.15431746656176237,-0.03149955743509049,0.0490411093627065,129.3796112804878,7.019561369000787,-8.053738444138473,0.42540210449252563,-0.08971933269748228,-0.02577292784893785,-0.900157118275177
306.0,-0.04735208497246263,-0.06959166011014949,0.0027498033044846574,1.2127557041699446,1.3556506687647523,9.62958182533438,0.035122442958300554,-0.2430935287175452,0.12764555468135325,129.30273406766327,7.097683910306845,-8.000533536585365,0.4260060769398112,-0.08962469546970889,-0.026549085424468925,-0.8998676430448466
307.0,-0.04668548387096774,-0.06372580645161291,-0.0027903225806451618,1.235975806451613,1.3668709677419355,9.625620967741934,0.18795362903225807,0.10186491935483871,-0.009677419354838727,129.24254032258062,7.235383064516129,-8.072026209677418,0.4264233007822581,-0.09069135093548386,-0.027342814362903225,-0.8995453863870967
308.0,-0.048709677419354835,-0.06120161290322581,-0.005701612903225805,1.2273790322580642,1.3647903225806453,9.626870967741933,-0.03125,0.33074596774193543,0.3822076612903226,129.07258064516128,7.183719758064516,-8.065171370967741,0.4277795616451613,-0.09045119736290322,-0.02682677219354838,-0.8989376430725806
309.0,-0.07381451612903225,-0.06837903225806452,0.010661290322580643,1.037024193548387,1.3634354838709677,9.64524193548387,1.180947580645161,4.156199596774194,1.9570564516129032,128.2220262096774,6.0590221774193544,-8.040171370967741,0.43465807558870967,-0.08611391128225807,-0.017346339290322577,-0.8960937004032258
310.0,-0.023173195084485412,-0.0936121351766513,-0.0014101382488479284,-0.22028110599078343,1.4436317204301075,9.605194700460828,-0.42059811827956994,4.7616863479262665,1.19246831797235,124.93538066436251,-1.3165922619047619,-8.539148905529954,0.45946696031566825,-0.0586787465814132,0.04372882529454687,-0.882050746422811
311.0,-0.016179339477726574,-0.09079229890225168,-0.0014523153872091732,-0.18951978194897162,1.3221700104904275,9.664824435202878,-0.408780815630737,-1.7993489729684162,0.3559853391592671,124.51270594488778,-1.1158437066801543,-7.781612832977409,0.4635267133265989,-0.05468438223150125,0.039814791809055505,-0.8818941512691356
312.0,0.04238092428159304,-0.06559727061556331,0.06964274474541982,-0.0668572552545802,1.233914175190139,9.698642548049907,-1.41356010687123,3.7807094385748004,1.1530817972350231,124.28037195356112,-0.41726611966580507,-7.244113359840396,0.46575756969231197,-0.05382943987538871,0.03258984427903601,-0.8818049005901147
313.0,0.012331591173054565,0.03010055824060548,-0.09292056311116101,-2.247888305046644,0.6758643456595856,9.191575306283017,-9.70549477117755,15.518126896706756,17.577599366359447,110.00175351710314,-13.773451608219998,-3.9758621234685854,0.5569322476203495,0.050720694441337894,0.10340407559516317,-0.7999709700329605
314.0,-0.09057791015698179,0.12869150650031846,-0.18963740586714622,-3.5089591997302456,0.31658982428533966,8.876510509160392,0.6466151980068187,-1.551213892323255,-3.769775626615713,99.97842765351616,-21.439490605447528,-1.868062970664269,0.6202836954389119,0.11523961336592858,0.13984738137016223,-0.7421103722317635
315.0,0.18850904799370582,-0.009381589299763946,0.044614476789929136,-2.126723839496459,0.814579858379229,9.261365853658535,5.248273996852871,-9.004725609756097,-6.65258654602675,110.68629523996853,-12.90289142407553,-4.8017014162077105,0.5536911914107001,0.037792714490952,0.10274270641856806,-0.8053091890283242
316.0,0.12060936270653032,-0.0330889063729347,0.027492132179386283,-1.0358198269079462,1.1524937057435092,9.475175452399686,2.7118336939417778,-4.320729248623131,-4.051957120377655,118.6826391620771,-6.296395554681354,-6.768538552321007,0.5003903704606609,-0.015961420343823755,0.06717911280566483,-0.8482313319421716
317.0,0.08158949645948073,-0.0351093627065303,0.020712234461054278,-0.5056062155782846,1.326296420141621,9.581958300550747,1.5007929287962232,-2.161667732100708,-2.0297797010228162,123.61295117033832,-3.076448170731707,-7.788276947285602,0.4664895885780881,-0.04299942664162076,0.04962057222580645,-0.8732794601614869
318.0,0.059161683713611336,-0.04516758457907162,0.022481117230527134,-0.1358273013375295,1.4278457907159712,9.651721085759245,1.0720446498819824,-1.898903422501967,-1.429607592446892,126.66597659323368,-0.8316212627852083,-8.374178796223447,0.4455062150350118,-0.06050144855468135,0.03674740867741935,-0.8889481643509047
319.0,0.042717741935483874,-0.0644193548387097,0.023443548387096773,0.09444354838709676,1.47158064516129,9.688508064516128,0.21300403225806444,-0.6414314516129032,-0.13135080645161287,128.25594758064517,0.552570564516129,-8.631955645161291,0.4347305286370968,-0.07013771272580646,0.028292748403225806,-0.8971963707096771
320.0,0.01718745082612116,-0.08372560975609757,0.011902832415420929,0.1534667584579072,1.443265145554681,9.69339889850511,-0.04484780684500393,-0.22668297600314713,0.7251290814319433,128.14300747442957,0.8985997738001573,-8.464374754130606,0.43575094388906377,-0.07020043916896145,0.025074612200236032,-0.8969479193345788
321.0,0.00261388670338316,-0.07920043273013376,0.00956667977970102,0.24021105428796227,1.4288782454760027,9.693210070810384,0.08045952989771832,-0.6845594020456334,0.2729629720692368,127.84855797600315,1.4085968233674273,-8.376170338316287,0.43804928279464994,-0.07141068510582221,0.020914389134343042,-0.8958346399348938
322.0,0.0017261998426435859,-0.07462490165224234,0.009658339889850513,0.3224750196695515,1.4166502753737207,9.691479150275374,0.1100486821400472,-0.31691827301337533,-0.0327215283241542,127.89409790519275,1.8843368902439024,-8.305121459480723,0.4377006647706531,-0.07267501420102283,0.016839377678009443,-0.895994963290716
323.0,0.00621518489378442,-0.07326848937844217,0.0038198269079465,0.43327380015735634,1.3992509834775761,9.68935483870968,0.09546370967741935,-0.7284298780487805,0.2781754032258065,127.72193032061368,2.5319630212431155,-8.206422108575925,0.4390311689962628,-0.07434088367466563,0.01147562632946499,-0.8952837881064122
324.0,-0.0037875688434303705,-0.06472698662470495,0.0021841070023603452,0.5391691581431944,1.3974964594807235,9.684258064516131,0.24919354838709676,0.0827104642014162,0.04354838709677422,127.70070810385522,3.153078284815106,-8.204622344610543,0.439157140429583,-0.07666380579701024,0.00660749086231314,-0.8950751688072383
325.0,-0.020572777340676633,-0.05713139260424864,0.007789142407553108,0.39684343036978764,1.424103855232101,9.68702281667978,0.13422501966955153,0.39475806451612905,-0.21845003933910306,127.82417387883555,2.3198367427222655,-8.355045239968529,0.4382150088261211,-0.0746991942407553,0.013707017354838709,-0.8956070064972461
326.0,-0.021328874901652244,-0.07017073170731708,0.011329661683713611,0.3816121164437451,1.4263870967741932,9.688464201416208,-0.02508851298190401,-0.15382081038552323,0.17045141620771043,127.87255114083399,2.2281471282454755,-8.367800944138473,0.437840145231314,-0.0744557548819827,0.014390558067663255,-0.8958232806915812
327.0,-0.008056254917387883,-0.07576593233674273,0.006258851298190401,0.45549921321793857,1.3829929189614474,9.691124311565694,-0.12891424075531077,-0.5538478560188828,0.2517776357199056,127.73087627852084,2.659338119590873,-8.110631392604247,0.4389612947714398,-0.0740850447069237,0.01010388533595594,-0.8953584504834773
328.0,-0.021761408339889855,-0.08125039339103068,0.007411093627065305,0.49855605822187243,1.3598654602675058,9.692540912667187,-0.009308615263571983,-0.24421346380802517,0.31576391620771044,127.62051288355624,2.9119664634146343,-7.978274980330448,0.43985236745180956,-0.07397439598446107,0.0076765163949645936,-0.8949624458664437
329.0,-0.019449252557041705,-0.07648406766325727,0.015173288749016522,0.5494352871754524,1.3517069236821397,9.690665617623917,0.13193843430369787,-0.3006097560975609,0.28729224036191975,127.3834923288749,3.2118300059008655,-7.9364661191974815,0.44170844985090474,-0.07476904190755311,0.005312380382966168,-0.8940015546791896
330.0,-0.01353107789142408,-0.0748347757671125,0.013695515342250197,0.5843265145554681,1.333635719905586,9.692010228166794,0.043086152635719896,0.11300157356412274,0.2037519669551534,127.09345987411487,3.4095692368214,-7.831161487018095,0.4439861310464201,-0.07472039007474429,0.003514866147128245,-0.8928884106420141
331.0,-0.025383162863886703,-0.0764669551534225,0.01022462627852085,0.6595684500393392,1.3259744295830056,9.687521243115658,0.0888375295043273,-0.9553550354051928,0.08276209677419355,127.11917289535799,3.8502999606608967,-7.787708988985051,0.44370403421872534,-0.07605744439378442,-0.00016977519472856015,-0.8929057657269865
332.0,-0.030193548387096775,-0.0735725806451613,0.008959677419354838,0.739766129032258,1.329088709677419,9.681604838709681,0.12379032258064515,-0.5902217741935484,0.16134072580645162,127.04264112903226,4.321673387096774,-7.8105342741935475,0.44426171070967746,-0.07804752439516127,-0.0036965649758064515,-0.8924590075322578
333.0,-0.04151612903225807,-0.06933064516129032,0.00989516129032258,0.6979274193548387,1.3254112903225805,9.685225806451612,-0.02212701612903225,0.3641129032258064,0.17767137096774194,126.90337701612904,4.075957661290322,-7.787449596774193,0.44537934347580643,-0.07690021127419355,-0.0017911847258064515,-0.8920099562177419
334.0,-0.042136113296616845,-0.0649874114870181,0.01012765538945712,0.6405092446892211,1.3177665224232886,9.690658339889849,0.04977871754523998,-0.09919108969315504,0.1643440204563336,126.71536806648308,3.7420682533438234,-7.738692466561762,0.44690154860955933,-0.075227300697679,0.0007881792501966954,-0.8913973970656964
335.0,-0.035253540519276164,-0.05932435090479938,0.015059795436664043,0.6594844610542879,1.3103711644374512,9.690018686073955,0.1844659716758458,-0.3041318351691582,0.04744418764752164,126.54657012195122,3.8534434008654603,-7.695959136506687,0.4481918669620377,-0.07536017834480724,-0.00013312605232100735,-0.8907463102102675
336.0,-0.031872738001573565,-0.06143233674272228,0.011416994492525569,0.768141424075531,1.2983831628638869,9.68289240755311,0.016829760031471297,-0.6281495869394178,0.14259810188827696,126.53669231904013,4.489246902045633,-7.63162372147915,0.4481630556947285,-0.07732225091837136,-0.005363011606805666,-0.8905635589640049
337.0,-0.029972659323367422,-0.05834520062942566,0.007910110149488591,0.8566715184893783,1.2918286782061368,9.676345397324944,0.1495943154996066,-0.7350929386309992,-0.0318007474429583,126.50163749016522,5.015767604248623,-7.608805812352479,0.44838784380704166,-0.07914033023741149,-0.00955253909775767,-0.8902475349779697
338.0,-0.03359768201900381,-0.061726673929270316,0.002325919425447356,0.8665791422058141,1.2787481893925638,9.677630515039645,0.009543073796122584,0.33640436815348296,0.13058432437612216,126.45647941505779,5.070098183844742,-7.526106664447537,0.4487345998930783,-0.07872434877906556,-0.010229765531198934,-0.890114327062186
339.0,-0.018765796162924408,-0.054805115092093855,-0.005052618572091428,0.8313658889628598,1.2562112308095783,9.683217303153182,-0.0389686283261716,0.9285286986322097,0.0903462534547802,126.43735162727712,4.863973167453448,-7.380849358974359,0.44896743102443054,-0.07682695564051625,-0.009136696337590027,-0.890171526638882
340.0,-0.031128865823397685,-0.06433400915895017,0.0006390132945994459,0.7234853638362686,1.227855615404789,9.694358651576588,-0.03977161255018257,-0.02079109423228226,0.38249671543706754,126.1002534346063,4.231154930500917,-7.210485163358147,0.4517194481654411,-0.0730550388323549,-0.004645183515569207,-0.8891143101541183
341.0,-0.030962249591478547,-0.05643765760858603,0.003089864633137646,0.7630990941919344,1.2159154158849281,9.693915753797734,0.08390242641570336,-0.5177286017974944,0.18833050268312856,125.91148711266115,4.462952809467611,-7.140053385180254,0.45314905817683937,-0.07343326085323487,-0.006632561994114266,-0.8883563256850451
342.0,-0.027928705440900564,-0.053642215901067214,0.001988480703665597,0.8342430954830642,1.2041069014908508,9.689183683350482,0.08343306804656136,-0.5117120831568117,0.1924263400512417,125.8527949676209,4.87636047731445,-7.075772660332062,0.4535197304392261,-0.07458968232984323,-0.01008527713012165,-0.8880453601973614
343.0,-0.019678992918961444,-0.06073839496459482,0.00013650668764752128,0.8714846577498037,1.1960625491738783,9.68744295830055,0.06722315106215579,-0.04785356018882769,0.25443794256490954,125.78650914634146,5.094900668764752,-7.032184303697875,0.45407729768528726,-0.07512239567112508,-0.011885492795830057,-0.8876979542450827
344.0,-0.04147993705743509,-0.07616778127458695,0.007936073957513768,0.8678863099921323,1.2128070416994494,9.685967741935485,0.14427738985051142,-0.6666047895357985,-0.06168248426435877,125.67794674468922,5.080347659323367,-7.122996164437451,0.45488427982612123,-0.07577693699370573,-0.011346206744099134,-0.8872367089832808
345.0,-0.03855153422501967,-0.08058457907159718,0.007383949645948072,1.0074610542879623,1.2208359559402044,9.670118017309205,-0.016288847364280087,-0.6019325334382375,-0.03426927616050353,125.82202006294256,5.896592250196695,-7.186425550747442,0.45360208966365073,-0.07938934198308417,-0.017623318211644375,-0.8874560461561762
346.0,-0.03010975609756098,-0.08255428796223446,-0.009868214004720693,1.0657918961447679,1.2108153029110937,9.666038552321009,0.10748795239968528,-0.2869762981904012,0.014312057435090484,125.78288749016522,6.236651750590086,-7.132748573957514,0.45385974966660114,-0.0803484068373328,-0.020448124377261994,-0.8871862501984659
347.0,-0.03349036191974823,-0.07916424075531078,-0.003917977970102283,0.9355653029110935,1.216322974036192,9.677083792289533,0.31359780684500393,1.8414412863886702,0.5703112706530291,125.48151430959875,5.469182730133753,-7.153798682140048,0.456304544950236,-0.07749968676947284,-0.014170280406372932,-0.8862364198129427
348.0,-0.04157985837922896,-0.07629583005507475,-0.0002533438237608185,0.8309520062942564,1.2317985837922896,9.684259638080253,0.13993902439024392,-0.4768095987411488,0.2647423288749017,125.00943154996067,4.854651848937845,-7.237332808811958,0.46004466754366635,-0.07574418699763964,-0.008765551033831628,-0.8845066170637295
349.0,-0.038379228953579855,-0.06882140047206924,-0.0007537372147915025,0.9214445318646735,1.2401935483870972,9.675990558615265,0.1181648308418568,-0.42953874901652245,-0.135139653815893,124.98300550747443,5.386973839496459,-7.2926190007867815,0.46015685952478363,-0.07829837154917388,-0.012679359560188824,-0.8842026655649096
350.0,-0.03461132966168372,-0.0818198269079465,-0.0024225019669551527,0.9873918174665619,1.2281605035405196,9.671933123524786,0.048151062155782846,-0.4663773603461841,0.2676927616050354,124.93165814319434,5.775489280094414,-7.229472364280094,0.46050167020062943,-0.0793731496888277,-0.01591054467938631,-0.8839101170798584
351.0,-0.0312741935483871,-0.07685483870967741,-0.002080645161290324,0.980241935483871,1.218451612903226,9.674822580645166,0.14375,0.009627016129032273,0.23205645161290323,124.68366935483871,5.731804435483871,-7.170715725806452,0.46246362495161286,-0.0787825552016129,-0.015618699572580646,-0.882963167814516
352.0,-0.026790322580645162,-0.07321774193548387,-0.0035241935483870967,1.0546290322580645,1.2113387096774195,9.667604838709682,0.07661290322580645,-0.45776209677419355,0.08220766129032259,124.63538306451613,6.172026209677419,-7.135030241935484,0.4627314906693549,-0.08027329002419353,-0.019132552758064515,-0.8826269325645162
353.0,-0.019709677419354837,-0.06626612903225806,-0.0019435483870967741,1.0884112903225807,1.2069999999999999,9.665362903225812,0.3162298387096774,-0.5725302419354839,-0.06486895161290321,124.53099798387096,6.36789314516129,-7.113306451612903,0.4634896553467742,-0.08095663762096772,-0.02066020341935484,-0.882148545580645
354.0,-0.0317258064516129,-0.054838709677419356,7.258064516129064e-05,1.1277016129032256,1.215370967741936,9.65854838709678,0.033921370967741934,0.1848286290322581,0.13981854838709676,124.68523185483872,6.601814516129032,-7.167237903225806,0.46225275818548384,-0.08221218999193547,-0.02234413400806452,-0.8826237340161289
355.0,-0.01549193548387097,-0.05802419354838711,-0.001838709677419354,1.117790322580645,1.201741935483871,9.661991935483876,0.019002016129032257,-0.334929435483871,0.12232862903225805,124.56577620967741,6.547227822580645,-7.084122983870968,0.46324133066129025,-0.08138304689516129,-0.022173678467741934,-0.8821935350725805
356.0,-0.013121381306865179,-0.05391790736145576,-0.004584574028122415,1.1687038875103388,1.1943815136476428,9.656615177832919,0.17437965260545907,-0.44138621794871796,0.14822167080231596,124.46461435070304,6.844809760132341,-7.0452349565756816,0.463943008522746,-0.08230719022808106,-0.024577197907568238,-0.8816773643329199
357.0,-0.016129239040529368,-0.05693072787427627,-0.005312448304383788,1.1974003308519436,1.197114143920596,9.65364226633581,0.11017369727047147,-0.14607113316790735,0.21009873862696443,124.30236765922248,7.014289960711332,-7.05323743796526,0.4651428065597601,-0.0831190061906534,-0.025716751836848635,-0.8809405270293632
358.0,-0.014423490488006622,-0.05692100909842847,-0.004200578990901571,1.2342162944582298,1.1999119106699754,9.648627584780803,0.18996588089330024,0.00196443341604631,0.2196663047973532,124.15955076509512,7.229851633581472,-7.087127791563275,0.4661649073645574,-0.08422258535339125,-0.027179537583746895,-0.8802546273533912
359.0,-0.01582563194738647,-0.05884445419516231,-0.004776135286166757,1.2805377302346224,1.2111422259880165,9.640465542980486,0.10510784209889246,-0.2220311585870201,0.10314366085658376,124.10943952495509,7.502000462738809,-7.154805044483447,0.4664647118397335,-0.08585426415456737,-0.02898011793890334,-0.8798811686880055
360.0,-0.024037815973693234,-0.0577085174201618,-0.0073598418366317645,1.3016519296334401,1.207684016219815,9.638273094070886,0.09121319524299462,-0.1401486438096391,0.11089642720248542,123.98357560925174,7.628696803950049,-7.137785586757852,0.46744189641583445,-0.08623002470228369,-0.02992063205816135,-0.879294649614164
361.0,-0.020271243115656964,-0.05850373721479151,-0.006207710464201415,1.316343627065303,1.199886309992132,9.637809205350113,0.09147447875688433,-0.16560655979543668,0.1690745476003147,123.90404332218725,7.714817319040126,-7.093127950432731,0.468025670740952,-0.08624131471380803,-0.03073061914988199,-0.8789567706591266
362.0,-0.022986428009441385,-0.053699449252557055,-0.005587726199842643,1.2801274586939417,1.1896205743509047,9.644017505900859,0.14500639260424864,-0.22748573957513768,0.29481953186467347,123.6237202498033,7.500730232100707,-7.027813975216365,0.4702035575599921,-0.08498024197383951,-0.02913717901848938,-0.8779620599223048
363.0,-0.022384343036978758,-0.048252950432730146,-0.00468095987411487,1.336547600314713,1.1883143194335168,9.63677891424075,0.09785601888276949,-0.20199891817466561,0.18344807238394964,123.52670387490164,7.83479051927616,-7.0353535601888275,0.4708478306872542,-0.08638662936191974,-0.03161740674311566,-0.8773922753119592
364.0,-0.036320416994492524,-0.04831608969315502,-0.004064319433516915,1.3274720692368214,1.1857952399685288,9.638116443745078,0.1463119590873328,0.49745156372934696,0.29580546813532654,123.3515157848151,7.773945220298977,-7.011667732100708,0.47224217941443747,-0.08603913990833988,-0.031118750108772627,-0.8766988821791898
365.0,-0.04230133752950434,-0.034855625491738804,-0.0051007081038552315,1.2813489378442173,1.1898693941778127,9.642977576711246,0.22678501180173088,-0.5200998229740361,-0.483044846577498,123.15678107789142,7.507688335955939,-7.029750196695515,0.4737971321789929,-0.08513791315578284,-0.028831715695515348,-0.8760243268194339
366.0,-0.041145161290322585,-0.024475806451612906,-0.007887096774193548,1.3214596774193552,1.1954516129032258,9.637008064516127,0.20856854838709676,0.2706149193548387,0.44596774193548394,123.25030241935482,7.741280241935483,-7.065725806451613,0.4730041505725806,-0.08633280114516127,-0.030572608338709676,-0.8762691869596776
367.0,-0.06094807238394965,-0.031081628638867036,0.0028090086546026754,1.0941156569630213,1.2968682140047207,9.642618804091265,2.6582009736428005,5.452907405586153,3.464903373328088,122.0137748328088,6.402270603855232,-7.654188385129818,0.4824297113440204,-0.08513590461998426,-0.016853989031471284,-0.871097945074351
368.0,-0.4067755704169946,0.04155330448465774,-0.0018080251770259674,0.38152321007081036,1.4190841856805663,9.648897915027533,-0.7827682435090482,1.4624311565696306,2.9735456825334383,117.43828555271439,2.232623180566483,-8.357834628245474,0.5165849838992919,-0.07102944552163651,0.02047576323721479,-0.850707817147325
369.0,-0.2424990165224234,-0.009908339889850511,-0.0003440204563335993,0.586427025963808,1.3875891030684502,9.657427222659322,-0.6808221872541307,-1.8569126180173088,0.2758334972462628,115.91922452793077,3.438783438237608,-8.169158143194334,0.5281119074034225,-0.07578741332179387,0.011848125877261997,-0.8442627410922501
370.0,-0.16995220298977187,-0.039461447678992914,0.0029500393391030653,0.7348705743509046,1.3395835955940205,9.666468332022031,-0.4199940991345398,-1.042862411487018,0.08440327498033047,115.30004671518489,4.304951809598741,-7.883536585365853,0.5328980357960267,-0.07809048957612116,0.004680020640047205,-0.8418330314689222
371.0,-0.11580233037353416,-0.050940017234273716,0.007051440560488552,0.7493012625978793,1.3288887640028473,9.673897568468774,-0.16847439211719306,-0.2660236596605597,-0.27586311865422797,115.27786753962009,4.383394683601214,-7.815731426323479,0.5332291480502791,-0.07819004598141696,0.0038792937274736796,-0.8420346981330787
