time,linaccel_x,linaccel_y,linaccel_z,gravity_x,gravity_y,gravity_z,gyro_x,gyro_y,gyro_z,euler_x,euler_y,euler_z,quaternion_w,quaternion_y,quaternion_x,quaternion_z
0.0,0.03804878048780489,0.03926829268292683,0.028292682926829273,-5.718780487804877,-1.7792682926829269,7.754634146341462,0.10518292682926829,2.1402439024390243,-0.6524390243902439,252.77134146341464,-35.68292682926829,12.914634146341463,0.5615874497560974,0.10566376463414634,-0.30528594268292686,0.7617038624390243
1.0,0.02665118079752227,0.029597367402245448,0.021335656213704993,-5.868958575300038,-1.8321370499419276,7.6272590011614385,-0.7893437862950058,2.052700348432056,-0.49624951606658924,253.02993128145567,-36.78220576848626,13.512219318621757,0.5612551000774294,0.10928208837011227,-0.31443752962446775,0.757669966686024
2.0,0.024347104695536748,0.034725402356064375,0.015130247220839554,-5.8838393894143,-1.7401675792268128,7.637396714783474,0.6285465405674464,-0.6517338642774182,0.7048386427741827,252.79939231790277,-36.880299070847855,12.829216442674632,0.5598970890127759,0.1131069044035175,-0.3121171401791937,0.7590701058586361
3.0,0.019869918699186993,0.030554394115369726,0.011378242353852111,-5.8257917150600065,-1.6734115369725129,7.696943863724353,-0.3685830429732868,0.3918892760356175,0.10749612853271387,252.42781165311655,-36.45604432830042,12.26553910181959,0.5583780967773906,0.11293327132481609,-0.3073579141788618,0.7621591489562525
4.0,0.014161327788393092,0.027810497920647406,0.003416507436963771,-5.596811659360833,-1.7273189464613539,7.839965156794426,-0.009375819564647225,-4.303463714360645,-1.0654972649956915,252.50347261249112,-34.83126568880896,12.421113390281368,0.561213575675696,0.10300222584841333,-0.2977763611771759,0.7649252882353603
5.0,-0.010527518639241685,0.02472743621445431,0.021015885504477166,-5.239731557453823,-1.8694855943951143,8.045545127571092,0.35396177550485175,-0.8148907871567193,0.25904916451238247,252.0976745438537,-32.3491497602188,13.060478016934548,0.5616878725900116,0.08411561591791239,-0.2855373478702559,0.7712999527722829
6.0,-0.006482896856618332,0.012593758195646473,0.006317485294668619,-5.467440148364617,-1.7962843280506535,7.909843205574914,-0.8306112078977933,0.4861950189202354,0.9088889981641752,251.4762455041025,-33.957184772020526,12.788991373496685,0.5553691175323143,0.0931655815625117,-0.29495665970739204,0.7713278781283954
7.0,0.0018067888052152432,0.014864373758944964,-0.003052714398111723,-5.431904574575698,-1.7959396425761485,7.944659997752051,-0.5503844929002286,0.7945854876175489,0.13193000449589753,251.24808104791873,-33.67288482072608,12.7371410306845,0.5544013582432281,0.0913382750245401,-0.2931517734210033,0.7732336716292011
8.0,0.0019049492338241358,0.014677232025776478,-0.005937019969278034,-5.439738675958187,-1.755635045520962,7.953088868907123,0.2782632722640589,0.1520105091603912,0.5014576542654827,251.00161337154844,-33.711549539170505,12.442266353827133,0.5528705409149152,0.09270279548330898,-0.2922752930485931,0.7746394744108502
9.0,0.004939417781274586,0.01880251770259638,-0.007032258064516129,-5.441963808025176,-1.7161101494885913,7.963156569630214,-0.3984067663257278,0.556736821400472,-0.1659618410700236,250.777025963808,-33.72096774193548,12.160375688434303,0.5515052872777341,0.09389675273013376,-0.2912505074398112,0.7759382324343038
10.0,0.006022029897718331,0.021380015735641224,-0.0030007867820613684,-5.619620771046419,-1.77175295043273,7.822435877261999,0.31038552321007074,2.4361428009441384,-0.3174665617623918,250.92008261211643,-34.99659716758458,12.767564909520063,0.550266182100708,0.09783580177812748,-0.3018636805963808,0.7721550514571205
11.0,0.005682140047206922,0.019482297403619196,-0.0017560975609756104,-5.829078678206137,-1.8764272226593242,7.64104091266719,-0.9629720692368213,1.1545141620771047,-0.23087136113296614,251.19017505900865,-36.50127360346184,13.81931549960661,0.5492301642250197,0.10100876522029897,-0.31569963045554683,0.7668838853391031
12.0,0.005252557041699447,0.023389457120377655,0.005246262785208497,-5.9309917387883555,-1.9534441384736432,7.546955546813532,-0.33456923682140044,0.6904061762391818,-0.2626180173092053,251.36331136900077,-37.22966905979544,14.524596774193547,0.5488938391022817,0.10153912787450825,-0.32326141797915026,0.7639947694854445
13.0,0.004952530815630736,0.02551927616050354,0.008627852084972463,-5.96643450039339,-1.9862242984526621,7.513087267243639,-0.044304025701547345,0.49333939811172306,-0.2881228691319171,251.49097413453973,-37.483546829923945,14.812260687123,0.5492157009413847,0.10165124598131392,-0.32602708080389453,0.7626376248442173
14.0,0.004497770784159453,0.02658221872541306,0.010249409913453973,-5.969632572777341,-1.9961269341725676,7.5088030422239695,0.1302337398373984,0.38926042486231316,-0.26032487542617355,251.5944285995279,-37.50708759506949,14.886237870443221,0.5498483234948859,0.10161745595436664,-0.3264174595995279,0.7620430496963022
15.0,0.0040899554156831885,0.027228166797797014,0.01083123524783635,-5.951178992918962,-1.991596905323892,7.524030159979018,0.18069515473380543,0.2911831235247836,-0.24093643456595853,251.67529750196692,-37.375676960398636,14.825632703907685,0.5506392809197482,0.10142635029583005,-0.3252542411719119,0.7619833688339891
16.0,0.0036827956989247306,0.027790322580645163,0.01110483870967742,-5.923008064516129,-1.9800591397849463,7.548295698924731,0.2542506720430108,0.3240927419354839,-0.22326948924731183,251.74662298387096,-37.17496639784946,14.69885752688172,0.5515105696935484,0.10119156441935484,-0.3233726583145161,0.762166277451613
17.0,0.003266129032258064,0.028040322580645163,0.01097983870967742,-5.894383064516129,-1.966475806451613,7.573379032258064,0.24669858870967742,0.3475302419354839,-0.19800907258064515,251.81771673387095,-36.971320564516134,14.556149193548388,0.5523948164435484,0.10102982141935483,-0.3214002054395161,0.762367693451613
18.0,0.002849462365591397,0.028290322580645164,0.01085483870967742,-5.865758064516129,-1.9528924731182795,7.598462365591397,0.23914650537634408,0.3709677419354839,-0.17274865591397848,251.88881048387094,-36.767674731182794,14.413440860215054,0.5532790631935484,0.10086807841935483,-0.3194277525645161,0.7625691094516129
19.0,0.0024327956989247308,0.02854032258064516,0.01072983870967742,-5.837133064516129,-1.9393091397849462,7.6235456989247306,0.23159442204301076,0.3944052419354839,-0.1474882392473118,251.95990423387096,-36.56402889784946,14.27073252688172,0.5541633099435483,0.10070633541935484,-0.31745529968951613,0.762770525451613
20.0,0.0020161290322580645,0.02879032258064516,0.01060483870967742,-5.808508064516128,-1.925725806451613,7.648629032258064,0.22404233870967744,0.4178427419354839,-0.12222782258064516,252.03099798387095,-36.36038306451613,14.128024193548386,0.5550475566935484,0.10054459241935484,-0.3154828468145161,0.762971941451613
21.0,0.0015994623655913977,0.02904032258064516,0.01047983870967742,-5.779883064516128,-1.9121424731182795,7.673712365591397,0.2164902553763441,0.4412802419354839,-0.09696740591397848,252.10209173387096,-36.15673723118279,13.985315860215053,0.5559318034435483,0.10038284941935485,-0.3135103939395161,0.7631733574516129
22.0,0.0011827956989247312,0.029290322580645158,0.01035483870967742,-5.751258064516129,-1.8985591397849464,7.69879569892473,0.20893817204301074,0.4647177419354839,-0.07170698924731182,252.17318548387095,-35.95309139784946,13.84260752688172,0.5568160501935484,0.10022110641935485,-0.31153794106451616,0.763374773451613
23.0,0.0007661290322580644,0.029540322580645158,0.010229838709677419,-5.722633064516129,-1.884975806451613,7.723879032258064,0.20138608870967742,0.4881552419354839,-0.04644657258064516,252.24427923387097,-35.74944556451612,13.699899193548386,0.5577002969435483,0.10005936341935484,-0.3095654881895161,0.7635761894516129
24.0,0.00034946236559139785,0.029790322580645158,0.010104838709677419,-5.6940080645161295,-1.8713924731182798,7.748962365591397,0.1938340053763441,0.5115927419354839,-0.021186155913978495,252.31537298387096,-35.5457997311828,13.557190860215053,0.5585845436935483,0.09989762041935485,-0.3075930353145161,0.763777605451613
25.0,0.04608333333333333,0.03352419354838709,0.03688306451612904,-5.870092741935483,-1.8715295698924734,7.600583333333333,-0.10982022849462364,3.258417338709677,1.06200436827957,251.96912802419354,-36.91177755376344,13.868783602150538,0.5537736199919354,0.10509594348387097,-0.317554071407258,0.7620006942258064
26.0,0.012229716520039104,0.019574780058651025,0.008420821114369505,-6.125728739002932,-1.83836265884653,7.4073264907135865,-0.1081531036168133,1.1789589442815247,0.27415994623655915,251.2194923020528,-38.74937072336266,13.957086999022483,0.5457416688123167,0.11293564081231672,-0.33005815537390026,0.7614440566187684
27.0,-0.0016405180840664687,0.028924486803519056,0.008690249266862172,-6.241199046920821,-1.8342915444770285,7.32005303030303,-0.20895726417399804,1.4848927785923753,-0.06855678763440856,250.95115240102638,-39.57819678641251,14.083012585532746,0.5425479536884164,0.11615646126099707,-0.3359256112071114,0.7608778256158357
28.0,-0.010117302052785921,0.012950146627565981,0.0010850439882697954,-6.320557184750733,-1.8505395894428154,7.252269794721408,-0.13988269794721409,0.8342558651026392,0.00483870967741936,250.62551319648094,-40.16041055718475,14.322470674486803,0.5393333806627565,0.11721819663049854,-0.3408631797184751,0.7609253825014664
29.0,-0.019510263929618767,0.004958944281524926,-0.00787683284457478,-6.373601173020527,-1.8671407624633432,7.204038123167156,-0.1471590909090909,0.9053335777126099,0.07016129032258066,250.42606304985338,-40.56125366568915,14.538049853372435,0.5372361531378298,0.11770441991202346,-0.3444379960527859,0.7608010028797654
30.0,-0.02564222873900293,0.00033431085043988235,-0.010099706744868035,-6.42515542521994,-1.8705865102639296,7.157067448680352,-0.25755131964809386,0.6231304985337243,-0.22741935483870965,250.36403958944283,-40.951392961876834,14.653299120234603,0.5361716906334311,0.11917817682697945,-0.3473491408328445,0.7600318888269795
31.0,-0.024354838709677418,0.0005806451612903225,-0.011967741935483871,-6.449322580645161,-1.8970967741935485,7.126451612903225,-0.1465725806451613,0.37379032258064515,-0.12177419354838707,250.3671370967742,-41.14596774193548,14.909879032258065,0.5357329343870967,0.1189984704516129,-0.3496038599677419,0.7593438932258065
32.0,-0.02638709677419355,-0.0013548387096774192,-0.014387096774193548,-6.461806451612904,-1.9099677419354841,7.110838709677418,-0.06209677419354839,0.16512096774193546,-0.08024193548387096,250.36532258064517,-41.246169354838706,15.032459677419356,0.5354937153225805,0.11894629412903224,-0.3507253303548387,0.7590087911612904
33.0,0.005395894428152491,-0.00252199413489736,0.007917888563049853,-6.459879765395895,-1.9106774193548386,7.113158357771261,0.26907991202346043,-0.17276392961876835,-0.05306085043988269,250.4260813782991,-41.223680351906154,15.03258797653959,0.5359311101319647,0.1189634958914956,-0.3505371256920822,0.7587735274428153
34.0,-0.0009794721407624645,0.0008357771260997077,0.0011202346041055723,-6.418536656891495,-1.8875483870967742,7.15749853372434,-0.18894794721407623,-0.05997067448680352,0.15844941348973607,250.6437866568915,-40.899138563049846,14.775769794721409,0.5380487794369501,0.1190892716392962,-0.34727242637829914,0.7587397517214076
35.0,0.013897360703812318,-0.0005659824046920816,0.016721407624633432,-6.375736070381231,-1.880774193548387,7.198604105571849,-0.02401026392961876,-0.06405791788856305,0.12186583577712609,250.67441348973605,-40.57144428152492,14.633852639296187,0.5388864124604106,0.11802803022287392,-0.3446618394310851,0.7595091345865101
36.0,0.029372434017595303,-0.0045219941348973594,0.027824046920821112,-6.361870967741935,-1.872234604105572,7.214521994134897,-0.20788123167155426,0.13068181818181818,0.12595307917888562,250.69479472140762,-40.46396627565982,14.539149560117302,0.5392198674428152,0.11792731355718476,-0.34360204765982405,0.7597801236422286
37.0,0.043008797653958944,-0.021325513196480943,0.037395894428152485,-6.353483870967742,-1.8584398826979474,7.224873900293256,0.07650293255131964,0.12642961876832845,-0.003958944281524934,250.68651026392962,-40.397910557184744,14.415945747800585,0.5393546107859238,0.11821353379472142,-0.34265634324926686,0.7600699782404692
38.0,0.046222873900293254,-0.03176539589442816,0.02700293255131965,-6.360879765395895,-1.865639296187683,7.215821114369502,0.032129765395894426,0.26787023460410553,-0.317741935483871,250.81933651026392,-40.45731304985337,14.478665689149558,0.5400519334281526,0.1185700441759531,-0.34318783309090906,0.7592684848856305
39.0,0.07846627565982406,-0.022656891495601177,0.057985337243401755,-6.540794721407623,-1.9164164222873898,7.007636363636363,-1.6382697947214075,9.655205278592375,0.5643145161290322,250.9960593841642,-41.96121700879765,15.398607038123167,0.5378719569237538,0.1235298409589443,-0.35527350896480936,0.7536926274750733
40.0,0.06202346041055719,-0.046909090909090914,0.056363636363636366,-6.947800586510263,-2.008240469208211,6.494205278592375,1.3207844574780059,-5.516752199413489,-0.5157258064516129,251.03200146627563,-45.48907624633431,17.662206744868037,0.5297735582521994,0.13491447226979475,-0.3831291306920821,0.741883899366569
41.0,0.06490322580645161,-0.07751612903225807,0.1323548387096774,-6.913645161290322,-2.039838709677419,6.574677419354838,0.2536290322580646,-2.7925403225806447,-0.05342741935483872,250.96592741935484,-45.04798387096774,17.501008064516128,0.530685523483871,0.13156876067741935,-0.38123739916129035,0.7440258386129033
42.0,-0.4357507331378299,-0.12402639296187684,0.3249237536656892,-6.785269794721407,-2.262152492668622,6.6207976539589435,-3.896425953079179,4.358412756598241,2.509127565982405,249.88273460410556,-44.048936950146626,18.982899560117303,0.5242701916041056,0.11363176348973608,-0.3835907785513197,0.7497448332815249
43.0,-0.18976246334310853,-0.07425513196480939,0.21689736070381233,-7.281102639296187,-2.2796891495601175,6.060785923753666,-0.761217008797654,-0.4688782991202345,0.9741202346041056,249.3133431085044,-48.251282991202345,20.824413489736074,0.5116785126568915,0.12876363100293256,-0.41448983566275666,0.7395070721085044
44.0,-0.06342731462086301,-0.04097318810222036,0.1605178047758693,-7.457486803519062,-2.2027293674067865,5.917388353581901,0.09306661080854628,-0.3246465228320067,0.9734944490992877,249.47893537913697,-49.66798020527859,20.49553047758693,0.5104727250565564,0.13913626889317135,-0.42122907102723084,0.7355912021625473
45.0,-0.004286971093422704,-0.022658148303309592,0.1314700460829493,-7.533211143695015,-2.141155006284038,5.868283619606199,-0.34884792626728106,0.278265081692501,0.2418516966904063,249.43797392124003,-50.270674486803514,20.069878508588186,0.5094541160356095,0.1444289157339757,-0.4232228604549644,0.7346849950900713
46.0,0.044775869291998345,-0.02718391286133222,0.130073732718894,-7.562492668621701,-2.1495291160452448,5.840190196899874,-0.3776497695852534,-0.005121491411813978,0.024151654796816094,249.41747486384583,-50.49219208211143,20.208326351068287,0.5088600238081273,0.14496885578634267,-0.4250993141952242,0.7341816053514871
47.0,0.06950816925010475,-0.048586091328026826,0.10183158776707166,-7.567193548387099,-2.159658986175115,5.839892752408881,0.0012410976120653533,-0.11793831168831168,-0.083232090490155,249.45941558441558,-50.50148460410557,20.29008692919983,0.5090896062178467,0.14479224215710096,-0.4254843668102221,0.7340207732153329
48.0,0.07978634268956852,-0.05588981985756181,0.10752869710934229,-7.550483870967744,-2.170216589861751,5.857978634268957,-0.03970203183912862,0.1106881022203603,-0.029317658148303304,249.50692553414325,-50.34943181818181,20.315809593632174,0.5096923307218266,0.14386553319145373,-0.4247345090502724,0.7342434648496019
49.0,0.07076246334310854,-0.0494017595307918,0.09760703812316718,-7.53434017595308,-2.1854486803519064,5.8739296187683285,0.008027859237536655,0.11631231671554251,-0.04230205278592375,249.55608504398825,-50.19923020527859,20.40938416422287,0.5102534413841642,0.14265684525513195,-0.42417958672140765,0.7344159175777125
50.0,0.06604268491365269,-0.04639035516454873,0.09534799608993161,-7.525879765395894,-2.194659824046921,5.880711958292602,0.05012015314434669,0.13334351580319323,-0.027056858911697616,249.59338343108504,-50.13319688823721,20.468438416422288,0.5105595641671553,0.14207392618735742,-0.42399671701173025,0.7344099671058977
51.0,0.07140404040404043,-0.036723036819811025,0.10186608015640276,-7.522618768328444,-2.1980557184750733,5.8824248941023125,0.04061176278918214,0.021354675790159663,-0.025368605408927988,249.60625,-50.1110174323884,20.491184017595305,0.5106846598328445,0.14183801211860542,-0.4239492404545455,0.7344000728901923
52.0,0.06720202020202021,-0.04815184099055067,0.08411045943304009,-7.288680351906157,-2.199882697947215,6.141051156728574,0.46345104268491366,-3.6494033072662106,-0.4250834962528511,249.75665322580645,-48.099460329097425,19.771902492668623,0.5158760127067449,0.13362465538188334,-0.4097636714369501,0.7397496717676768
53.0,0.056939719778429466,-0.035463017269468884,0.06345845552297166,-6.976146627565981,-2.2079413489736073,6.489719126751384,0.05440697295536007,-1.1822621375040732,-0.09006190941674812,249.96330645161288,-45.448822906484196,18.86649560117302,0.5228160139824047,0.12258704173932877,-0.3911887955249267,0.7467687968999674
54.0,0.027988921472792444,-0.02944411860540893,0.04837145650048877,-6.852703812316715,-2.213290322580645,6.629645487129357,0.1323721081785598,-0.34485174323883994,0.03275496904529162,250.0621700879765,-44.38773623330076,18.518914956011727,0.5257185670029325,0.11813135602215705,-0.38386825543108505,0.7495382840130335
55.0,0.030838709677419356,-0.023425219941348975,0.04379472140762464,-6.785178885630499,-2.2019530791788857,6.711272727272727,0.21462609970674487,-0.761400293255132,-0.09167888563049854,250.11337976539588,-43.81118035190616,18.18980938416422,0.5273878875190615,0.11639275402932553,-0.3792763991085044,0.7511608493313782
56.0,0.059076246334310856,0.0341466275659824,0.004653958944281517,-6.420187683284458,-2.147815249266862,7.043979472140761,2.9328445747800584,-4.5501099706744865,-3.55183284457478,251.22421187683284,-41.02974706744868,17.03190982404692,0.5400893031700879,0.10925314434604107,-0.35691823739002937,0.7531099476803519
57.0,0.08013489736070382,0.03042815249266862,0.04356891495601172,-6.010642228739004,-2.136730205278592,7.40148973607038,1.168640029325513,-0.39622434017595287,-1.411400293255132,253.76220674486802,-37.94682917888562,16.16605571847507,0.562433666633431,0.10303276772140763,-0.3326803890175953,0.7486277474046921
58.0,0.0759384164222874,0.011472140762463341,0.044800586510263925,-5.842434017595309,-2.1495425219941344,7.548099706744868,0.5253482404692082,-0.2731121700879765,-0.7127565982404691,254.56255498533724,-36.64710410557184,15.914681085043988,0.5700582283167155,0.0989894301994135,-0.32330184449266863,0.7481222118152491
59.0,0.06943695014662757,0.006639296187683285,0.03525513196480938,-5.7402815249266865,-2.1424809384164227,7.6389853372434,0.45612170087976533,-0.3249633431085043,-0.3362170087976539,254.77895894428153,-35.860043988269794,15.672763929618768,0.5729963281583579,0.0963586893255132,-0.3173544609560117,0.7491494089560118
60.0,0.06559824046920822,0.003612903225806452,0.031043988269794716,-5.672824046920821,-2.1390117302052785,7.696780058651027,0.1881964809384164,-0.19107404692082108,-0.12952712609970674,254.85630498533726,-35.35240102639296,15.532313049853371,0.5744253383900293,0.09439709768328444,-0.31364746077126104,0.750083211457478
61.0,0.061790159661127414,-0.00018637992831541182,0.028622352557836427,-5.658725643532094,-2.1447872271098074,7.7055047246660155,-0.07306125773867711,0.11365876507005541,0.02689190289996742,254.84347507331375,-35.24328160638645,15.540047653958943,0.5745173344261976,0.09373318506028022,-0.3131138960254154,0.7503869584402085
62.0,0.07160475724991856,-0.008738351254480286,0.03466601498859563,-5.701895079830564,-2.1503290974258715,7.67307494297817,0.05298550016291951,0.456526963180189,-0.08141291951775824,254.84270527859235,-35.55682225480612,15.64714076246334,0.5739780074711632,0.09499743953014009,-0.31547418427077223,0.7496512513652656
63.0,0.08392407950472469,-0.006116976213750407,0.03911306614532421,-5.743079504724666,-2.1438390355164545,7.642025741283807,0.007981019876181165,0.2006516780710329,0.01218027044639948,254.91812683284454,-35.85544558488107,15.657716275659823,0.573958149364614,0.09687431743955685,-0.3172987246940372,0.7486555938233952
64.0,0.08381687846203979,-0.008752036493971977,0.03823395242750083,-5.755523623330076,-2.145048550016292,7.633867709351581,0.5623574454219615,-1.6617709351580319,-0.18816389703486477,254.93577712609965,-35.92873085695666,15.675329912023459,0.5739903983597263,0.0972173423649397,-0.317705994572825,0.7484137452342784
65.0,0.12660345389377647,0.0162691430433366,0.05377386770935159,-5.465489084392311,-2.034181166503747,7.8637139133268175,0.1726010101010101,-1.0487740306288693,0.6370764092538286,254.58427419354837,-33.89156484196806,14.510703812316715,0.5754125519569893,0.091057762704464,-0.30013481550928645,0.755058695010101
66.0,0.06957771260997067,0.02466862170087977,0.067266862170088,-5.402762463343109,-1.9893988269794722,7.924272727272726,0.23070014662756597,0.06992302052785937,-0.12928885630498532,254.28004032258065,-33.435410557184746,14.097892228739003,0.5743642318709677,0.08996827317302053,-0.29568744599120234,0.757852772307918
67.0,0.05551906158357771,-0.0005454545454545434,0.037178885630498544,-5.420733137829913,-1.9814076246334307,7.916281524926685,0.3415689149560117,0.14391495601173027,-0.09428152492668623,254.58035190615834,-33.54710410557185,14.050146627565983,0.5761980789442815,0.0916031020234604,-0.295957968856305,0.7562315996422287
68.0,0.04892961876832844,-0.0012463343108504415,0.04936950146627567,-5.419175953079179,-1.94924926686217,7.926709677419355,-0.07696114369501467,-0.21099706744868033,0.22540322580645158,254.63533724340172,-33.53586876832844,13.8174853372434,0.5767207618592376,0.09304170607331377,-0.294755129164223,0.7561619187683285
69.0,0.04944868035190616,-0.012316715542521995,0.028733137829912027,-5.421765395894428,-1.9603988269794717,7.923419354838709,-0.12386363636363637,0.39167888563049846,0.08649193548387096,254.64105571847506,-33.565010997067446,13.897653958944282,0.5767201890263929,0.09269020718181818,-0.2952763793401759,0.7560327954809384
70.0,0.05582991202346041,-0.011964809384164225,0.026407624633431086,-5.448991202346042,-1.9588064516129031,7.905020527859236,0.07639296187683284,0.15870601173020527,0.052620967741935476,254.64200879765394,-33.75388563049853,13.917247067448681,0.5764337171348974,0.09367659681818183,-0.29652937292668624,0.7556538583841642
71.0,0.054527859237536655,-0.0034017595307917906,0.02947800586510264,-5.467624633431085,-1.9543870967741934,7.8935425219941315,0.13698680351906156,-0.042521994134897365,0.0467741935483871,254.68552052785924,-33.88903958944282,13.904692082111435,0.5765060831319646,0.09458974355425219,-0.2972733582052786,0.7551929277243401
72.0,0.06614467253176931,0.0038709677419354843,0.0358256761159987,-5.478339850114043,-1.9626203975236232,7.88300782013685,-0.12145039100684263,-0.19715298142717497,0.11758512544802867,254.65830482241773,-33.96683976865428,13.983687683284456,0.5761851388615182,0.0945336063681981,-0.29811688694721405,0.7551117128862822
73.0,0.08585239491691105,0.021674486803519064,0.04038937764744216,-5.48093092212447,-1.9628292603453896,7.880745845552294,0.15524804496578687,-0.05451490713587487,0.01796594982078853,254.65510549038774,-33.97804048550016,13.988691348973607,0.5761743103193222,0.09462336236884977,-0.29822687960997063,0.7550707824607363
74.0,0.10145845552297164,0.03236950146627566,0.04017855979146302,-5.4486751384815895,-1.9337855979146306,7.909808406647114,0.41522482893450635,-0.09913245356793743,0.02612007168458781,254.70083903551645,-33.75565330726621,13.735777126099705,0.5769122086112739,0.09487785418442488,-0.2956323686275659,0.7554745293594004
75.0,0.0894154447702835,0.02821700879765396,0.03258194851743239,-5.426349299446073,-1.8839837080482242,7.937537634408601,0.22597751710654937,0.12277614858260019,0.09269713261648745,254.70798916585207,-33.60233178559791,13.353042521994134,0.5774115867983055,0.09621931656142066,-0.2928471889090909,0.756016678694363
76.0,0.08825610948191595,0.026914956011730204,0.03742000651678072,-5.425271423916586,-1.8545402411208864,7.945849462365593,-0.11281769305962855,0.04848484848484848,0.01711469534050179,254.7200228087325,-33.60126669925057,13.129948680351905,0.5775649072701203,0.0974609129097426,-0.2917742904868035,0.7561644483310526
77.0,0.10534310850439887,0.011231671554252195,0.03972434017595308,-5.393671554252201,-1.8621876832844573,7.966193548387098,0.05575513196480937,-0.034897360703812316,-0.15887096774193546,254.90131964809385,-33.37426686217009,13.157514662756597,0.5791341735131963,0.09648265614662757,-0.2903259451788856,0.7556381093196483
78.0,-0.08600879765395891,-0.08039589442815248,0.1148475073313783,-5.502964809384165,-1.9490703812316714,7.863038123167156,-2.4155791788856305,7.5181085043988265,-5.154673753665689,255.4929068914956,-34.20656158357771,14.039442815249267,0.5810462927683284,0.09827968569794723,-0.2989714764164222,0.7502259560234604
79.0,-0.010794721407624594,0.5955278592375366,0.19511730205278588,-5.003208211143695,-5.10274486803519,5.293551319648094,6.807532991202345,29.14473973607038,-33.73267961876832,300.6118768328446,-30.8075146627566,42.827785923753666,0.6831976474164223,0.15800874351026398,-0.4293499447888563,0.4236479370117302
80.0,-0.05257478005865095,0.5198445747800586,0.28605865102639294,-5.241765395894428,-4.901598240469209,5.38234017595308,2.561125366568915,-24.213618035190617,16.582752932551323,297.68154325513194,-32.431781524926684,41.407441348973606,0.6876149992404692,0.157160873771261,-0.4246381745395894,0.4498865751671554
81.0,-0.018900293255131925,0.24661583577712612,0.13512609970674486,-5.242011730205277,-3.326073313782991,6.737363636363636,1.081066715542522,-10.832111436950148,8.24067082111437,279.95478372434013,-32.37697947214076,26.798277126099705,0.6580346962492668,0.13549572053079179,-0.3486423883020528,0.5847527194545455
82.0,0.03223460410557188,0.11914956011730204,0.09316129032258065,-5.350175953079178,-2.525730205278592,7.344087976539589,0.4492302052785923,-4.2938049853372435,4.275036656891497,270.7108870967742,-33.10208944281524,19.51741202346041,0.6396510496656891,0.12817819589442814,-0.31548825320821117,0.6528574475542523
83.0,0.05423395242750083,0.07256598240469209,0.06079374389051809,-5.521981101335939,-2.1241146953405017,7.565175301401108,0.27209595959595956,-1.6763298305637018,2.4215990550667974,265.7168092212447,-34.309017595307914,15.984461550993808,0.6266296170957966,0.12806486069892473,-0.3047145263646139,0.6872542979152818
84.0,0.053923427826653644,0.02775073313782992,0.05704203323558163,-5.667506679700229,-1.8466702508960577,7.718990876507007,-0.2792746008471815,-1.2281850765721734,2.355355979146302,261.72796106223524,-35.325476539589445,13.540617872271097,0.6158263071769305,0.12667359833333333,-0.2982079546500488,0.7142880418931248
85.0,0.05561127403062888,0.00973900293255132,0.0418553274682307,-5.756307592049527,-1.7592280873248614,7.7305819485174325,-0.0018898664059954218,1.9233158194851745,0.2290892798957315,260.5465318507657,-35.97005131964809,12.819310035842294,0.6115741712218964,0.1284171095376344,-0.29854607818279566,0.7212790118908439
86.0,0.04869273378950799,0.007853372434017595,0.033024437927663734,-5.934153796024765,-1.7561140436624307,7.594452264581297,-0.423525578364288,0.9863554903877485,0.4968027044639948,260.13788286086674,-37.269501466275656,13.032034050179213,0.6065854650303031,0.1341103468172043,-0.307486008688172,0.7206656122841316
87.0,0.05807950472466603,-0.0005865102639296179,0.0332394916911046,-6.016634082763115,-1.76576669925057,7.528583903551645,-0.42191674812642554,0.5130091234929944,0.10824372759856632,259.90334392310194,-37.863673020527855,13.211709840338871,0.6039814456207233,0.13616510189247316,-0.31202599477223847,0.7205653232271099
88.0,0.058950146627565994,-9.970674486803474e-05,0.04292082111436951,-6.046847507331378,-1.7829442815249266,7.50091202346041,-0.03586876832844574,-0.6300769794721408,0.01471774193548387,259.8068914956012,-38.09151392961877,13.394116568914955,0.6029051120146628,0.13630764880645163,-0.3142504029882698,0.7204968403519061
89.0,0.05957184750733138,0.0021759530791788857,0.03804105571847509,-6.018826979472141,-1.772826979472141,7.5258592375366575,0.07107771260997069,-0.027639296187683293,-0.05282258064516128,259.8453812316715,-37.886583577712614,13.269134897360704,0.6035426164750732,0.1357961349032258,-0.31244254502639296,0.7208621390791788
90.0,0.07900000000000001,0.004612903225806452,0.04061290322580646,-5.9991935483870975,-1.7689354838709683,7.544193548387098,-0.048588709677419344,-0.35846774193548386,0.047983870967741926,259.8673387096774,-37.73145161290323,13.183870967741935,0.6039907146129031,0.13529879683870966,-0.3111859727096774,0.7211360817096775
91.0,0.06605278592375369,-0.010442815249266862,0.043395894428152504,-5.984149560117304,-1.7819413489736071,7.55201173020528,0.12401026392961877,0.132532991202346,-0.05241935483870968,259.86358137829916,-37.6192082111437,13.261528592375367,0.6041579970351906,0.1342082366158358,-0.3109766641788856,0.7212963117771263
92.0,0.04638123167155426,-0.008173020527859239,0.035085043988269796,-5.978929618768328,-1.7805513196480938,7.556812316715543,0.42027126099706746,-0.5418988269794722,-0.16391129032258064,259.9298753665689,-37.57230571847507,13.254050586510264,0.6046179626950148,0.13415054804985338,-0.31057787707331386,0.7210846762111436
93.0,0.040115347018572826,-0.002210166177908116,0.012574780058651026,-5.412072336265884,-1.7552111436950146,7.947260997067449,0.5821114369501466,-3.6804924242424244,-0.7883736559139785,260.4412145650049,-33.586724095796676,12.482771260997067,0.6146574760518084,0.1155176303206256,-0.28283279176246334,0.7263345943098729
94.0,0.039483322604487045,-0.007102329351739267,-0.00030348329876260776,-5.072966144529479,-1.769138616694085,8.171381875402332,-0.03571945855089048,-0.9660649572038242,-0.021898767374770478,260.4551076758935,-31.226532287866863,12.230906676918675,0.6185793634464392,0.10267673310130415,-0.26768665956691223,0.7308615934023793
95.0,0.025427529197788838,0.002726101069138044,-0.010799207087169324,-5.15556525352434,-1.7584671578094082,8.133366820957697,-0.1389954819636173,0.9442620682490862,0.38908901877037205,260.1891273786533,-31.758105813672294,12.21301958269897,0.6162434560749861,0.105369452252649,-0.27113454939405524,0.7315129505567964
96.0,0.024955378217376645,-0.004535311528230492,-0.01003518039788693,-5.256837773032106,-1.749249672174141,8.075964220149118,-0.1948777209546289,0.8848272826046232,0.22567157468809712,260.03863287250385,-32.438101794612415,12.22659463864224,0.6143092426698512,0.10900399250927281,-0.27545201268787234,0.7311591872593008
97.0,0.03644779139035631,-0.00317796260911918,0.00977902663819265,-5.371858304297328,-1.7647668502491483,7.998769285526959,-0.1060664175190139,0.6195084485407065,0.05668905248960325,260.0155841388483,-33.23181643625192,12.445614392491851,0.6128304005839421,0.1124770676704507,-0.28129316265392823,0.7297195948342139
98.0,0.04120527518639243,-0.006809411412086471,0.0032561537596942796,-5.41490764677232,-1.7876344086021514,7.967429095949944,-0.11203448728035667,0.3801679405042898,-0.05025336255666704,259.9961878535836,-33.52436448615639,12.642744745419805,0.6121708036544151,0.1131146054302948,-0.2840840060413623,0.7291628309628712
99.0,0.047408302424038075,-0.01769660185081114,0.0055934584691469036,-5.431541156194971,-1.8075701547338057,7.952833352066238,-0.1072564253868345,0.07592681053538647,-0.06660484807613054,260.03251564197666,-33.6344285058634,12.797129650443969,0.6121692431057283,0.11301544614158329,-0.2854705142283916,0.7286755706151886
100.0,0.05557828481510623,-0.019748229740361924,0.0053737214791502765,-5.418512981904012,-1.8141856805664833,7.960291109362707,0.02734067663257278,-0.02129228953579859,-0.004179779701022818,256.7594413847364,-33.00344217151849,12.677419354838708,0.6124831828402832,0.11234243228166799,-0.2850528599606609,0.7286820181353264
101.0,0.05054287962234462,-0.01886703383162864,0.009858379228953586,-5.404838709677417,-1.8231392604248622,7.967867820613691,-0.21149685287175451,0.26411290322580644,0.14963611329661683,258.36816483084186,-33.17461644374509,12.807140047206923,0.6123461773406768,0.11135885904012588,-0.2847762085129819,0.7290575939339101
102.0,0.060637293469708885,-0.01808811959087333,0.023839496459480733,-5.386294256490951,-1.8186860739575135,7.981227380015735,0.05074744295830054,-0.072728166797797,-0.10110149488591659,259.2156766325728,-33.182287568843435,12.793027143981117,0.6127089790007869,0.11090784214791502,-0.28372631743509047,0.7292336401966955
103.0,0.05287175452399685,-0.005357985837922897,0.01726199842643588,-5.3655625491738785,-1.8146262785208496,7.996113296616837,0.17240361919748226,0.09303697875688434,0.010818253343823761,259.63449055861525,-33.10513375295043,12.761949252557041,0.6130035426593232,0.1103092079858379,-0.28261073287962235,0.7295088025334382
104.0,0.056923682140047206,-0.007639653815892998,0.014807238394964596,-5.350495672698662,-1.7985837922895358,8.010416994492523,0.2069236821400472,0.04843627065302911,-0.04007671125098347,259.857641620771,-33.03343823760818,12.647767505900864,0.6133429100708103,0.11043439922108574,-0.28134460136900075,0.7296971425413059
105.0,0.06268450039339103,-0.009420928402832415,0.018042486231313923,-5.335490165224233,-1.794863886703383,8.021027537372145,-0.10862509834775766,-0.18579858379228953,0.06656176239181746,260.0233772619984,-32.96147718332022,12.61263768686074,0.6132517459071598,0.10993367060896932,-0.28056283310778907,0.7301463054523996
106.0,0.05952163650668765,-0.008423288749016523,0.028413847364280098,-5.338604248623131,-1.7901211644374513,8.018895357985834,-0.011673878835562541,-0.0293174665617624,0.04625295043273014,260.02420338316284,-32.98649685287175,12.57621951219512,0.6132452437498033,0.11029985301022815,-0.28053300234618406,0.7301126231660109
107.0,0.0530535011801731,-0.009605035405192761,0.02832966168371362,-5.345206923682142,-1.783644374508262,8.015997639653813,0.09233870967741936,-0.331781077891424,-0.04999508261211644,260.06068548387094,-33.02668666404406,12.545461250983479,0.6134227986018884,0.11083727965224231,-0.28057391173957513,0.7298658892069236
108.0,0.07539771833202202,-0.007304484657749801,0.020293863099921327,-5.333162077104642,-1.7780574350904808,8.025225413060582,-0.026042486231313916,0.4194015538945713,0.07861182140047207,260.0546838119591,-32.94961398505114,12.49300501573564,0.61355145720417,0.11064215448780487,-0.2798469857360346,0.7300590553705743
109.0,0.0605116050354052,-0.00436428009441385,0.02417525570416995,-5.385829661683713,-1.7795952006294264,7.9894655782848165,-0.12294944925255702,0.43867894374508265,0.016366296223446104,260.0567232985838,-33.3173522324941,12.557920682533437,0.6129533310450432,0.11251570075688436,-0.2823324383007475,0.7293143998489376
110.0,0.06238867033831629,-0.008039142407553112,0.026607395751376876,-5.415305468135326,-1.7960950039339103,7.965802911093627,0.03870476003147129,0.3769792486231314,0.03139998033044847,260.0954649390244,-33.521850413060584,12.707898554287961,0.6127874828497246,0.11297790147934698,-0.2842444076707317,0.7286418878001574
111.0,0.06605147802630101,-0.0037716833389532076,0.033950395264321316,-5.434128732531564,-1.7966636694016707,7.952421040800273,0.11040940766550524,0.1869895283054213,0.0527799632835038,260.0942054437825,-33.65534964969465,12.728309636206962,0.6125645418227119,0.1136593891457795,-0.28513569666217076,0.7283768385129819
112.0,0.07858828818702934,-0.0028417818740399396,0.03388707804128732,-5.539940054700086,-1.802836162002173,7.87454647634034,-0.3225244464426211,3.204308100108651,-0.06949908208759506,260.16986531040425,-34.42880090667266,12.904108594657377,0.611653355124574,0.11761590790491178,-0.29039211596680525,0.7263348282926829
113.0,0.059741111235997166,-0.012406054475291299,0.03063317223033982,-5.865207373271888,-1.7926263534524742,7.629756472219101,-0.07159014274474541,1.933200798021805,0.10097270615563299,260.28998304671984,-36.78625988160803,13.232819583380167,0.6081453076913566,0.13058632294069164,-0.30540039565134314,0.7206575392390694
114.0,0.05948034918137199,-0.0038406204338541083,0.03416544902776217,-5.972678430931776,-1.7587666254542726,7.558877524259113,0.5742829980143119,0.15376203589224835,0.09349125173279382,260.3437254130606,-37.552173485444534,13.098722415795585,0.6072668438668465,0.13607497524896034,-0.30912596400022474,0.7189297077378143
115.0,0.04443726349705893,0.0009121052040013487,0.03411655614251996,-5.994726312240081,-1.7362637218538084,7.550713349068974,0.1103368176538908,-0.4321669757596193,0.20643779738488627,260.2649734461054,-37.699891817466565,12.949513646922183,0.6066286493055711,0.1375534094773519,-0.30940391506069453,0.7191800610994343
116.0,0.04162339365329138,-0.007166835262822675,0.025487617548986555,-5.986948409576261,-1.7321756397287476,7.5598958450413996,-0.12897137611929113,0.16868513731220267,0.09282623356187479,260.03655258326773,-37.63561219137537,12.902872222846652,0.6053516233970251,0.13678182229627966,-0.3090970188168296,0.7205876661526359
117.0,0.036862050878573305,-0.0021632760106402903,0.023027050316586122,-5.989013150500168,-1.7358714547974974,7.558791352890487,-0.15349040875201378,-0.08257816305121575,0.13524572889738112,259.91289666928924,-37.64763988797722,12.927611367127497,0.6045691888070885,0.13637353442902106,-0.30944051265389083,0.7211964161211646
118.0,0.036422576898580056,0.005654153085309654,0.02828387846090443,-5.972578771870667,-1.7463497058933726,7.569387995953692,0.15938190775916977,-0.22962913528904874,0.15928473080813757,259.8278961073021,-37.52972912217601,12.98833525345622,0.6042237782207485,0.1350889628327901,-0.30913985767487173,0.721860937231089
119.0,0.043069199355588034,-0.003540144618036042,0.022099209471357392,-5.962284665242967,-1.699581881533101,7.58739762466749,-0.4136998426435877,0.5043835000561987,-0.03654790004121239,259.7700207935259,-37.45051468659848,12.626697669626466,0.6041599468768497,0.13641111600314712,-0.30701671681091003,0.7225659417751301
120.0,0.0464716571128845,0.005574538233861601,0.025609006781312057,-5.932444456933048,-1.7763094301449924,7.59114963845491,-0.3611329661683713,-1.956280909295268,-0.32934790753437493,259.7860479656064,-37.23413322842906,13.166663154246748,0.6043385047680866,0.13219407588512982,-0.30836513871230004,0.7225588962927578
121.0,0.05257914652879247,0.01236484208160054,0.01854183057959612,-5.646210707729197,-1.8104166198344014,7.7925064628526455,-0.005163257277734062,-1.721348019931812,-0.18742740998838564,259.80304222397064,-35.182734816979504,13.078795286800794,0.6078988737166086,0.12024140988572926,-0.29602728779701026,0.726631627647147
122.0,0.05245243715109962,0.013881083511295942,0.013448728035667453,-5.438653740961373,-1.8386646435127947,7.933327975722152,0.10137195121951219,-1.0560664175190138,-0.06897432655202129,259.74824121426695,-33.71022559102319,13.028013890449964,0.6099985632430409,0.11140192865254206,-0.2872509555837923,0.7298289606135026
123.0,0.04512637218538085,0.016031171555955192,0.015348019931812219,-5.346768498744895,-1.863499756472219,7.99339747480424,-0.0979075343748829,-0.44829530553370045,0.006867483421377989,259.6013239481473,-33.056567288599155,13.105716814656624,0.6101080460577724,0.10664925943456596,-0.28396726888022183,0.7318343725440782
124.0,0.04928361620021731,0.017608476495966658,0.01812610704270814,-5.267420945694745,-1.8777590775340578,8.044272926915728,-0.08540989400057063,-0.014422950836208093,-0.001247863728194177,259.6238232492658,-32.502453488355336,13.130535483726868,0.6111153835790284,0.10319868958090742,-0.28083439987132797,0.7327656681686883
125.0,0.0704246562511708,0.011089840136260276,0.02067595674716053,-5.280614485435884,-1.8732147079251722,8.038635283284771,0.09918628037973043,0.3061982413403538,0.0821111192767369,259.63237779300425,-32.589297161172155,13.115695554609303,0.6110526223009225,0.10386178965276686,-0.2812680925084413,0.7325961247334394
126.0,0.07531386047731445,0.012176743529221892,0.014807556133873996,-5.32252156589804,-1.8467729528535974,8.0173589289677,0.08520146790332667,0.46312403543545355,0.0913428755875648,259.5696831689161,-32.875324768252334,12.965223507887995,0.6102782915368274,0.10629958167400996,-0.28229154056138406,0.7324979667501259
127.0,0.07737524821100747,0.007075314928973467,0.029628240432528402,-5.341733517204013,-1.8357651246602862,8.007125509030704,0.1961325599885297,0.2669222807745624,-0.08268157679915153,259.6084710967468,-33.01024422936426,12.904648764312661,0.6103755886044353,0.10752703997102958,-0.28273004248057687,0.7320747619272904
128.0,0.07571840695365478,0.006016807739860454,0.03089289677015878,-5.347547718476121,-1.8278533530461143,8.004704178590881,0.013570189317632278,-0.12062766763789581,-0.08127919811633422,259.76331243173297,-33.04996930685365,12.859733041676392,0.6112970724466904,0.1084140444655502,-0.2825825736690847,0.7312293457830785
129.0,0.0741602787456446,0.0003921921246862231,0.015627589824285346,-5.340160128882395,-1.8304973961260345,8.009194934622155,0.05677475553557379,-0.08277040950133004,0.019296298377730323,259.7728007568094,-32.998071915626994,12.874572889738113,0.6114439735211119,0.10803986353385037,-0.28233378938541087,0.7312638296003895
130.0,0.06646644936495447,-0.006680379154021957,0.010709152897980596,-5.33787314075906,-1.8208230489678168,8.012846877224527,-0.04984826345959311,-0.1347664006593983,-0.007587295342999515,259.78903609831025,-32.9839641639504,12.798468584916264,0.6116014250847102,0.10839181137746805,-0.28185809191929867,0.7312653954138848
131.0,0.06329616724738674,-0.004437750552620735,0.015405717282979282,-5.329723352440899,-1.8245499981267095,8.017698025551681,-0.01440092165898617,0.06447655576786183,0.015900490802143043,259.79609653066575,-32.92559734554719,12.810082050129257,0.6117699270584841,0.1080152758696939,-0.2816023795670451,0.7312794803308607
132.0,0.06122265932336743,0.0005121951219512169,0.02047364280094414,-5.329416207710466,-1.824696695515342,8.018561369000786,-0.044354838709677415,0.1037101691581432,-0.018749999999999996,259.82424763965383,-32.91677075137687,12.805994295830054,0.6119793383666403,0.10808615908654604,-0.28150162004287965,0.7311280502915025
133.0,0.08349960660896932,0.0009437450826121153,0.021338316286388673,-5.341756884343038,-1.8341878442171524,8.00729012588513,-0.12262490165224232,0.046819679386309994,-0.025105723839496462,259.83867279701025,-33.004785847757674,12.88967102675059,0.6118452420645161,0.10817583687214793,-0.2824494626138867,0.7308675128192366
134.0,0.0967332808811959,-0.0026026750590086556,0.03406766325727774,-5.420363493312353,-1.8502706530291113,7.949889850511409,-0.17926829268292682,0.8964299763965381,0.01626671911880409,259.8489575137687,-33.560719905586154,13.097560975609756,0.6109345904846578,0.11044755704169945,-0.2867277688827695,0.7296003128198267
135.0,0.07157277734067663,0.0002958300550747431,0.03896144767899293,-5.502121164437451,-1.8741479150275375,7.887690794649883,-0.1911782061369001,0.248691974822974,0.025909716758457907,259.88600019669553,-34.135370771046425,13.36147718332022,0.6100753432439024,0.11254940386703383,-0.2913460942328875,0.7281587690653029
136.0,0.07548272826046232,-0.0022823048967816864,0.03452306020756061,-5.503916601101496,-1.8573896069836273,7.890161945974297,0.24198372110449218,0.22747180697613423,0.01152296185980293,259.89562809092956,-34.14955403975122,13.245059195983664,0.6101695568739087,0.11329154351963207,-0.29082651846165375,0.7281876075319769
137.0,0.06409462927578585,0.0020453149001536104,0.029429114682851903,-5.500546026750589,-1.848435165411562,7.894675780225542,0.18258214379378818,1.1956595856281145,-0.0003606669851260718,259.97940826261663,-34.129261677625415,13.176055365104341,0.6107596215368758,0.11375606925784906,-0.29029007091060655,0.7278321212718892
138.0,0.06415196133528156,0.005299539170506913,0.0234453561125473,-5.501644749166386,-1.8333550635045524,7.895785470757931,-0.039123674646884724,-0.9109835712412423,-0.08874480161852309,260.0412030272376,-34.1330364167697,13.07240268255217,0.6111919844929002,0.11452394664793375,-0.289701404076655,0.7275259159447004
139.0,0.07148889138660972,0.015774231014199544,0.027212168895882502,-5.436039863624442,-1.8360226293507171,7.940962496721739,-0.12421790116518677,1.5717727885804205,-0.2780501854557716,260.1557851897643,-33.676606815031285,13.019191862425536,0.6126941360012739,0.1123527154198044,-0.2866759846199094,0.727804673489191
140.0,0.053053651043422884,0.004894533737964105,0.016972949683413886,-5.5282364842081595,-1.8567803754074403,7.869236446742349,0.0025804578322280863,-0.9182402307894045,0.12157070735453898,260.15369647072043,-34.327731023565995,13.2825999400547,0.6114663915409688,0.11491380358660222,-0.29171125448840435,0.7263379806682028
141.0,0.0530763178599528,0.006426510808886889,0.014426585740511783,-5.413284253119028,-1.858834813232924,7.94937694353902,0.09143765688808961,-0.9526455546813533,0.08362603499306882,259.93838512981904,-33.51749887602563,13.160622962796449,0.6114650975875762,0.11006863178000074,-0.2866117938338766,0.7291549879566146
142.0,0.06017702596380803,0.013685324641264849,0.020541380989846765,-5.3145217489041245,-1.8582451013450219,8.01729272039264,0.017075044022329622,-0.5928156963021243,-0.002025495485369601,259.8227281667978,-32.822109980892435,13.05198732718894,0.6118845323343074,0.106184562133116,-0.2821198667792514,0.7311676083528156
143.0,0.0677421228129332,0.01896631823461092,0.024438125210745197,-5.238904499644072,-1.845847589074968,8.070904424712445,0.15948798284065788,-0.6008577329436888,-0.057099537297216285,259.8678925012176,-32.290020044209655,12.874078341013824,0.6131009958391969,0.10404545597208795,-0.2780879146146641,0.7320281515427673
144.0,0.08809992132179387,0.01826570754186805,0.023293582106327985,-5.200779663557004,-1.8490998463901684,8.095894121614027,-0.057705780974860454,0.00043390094039186256,-0.047241111235997155,259.89989626653175,-32.030482887490166,12.860318553070323,0.6137477839858755,0.10259000513779923,-0.2764311395045146,0.732347830182234
145.0,0.07858221872541307,0.02354760031471283,0.02571361132966169,-5.2444697088906365,-1.8518064516129027,8.066034618410699,-0.17432140047206923,2.1665715971675845,0.06418666404405979,259.94842643587725,-32.34477773406766,12.929391227380016,0.6135333529937057,0.10420582150668764,-0.27857234820771043,0.7314700049881984
146.0,0.06152463377168335,0.020131111610655283,0.028508710801393743,-5.5836808474766775,-1.872857817241767,7.81878329774081,-0.184009825409314,1.5609690532389195,0.21724820632422912,259.92329015398445,-34.756273650294105,13.488609339290397,0.6091064177774344,0.11582060419869994,-0.2953911416093814,0.7264991907155969
147.0,0.05278119965531454,0.01876736540406879,0.027115881757895935,-5.721511548836687,-1.8627341800606954,7.725786613465209,0.026572978719418522,1.0556468004196171,0.09629129435015549,259.9605484994942,-35.73075779288899,13.553205141714436,0.6077377554347438,0.1214265402999794,-0.30137940524450185,0.7244100102130305
148.0,0.05369705144056049,0.016484489153647298,0.02549342474991571,-5.712275935708666,-1.8695445093851868,7.735707822861639,-0.16710665580158107,0.0944564647259376,0.0806305262073358,259.9146492497471,-35.64229421902514,13.580559224083025,0.6076369124633395,0.12060138354111871,-0.3011030190899929,0.724851489832322
149.0,0.05259754224270355,0.020858294930875577,0.03199769585253458,-5.743730414746542,-1.8652891705069126,7.714360599078341,0.18536386328725035,0.649529569892473,0.04354598694316436,259.9251944124424,-35.8732910906298,13.583818164362519,0.607337552533794,0.12197528098771121,-0.3024517107519201,0.7243751643890168
150.0,0.05436328725038404,0.030110599078341023,0.045490783410138264,-5.8906635944700465,-1.8570437788018437,7.6038133640552985,-0.34960637480798773,2.337768817204301,0.11796754992319508,260.0787010368664,-36.94259312596006,13.72230222734255,0.6063568575975422,0.1282620667357911,-0.3090720231904762,0.7212657494162825
151.0,0.0507555074744296,0.035309598741148716,0.055735444531864686,-6.179900472069237,-1.8913514948859167,7.353639850511408,0.05393145161290322,0.41643391030684507,0.07363173682140048,260.1189700531078,-39.111650521243114,14.440745476003148,0.6022563727678993,0.13804495966758462,-0.3246154371546026,0.7158326283811959
152.0,0.038251573564122746,0.02819866247049568,0.03790086546026751,-6.047975609756097,-1.8765479937057439,7.4695198662470474,-0.12777586546026753,-0.8058086644374509,0.04117820613690008,260.084838463808,-38.11793125491739,14.108857444925256,0.6040517468678206,0.13346509279287963,-0.317516618124705,0.7184438520098346
153.0,0.0325572383949646,0.02831707317073171,0.03249881982690796,-6.033173288749017,-1.8907417387883556,7.481126868607394,-0.1325875295043273,1.5053365952006292,0.022857248229740362,260.09531741738783,-37.99787691778127,14.1870144079465,0.6042872249016522,0.13231356724724627,-0.31727953096557826,0.7186624901500787
154.0,0.023728166797797018,0.022315499606608974,0.03502281667977972,-6.376647128245477,-1.9302446892210856,7.168495672698661,-0.6276676829268292,2.362128737214791,0.15376057238394966,260.14231904012587,-40.62962972069237,15.112340184893785,0.5990871752832414,0.14419115020554685,-0.33609329318823755,0.7118343927761605
155.0,0.026694728560188834,0.007302911093627068,0.03851140833988987,-6.54538001573564,-1.957235247836349,7.01240912667191,-0.33051730920535005,0.828191384736428,0.12619984264358775,260.0941433910307,-41.920510424862314,15.630615656963023,0.5960814162706531,0.14945239343745087,-0.34569887000944144,0.7088148401864673
156.0,0.02303973249409914,-0.004344610542879622,0.0432415420928403,-6.525150275373721,-1.9586719118804092,7.033583005507474,0.21800747442958304,-1.1967127261998427,-0.11979740361919747,260.00915371754525,-41.75303156963021,15.579445318646735,0.5959737479339104,0.14834953930723838,-0.344663040274587,0.7097215649366642
157.0,0.03174016522423289,-0.01144846577498033,0.03363099921321795,-6.2360212431156565,-1.9183760818253341,7.287664830841855,1.0594364673485444,-5.027201760424862,-0.7547501966955154,259.9620906274587,-39.56047526553894,14.78947678992919,0.6001462173186468,0.138696397513572,-0.3287538689807239,0.715285769356609
158.0,0.053817466561762395,-0.004539339103068451,0.013107002360346188,-5.672751770259637,-1.8514681353265146,7.7284189614476775,0.4281815499606608,-1.318668863099922,-0.11075678599527933,260.249323859166,-35.482887490165226,13.550523701809599,0.609620175279701,0.12107564103225807,-0.299078650292683,0.7228387573312351
159.0,0.048068450039339114,-0.007311369000786782,0.012657356412273802,-5.5648597560975634,-1.8338898505114085,7.833718528717544,-0.14120525177025967,-0.3037777832415423,-0.0985383064516129,260.2515747934697,-34.639289929189616,13.20815917584579,0.6114606579868213,0.11759119420220299,-0.29287490514004716,0.7250402260369786
160.0,0.048961644374508284,-0.008716168371361134,0.016610936270653028,-5.577716168371361,-1.8393320220298977,7.835750393391031,0.09406471282454756,0.3522693745082611,0.04183467741935483,260.2435041306058,-34.69474577104641,13.215747934697088,0.6114548605135719,0.11772321900432728,-0.293410429061959,0.7251509698249409
161.0,0.05684238132703909,-0.008892513466077587,0.020492606266013035,-5.581965300893705,-1.8353645221812023,7.838994613568965,-0.1694662995017047,0.16846693497952342,0.07954921422663358,260.2121909610845,-34.70580831769856,13.177307641872943,0.6113221767343501,0.11787282293578648,-0.2933827854043253,0.7254044743680121
162.0,0.06351796485706793,-0.006489529746414089,0.02869948960035507,-5.603210817244648,-1.841076438903348,7.825188101434368,0.027648832939942303,0.38652005285561536,0.03083971332889508,260.19772116897656,-34.851133899211206,13.240389658859367,0.610979070750338,0.11835893784869578,-0.2945725462796607,0.725179264129718
163.0,0.06513978494623657,-0.007553970223325063,0.033806865177832934,-5.637451199338295,-1.843952853598016,7.799750620347397,-0.08615591397849462,0.07906844499586436,0.15063327129859388,260.1751046836228,-35.08999948304384,13.300485938792391,0.6104386695175766,0.11946783070719608,-0.29625259055603803,0.724785487313482
164.0,0.06261021505376345,-0.011756823821339952,0.03385504549214227,-5.645959470636889,-1.843444168734492,7.793133374689829,0.0774361559139785,-0.4497802936311001,-0.029118848221670796,260.1891400434243,-35.15331627377998,13.306492969396194,0.6104161827628205,0.11980976145843673,-0.2966325832497932,0.7245950004389992
165.0,0.06870430107526881,0.0066699751861042135,0.01968155500413565,-5.264382961124897,-1.831641439205956,8.041215880893303,0.7336021505376343,-4.362944582299421,-0.7400382547559966,260.19409119106695,-32.504732733664184,12.841754549214226,0.6147406258047974,0.10637441520099256,-0.2786263747539288,0.729645537618693
166.0,0.0604274193548387,0.004645161290322578,0.014467741935483874,-5.032983870967742,-1.8184758064516129,8.194903225806453,0.16834677419354838,0.21391129032258105,-0.1757056451612903,260.5289314516129,-30.9179939516129,12.523084677419355,0.619473856548387,0.09936065648387096,-0.26742164874999996,0.7309314359838709
167.0,0.05180645161290323,0.016717741935483872,0.012322580645161292,-5.021354838709677,-1.7986612903225816,8.213145161290322,0.11038306451612903,0.2849294354838711,-0.04818548387096775,260.80196572580644,-30.81592741935484,12.357913306451614,0.6215369438870967,0.10030684965322581,-0.26579712810483863,0.7298602210483871
168.0,0.056306451612903236,0.022685483870967745,0.012008064516129032,-5.012629032258065,-1.8032500000000007,8.221379032258065,0.09470766129032257,-0.19148185483870964,-0.027772177419354845,260.9386592741935,-30.745665322580642,12.369606854838711,0.6225649432419355,0.1001187717983871,-0.2653500944435483,0.7292862438548385
169.0,0.05674193548387098,0.025145161290322585,0.012564516129032258,-4.9905483870967755,-1.7957822580645164,8.238975806451617,0.01491935483870967,0.004637096774193564,0.028124999999999994,260.9853830645161,-30.593296370967742,12.292842741935484,0.6232183162177418,0.09970210920967743,-0.264023073282258,0.7293331521532258
170.0,0.05655707196029778,0.016685070306038052,0.012140818858560797,-5.00737758478081,-1.8082760545905705,8.226098428453268,-0.2815782671629446,0.07821288254755998,0.13424446856906533,260.94025149917286,-30.722342845326715,12.394624948304383,0.6227009470413565,0.09976231599090157,-0.26531512114309347,0.7293087510971878
171.0,0.07287629365127399,0.015607582359942706,0.012333292985535323,-4.95033434707176,-1.819269321551777,8.255987058443784,0.21966400371199743,-1.9231821110472271,-0.32609853184449955,260.9105153296415,-30.32743568308822,12.421673828400813,0.6230294981235499,0.0971334224820755,-0.26312208724640906,0.7301268629911588
172.0,0.07234905312364007,0.01128862220915722,0.015451592729326799,-4.952821359403774,-1.8230901139248898,8.253386770389326,-0.11923625851266487,1.7861443995455106,-0.04060302936311,261.09198241520477,-30.348932895307552,12.448324913432359,0.6240679638488333,0.0975535604230654,-0.26330371039374983,0.7291005682400109
173.0,0.07446681609761861,0.008599661222595919,0.018350304625875044,-5.09133032958387,-1.8263802261205875,8.167399227051469,-0.04344299648685958,1.0003554659017877,0.040255502430954826,261.3040864574057,-31.289531480108536,12.599910514347965,0.6239464628556717,0.10293415859233522,-0.26944708446044685,0.7261977249879243
174.0,0.06929192496462364,0.002114051697057204,0.020157154673283707,-5.164540164791934,-1.836891922659035,8.119827859001735,-0.15142006236616778,0.5030138364127349,0.10782444673081966,261.3525718479003,-31.791047580140816,12.738094517598846,0.6234094460535242,0.10531571061314243,-0.2730782007560889,0.7249940796123728
175.0,0.07772170394515004,0.007552358472893486,0.028817204301075275,-5.2024922258439155,-1.8321201903263273,8.098471769510319,-0.06275289423401147,0.31383706118167165,0.012459724251620397,261.38646922183506,-32.04503858978682,12.737430219924317,0.6232347843921173,0.10694145066164626,-0.2745413049822037,0.7243824828961073
176.0,0.09189232325502977,0.02135446405155296,-0.009662995017046943,-5.186355475628488,-1.835971188790229,8.108214641639503,-0.1988921827582331,-0.11232320819751981,0.03203631373871342,261.3153382694541,-31.927854660747066,12.755133284627778,0.6229843849073096,0.10596836009636207,-0.2740031173125023,0.7249555223520661
177.0,0.09576951032183131,0.021522086096437007,-0.0542884867558353,-5.192441946723615,-1.8507359784196917,8.101304709452625,-0.15038215128695065,-0.14785227230152487,0.12102487729946423,261.27675995653965,-31.965775448653105,12.867610805140309,0.6226809584037315,0.10555477713573866,-0.2748210984780638,0.7249814322274923
178.0,0.10627027837098647,0.024848375857030466,-0.07341804353527406,-5.181391705069122,-1.8639966280768792,8.105271552208615,-0.13863521411711813,-0.13420839421527855,0.10136117979843393,261.22706506874977,-31.892791343524035,12.949275504851823,0.6223972788729908,0.10450738217290474,-0.2749460702217227,0.7253297850161848
179.0,0.1315883256528418,0.03609216589861751,-0.07563978494623656,-5.179631336405528,-1.8806820276497689,8.102094470046085,-0.021687788018433185,0.6311107910906297,0.27854742703533025,260.8451660906298,-31.888503264208907,13.065658602150538,0.6198736660714286,0.10285406371351768,-0.2758434992611367,0.7273529381036863
180.0,0.1194311565696302,0.03407789142407553,-0.0649730527143981,-5.518337922895357,-1.8629402045633356,7.866948662470497,-0.15968971282454758,1.1271919256490952,0.6613235149488591,260.76816360149485,-34.28950260621558,13.333814417781273,0.6152969132936663,0.11593841148800156,-0.2910510370826121,0.7229714695123918
181.0,0.11944590873328088,0.03423229740361919,-0.07089083398898505,-5.443251770259638,-1.760714988198269,7.9472220692368225,0.7495918568056649,-0.12480945121951226,0.5497455251770259,260.32485862509833,-33.74120525177026,12.501973101888277,0.6138681457047599,0.11612642116955155,-0.28414877224586943,0.7270298511359166
182.0,0.11711638754636394,0.03324038065265446,-0.0606986812034019,-5.68723955640478,-1.6349279626091195,7.797878123712113,0.20994377786519802,0.9416119314562961,0.5172462744932749,259.9773138651605,-35.49040629331984,11.83528354595182,0.6090958613606364,0.1294121119833933,-0.2914860401194785,0.7257913880443407
183.0,0.10627084233005803,0.04076068268625932,-0.06640112328421369,-5.6727980464536625,-1.617498573834271,7.817596532144683,-1.6494291085207116,0.3231895077485215,-0.193476555028405,256.1494697509164,-34.88629503969897,11.54122782985197,0.6074846889640619,0.12867113022832652,-0.29042356104361017,0.7278420363014573
184.0,0.11903864697148063,0.026223083278613533,-0.06786588422275201,-5.556471603871992,-1.8261726740139104,7.854568427362661,-0.32365608651842037,-0.23039113322251337,-0.5966878742883961,258.1426028190066,-34.28999731823659,12.996067543958242,0.6096388327038051,0.11653078829158262,-0.29221564337664374,0.7273549295015351
185.0,0.11431633371390712,0.021507293016175377,-0.07413514510114784,-5.509629979748739,-1.8735277217433826,7.879447864350093,0.06781888829075045,-0.05432813938859736,-0.25171726523231763,259.28640762508155,-34.07803367092002,13.329087076463779,0.6117432240718084,0.11355370398764811,-0.2914710231383612,0.7264663761795636
186.0,0.11846422507882613,0.019360255477403186,-0.07132799741288706,-5.494013258953835,-1.8932776295577645,7.888264451451205,-0.04750282965478213,-0.04323409329776052,-0.1117506467782359,259.85975574015686,-34.01888996685262,13.468506952866036,0.6127167172766594,0.1125144215791899,-0.2912406968571428,0.725959027337618
187.0,0.138679117147708,0.015488115449915112,-0.07392359932088285,-5.448359932088286,-1.894764006791171,7.919896434634972,0.9524246604414262,-0.44492253820033956,-0.1651687181663837,260.2181027164686,-33.72518039049236,13.433855050933786,0.6141518361621392,0.111145320524618,-0.28899561514516126,0.7258652585305602
188.0,0.13011290322580646,0.017943548387096775,-0.07230645161290324,-5.458709677419355,-1.796403225806451,7.935467741935484,0.059324596774193605,0.2297883064516129,0.2887600806451613,260.51229838709673,-33.83024193548387,12.748336693548389,0.6148941537177418,0.11564508283870968,-0.28584107424999994,0.7257827267177419
189.0,0.1260161290322581,0.01999193548387097,-0.07025806451612904,-5.489612903225806,-1.7706129032258062,7.920217741935483,-0.1457157258064516,0.49017137096774194,0.17026209677419354,260.40216733870966,-34.0508064516129,12.598185483870967,0.6139607585725806,0.11754721362096773,-0.2864923780241935,0.7260302636612903
190.0,0.12278039702233254,0.0199079818031431,-0.06534387923904053,-5.561785153019024,-1.748060173697271,7.874437344913149,0.16328706575682383,0.8784519747725392,0.16174265922249792,260.33874974152195,-34.563844086021504,12.51385054797353,0.6127271563306451,0.12094800475206781,-0.2891543829230769,0.7254530310390819
191.0,0.1260076257338256,0.022507983820532998,-0.055733013577034037,-5.675690078476468,-1.728020940507172,7.797064758215819,-0.07633431428917264,0.9022515332163247,0.018060304827614046,260.38215823523774,-35.37503401193286,12.497882812342391,0.6116626963931944,0.1261065152549678,-0.2937032986641348,0.7236218567360042
192.0,0.13581832899594506,0.03595963707155683,-0.043031829369162194,-5.723869232786621,-1.7404540186406825,7.75958883072081,0.07261913317799432,-0.014852055972482792,0.0847862008009038,260.3959430289092,-35.71662486886966,12.639566406171195,0.6110911020232099,0.12743508460329037,-0.29638549350142224,0.7228051079244537
193.0,0.1313809386915209,0.03905643143900424,-0.04450381791038756,-5.7220233260707305,-1.7268842673848577,7.763991996005564,0.13653638110512617,-0.0012516328249510648,0.05622878588432286,260.4141005467127,-35.704380982821924,12.545766065988824,0.6112833984632178,0.1279493159145484,-0.29582189945232407,0.7227976715952917
194.0,0.12849288870059916,0.03775805442917955,-0.05469948960035507,-5.6849189210998805,-1.7350268111117835,7.78946777219633,-0.3670644707377595,0.35091148197462124,0.1874641913292582,260.30241317658215,-35.44410077366902,12.55498988783312,0.6110166319937057,0.1260079361871129,-0.2944782144398717,0.7239046690395814
195.0,0.09341699449252558,0.030645554681353274,-0.048521243115656976,-6.1284122738001585,-1.8081455546813532,7.4004689221085735,-1.0864894767899291,4.19806500786782,0.5515440597954366,259.87996410306846,-38.791795338316284,13.806532749803303,0.6015397067285602,0.13890718396577498,-0.31985525457513775,0.7179643693733281
196.0,0.08259980892435653,0.020697248136075833,-0.030632806938668475,-6.414916676033119,-1.8453960698362737,7.149456670787906,-0.4975469844704208,1.829607650987224,0.31458075755872766,259.56676284843206,-40.947792502622605,14.527060444063542,0.5952136747529504,0.14748594727774345,-0.33581204162011546,0.7143797090190231
197.0,0.07559022704282342,0.011892978906747594,-0.031062371211269715,-6.43428091866172,-1.8748754542729755,7.135357367652017,-0.2217321615900491,0.19507096259038625,0.046957717489041234,259.3033159000225,-41.05244967873065,14.745813488160803,0.5933544833845397,0.14609636103000073,-0.3378402997777997,0.715525509594189
198.0,0.08650344685474504,0.013141957963358434,-0.02129021018320782,-6.391239921696451,-1.8632996703008504,7.183243968004197,0.18523366958900006,-0.800175972237833,-0.047194864373758943,259.33740703795286,-40.6979702310704,14.550156888089617,0.5944142153886985,0.1449800059733337,-0.3349875905073715,0.7163840152617642
199.0,0.08780502791203026,0.011906934921883782,-0.021304035068000448,-6.280421790116517,-1.8462826046232805,7.286772357723576,0.4132219193735716,-1.7001777284477915,-0.2819311753025364,259.4248232081975,-39.843343027612306,14.225093196208459,0.5967764261692705,0.14162842605462517,-0.3285907417756173,0.7180961732678806
200.0,0.10071211269716382,0.026346858491626393,-0.028842418792851526,-5.845450863586976,-1.7813710426735598,7.637894440073431,1.1055586386797047,-3.5578485023041475,-0.4637675152673186,259.81909433423255,-36.65864043591472,13.167596755460641,0.6053696932813308,0.12891435141834326,-0.3047113337398936,0.7232980241044358
201.0,0.08416548649357461,0.03665934210033345,-0.05334875051515491,-5.451137162339366,-1.7665263478326025,7.926305318272075,0.14788804044434456,-3.283150863118654,-0.1543576252294781,259.8997527841782,-33.8421832850961,12.594950896369562,0.6108443032378328,0.11517047424219773,-0.2854378028606365,0.7288309016447773
202.0,0.08407122250946011,0.030791652616987006,-0.07335525083361433,-5.138570117267994,-1.7565851785245958,8.139354464051554,0.08755409126671913,-0.6416582368588661,-0.4332488010940017,260.0483870967742,-31.657726387171707,12.193147971226256,0.6154121926934173,0.10457298250627553,-0.27048818037559474,0.732413788671275
203.0,0.08651410587838598,0.0262468247723952,-0.07492570529391929,-5.071344198418943,-1.774689670675508,8.187482147540372,-0.0776563261024315,-1.0984404855569294,-0.007988647858828829,259.93782642089093,-31.165211119853133,12.23617652017534,0.6155480310748194,0.1010671192477614,-0.26796580565246714,0.7340175528417818
204.0,0.10585444243666116,0.015188311819311035,-0.04689021652357607,-5.409992339682349,-1.7564776602888323,7.94521225535545,-0.34618381880380306,6.7780672251954694,0.8988771784208448,259.32962126386593,-33.61573740644354,12.498373191193805,0.6074438994123113,0.1129405512518135,-0.2842375669912359,0.7321636651654693
205.0,0.0948634918713597,0.015848286515477705,-0.03769373139318064,-5.891998530187358,-1.6967958718438656,7.598811477795742,-0.12692255456319185,0.2826065866339271,0.6655282823654185,258.3423824257961,-37.09032346325324,12.61532054524285,0.5952917456998614,0.13040628517901454,-0.3061823974649335,0.7301235481397763
206.0,0.09908398826455475,0.018891885193222723,-0.03675795932365564,-5.7370771565177545,-1.6835277549620584,7.737552867143346,-0.14840915297003024,-1.4959410025130915,0.21779561246516405,257.4047425504275,-35.8940012280861,12.294702955548253,0.5916255926335656,0.12269549786094708,-0.2986863145349844,0.7379684030549394
207.0,0.11761342270370594,0.023505850430712745,-0.03574303496136698,-5.606019377029998,-1.678289223103149,7.845251855998708,-0.005305766961205591,-0.8518875519477899,-0.09761141035727974,257.0263680110049,-34.91823717318283,12.082216109110533,0.5910147670387491,0.11716715091818475,-0.2923193282882296,0.7422335140313099
208.0,0.1203349371583046,0.01682550586051766,-0.0351215174806835,-5.53466291432145,-1.6757494502612522,7.90280737961226,0.08149530200326817,-0.2789931711351853,-0.06251538259799472,256.95408622324436,-34.389436126914,11.974298578748815,0.5914935598056648,0.11445919391876977,-0.28879274522879217,0.7438589482092032
209.0,0.1292625885129819,0.018277930763178594,-0.03596439811172306,-5.49389142407553,-1.6714710857592445,7.936216758457906,0.18876253933910306,-0.056731904012588485,-0.1366443745082612,257.01983674272225,-34.084172157749805,11.894490066876475,0.5925000380641228,0.11326969952183319,-0.28656046345476005,0.7442233498473643
210.0,0.12816758457907157,0.018925255704169943,-0.03571203776553896,-5.420090873328087,-1.6763847364280093,7.988326121164436,-0.12081530291109362,-0.44570466168371353,-0.1271931549960661,257.0777611132966,-33.55496410306845,11.855057533438238,0.5937621478304482,0.1105498857891424,-0.2831578215660897,0.744989151891424
211.0,0.12179032258064515,0.018387096774193548,-0.04500000000000001,-5.382314516129032,-1.695725806451613,8.010846774193546,-0.1065524193548387,0.3822076612903226,0.006048387096774188,257.16990927419357,-33.29289314516129,11.949647177419354,0.5946979642661288,0.10867535951612903,-0.2819485571048387,0.7449874378709676
212.0,0.1107258064516129,0.01532258064516129,-0.050943548387096776,-5.368572580645161,-1.706516129032258,8.01748387096774,0.21149193548387102,-1.113054435483871,-0.3982358870967742,257.38240927419355,-33.1905745967742,12.015625,0.5962063690403224,0.10823049175806448,-0.2814705144193548,0.7440188989919354
213.0,0.10261624704956726,0.016178009441384738,-0.06014299763965381,-5.303538749016522,-1.7140774980330444,8.058227380015733,0.14807238394964595,0.6583927517702597,-0.113131884343037,257.71484313532653,-32.746906963021246,12.004220348151062,0.5990428405141621,0.1064911795220299,-0.2784246943721479,0.7431075294740361
214.0,0.1006992525570417,0.01590755310778914,-0.05658359559402046,-5.348047600314711,-1.707401652242329,8.030774980330447,-0.08110493705743507,0.3549776258851298,-0.0380175550747443,257.82213930959875,-33.056467594413846,12.005411585365852,0.5992365235232099,0.10854673910778911,-0.2801816540489772,0.7420105343257275
215.0,0.09722462627852085,0.011897324940991341,-0.05998131392604249,-5.444064122738,-1.7411846970889067,7.957443941778127,-0.2838992427222659,1.4694494984264357,0.026177714398111722,257.79985493705743,-33.73460980527144,12.34796788945712,0.5978643128422501,0.11056875223937843,-0.2859377292543273,0.7405800294370574
216.0,0.11140263571990558,0.015335759244689218,-0.05054307631785997,-5.501394964594807,-1.735596380802518,7.919419551534224,0.178136064122738,-0.10995771046420144,0.060215873328088115,257.75975609756097,-34.127309942958306,12.366045436664045,0.596980433904996,0.1127265060833989,-0.288422508397325,0.7400137471298189
217.0,0.1116058221872541,0.020302517702596383,-0.03569394177812747,-5.499337136113296,-1.7219461054287963,7.924732494099134,0.07128491345397324,9.8347757671053e-06,0.09164044059795437,257.87660552714397,-34.109465971675846,12.258917682926828,0.5978246630137685,0.11349267137411487,-0.2877142494382376,0.7395261777985838
218.0,0.11271636506687649,0.021234657749803307,-0.03248741148701811,-5.561456923682139,-1.6994207317073167,7.885481117230527,0.12698293666404406,1.178048780487805,-0.08750491738788356,258.04372664240753,-34.55716709284029,12.15785675649095,0.5982573963794255,0.11713291074685284,-0.2897156078536586,0.7378184117136112
219.0,0.11240066876475216,0.02118941778127459,-0.02433477576711252,-5.715714791502757,-1.6937977970102285,7.774273996852871,-0.10252753737214793,0.978946203776554,0.03127458693941778,258.13433689024384,-35.66857912077104,12.288187204956728,0.5969622255765143,0.12324316548131395,-0.2968132579223052,0.7350092190119983
220.0,0.11389791502753738,0.015622934697088907,-0.019546420141620776,-5.799550944138475,-1.696124704956727,7.711907159716759,0.2960648603461841,0.207668666404406,-0.11314294846577497,258.16946179189614,-36.27337726199842,12.40031840086546,0.5961342123648702,0.1263105055188828,-0.3008959280377655,0.7335205051793863
221.0,0.11797027087782394,0.014882319883106666,-0.019795099471732046,-5.825768367614552,-1.681488235734892,7.696809186617212,0.09890728616387548,0.13506753212693418,-0.10572782023903188,258.2292789470233,-36.455448231613644,12.325472420478814,0.5962614354806302,0.12797649910928777,-0.30154660308186276,0.7328903277264058
222.0,0.11333210632797572,0.012956502191750029,-0.023013206698887272,-5.788883397025215,-1.6928723633434493,7.722342437525757,-0.021848481229627972,-0.6811385392079726,-0.026850928215503354,258.25107240034095,-36.18346762485481,12.359382551702822,0.5968424387670657,0.12619140580956129,-0.30008366166288264,0.7333225657908191
223.0,0.10877492413172977,0.00960728335393953,-0.04107918399460493,-5.695542504964221,-1.7020773107039822,7.789590573601586,-0.27833855513094297,-0.11889588250721211,0.01646364879547413,258.1915896275898,-35.50992937694353,12.321551154883668,0.59760686780692,0.12223104130800645,-0.29601264950886064,0.7350147513026675
224.0,0.101617989209846,0.005202652579521187,-0.041151221385485756,-5.66565331010453,-1.7171989715634481,7.807278520849721,-0.14381855072871003,-0.06321910943763812,0.011247822299651565,258.15991638098984,-35.299396800419615,12.402315328668841,0.5977053388049249,0.12045927652882993,-0.2951930475036716,0.7355723168586694
225.0,0.1032807687984714,-0.0025922220973361824,-0.041087707466936435,-5.663786332471621,-1.7103938406204335,7.810332808811954,0.01344858753887078,0.35982189689408417,0.07250899179498707,258.1728513356562,-35.287601626016254,12.350880446592484,0.597846500317785,0.12071835786118915,-0.2948517134534486,0.7355645672720766
226.0,0.09194376381551833,0.0031432130680753797,-0.04355844666741599,-5.598855531827207,-1.7077890862088343,7.857355344498144,-0.058103855232100696,-0.5291664325053388,-0.04751086508560938,258.14426936982505,-34.82738856262411,12.264269908396088,0.5984282697902289,0.11839133099664681,-0.29170459799400544,0.7366907921959462
227.0,0.118615469633959,0.0055409220336442985,-0.05295546251545466,-5.585273556629576,-1.7060896650556368,7.868071850061819,-0.16686172305271438,-0.04450552152410922,0.059569705144056045,258.15049326083704,-34.727620323798284,12.238424293301113,0.5986516267951931,0.1179586431340433,-0.2909760127263497,0.7368870746266907
228.0,0.09777960735828554,0.005682833164737177,-0.042155052264808375,-5.652643662657825,-1.7300706979880858,7.814489603237048,-0.10663601494885916,0.9712058840058446,0.13834110748941592,258.15805175433667,-35.21101647090779,12.485325812071485,0.5977587960433479,0.11948389505846538,-0.29505807138835194,0.7357350034596866
229.0,0.0936832733880334,0.003699571016447492,-0.041951041549586024,-5.738553388782736,-1.723222191000712,7.751654808737029,0.2113527851148327,0.8708621351766512,-0.15759069068225245,258.1689672431719,-35.827115589056234,12.53310081113484,0.5967926049870369,0.1229233879137256,-0.2989367184647728,0.7343831314709546
230.0,0.09515941703195832,0.008520100408377355,-0.04011127346296506,-5.784423775804578,-1.7449801431194034,7.712648832939944,-0.2867235210370537,0.3328052995391705,-0.002420057322693042,258.27042472181637,-36.15181264283841,12.750858201266343,0.5967816381394477,0.1239348505964557,-0.3018001835463265,0.7330498321861301
231.0,0.08868195271814469,0.008142445018920233,-0.038460529766588,-5.83033681765389,-1.7599385560675884,7.675442283915929,0.09080307968978307,1.0304128732531566,0.04787428346633696,258.29219821288075,-36.4850815818066,12.910683844741673,0.5962503011370872,0.1250989860185081,-0.30451152255591774,0.7321651600400884
232.0,0.0851946348956577,0.009354464051552956,-0.0348596905323892,-5.895805702296652,-1.7473965006931178,7.628629875238845,0.007291783747330562,-0.08338719043872478,0.140897212543554,258.3504411599415,-36.9611432692668,12.897931418830318,0.595848663798284,0.1281717219628339,-0.30713263816230185,0.7308699481907758
233.0,0.09615038777115882,0.0032310516653553632,-0.038415945449777084,-5.845319770709228,-1.7135090479937063,7.6747128245475995,0.0983313663781799,-0.668998913491439,0.0747115132441647,258.22709668052903,-36.59653066576749,12.58331460042711,0.5958501293005132,0.12737687518227114,-0.3036007790588588,0.7324657969626465
234.0,0.08791783747330562,-0.007098085496984002,-0.043460529766588006,-5.812412049005283,-1.6870967741935485,7.705346184107004,-0.026758785733018618,0.007504870555618048,0.07590807762916339,258.20272516953275,-36.35865085609382,12.350788889513318,0.5962262275456145,0.12717131480986096,-0.30111430338072764,0.7332338830958001
235.0,0.08846989621969953,-0.01117979843392904,-0.047673747705219,-5.799127046570006,-1.6821812596006147,7.717003484320559,-0.04133649919448503,-0.08782923082687046,-0.04789301637256004,258.18357779775954,-36.265848038664714,12.295431980817504,0.596308006879847,0.12686673027424972,-0.30032692228691316,0.7335573078194897
236.0,0.09263384661496384,-0.0043310479187741195,-0.04124049305009181,-5.769170132254319,-1.6588246974635643,7.744740923906934,0.3796317110636544,-0.1961077704095013,-0.11509029260799519,258.3629828406579,-36.04539451500506,12.083691600164848,0.5979360729639203,0.12719337374845452,-0.2978093772410175,0.7332007173361805
237.0,0.10227114873062944,-0.00736363164765997,-0.032276321894732604,-5.7571651060714775,-1.650544608813688,7.755229002573611,-0.027218732618024516,-0.052244634463359876,-0.0422583743295781,258.48519875253254,-35.96038386606837,12.006399629088456,0.5989140810431777,0.12742037196773326,-0.296789572556033,0.732785631753587
238.0,0.10748734087837153,-0.01473634731384535,-0.027724182452742652,-5.762576408642499,-1.6497577114728958,7.7529347777845015,0.031043091448284217,0.04330932639351207,-0.039917589622546344,258.5465404284936,-36.00496151828764,12.002671780750065,0.5992517089017732,0.1278098741313321,-0.29695225267586584,0.7323746077823234
239.0,0.1208089733502794,-0.014398071375254697,-0.02516814944824387,-5.767248078436118,-1.6558465976719314,7.748190441606649,-0.06891000423651879,0.021605489317920473,0.02705143335552462,258.57094428977786,-36.027928241441224,12.052698006818776,0.5993096001865277,0.12776358172341587,-0.29735667163691004,0.7321703558384471
240.0,0.1229143214509068,-0.014771813028303982,-0.020943634126167572,-5.7680968952369405,-1.653320623776957,7.747450846295063,0.08402945893602856,-0.039748002783998065,0.005116983396881115,258.58405593717845,-36.03228139058686,12.0457235116706,0.5994036390783151,0.12790721368232164,-0.2972794201890293,0.7321045813220561
241.0,0.13090247937218827,-0.006044443099517845,-0.01771414593798544,-5.795539399624765,-1.6678129476083838,7.722368224091671,-0.600933736306966,2.5922424423530837,0.30512536817365693,258.6272217136718,-36.249814967520024,12.191134769210594,0.5992133127138232,0.12851746926444957,-0.2992068852715406,0.731337399441516
242.0,0.10040397512270052,-0.009623899441759393,-0.017324519500955385,-6.239964547974973,-1.731857554981079,7.327170759806677,-0.30362768583042965,0.7791392112509836,0.029848368832190608,258.3699701561388,-39.618493534805744,13.355840042055373,0.5907849192500936,0.14201241390375968,-0.32419869743312346,0.7243437746516335
243.0,0.09660147615301035,-0.006982878123712111,-0.02477014724064292,-6.123963882956802,-1.7040208309917193,7.442161402720016,0.21648683076692518,-0.5585169158143193,0.050122232213105536,258.3107601813345,-38.6982152223596,12.929564272601251,0.5924071836457984,0.13849352558278072,-0.3171461630291109,0.7271167763141133
244.0,0.10948484507886552,0.0006391667603312004,-0.03781386984376757,-5.623044097261249,-1.689406166872728,7.799117680116892,-0.008642894608669599,-3.629720692368214,-0.23843711363380912,258.2317471244989,-35.1192934884418,12.273495747630287,0.5980012861383989,0.1205808106395414,-0.2927438177419355,0.7350272812255068
245.0,0.09710651530478438,-0.00041961709939679955,-0.05855831553707243,-5.2685114832715145,-1.702363718107227,8.05111947847589,0.13794443820014235,-2.1012068674834214,-0.1288589786819527,258.214751695328,-32.593545108838185,11.967039451500504,0.602163657092653,0.10719948077591697,-0.27638394906859987,0.7403452836551645
246.0,0.09548967816867107,-0.0007446330223670914,-0.06590161477651643,-5.145845416057847,-1.708739088082125,8.145060694616163,0.26147741748154807,-0.8356421640253268,-0.4340121670225918,258.2763548574426,-31.705826636319358,11.86002772470121,0.6041412180969241,0.10258338825746507,-0.2706317717477801,0.7419611749479225
247.0,0.09919261174178559,0.0010677756547150708,-0.06093851860177589,-5.170464950732456,-1.7230523397399868,8.138248473268144,0.25393859353340076,0.36635710539133043,-0.2554325428046907,258.74671237495784,-31.83671228129332,11.95209527556105,0.6070808639140532,0.10389527959724253,-0.27161132770184704,0.7393472095822561
248.0,0.09742195130664197,0.010575056656150099,-0.07100417961633267,-5.15875799089145,-1.718885235246094,8.149628234584778,0.002135115660448203,-0.1525846945185774,0.0024847239684485933,258.95952483329893,-31.74426174052224,11.90966518850967,0.6086426607778599,0.10410772410222766,-0.27070377735512274,0.7384664428397256
249.0,0.0955756491387655,0.01020098230132446,-0.07145409610242281,-5.174642567436284,-1.7171570157347698,8.140482882044555,0.12518242801118398,0.7900038761868167,-0.0015851360488205578,259.074250024832,-31.853666078758366,11.911190776788274,0.609201034901125,0.10503055239336401,-0.2712920442243749,0.7376964806409485
250.0,0.09763674368069368,0.018600922007505356,-0.06796441270596393,-5.273958071399383,-1.6928795831362016,8.08187232783806,-0.004911642762607027,1.2466461018564745,0.016828657294985772,259.29219870298584,-32.54349982312651,11.827122775903035,0.6095857858651028,0.11011490256409047,-0.2747859211307705,0.7353249761376972
251.0,0.100657568573328,0.021400794449483455,-0.05700007754551879,-5.34907506057699,-1.695080250898962,8.032443694547332,0.08577089829948777,0.29777206932395117,-0.11880259372334374,259.4382800022741,-33.06374206247555,11.912536932142443,0.6097370201079102,0.11311417903241054,-0.2781631593917686,0.7334848879945726
252.0,0.09652150842588697,0.026397635994364444,-0.06638940222860593,-5.272244341573199,-1.6981691764404516,8.082167859037932,-0.18676124823888898,-0.9018660915228807,0.2353884965143725,259.2437251843449,-32.52931106252173,11.86386840612592,0.609305714783452,0.10974637146414654,-0.27491028944870366,0.7355495359652717
253.0,0.09669551534225018,0.021573564122737997,-0.06665617623918174,-5.126270653029112,-1.7109520062942567,8.170715971675847,-0.13311369000786782,-0.07130212431156568,0.07503933910306845,258.87091856805665,-31.525275373721477,11.823613296616838,0.6084337806215578,0.10313438334382376,-0.26901007368214,0.7393345986860738
254.0,0.11047731445056387,0.025375969427897042,-0.06277846465100595,-5.059226330972987,-1.6524060544752912,8.224800494548726,0.40126353452474617,-0.7053805589899217,-0.11190569855007308,259.07117567719456,-31.063682514705327,11.358824135476375,0.6106362261942229,0.10352096249222585,-0.26369873934772026,0.7394059539792438
255.0,0.09681615525832678,0.019694278970439474,-0.06156232437900415,-5.1023629687909775,-1.6792046008017683,8.193592222097337,-0.035009460117642666,0.202409051740287,-0.06672192874002474,259.12400247274365,-31.358454160578468,11.579736615338504,0.610452043384287,0.10408768344123488,-0.2665731678209884,0.7384853862185756
256.0,0.09520587463939154,0.01853321344273351,-0.06577722827919522,-5.085945449777078,-1.6579146528792472,8.208735528829942,0.053526937919148754,0.1370522835412686,-0.032180791277958865,259.17278998538836,-31.24585768611142,11.41865469633959,0.6110367178015061,0.10446305225169533,-0.26504422243527775,0.7385321838488632
257.0,0.08676894833464462,0.013054962346858493,-0.06982016410025851,-5.1095384211906625,-1.6600352178636992,8.1941553332584,0.03932739500206062,0.44128873028361615,0.054203664156457235,259.20669888726536,-31.40727679742235,11.449369637705594,0.6110005642508713,0.10531753720767298,-0.26616766118616764,0.7380455714798995
258.0,0.08685496984002097,0.011546363942902102,-0.06814690345060131,-5.151505638604771,-1.655768985800456,8.168954928627628,-0.06043563373421753,0.2615570323329961,0.06620981791615152,259.22402214229515,-31.69375936645311,11.450707635532577,0.610675876604586,0.10709552984301825,-0.26787499835783596,0.7374511531892023
259.0,0.07819669551534225,0.005564122738001573,-0.07642171518489377,-5.18555153422502,-1.6751298190401256,8.142744295830058,-0.23928992918961448,0.4578088119590873,0.04880015735641227,259.15725806451616,-31.93247442958301,11.618371361132965,0.6097991155027539,0.10736049405979545,-0.27021839762549177,0.737286448649882
260.0,0.08394256490952007,0.00887254130605822,-0.070654602675059,-5.217159716758459,-1.6883894571203775,8.12030291109363,-0.14447777340676632,0.21879917387883555,0.03842938630999213,259.1232100708104,-32.14930664830842,11.737431156569631,0.6091979937710462,0.10785452873721478,-0.2721629753335957,0.736998959942565
261.0,0.0884567269866247,0.002733674272226592,-0.07046813532651455,-5.227285601888278,-1.695573170731707,8.11227104642014,-0.09793715578284815,-0.1035085562549174,0.053990460267505896,259.063512981904,-32.216470790715974,11.798869000786782,0.6087125170405192,0.1077862910397325,-0.27294119526475213,0.737123558001967
262.0,0.11275801768386345,-0.00048734592184631557,-0.053949926941665734,-5.396809036753963,-1.7306961803604206,7.988378976059344,-0.36327279092203363,0.9736978873965006,0.33864405370724215,258.7775860777041,-33.41604748557566,12.23022718332022,0.6047378974873272,0.1117868984034225,-0.2824953202836443,0.7360601934759001
263.0,0.10216069086958149,-0.00790515529579259,-0.05441236746468848,-5.43637149226331,-1.7484135663706868,7.96023230677007,-0.32425232288037165,0.7809097635907234,0.040641391292945195,258.68019568862167,-33.680639190176464,12.391064052489602,0.6036136067473119,0.11220772836549772,-0.2850026735882507,0.7360190569382189
264.0,0.09922196620583718,-0.0075733486943164365,-0.05204646697388634,-5.445981182795698,-1.7662799539170506,7.950673195084484,0.1794306835637481,-0.022359831029185873,0.11755712365591398,258.6393553187404,-33.7399409562212,12.520384504608295,0.6031809440833333,0.11171686994278035,-0.28603770440860216,0.7360769478632873
265.0,0.10346697388632872,0.003511904761904762,-0.0628283410138249,-5.353220430107527,-1.7435572196620583,8.017844470046082,0.2212917626728111,-0.8040586597542243,-0.03074356758832565,258.67840581797236,-33.08943932411674,12.265608198924731,0.6046185802388633,0.10937987026036866,-0.28083233351536097,0.7372303062127495
266.0,0.08787314075905736,0.008346333970252147,-0.06389243565246713,-5.294339365329137,-1.735362107077292,8.059678430931774,-0.07036992806564007,-0.0012234929376943593,0.011868701060282493,258.74382586827016,-32.68466852122438,12.148724757408864,0.6057612259496835,0.1077827042365966,-0.2777668137110637,0.7377073332540931
267.0,0.10142486231313924,0.017948409576261662,-0.055494042935821074,-5.291203064703457,-1.731651399348095,8.06270872204114,0.03127997264995693,0.007922848525720269,-0.013323662470495672,258.7719482924956,-32.654940804016334,12.121716824023078,0.6060069404616351,0.1078625203972125,-0.27743653299674054,0.737642595232288
268.0,0.09770355175901987,0.014621520362669064,-0.048508326776816164,-5.302476789929189,-1.7450281461916002,8.052860580345435,-0.094693904312315,-0.1941068618635495,-0.008971832733880334,258.75390891358506,-32.7337725029036,12.22402436682777,0.6057258919857161,0.10768707841607655,-0.27845082019540296,0.7375252355796896
269.0,0.09337596942789705,0.02303656663294744,-0.05401626016260164,-5.338851298190402,-1.7604293956764456,8.025482709527555,-0.002185661833576852,0.3002247948746769,0.03762597879435015,258.7751147390506,-32.9903237514518,12.36246581244614,0.6053749857065677,0.10844714031287697,-0.2806602577831853,0.7368662604430707
270.0,0.09966955153422502,0.025606608969315506,-0.04892210857592448,-5.345232100708104,-1.7456302124311567,8.024782061368999,0.0254720692368214,0.2579464988198269,-0.00017702596380802724,258.8249901652242,-33.03490361919748,12.269040125885128,0.6056835785476002,0.10938910873170729,-0.2804016547049567,0.7365766841431943
271.0,0.11613296616837136,0.022417781274586945,-0.03234854445318648,-5.298985051140834,-1.7497073170731707,8.05455861526357,0.07349036191974823,-0.3302370180959874,-0.12135129819040126,258.9595298977183,-32.70650078678206,12.256053304484658,0.6070351975704171,0.107821552595594,-0.27824904906766323,0.7364982164382377
272.0,0.12770456333595592,0.037467741935483856,-0.03354642014162078,-5.712202989771833,-1.8481306058221874,7.70618961447679,-1.5039707907159718,4.80370525177026,-0.1138817859952793,259.37259047993706,-35.74819040125885,13.595153914240754,0.6035634975460269,0.12050613479504328,-0.3016155252104642,0.7270543106266718
273.0,0.07696138211382114,0.031099275036529157,-0.03084312127683489,-6.150472256565884,-1.87290611067401,7.351562642838409,1.4889314867371022,0.07365210885691775,-1.3670360561612527,259.92948582855644,-38.97565682252444,14.382078755479375,0.6009986511125661,0.13751380067147165,-0.3231413096045952,0.7167523012835132
274.0,0.09406713873590347,-0.005331656738226363,-0.03448165111835451,-5.856794940242028,-1.725431812221348,7.630645011427072,0.11172761886028992,-1.3646522353040353,2.5880840568918364,259.904783974467,-36.76565590929527,12.820979508542205,0.6056268535474318,0.13212610554728182,-0.3032640716552677,0.7226190286571972
275.0,0.09017796260911917,8.167547113259585e-05,-0.038393091304184945,-5.811098122962797,-1.604819976771196,7.706884717695102,-0.2546176613839871,-0.07816305121576572,0.9375796148514479,258.17491382863136,-36.39031883406392,11.808664437450824,0.5958989196811659,0.1307274102678805,-0.29844408656438504,0.7332834515795587
276.0,0.10024615038777115,0.010056573376793679,-0.027273612828294182,-6.22421565321644,-1.5629541793113781,7.3672807313326585,-1.5522250009366454,3.9556826271027683,0.25596174740549243,257.20743181222133,-39.54625388707804,12.024945206249296,0.5839879287505152,0.1453819233228429,-0.3191602595181897,0.7309751897287475
277.0,0.08257728630763961,0.013676668295993863,-0.0160710735175083,-6.504921395854192,-1.7792079552989293,7.075729820956981,-0.5599784364645168,2.274888708021953,-0.14191510638983793,257.35861213779054,-41.665939895252556,14.202877864500968,0.5799943713610589,0.14731841850075322,-0.34102795515605383,0.72408120282734
278.0,0.08642305175597034,0.010010377158749622,-0.016176857803301,-6.534726442934776,-1.8496654215818764,7.046359534134405,-0.07878434112012322,0.5398781097713451,-0.1767083212440741,257.5095192025358,-41.84900297373995,14.751448532864924,0.5804912460914359,0.1457768167426961,-0.3445385682231882,0.7227774774466961
279.0,0.07201955105501114,0.0066495630876360215,-0.01942202449567096,-6.540246777722307,-1.8862213811292539,7.040941372102605,-0.10936660014306708,-2.5214161772150354,-0.5730119104253415,257.57864335421834,-41.852461754375874,15.014099561475735,0.5808740036515401,0.14451551753342518,-0.34575734617689696,0.7223807621576519
280.0,0.09868361689725569,0.0009590028169063152,-0.027029022063878336,-6.06703620591559,-1.9146732022726936,7.420494570506737,0.19653141181636874,-3.8941460920543722,-0.49721778223301466,257.8084585116227,-38.32323033393366,14.499020388808002,0.5888556723684624,0.1264194516558887,-0.3228330185046,0.7292353737706508
281.0,0.10014826006153105,-0.003161051586938548,-0.053437706116424566,-5.622216259639824,-1.9839917470656863,7.744198898156593,-0.0008846397139354589,-1.2212425928781847,-0.45689422137764407,257.9788020284688,-35.085602302143485,14.3915512850338,0.5954361164952912,0.10777736683792898,-0.30341873804646285,0.7351560264820994
282.0,0.0779916451238245,-0.004088831441309806,-0.06201678468397587,-5.611624330298603,-2.0344934622157282,7.755003746581243,-0.4212082256191225,0.985073386160129,0.10108393278633249,257.973902720018,-34.95901123037728,14.711144440073433,0.5956133964411223,0.10515652143400397,-0.3044654696292758,0.7354194828430929
283.0,0.06711947847589075,-0.00047836349331235287,-0.059513768686073956,-5.679940429358211,-2.0532582518451923,7.7085763740586675,-0.049721816342587405,0.4449416469971153,0.11077142107826608,257.9587735566296,-35.41614636019632,14.91616649807051,0.5947754630208684,0.1067242543859728,-0.3082790873714734,0.7345241118355248
284.0,0.06470450713723727,0.011310778914240757,-0.08754209284028325,-5.199722378329772,-1.9625850661271593,8.036955378217373,1.3736933797909405,-4.574859034880671,-0.8846713311603162,258.51818496871607,-32.09962019032633,13.774664680978606,0.6039348830013862,0.09464743981297066,-0.2822974287840845,0.7383816891868419
285.0,0.05049151399348096,0.010383949645948066,-0.09633202202989773,-4.867764414971338,-1.871280731332659,8.264162189502077,-0.061850202315387404,1.2144145030159983,0.3804908489753101,258.989373758945,-29.840526066839008,12.808137808624629,0.6107938316973885,0.08774517634236259,-0.2634777418074632,0.7405596610725711
286.0,0.012750188049558627,-0.006747349293769437,-0.08992100333445732,-5.040943828660194,-1.868080694155045,8.17423960828052,-0.07854599504874887,0.3490411904185511,0.16636204979782876,258.49071739465626,-30.97778733035912,12.898448852321295,0.6060391606572728,0.0927402546730128,-0.27137549865127975,0.7413976288140831
287.0,-0.0052408813976477266,-0.014401324416469971,-0.0901770915289798,-5.094836737678792,-1.8834251397042503,8.145963122112612,0.32774409156932754,-1.2677221083237507,-0.24701290751276,258.33879667735886,-31.32103652232242,13.027104610492444,0.6045579712863938,0.09361567493020839,-0.2743022693025984,0.7416720925990539
288.0,0.018108414533276843,-0.023240493050091793,-0.05551901389981642,-5.395725312191086,-1.7146640844075933,7.973641671205794,0.9516560249349392,4.730987613226008,0.1745186003348867,258.89345911759364,-33.466698188383866,12.118513334947245,0.6051487391370011,0.11300123768205934,-0.2819467512053905,0.7351268415672296
289.0,0.026244608525489724,-0.025917650144243378,-0.035103330710726466,-5.8321915309971954,-1.651377675563356,7.671262220339326,-0.06214405676935181,2.5786625713651676,0.12749336783070064,259.00503502693215,-36.59085794549012,12.139710050636486,0.6007107318777059,0.13188057849248522,-0.30033097245556695,0.7282754991730719
290.0,0.02621435776392504,-0.030224757408864416,-0.016646865984788883,-6.083566261171296,-1.659217555326918,7.484262109382881,0.23756487169400228,1.623049814400129,0.26012256904516934,258.8848935952914,-38.39844824890557,12.50096242106962,0.5967602125989632,0.14046445478518832,-0.3127927479075632,0.7250199721947185
291.0,0.028678402832415427,-0.022540912667191187,0.0001961054287962236,-6.473274586939418,-1.6568469708890639,7.143344413847364,-0.5160958398898505,2.3726568646734854,0.22307115460267504,258.7454354346971,-41.40583448072384,13.092291994492525,0.5899535060078679,0.15518207176750587,-0.33273105135326514,0.7185257950786781
292.0,0.03467387883556256,-0.022149488591660115,0.008126278520849725,-6.6361856805664825,-1.698738001573564,6.996031077891423,-0.49653078284815105,1.245955448465775,0.11831481117230527,258.5069163060582,-42.6348224822974,13.674926239181746,0.5859396369716758,0.1589140810692368,-0.34273359978953577,0.7166275274103068
293.0,0.044319529342936134,-0.018912606669491017,0.01910701749077045,-6.716925780225541,-1.7293832233855837,6.918471569932819,-0.06874795108838189,0.3768158085194375,0.10934313154390848,258.3871902991285,-43.26222743171135,14.04343484587141,0.5838200174670561,0.16044777857643888,-0.34812437265132945,0.7155997599416118
294.0,0.05565573241340355,-0.01792404527022938,0.02983979906796588,-6.751398373983738,-1.7315787084669847,6.886997881740605,-0.032635064253868355,0.255066170388751,0.12047297706227682,258.32240059311266,-43.522469562629865,14.116425084226028,0.582917906870625,0.1615052932801549,-0.34999769783776147,0.7152487787087092
295.0,0.06636681191873955,-0.01139475276886764,0.045524148157114336,-6.800606346708626,-1.7351001331477327,6.837855353144105,-0.15624672174141094,0.3927966571849342,0.08475458451854989,258.22192511953034,-43.91738643355726,14.23833646028768,0.5814301134738648,0.16298832891466442,-0.3529129963602654,0.7147107433213096
296.0,0.08083643507030602,-0.008034119106699752,0.06098945409429282,-6.80437634408602,-1.7428207196029775,6.83308188585608,0.030477150537634425,-0.09328990901571546,0.014500620347394536,258.2160127171216,-43.942097032671626,14.291537427626137,0.5812932354780809,0.16279517318982628,-0.35331683199917285,0.7146735208660047
297.0,-0.2113035566583953,0.4496240694789081,0.03957940446650123,-5.128704301075267,-3.5529305210918114,6.616153846153846,-3.061525537634408,6.18107681968569,-38.30555210918114,279.5956575682382,-32.82611404052936,25.98407516542597,0.670177223013234,0.09650078478039702,-0.37750321166087675,0.572218362239454
298.0,-0.21412903225806446,0.6635241935483871,0.10191129032258064,-3.9559112903225797,-4.992177419354839,6.381258064516128,1.1741431451612903,-10.04087701612903,18.86068548387096,295.0453629032258,-24.89158266129032,35.53533266129032,0.7308079871774193,0.049092298943548385,-0.400541588967742,0.47103980252419353
299.0,-0.1116538158929976,0.3179411880409127,0.12699468922108575,-5.187751770259638,-3.3232053501180174,6.7927641620771055,0.2853756884343036,-0.6779701022816678,9.790982739968525,276.4881970397325,-32.92515489771833,24.24477527537372,0.6583171517206925,0.0999570460483871,-0.3657397407417388,0.5975020162220692
300.0,-0.014621361132966158,0.16888237608182535,0.10295082612116442,-5.979008851298188,-2.4397629819040123,6.850419944925257,0.7172379032258065,-1.2155254228953574,4.914964840676631,267.14739132572777,-38.29930173092053,18.465891768292682,0.6191837422720299,0.13398741981176238,-0.3554618296365067,0.6579498123337923
301.0,0.020475609756097565,0.08942505900865462,0.07208025177025965,-6.361629425649094,-2.003175845790716,6.891843036978756,-0.18286290322580645,-0.09377581628638854,2.2251991542092835,262.47414929189614,-40.87999360739575,15.600309795436662,0.5998004780674666,0.1502225775147521,-0.3498696951085759,0.6884407199854445
302.0,0.04427812745869395,0.0366117230527144,0.053556254917387885,-6.628492132179384,-1.7649105035405188,6.888655389457121,-0.09909274193548387,0.4012219708890638,2.2590713512981897,259.48319359756096,-42.705470594020454,14.152675059008654,0.586851610666798,0.15981861048721477,-0.34890490446557826,0.7074177608394964
303.0,0.04743745082612118,0.010539732494099136,0.03981038552321008,-6.807350904799367,-1.6372092840283234,6.853214791502754,-0.14798387096774193,0.44168961447679,-0.13505605822187255,257.9099183713611,-43.980305861526354,13.443676239181746,0.5796988755995279,0.16638590806215575,-0.3501472194626277,0.7166580550487804
304.0,0.04769984264358773,0.009194335169158144,0.029896538158929984,-6.844215971675844,-1.6725306845003929,6.808899291896145,-0.6855182926829269,0.3052370180959874,-0.25224970495672694,257.89863542486233,-44.27333546420141,13.808275963808025,0.5788650161845005,0.16630230825688436,-0.35342597195082603,0.7157657644693154
305.0,0.04458870967741936,0.008677419354838707,0.027362903225806458,-6.844879032258065,-1.7660403225806447,6.784306451612903,-0.6121975806451613,-0.1138104838709677,-0.38402217741935485,257.98855846774194,-44.27878024193548,14.59304435483871,0.5790009036209678,0.16269344207258066,-0.3568371681209677,0.7147832068145161
306.0,0.04654032258064518,0.0031532258064516116,0.016483870967741936,-6.702661290322581,-1.8105645161290322,6.9104435483870965,0.08976814516129034,-1.234828629032258,-0.23714717741935482,257.99566532258063,-43.13573588709677,14.675806451612903,0.581244979403226,0.1553042508064516,-0.3509261598467741,0.7174604848387098
307.0,0.051354838709677435,0.002548387096774193,0.014653225806451616,-6.601540322580645,-1.820459677419355,7.0050483870967755,0.2771673387096774,-0.6794354838709677,0.02494959677419356,258.1149193548387,-42.32852822580645,14.564314516129032,0.5836365237741935,0.15126830084677423,-0.3457903958064516,0.7188908732661291
308.0,0.051314516129032275,-0.0018790322580645165,0.017419354838709683,-6.575822580645161,-1.796895161290323,7.037403225806455,0.2123991935483871,-0.024747983870967827,-0.060131048387096764,258.16829637096777,-42.12560483870968,14.323840725806452,0.5845313285645162,0.15139283215322583,-0.3434855307016129,0.7192855346129032
309.0,0.054820306038047995,-0.0075330851943755175,0.01996856906534326,-6.570900124069479,-1.7716387510339122,7.049147435897437,0.2198976426799007,0.035336538461538426,-0.003968930934656736,258.262943289909,-42.087701612903224,14.11010003101737,0.5853435204710506,0.15252606248986766,-0.34214202661414383,0.7190427312868073
310.0,0.06659160463192723,-0.0094520264681555,0.03716976840363938,-6.551333126550869,-1.7456540529363105,7.074311621174527,-0.03622053349875934,-0.7328357630272953,0.25847420388751036,258.26420854011576,-41.92505040322581,13.86641594292804,0.5858237640822994,0.15281160136186933,-0.34012387583932996,0.7195551509700165
311.0,0.07547725392886682,-0.0037905293631100077,0.036282464846980986,-6.466275434243178,-1.727564929693962,7.156103391232425,0.18456110421836225,-0.34945719602977665,0.05184294871794873,258.09667080231594,-41.26270161290323,13.575193858560795,0.5861374481701821,0.1498085748341605,-0.3352745566656327,0.7221826260374277
312.0,0.06651282051282051,-0.0033509098428453265,0.027600909842845328,-6.430597394540943,-1.721193755169561,7.189721050454923,0.03673619727047146,-0.2718052109181141,0.07632470016542597,258.0560470947064,-40.98629032258064,13.45901830024814,0.5864590602020266,0.1486010388525641,-0.3332659701433002,0.7231106607808107
313.0,0.07462737799834573,0.003707609594706369,0.039663358147229114,-6.3911736972704745,-1.7143751033912324,7.227421009098428,0.06526830024813896,-0.5415477667493797,0.04211900330851943,257.9906999586435,-40.67782258064516,13.339640198511166,0.5867459967824651,0.14725094327708854,-0.33101183409181134,0.7241985668742764
314.0,0.07225000000000001,0.00425,0.029274193548387104,-6.288629032258065,-1.7123951612903232,7.316354838709678,0.08130040322580645,-1.2345766129032256,-0.12152217741935484,257.9922379032258,-39.89092741935484,13.172177419354838,0.5882598868709679,0.14335464925806451,-0.32572105159677417,0.7261218662419355
315.0,0.08926140833988987,0.009599724626278523,0.0341675845790716,-6.118712037765539,-1.718151258851298,7.454963808025177,0.024220594020456326,-0.7595594020456333,0.03913994885916601,257.86841070023604,-38.61522546223446,12.977640637293469,0.5898401284653816,0.13640019720712038,-0.31763013199645945,0.729689356599528
316.0,0.07464280094413847,-0.0007767505900865453,0.03614024390243902,-6.020339889850511,-1.718660306845004,7.534586742722265,0.10460021636506688,-0.6630458300550748,-0.049734461054287964,257.8578948662471,-37.88349478756884,12.844818302517702,0.5911480421601101,0.132673182865657,-0.3127745249498426,0.7314367162997639
317.0,0.08653222996515678,0.0029739518938968214,0.02538675021542842,-5.927674937244764,-1.7106333408264962,7.610669523434864,0.1091117441272339,0.09013847130118763,-0.06882364373758945,257.92168216814656,-37.20174163341575,12.666719587126746,0.5928251783423437,0.12973753543417257,-0.30790156358955256,0.7326874675070247
318.0,0.08286023378666965,0.009504186804540859,0.01753965756247424,-5.911733515042522,-1.698743302986025,7.626700320332695,0.10101227942002922,0.02518516306994867,-0.09976513618822824,258.0366438476453,-37.078749332640214,12.555577781368251,0.5938186563452474,0.12992752434867555,-0.30654602153917043,0.7324521419466674
319.0,0.07958530965493987,0.011103686635944701,0.017401221385485742,-5.884187666254542,-1.6918848300925402,7.650531808474767,0.0842984292458132,-0.10683048593158742,-0.04466030216177738,258.12839580757554,-36.87331017477801,12.461760050204187,0.5948285072391067,0.1294529428979806,-0.3047853043718668,0.732466217760706
320.0,0.07459090142744747,0.013065612004046306,0.007694653628563936,-5.87994816604848,-1.691132928702559,7.653642323255031,-0.014790624648758008,0.32965278558315536,-0.03107490586714623,258.1901778689446,-36.845192843561506,12.452054765651342,0.595291830696096,0.12949039655764116,-0.3045046501048948,0.7322033086735418
321.0,0.07596942789704396,0.004566145891873664,-0.0034374882919336134,-5.869873178224866,-1.7116250796148507,7.6561161065527745,-0.15762335618747889,-0.05682978344760409,0.007161824210408001,258.0959347251883,-36.77676698137949,12.598969455996404,0.5947115917526506,0.12803306509235324,-0.3048850506131281,0.7327609878672586
322.0,0.08286950657525008,0.013607957738563561,-0.004783260274999068,-5.860508785733016,-1.6861005582406055,7.66978232362969,0.2950362481735416,0.195831460042711,0.11396397662133302,258.06892070360794,-36.70275561050541,12.395610880071935,0.5947573531804728,0.12864472365216742,-0.3035198190277622,0.7331840631463791
323.0,0.062437900415870516,0.02165449027762167,-0.005086358697688361,-5.743881458169417,-1.654730058821325,7.762168895882508,0.5040041587051816,-0.16543497808249974,-0.1085618747892548,258.23275401820837,-35.86450723090181,12.03366303248286,0.5973953061339028,0.1260779104492151,-0.29660289022591885,0.7342627950271627
324.0,0.06206530291109362,0.026110486680903676,0.000249709639953541,-5.759917949870741,-1.6027544865310404,7.761992431905886,0.2762412891986063,-0.08956670787906036,-0.03510429545539695,258.4616291540219,-35.978577750927286,11.659563382788205,0.5988355486214453,0.12937852611235998,-0.29524756888520476,0.7330910089475854
325.0,0.061505001685961555,0.02597459817916152,-0.00037975347495410494,-5.782175564797122,-1.5864832340489305,7.7491528979805935,-0.10685343374171069,0.12969821288074634,-0.007706717620171595,258.5681273650294,-36.137066333220936,11.56520315836799,0.5993302112485106,0.131132406852647,-0.29562931736195724,0.7322384586765578
326.0,0.05880364167696977,0.0272477239518939,0.0020831366378179918,-5.784407215915476,-1.5850527893297373,7.747853396275898,0.44230007305833424,-1.1682695009553783,0.02212028399085834,258.6187902757484,-36.14070075118954,11.560901146453862,0.5996441438296054,0.13135962397549736,-0.29557565720340184,0.7319646574106629
327.0,0.059169720130381034,0.025603461841070027,0.006542954553969502,-5.941181259600613,-1.5819606608969319,7.622735940953879,-0.5529785320894683,2.4761120321456667,-0.20005854033194712,258.93581239931063,-37.31983580607695,11.733126568880895,0.5994809660394138,0.13831642134277472,-0.30283692004263607,0.7276639731824959
328.0,0.05041491513993482,0.011826121164437452,0.003476040612940691,-6.0144773331834696,-1.6337498033044846,7.557650425236972,-0.22237341238619757,0.4973007052939191,0.09167509647446703,258.8794178046907,-37.8445412311266,12.204264897343673,0.5980159301282828,0.13872357040781536,-0.3082656536877224,0.7265899234008466
329.0,0.05164811172305273,0.018898898505114087,0.003656176239181747,-6.037997442958301,-1.6285527143981113,7.541015932336742,-0.05690401258851298,0.5495611231313925,0.16325481904012587,258.74273824744296,-38.01407356412274,12.185485100314713,0.5968618706191975,0.1394568471400472,-0.3093665048206136,0.7269882585216363
330.0,0.05236303435615003,0.019493080352639757,0.006740825919425448,-6.080080917508928,-1.6446047277532319,7.504959475680366,-0.10593468826282557,0.4079168053622223,-0.1097420073533862,258.7039677331094,-38.326231364360794,12.353056471786802,0.5959523917442555,0.14026031474620226,-0.3120390572419859,0.7264678893491141
331.0,0.06542355100970365,0.017107869838003588,0.011740200528556153,-6.077432669612056,-1.6446476628537994,7.5073602453146115,0.1055637091730719,-0.32061747261393214,-0.07773255462083158,258.719180586657,-38.30368904960762,12.350665234319838,0.5961178388740946,0.14017216704835683,-0.31188608112610694,0.7264293598894469
332.0,0.07470390768423814,0.01062002461215679,0.01550739373398697,-6.031325304121527,-1.657848615061833,7.542592789848493,-0.13710307853698883,-0.21988289051625007,0.014398868244265561,258.6182203090641,-37.96328728640884,12.392032066412476,0.596108843850108,0.1376343540340132,-0.31023459001860026,0.7276354871248967
333.0,0.0833889325990034,0.009067683431176742,0.02968524682765439,-6.007248804696483,-1.6446072343601843,7.564334160463193,0.10360129314692651,0.11991693397082853,-0.07604702535859105,258.67428029615286,-37.78298609009663,12.262228661058321,0.596819164308217,0.1373958510594928,-0.3085254819030846,0.7278252827748797
334.0,0.07541751901389983,0.003596784280497891,0.02716677762311123,-6.107419839012286,-1.6318968508543643,7.4848169622142855,-0.042662374669652406,1.2312114174181443,-0.07719542455970466,258.8410396366681,-38.53634945732212,12.303045880489822,0.5964856543106782,0.1421856561528778,-0.3128439240939498,0.7252937003237105
335.0,0.0746549960660897,-0.005238001573564122,0.02375295043273014,-6.1875114083398906,-1.641078284815106,7.416647521636504,-0.10979789535798584,0.3370697285601889,-0.10198170731707316,258.927534913454,-39.138082710464204,12.486381294256491,0.595893992874115,0.145070047815893,-0.317026726882376,0.7233977816664046
336.0,0.07516935483870968,-0.006862903225806451,0.018193548387096775,-6.176435483870967,-1.6590725806451614,7.422822580645159,-0.23371975806451611,-0.5461189516129031,-0.0688508064516129,258.93019153225805,-39.04621975806452,12.601663306451613,0.5960166197903227,0.14387497477419353,-0.3170755203790322,0.7235271817741937
337.0,0.07314516129032259,-0.009056451612903223,0.015112903225806454,-6.100403225806451,-1.696048387096774,7.476967741935484,0.07933467741935485,-0.29516129032258065,-0.006048387096774195,258.84107862903227,-38.48039314516129,12.774747983870968,0.5963764313145161,0.13927779652419353,-0.31476366564516123,0.7251248762258065
338.0,0.068220692368214,-0.010058221872541306,0.007248623131392604,-6.041993115656961,-1.6934400078678202,7.525154405979544,-0.29858502163650663,-0.21382769472856017,0.028506097560975607,258.7006159028324,-38.04406717151849,12.679236329661684,0.5963027319248623,0.13678261365578281,-0.31197166213729344,0.7268701527739967
339.0,0.06877163650668763,-0.007851691581431942,0.005817859952793077,-5.979661880409126,-1.6884740361919746,7.575976396538159,0.2318314811172305,-0.3075186860739575,-0.13463808025177026,258.8213512981904,-37.578434795436664,12.560787519669551,0.5979442403737215,0.1349656502149882,-0.30853365493154994,0.7273241433587725
340.0,0.06972049567269867,-0.009651652242328874,0.006457317073170732,-5.953076907946498,-1.6923257277734067,7.596496262785207,0.09376352281667977,-0.2508359559402046,-0.00950654012588513,258.9711091168371,-37.3819089299764,12.555166945318646,0.5992393211223446,0.13418556286959088,-0.30722892798190404,0.7269714275745477
341.0,0.07079976396538158,-0.012055664830841854,0.005990755310778914,-5.9659215184893775,-1.6702273800157355,7.591542486231314,0.3014936565696302,0.2579489575137687,-0.0799800845790716,259.20125516325726,-37.478353658536584,12.403314319433516,0.6006024496418174,0.1362040698823761,-0.30678361618450045,0.7256617595251771
342.0,0.07050472069236821,-0.013596380802517703,0.005120377655389457,-5.9458115656963,-1.659194335169158,7.610795436664047,-0.043885228166797796,0.1135006884343037,0.06149685287175452,259.2418322187254,-37.32455989378442,12.295507966168369,0.6011834292120377,0.13599697649763964,-0.30533976447128236,0.7258376433512982
343.0,0.05963709677419357,-0.01682258064516129,-0.00041935483870967835,-5.968911290322579,-1.6672580645161288,7.59059677419355,-0.09944556451612903,0.2836189516129032,0.011290322580645162,259.15614919354834,-37.49279233870968,12.383719758064515,0.6002951332983871,0.1363081889435484,-0.30685208253225793,0.7258782659919357
344.0,0.06625,-0.019161290322580644,0.002677419354838709,-5.994806451612902,-1.6628951612903227,7.570846774193549,-0.03331653225806451,0.842086693548387,0.07323588709677419,259.08704637096776,-37.69269153225806,12.393649193548386,0.5995487813951613,0.13729188939516127,-0.308104927298387,0.7257826772822581
345.0,0.06156687647521637,-0.021480133752950437,0.0042389850511408336,-6.102526357199055,-1.6743568056648312,7.4807976003147125,0.0014321892210857612,0.14188999803304486,-0.1130359952793076,259.1014285011802,-38.497869541699444,12.617486231313926,0.5980869712490164,0.1409570207405586,-0.3137731843221872,0.7238176841768293
346.0,0.06310759244689221,-0.024105822187254135,0.0007678992918961434,-5.967925452399685,-1.6375210464201424,7.594194335169158,0.45791699449252554,-1.480052616050354,-0.15485714988198268,259.2257572777341,-37.49743804091267,12.172279455153422,0.6008591969335171,0.13768580758536586,-0.3056785986217545,0.7255610457704565
347.0,0.06616266719118803,-0.01039162077104642,-0.006398308418568057,-5.705240952006292,-1.5994903619197485,7.796790715971676,0.3703395456333596,-1.4903287273800156,0.036306304091266714,259.2811750098348,-35.60365853658537,11.599672993705743,0.6046958325474037,0.12966913759913454,-0.29170791374232885,0.7294378044860348
348.0,0.0695489771833202,-0.005758457907159718,-0.0073865066876475215,-5.626286191974823,-1.5860607789142414,7.860633556254918,0.13048165814319435,-0.5680886113296617,0.0730207513768686,259.2836865656963,-35.0252618509048,11.411372688827694,0.6057817204970497,0.12725969840007867,-0.2874281087055468,0.7307682999958696
349.0,0.07375845790715971,-0.0009040125885129804,-0.004415420928402831,-5.546483870967743,-1.5760873328088119,7.920024390243901,-0.1016522423288749,-0.07445416994492526,-0.10392899291896146,259.35402242328877,-34.458074350904795,11.256987608182534,0.6072621845224233,0.12490695864044057,-0.28324686769079466,0.7316312800566483
350.0,0.08366522423288747,0.00030330448465774954,-0.005575137686860739,-5.379996459480724,-1.6098178599527928,8.026880802517702,-0.15286191974822974,-3.110225708103855,-0.30698023210070813,259.33958005507475,-33.27828481510621,11.334974921321795,0.6089987190236035,0.11735316207002361,-0.2766109896243115,0.7339365553941778
351.0,0.09854348844179686,0.010038880146865985,-0.010244389494586188,-5.26778699748979,-1.5821392697913153,8.103135616874601,0.7016648870405755,0.9745706066651683,-0.06892977735940956,259.4498247302462,-32.5168902907347,11.035673366022255,0.6109852877595255,0.11482209820503164,-0.2704576887453167,0.7348983573488443
352.0,0.08583222809186616,0.003942827170207186,-0.01755767861826084,-5.33954269229328,-1.5378397961859802,8.068023453598588,0.20143728222996515,0.5970383275261325,0.02962281293319846,259.7146805102844,-33.01056208085122,10.782932449140159,0.6120353660813757,0.1197752209654191,-0.2718483880137874,0.7327941067066801
353.0,0.08020328949833277,-0.002517178075006557,-0.02038702184256866,-5.370009741111235,-1.5320190326327228,8.050763103667903,-0.20555102843655168,0.008894852197369962,-0.03930444719193735,259.7931634258739,-33.21177690981979,10.763043722603125,0.6122583810587836,0.12127053279584882,-0.2729232881264846,0.732024824089768
354.0,0.08245963058708929,-0.0024710201940729088,-0.01727061556329849,-5.371135476377805,-1.5333478326027503,8.05096062343112,0.05402523322468246,0.19641241429695405,-0.0411313738713424,259.84074969090705,-33.20886839196733,10.775984882544678,0.6125920634876924,0.12135549813592597,-0.2729389524605672,0.7317554145366227
355.0,0.08971525982540933,0.003284552845528454,-0.01180603948896632,-5.338856487205424,-1.5461861114233262,8.069264733430742,-0.06108238732156907,-1.6261004411599416,-0.21622855082237458,259.8998939249185,-32.981622433591845,10.842064038439924,0.6133274538642239,0.11976590385159791,-0.27184862281564953,0.7317975634209473
356.0,0.08975609756097562,0.0018501180173092035,-0.02354445318646735,-5.172743312352478,-1.5438428402832418,8.173851298190401,0.2688434303697876,-0.22576834185680572,-0.14055615656963022,260.0995549763965,-31.848759588906375,10.691888768686074,0.6163713112962235,0.1143654526369001,-0.26410117812647527,0.7328461722102675
357.0,0.07073595968678581,-0.006415954816230191,-0.034111320295230604,-5.121864935746132,-1.5297319040125885,8.210288552321007,-0.1674936073957514,0.7592272442021655,-0.1154057664568581,260.12646959649317,-31.493661428477765,10.552945632422915,0.6171742424910458,0.11314876761990933,-0.2612573751444589,0.7334340508618542
358.0,0.10203733468210258,-0.005905558053276387,-0.01178549885729272,-5.133488919485969,-1.5348054681353265,8.20363217938631,0.05168666404405978,0.034452331778502154,0.035064253868345135,260.15028116921434,-31.571049464238882,10.593257090405006,0.6171998702858452,0.11340180549543855,-0.2618803858746488,0.7331913740156044
359.0,0.08823640927653516,-0.01285197257502529,-0.014187104267356039,-5.1284259113558885,-1.5537293469708886,8.20400157356412,0.05416994492525569,-0.05996637443332957,-0.08327432467873065,260.1223432055749,-31.533407796635572,10.71114467423476,0.6170567739574386,0.11242865813884828,-0.26231728388490505,0.7333245620319958
360.0,0.0980717844966468,-0.017267843093177474,-0.016306770072309025,-5.140747180697614,-1.5567112509834775,8.195619984264358,-0.21868607395751374,0.47852389382188754,0.05993148439548912,260.05743438799595,-31.618641349143907,10.745054044434454,0.6165029021990183,0.11258298491128094,-0.2630666113720356,0.7335037387107263
361.0,0.10233644299576636,-0.008146116668539956,-0.010867783147877565,-5.298284683975872,-1.5781589299763965,8.086956333595593,-0.390912667191188,2.819587477988835,0.20635244558090743,260.09979803585475,-32.72243043066951,11.047389335356488,0.6148664560837733,0.11760207542967666,-0.2711277432863325,0.7310542215347495
362.0,0.08239710014611668,-0.02166138398711176,-0.012465381589299763,-5.5760893465962305,-1.6220326139897343,7.883539610730207,0.053751615713161754,-0.06224447145105105,0.04922076964145218,259.9031296246862,-34.684203886609716,11.636765904237382,0.6101289050925779,0.12555716149364016,-0.28581273781828137,0.7279418911283577
363.0,0.07434639953542393,-0.016517711962833914,-0.029120171593421007,-5.474574435202877,-1.671224064291334,7.946787662507961,-0.8541677789329736,-0.022362875126447145,-0.07347549267543367,259.7092873065827,-33.963608519725746,11.881833412948183,0.6099555858704057,0.11932679376544526,-0.2830244816819901,0.7302882360607227
364.0,0.08871342400059945,-0.007696601850811136,-0.02851897643400397,-5.397436214454309,-1.675221984938743,7.999759094825971,0.7583501929489342,0.690485556929302,-0.22160325577910156,259.8437909782324,-33.42100567607058,11.829212093964257,0.6117317143879959,0.11670566717245515,-0.27943992150425234,0.7306439796425761
365.0,0.07408115094975834,-0.009781199655314526,-0.01777790266381926,-5.639920947135738,-1.638751639129294,7.836295005807199,-0.009368794724813556,1.8603157431343897,-0.016234404855569276,260.2315668202765,-35.14563195459144,11.815946854745045,0.611362643261399,0.12815694750627551,-0.289035182676183,0.7252018009658688
366.0,0.0657809373946274,-0.005293432243078191,-0.010335056760705855,-5.778638679704769,-1.6232821924993441,7.740799745232476,-0.00910512906972385,0.8327444175939455,0.02752894234011464,260.3722940316961,-36.13281302686299,11.848704151212019,0.610577701032745,0.13426762611112364,-0.2948079184089019,0.7225073037952867
367.0,0.06549949421153198,-0.007125285676819903,-0.0041702821175677186,-5.837430969240568,-1.6192143419130045,7.699918998913491,0.05090152111198533,0.4874829062230714,-0.02778043160615938,260.41095828181784,-36.55125159229703,11.875195758870031,0.6101203929272039,0.13671731586568509,-0.29734529752186134,0.7214672310878198
368.0,0.0652589262298153,-0.011438799595369229,-0.0038923981866546783,-5.886263159866621,-1.6052384698962197,7.667172604997938,0.022176014386871983,0.46883312727136484,0.1165446686148889,260.288498698063,-36.89443281443182,11.82300517964857,0.6087870140938892,0.13872980140995092,-0.2992766210753812,0.7214596395146304
369.0,0.06786549773331836,-0.013406260537259754,-0.0012498969690157731,-5.911892398186653,-1.6037876063092429,7.648240118391967,-0.11882938069012025,-0.7898015716908322,0.03661124068037915,260.1893909698025,-37.07415877542992,11.839266161814844,0.6078455852884868,0.13946200044140347,-0.30052345972337113,0.7216232793127833
370.0,0.06686669663931663,-0.018058737027462444,-0.0039467610805140295,-5.814920853471207,-1.6365328200517029,7.714607770409501,-0.3450329699149526,-0.08861718369487848,-0.06461968687947248,260.03125942499344,-36.375093020587464,11.975556660016483,0.6079756816611404,0.13408422847723014,-0.2973120159791971,0.7238370992838878
371.0,0.06873979993256155,-0.015339852384698965,0.0016879097823236297,-5.802452362219476,-1.6709196358323024,7.717045820688622,-0.426951968828444,-0.14783681765389084,0.037372616237683114,260.005927091529,-36.286513244164695,12.21174506387921,0.6078626880644412,0.1321809497749054,-0.29801198850975985,0.7240109921701697
372.0,0.07599460492300775,-0.010282042636094564,0.008373459218463154,-5.794294631149078,-1.7011561200404623,7.717094900902927,-0.13755151549211342,0.6774338728410325,0.07117942377580458,259.95910044584315,-36.2246393915552,12.425969896219698,0.6075642945672323,0.13054494474976583,-0.2987752709149901,0.7242523412267055
373.0,0.07449533550635046,-0.01030860589711888,0.004007343299239444,-5.836287362781466,-1.70639867371024,7.683864523622194,0.08218313289123674,0.16152378142445012,0.005800176089318498,259.9320285864149,-36.527460333071076,12.519751273837624,0.6068376171640253,0.13180415954404107,-0.3010100131758271,0.7237067060035965
374.0,0.06925632235585027,-0.0016885279682289918,-0.011036454235510099,-5.608239668802218,-1.6709310441721934,7.844211569442884,0.8843154059420779,-3.307269187179199,-0.43414259488217,260.00816122475743,-34.91347446236559,12.040486376493948,0.610124257457701,0.125004255716159,-0.28898833051552963,0.7266127248688321
