time,linaccel_x,linaccel_y,linaccel_z,gravity_x,gravity_y,gravity_z,gyro_x,gyro_y,gyro_z,euler_x,euler_y,euler_z,quaternion_w,quaternion_y,quaternion_x,quaternion_z
0.0,0.015121951219512198,-0.13097560975609757,-0.0012195121951219553,4.724146341463412,1.079268292682927,8.508536585365853,-0.18292682926829268,-5.780487804878049,0.125,255.77134146341464,28.835365853658537,-7.217987804878049,-0.5936666351219513,0.10832251536585367,-0.2321777351219512,-0.7625479348780488
1.0,0.03252032520325203,-0.11861788617886178,0.0021951219512195102,4.666585365853658,1.0748780487804876,8.542032520325202,0.15548780487804878,0.8526422764227641,0.06910569105691057,255.6280487804878,28.43394308943089,-7.16920731707317,-0.5932845452032519,0.1061589930894309,-0.22940782975609755,-0.7640227028455286
2.0,0.04604612576738012,-0.11736684917869586,0.0005326032852165255,4.672754272440683,1.087872905259665,8.54019080803053,0.26306620209059234,0.7574249211879873,-0.0009955201592832218,255.44433383109342,28.46913887506222,-7.260442591670814,-0.5920159216857475,0.10540583105193296,-0.23031301765057247,-0.7649490964576074
3.0,0.03850406504065042,-0.10264421215640727,0.007867595818815335,4.709761517615176,1.0689438637243516,8.524089043747583,-0.15580720092915218,-0.5179636082075106,0.03921796360820751,255.37878435927217,28.71337591947348,-7.148524003097174,-0.5913340859930314,0.1072948566496322,-0.23138503807820365,-0.764946079934185
4.0,0.030305346371436066,-0.09218575549810797,0.010934397362406806,4.837933760443594,1.0338514855194632,8.456356449739612,0.09818852796822901,-1.2729009778577047,-0.029410662770222175,255.5104716945787,29.57252444644262,-6.968179817166835,-0.5911049148506988,0.11336529868607396,-0.23588793393953017,-0.7628648342538682
5.0,0.014392641714435578,-0.09056101307556855,0.0156804166198344,4.901093552133678,1.0045504477164586,8.424621183170359,-0.06247143231800979,-0.3198297178824322,0.06069789442134052,255.46456904949235,29.989724064291334,-6.796703008504739,-0.5903008407298339,0.11661882206294258,-0.23778866182263683,-0.7624461666934171
6.0,0.008466973886328725,-0.0953379416282642,0.018615975422427038,4.933420890937019,0.9884577572964669,8.408330261136715,0.019172427035330272,-0.06425691244239629,0.011943164362519198,255.4265360983103,30.208842165898616,-6.705693164362518,-0.5898135424900154,0.11828926419354838,-0.23878871392626724,-0.762278333172043
7.0,0.0031981566820276515,-0.11224270353302612,0.02222273425499232,4.979139784946237,0.9822027649769586,8.38192626728111,0.11210637480798771,-0.8335157450076804,0.012480798771121349,255.39219470046083,30.517396313364053,-6.687058371735791,-0.5891615910184331,0.12003949210445469,-0.24072302192165895,-0.7619123940107528
8.0,-0.006012288786482335,-0.11170583717357913,0.02739708141321045,5.0396643625192015,0.9698694316436254,8.347640552995394,-0.007296466973886334,0.0007248463901690094,0.012298387096774194,255.37397753456221,30.924390360983104,-6.626584101382488,-0.5884809777066053,0.12257861543855605,-0.24306424541321037,-0.7612933935138249
9.0,-0.002080645161290323,-0.10187903225806452,0.022637096774193552,5.1190887096774205,0.9593709677419358,8.298967741935485,0.004637096774193548,-0.8499495967741936,-0.09959677419354838,255.40418346774194,31.470614919354837,-6.597177419354839,-0.5878759565483872,0.12584459800806452,-0.2463671773064516,-0.7601250925887096
10.0,-0.0065725806451612905,-0.09529032258064515,0.024161290322580648,5.114822580645162,0.953193548387097,8.303217741935482,0.21960685483870968,-0.06018145161290328,-0.018346774193548382,255.31935483870967,31.442439516129028,-6.555141129032258,-0.587378815387097,0.1257565403387097,-0.2460650536451613,-0.7606481245725807
11.0,0.004328990901571548,-0.09234346567411082,0.025637717121588088,5.075200992555832,0.9405982216708022,8.328228908188587,0.24536807278742762,0.41808571133167904,0.003787996277915635,255.1888931968569,31.17117193961952,-6.4435677729528535,-0.586930353272953,0.12465286048738625,-0.24393988174483042,-0.7618623652346982
12.0,0.004362076095947064,-0.09157899090157154,0.02377047146401985,5.057890818858562,0.946883788254756,8.338674937965262,-0.018596205541770064,-0.00013053143093463837,0.05736274813895782,255.10966837262197,31.048438792390407,-6.4767990074441695,-0.586595916031638,0.12364399748159634,-0.24342426575144746,-0.7624591137826715
13.0,-0.003145574855252274,-0.09432981803143094,0.026982009925558315,5.060671215880893,0.9307241521918943,8.33992617866005,0.1348803246484698,-0.20099772539288668,0.08168036600496278,255.0386295492142,31.068473428453267,-6.369347084367245,-0.5861146859311416,0.12422665572870138,-0.2431039454644334,-0.7628391961050454
14.0,-0.00948407775020678,-0.09045926385442514,0.02597890818858561,5.127254962779157,0.9337733664185278,8.297983250620348,0.1403988316790736,-0.5011541046319272,-0.04935638957816376,255.0436595326716,31.529952440033085,-6.4205606389578165,-0.5854609273325062,0.1264351288724152,-0.2462872572322167,-0.7619500229557483
15.0,-0.007665425971877585,-0.08650785773366418,0.02354590570719603,5.164889578163772,0.9346931348221672,8.274052109181142,0.12158550454921424,-0.5549369313482216,-0.1362205334987593,255.01875516956162,31.793504445822997,-6.447906327543424,-0.5849210401178659,0.1276582858192721,-0.2481285177088503,-0.7615647740343258
16.0,-0.0022661290322580647,-0.09096774193548385,0.021016129032258066,5.163717741935485,0.933,8.274790322580646,0.08069556451612903,0.37772177419354835,0.10569556451612905,255.0026209677419,31.784122983870965,-6.434576612903226,-0.5848291217338709,0.12763041871774192,-0.24801616058064516,-0.7616785846532257
17.0,-0.010139457120377652,-0.08755625491738787,0.027399488591660113,5.146552124311565,0.917643194335169,8.287855625491737,-0.11427271833202203,-0.5992673092053501,0.022784716758457915,254.88421149685286,31.664786585365853,-6.31754769866247,-0.584229009073564,0.12746429940066875,-0.2468546224287962,-0.7625475603971281
18.0,0.015371164437450832,-0.09910562549173876,0.010945908733280883,5.1898164830841855,0.8133943745082611,8.271496459480721,-0.5666859264358772,0.03749877065302909,0.024677911093627068,255.41292904209283,31.952439024390245,-5.610722364280094,-0.587473489761015,0.13440510340165224,-0.24470625834972456,-0.7594809028147127
19.0,0.015059046120415122,-0.09374501704694466,0.015765005057884682,5.021368494998314,0.787156288636619,8.372356524671236,0.33494740736577866,3.0436521791053166,0.0959075039339103,255.10179502219847,30.805863809430143,-5.372968709021768,-0.5870411972224813,0.1290091665806264,-0.23643426893830313,-0.7632343852406898
20.0,0.006038207923731134,-0.09370987411487017,0.021964905341183866,4.785266340137701,0.7886054396036695,8.50859844430419,0.14415381120977103,0.6244399491473646,0.0795287881538865,254.74400713165343,29.21872943883418,-5.2958367376787905,-0.5868427072982754,0.12025557536020569,-0.2261594805087504,-0.7678947171057667
21.0,0.02016695342423116,-0.08144767899291896,0.015841323638333876,4.8756988382716155,0.7925544479124338,8.457864506330283,-0.1391246112921959,-1.3807403748886833,0.0742594017574348,254.91058243487433,29.829269193303418,-5.359290296642774,-0.5871158323530548,0.12351272715072498,-0.23028690527991283,-0.7659764874090662
22.0,0.009355703305349261,-0.09664044059795437,0.01820783727156662,4.960103549741631,0.7715643994086163,8.41074185190629,0.33508954329174623,0.4068711579529831,0.07656715170483856,255.0321008161783,30.3927768075093,-5.242735234867414,-0.5871672229585887,0.12744486222209733,-0.23323394645584938,-0.7643990003685772
23.0,-0.002249764397679422,-0.096014948859166,0.012070087007144445,5.012506534902286,0.7716594617027348,8.381857944049132,0.13376231688584167,-0.9422420370738624,-0.41064935097684896,255.05956929085863,30.746988325076444,-5.259915021052905,-0.5868942252755178,0.129306338990671,-0.23563315111541486,-0.7636274000859409
24.0,0.012329802901006673,-0.09161500131130343,0.008926748572696644,5.1098730831193455,0.7840486248605839,8.3219865757112,0.24587501404967968,-1.0418439448042123,-0.15784483677874706,255.22012162699616,31.41249185839076,-5.3875851986984955,-0.5869926259780046,0.13248266365508973,-0.2403693429985677,-0.7615460292472715
25.0,-0.01404353527406242,-0.09939889850511407,0.0175609756097561,5.141364167696977,0.8055305159042372,8.301113221685211,0.3429643887452699,-0.200657290847102,-0.08867221160690868,255.2067471244989,31.624484142594884,-5.547695618373234,-0.5865894357259749,0.13261401984905025,-0.2425605182370837,-0.7611727382638342
26.0,-0.00988198269079465,-0.09798977183320218,0.026941778127458696,5.009066876475217,0.7846892210857591,8.382764752163649,-0.01145751376868609,1.0124065696302125,0.14312549173878836,254.68120574350905,30.723844413847363,-5.353624114870181,-0.5843953466970888,0.1278480126042486,-0.2363505756239182,-0.7655878747340679
27.0,0.00898626157477456,-0.09722977062276826,0.021337700982468885,4.877653432588916,0.7631555004135648,8.462140612076094,-0.051304116484092874,0.31801800268312863,0.2051801529181545,254.28992918961447,29.834217769674595,-5.153552182311525,-0.583059508155682,0.12350667801307269,-0.23001960729722204,-0.7692409755046803
28.0,0.0011650426677964113,-0.09591228893058161,0.02215980249752869,4.909751185216566,0.7299451774294416,8.446982973229236,0.11751768998769394,-0.46168828426032393,-0.12179033266759468,254.2733575924469,30.051427334876635,-4.937146862202183,-0.582712157803254,0.12594613993100526,-0.2304533596124191,-0.7690044144871946
29.0,0.0032758821741082577,-0.08675893891390293,0.019981345359792103,4.896852524341216,0.7339573974168964,8.455019806194512,0.261111386254162,0.7172833194227264,-0.349029309244525,254.32475550290013,29.957370995832918,-4.958932935039575,-0.5831804796448752,0.12539212538692046,-0.22991523139210604,-0.7689290602463166
30.0,-0.0026445089897507903,-0.08442267222192842,0.025665595874980535,4.703853297500869,0.9927959030095231,8.52978620878082,0.7796148329120273,-1.6750588971242744,-0.8601053324256419,254.87010144576647,28.683065778254402,-6.621118733264796,-0.5880155026903331,0.10923455824395947,-0.22925859030319584,-0.7676791363508848
31.0,0.01988703889990186,-0.06966851737056483,0.006853151240101634,4.822652647214337,0.8337981051145925,8.480352013760609,-0.5482026161860755,-0.07343454648840453,1.2138197416212804,254.32992639492625,29.471549210171744,-5.602768468014887,-0.5835922187839147,0.11885270373257881,-0.22993110292713556,-0.7693994168941445
32.0,0.0045937616808383215,-0.06755669753675352,0.01570472757562213,4.916865139629856,0.7063744159036274,8.440933421508689,0.0786991172880328,0.5111270195597679,0.40223584859629546,253.69285298240936,30.101236763894804,-4.772844561314544,-0.5787089678594038,0.12603537766801454,-0.23075286722570887,-0.7717833137418848
33.0,0.01076340513699853,-0.06567749080127175,0.014617940199335547,4.804344300360805,0.7296238345300611,8.50577037116422,0.2376888865073411,0.9627049619547743,-0.06408968313506946,253.6060622298432,29.339243292966096,-4.89833172578859,-0.5791616946254421,0.12104074469010109,-0.22637011688886507,-0.7736091108277069
34.0,0.005158293057584951,-0.07035480124386498,0.011559514443070698,4.82117979843393,0.7272625604136227,8.497788393091302,0.10131224008092615,-0.24253962009666186,0.02490422801693455,253.56200591959836,29.4543818609269,-4.891777659136038,-0.5787300142699787,0.12162855422033642,-0.22713317641901765,-0.7736687002937319
35.0,0.005379571909863018,-0.0699700273500431,0.011364360790009884,4.8507937276466,0.680068418337498,8.485984471861734,0.128587261479669,-0.36982971788243224,0.10253726407345604,253.4754190947395,29.651846416106842,-4.582409566895207,-0.5779558748698352,0.12439187976495965,-0.22700837005519003,-0.7738933475851266
36.0,0.008351844326667298,-0.07717548986549774,0.012560828628491887,4.865081963669688,0.6818790632394096,8.477961513964662,0.002662486346593343,-0.30660264695964934,-0.03738344169599087,253.39493400973532,29.74855185628691,-4.597613193585852,-0.5773289473396794,0.12466072970966878,-0.22780408466200358,-0.7740996030890306
37.0,-0.002380145424992002,-0.07403244539357838,0.017759676987057008,4.88591041347847,0.6773258603447435,8.467017623341775,0.10888692673704475,-0.032367183694878426,-0.06323377153923967,253.35741324142683,29.889161680831627,-4.580666235809823,-0.5769023200707615,0.1254623314846347,-0.22865533663054094,-0.774045038731151
38.0,-0.004935080392987552,-0.07003619197482298,0.022334523593374893,4.86947517601727,0.68783727733059,8.475731545925884,0.2561715739676007,0.043004196170993964,-0.09083827593859066,253.35462347939236,29.7779525762069,-4.642512457382638,-0.5770093510054268,0.12445260644201012,-0.22825459709330426,-0.7742441063525187
39.0,-0.007624896608767577,-0.06825806451612904,0.025993382961124904,4.908547973531845,0.6905417700578993,8.452433829611252,0.02278484284532674,-0.3890456989247312,-0.10901571546732838,253.36367090570718,30.041705438378823,-4.674663978494624,-0.5767307642572375,0.12570374886931351,-0.23010152448056237,-0.7737056179842845
40.0,-0.012669354838709679,-0.07712903225806453,0.027000000000000007,4.964895161290324,0.6837903225806452,8.420185483870966,0.11880040322580646,-0.2089717741935484,-0.016330645161290326,253.35357862903226,30.421219758064517,-4.644657258064516,-0.5761295443064516,0.12786564953225807,-0.23250368220967732,-0.7730786232741935
41.0,-0.03543548387096773,-0.07515322580645162,0.03303225806451614,4.873395161290324,0.6928064516129033,8.472467741935482,0.18160282258064514,-0.058719758064516125,-0.01990927419354839,253.1908266129032,29.806451612903224,-4.674546370967741,-0.5758486839596774,0.1241207982016129,-0.22878885624193546,-0.7749838056854839
42.0,-0.026571793863099918,-0.07432690794649882,0.03150314712824548,4.9509935090479935,0.7030554681353265,8.426416994492525,0.16892210857592446,-0.8975560582218726,-0.22473200236034616,253.25166330645163,30.33200236034618,-4.776156815499606,-0.5755263739986232,0.12637536595967744,-0.2326691274506294,-0.7736976377218725
43.0,-0.026520849724626275,-0.07222797010228167,0.03055625491738789,5.080288945712037,0.7112208890637296,8.347100314712824,0.03311246066089694,-0.35924468922108577,0.005407897324941013,253.39700776947285,31.212024242722265,-4.875381097560975,-0.5752716966313927,0.1307190038033045,-0.23874798135975608,-0.7712935677010226
44.0,-0.025406826847424797,-0.08360643749117391,0.032676390485989235,5.101126379390343,0.7084823427948921,8.335597717323326,0.3548452346728802,-0.08340129415562145,0.06998773174766487,253.29993197613427,31.351657411890496,-4.866231698490992,-0.5743988179184671,0.13128907276662327,-0.2397383025825869,-0.7715587186172606
45.0,-0.029848574714034987,-0.09152096068107084,0.03976561459783334,5.107845447759687,0.7371403649458332,8.329496439306823,0.3441312866912788,-0.46271879223910106,0.12405636587383242,253.141145423551,31.394074673687186,-5.066054357310012,-0.5732517436043949,0.12994450701637617,-0.2411190084485515,-0.7722187500021785
46.0,-0.03391091206197422,-0.08234053541527972,0.037015675119530356,5.178114305311787,0.7662604853840101,8.283204946640037,0.3909951280033892,-0.4317509431297787,-0.09649856765317033,252.96296551271962,31.88125743912526,-5.291971292541708,-0.5713064288738929,0.13072542235348705,-0.24556556817874076,-0.7721291696533317
47.0,-0.030349633843732973,-0.07843777360850532,0.034285965018459125,5.226978474449758,0.7698407068934212,8.252462426113095,0.14455342552805178,-0.19694352821319777,-0.0785846496802437,252.99579727248886,32.21349457322117,-5.33038277451633,-0.5710142708767576,0.13229271553158223,-0.24790953147725392,-0.7713310917652969
48.0,-0.021177964050111964,-0.07950606225665234,0.02799664104581493,5.229252415824407,0.7502271984506446,8.252973935322482,0.002081000726260343,-0.18868124483043838,0.07275035808670742,253.01206071334906,32.23159976497408,-5.194843236196009,-0.5711242463628478,0.13325220655808065,-0.24738492319338698,-0.7712577618307208
49.0,0.003265342250196689,-0.06958064516129032,0.011551730920535012,5.247445712037766,0.7315727773406767,8.243440204563338,-0.012574990165224238,-0.0457845692368214,0.22945515342250197,252.97198564122735,32.35514112903226,-5.069901898111723,-0.5706988437883556,0.13457466497738002,-0.2476663151837136,-0.7712573412010229
50.0,0.0035617623918174626,-0.060132966168371355,0.020765538945712037,5.188391817466562,0.6251400472069237,8.288429189614476,-0.22246262785208495,0.4230182926829268,0.09302222659323367,252.63282848151061,31.94702743902439,-4.315022619984264,-0.5691319450000001,0.13638398764358772,-0.2418716655310779,-0.773897918830055
51.0,0.03362195121951219,-0.04663611329661683,0.0022749803304484622,4.997142407553108,0.58731038552321,8.405363296616834,0.12807336742722264,1.112300845790716,0.4779135523210071,252.16830251770259,30.64422083988985,-3.997327399685287,-0.5678028084047994,0.13066097214594807,-0.2322386269079465,-0.7787028216219511
52.0,0.010012588512981906,-0.04805192761605036,0.007984264358772619,4.994635719905586,0.6081793863099921,8.406637293469707,0.19216168371361134,-0.34682336742722264,-0.10988394964594808,252.1061270653029,30.630300944138476,-4.138129425649095,-0.5674161773878836,0.12956068488749017,-0.2329073035830055,-0.7790228833674271
53.0,0.008228166797797015,-0.06339260424862311,0.01282769472856019,5.018651455546815,0.6029960660896931,8.393712037765539,-0.3226101494885916,-0.7261506687647521,-0.11127065302911093,252.332051534225,30.793538552321007,-4.1023800157356405,-0.5687438047678994,0.13106082463886704,-0.233580140859166,-0.7776291021636507
54.0,-0.007403619197482295,-0.06749095200629424,0.019505114083398906,5.1105357985837925,0.5598095987411488,8.340907159716757,-0.013626081825334369,-0.0041896144767898935,0.19068646734854447,252.28472659323364,31.420210464201418,-3.836801730920535,-0.5676078352714399,0.135848040490952,-0.23655823845161283,-0.7767408266671911
55.0,-0.0029708890637293447,-0.06322619984264358,0.021260818253343826,5.112158536585366,0.557738001573564,8.340563729346972,0.29655045239968525,0.06341463414634146,-0.08793764752163649,252.16308025177025,31.42566876475216,-3.824645948072384,-0.5667954221833202,0.13570841610542883,-0.23668825840991342,-0.777340644743509
56.0,-0.019106215578284822,-0.06951003147128244,0.02712450826121165,5.11370397324941,0.5719484657749805,8.339932533438237,0.24461177222659322,-0.026893194335169155,0.05157602281667979,252.1067368214005,31.434883949645947,-3.926253933910307,-0.5664107578870967,0.13499625574272228,-0.23727762380920536,-0.7775831928391033
57.0,-0.04468214004720692,-0.07755743509047994,0.029719512195121964,5.364839889850511,0.6272403619197483,8.169671911880407,-0.11632818646734855,-2.5271562745869396,-0.5971454563335955,252.62715873328088,33.202522619984265,-4.403247934697088,-0.5671958816451612,0.1424136874520063,-0.25039912009008647,-0.7713455091050356
58.0,-0.029403225806451615,-0.08795967741935484,0.025540322580645168,5.496862903225807,0.6583629032258067,8.081209677419352,0.14611895161290323,-0.4712197580645163,-0.32192540322580643,253.02046370967741,34.1101814516129,-4.666985887096773,-0.5684605255645161,0.14641246160483873,-0.2570980938467742,-0.7675236363306452
59.0,-0.022956989247311828,-0.08412096774193549,0.027185070306038055,5.515773986765923,0.6709236972704715,8.069995450785772,0.1685302936311001,-0.12611404052936317,-0.16719654673283707,253.1263957816377,34.23279311414392,-4.764035359801489,-0.5690321172043011,0.14669141487282877,-0.25823302176199336,-0.7667420318554592
60.0,-0.027502688172043016,-0.07401612903225807,0.02921753515301903,5.465463606286189,0.6772239454094295,8.104352564102564,0.289507082299421,0.8651183829611249,0.15682511373035568,252.98335918114145,33.87471308933002,-4.784336228287842,-0.5685977452553765,0.14434893802915633,-0.25618643935277086,-0.7682112606736973
61.0,-0.025360215053763444,-0.07529032258064516,0.028939412737799847,5.37876406120761,0.660785359801489,8.163519023986765,0.14634124276261373,0.3391620140612076,0.16694582299421007,252.72166950992556,33.26830412531018,-4.635414081885856,-0.5678134256155914,0.14154641153473943,-0.2518557564989661,-0.7707430416755583
62.0,-0.02099462365591398,-0.08505645161290323,0.024151157981803152,5.329950578990903,0.6458604218362283,8.198598221670803,0.09179461331679074,0.1659519747725393,0.11941041149710505,252.56867245657565,32.919862748138954,-4.52718284739454,-0.5672951346102151,0.14006821642059553,-0.2492401087615799,-0.7722656252208436
63.0,-0.0149247311827957,-0.10224193548387098,0.022700578990901582,5.314995450785774,0.6370148883374689,8.208512820512821,0.047182588916459885,-0.0831782464846981,0.05806710090984285,252.48776364764268,32.81892834987593,-4.474806141439205,-0.566902499768817,0.13969685502481388,-0.24843801515095126,-0.7728968213846155
64.0,-0.012612903225806455,-0.12015322580645163,0.01875806451612904,5.322588709677421,0.6353064516129034,8.202935483870966,0.06481854838709677,-0.16391129032258064,0.012046370967741936,252.45030241935484,32.875050403225806,-4.449949596774193,-0.5665515535403225,0.14000751201612904,-0.24879662233064517,-0.7729843628387096
65.0,0.009161290322580645,-0.14472580645161293,0.01481451612903226,5.302620967741936,0.6322419354838711,8.213967741935484,0.45796370967741934,3.0784778225806453,0.7704637096774193,252.33618951612902,32.73185483870968,-4.4020161290322575,-0.5659704382580644,0.13923398950000002,-0.24773603906451613,-0.7738462381209678
66.0,-0.03336290322580645,-0.13822580645161292,0.04023387096774195,4.990177419354839,0.5937580645161291,8.402814516129034,0.1691532258064516,0.1591229838709678,0.3194556451612903,251.44556451612902,30.618800403225805,-4.050655241935484,-0.562801779048387,0.1288262642419355,-0.23304940521774192,-0.7822240517983869
67.0,-0.05367741935483871,-0.12913709677419355,0.050637096774193556,4.913362903225806,0.5693870967741935,8.45426612903226,0.07051411290322582,0.15796370967741935,-0.00851814516129032,251.12701612903226,30.078881048387096,-3.857056451612903,-0.5614519669838709,0.12659961270967743,-0.22898052598387098,-0.7848975391048387
68.0,-0.056999586435070304,-0.0989145988420182,0.04998821339950373,4.873339743589743,0.5480806451612903,8.481252894954508,0.18308648676592224,-0.6816777812241521,-0.2862347497932175,251.00062034739454,29.807574700165425,-3.698973842018197,-0.5610066238147231,0.12590188763771712,-0.22662749766852774,-0.7860915676834159
69.0,-0.03181430934656742,-0.09642100909842846,0.03558684863523574,4.953956162117453,0.5705080645161289,8.43389660876758,0.16354425144747725,-0.5298761889991729,-0.07081394747725389,251.1609956575682,30.351796422663355,-3.8674304693961954,-0.5613911123105875,0.12790192389950372,-0.23087860877377997,-0.7842770741763856
70.0,-0.031729735318445,-0.08114598842018196,0.03464019851116626,5.118808726220015,0.5816612903225804,8.329101530190243,-0.0688327129859388,-1.7396104735318445,-0.38533136889991726,251.40564903846152,31.49338813068652,-3.998760597601324,-0.5614494739698097,0.1334760588610422,-0.2387843905481803,-0.7807828726325476
71.0,-0.02873180314309347,-0.08028267162944581,0.031376550868486355,5.221069685690653,0.5860887096774192,8.2678370554177,0.21906146608767574,-0.4572296319272126,-0.09795802315963606,251.52195254342428,32.18565575889164,-4.060292597187759,-0.5613124067671631,0.13684251808374687,-0.2435735122216708,-0.7789045951186931
72.0,-0.020555417700578994,-0.08079859387923904,0.02401488833746898,5.301845326716294,0.594532258064516,8.21725723738627,0.0010881927212572223,-0.6842095740281224,-0.2074467535153019,251.71566377171214,32.736603081058725,-4.138412427626138,-0.5618446265851946,0.13958000654590572,-0.24738812504631927,-0.7768684480351529
73.0,-0.028040322580645153,-0.07913709677419356,0.02425806451612903,5.340725806451612,0.5995564516129032,8.19309677419355,0.11365927419354838,0.043901209677419284,-0.18845766129032257,251.89133064516128,33.000756048387096,-4.187449596774194,-0.5626620382338711,0.14100942287096774,-0.24914422833870967,-0.7755013745080644
74.0,-0.022427419354838704,-0.07777419354838708,0.02017741935483871,5.299588709677417,0.6045161290322582,8.21957258064516,0.07792338709677418,0.19248991935483867,-0.08276209677419355,251.93991935483868,32.71633064516129,-4.206653225806452,-0.5634315241209678,0.13952233070967743,-0.24727039957258065,-0.7758234823064514
75.0,-0.018604838709677413,-0.08267741935483872,0.017685483870967744,5.27657258064516,0.5983548387096775,8.235588709677419,0.12711693548387099,-0.2027217741935484,0.028477822580645167,251.94143145161289,32.558417338709674,-4.152721774193548,-0.5636980105725807,0.13903139113709678,-0.24597379603225808,-0.7761424887419353
76.0,-0.016416011014948856,-0.09945003933910308,0.021211250983477578,5.218233674272227,0.6052633752950431,8.271378835562547,0.18236747639653816,0.5015735641227379,0.15138793273013376,251.75440720889063,32.15467766522423,-4.184746262785208,-0.5629658268095987,0.13636805523013373,-0.24367378038886706,-0.7778642144903618
77.0,-0.018174862313139258,-0.09673426435877262,0.020889653815893,5.17169512195122,0.6111717151848938,8.300387686860738,0.37232002360346184,0.48682262981904006,0.0666478166797797,251.56212136113297,31.832605969708887,-4.213458890637293,-0.5620866916516523,0.13412999783733276,-0.24190148009893786,-0.7794400515470101
78.0,-0.01599891349143906,-0.08398752388445543,0.02355523397399873,5.134186270653029,0.6054266794050429,8.324138351878911,0.1609751999737739,0.27664264171443553,-0.00906760471694578,251.44491916750965,31.57745289844891,-4.164695555149676,-0.5616338827077385,0.1328789158831441,-0.2401123901510434,-0.780539643507184
79.0,-0.0257349012775842,-0.07650320332696416,0.029391208647109514,5.133024783634932,0.6272416638567306,8.323194175939456,0.15528783110411748,-0.1894004533363306,-0.04744846109175377,251.3673381242741,31.564563019838147,-4.314042186504814,-0.5611071210673821,0.13172967747638717,-0.24080655535030537,-0.7808980525294575
80.0,-0.019847289348469518,-0.07788063392154661,0.021667378517103143,5.0447301337529495,0.6035522835412684,8.376391442808435,0.28953907684238134,1.407114289460867,0.34134633397025216,251.11859849762092,30.961994211531973,-4.129601738413697,-0.5602383042836911,0.1293290954599678,-0.2361887161428946,-0.7832583710590837
81.0,-0.01195354239256678,-0.07585613128020682,0.02629395676445244,4.919131392604249,0.6314260237533251,8.448777940129633,0.3500950694990821,0.0454877112135178,0.18203233299614102,250.64886946910946,30.11315190513656,-4.274576636319359,-0.5581100862724513,0.1231026603302986,-0.23168224823273764,-0.7871080654626654
82.0,-0.021539017761677087,-0.09305929685315997,0.023933155226624935,4.906077427424398,0.6031378136681047,8.46001315050017,-0.3414893885291209,0.19116186888118442,0.3089938844266146,250.49397933400195,30.021448781352397,-4.079640140871454,-0.557223595191845,0.12357978286078569,-0.23032727783552798,-0.7880984435734921
83.0,-0.013052956484899837,-0.09170330246726788,0.0231255825213339,4.895829823074907,0.5882289233190099,8.466935221610282,0.7858675533095281,0.5709787745365047,-0.11473999626782866,250.43843821239082,29.950709427767354,-3.974957382638342,-0.5569614877189975,0.12374061891587483,-0.2294740038186669,-0.7885216874911033
84.0,-0.019307752829389336,-0.0862765135467732,0.02208206742117049,4.91904000988521,0.6681191823518733,8.447598216627329,0.14903133763037377,-0.9900318558474044,-0.7948306590308458,250.90932532177368,30.114344682412394,-4.519859690532389,-0.5598905347603642,0.12210072306139926,-0.23259147066228386,-0.7857602886511377
85.0,-0.021815166737275314,-0.07514632128951562,0.022557162742843313,5.014007908168414,0.6893458814985172,8.389605559926569,-0.09105892795900665,-0.7609685488914442,-0.42581754725735843,251.32719290282233,30.76002012346426,-4.697833071072646,-0.5618435933882466,0.12517118944198993,-0.2372548146013032,-0.7824855616844397
86.0,-0.004772256854082184,-0.0718453872379915,0.020718392543726927,5.165501987129054,0.6491599588452461,8.298506163126145,-0.4343276543807622,-1.0822938731868708,-0.32065857693316385,252.08178095180455,31.80754251649216,-4.470479281405717,-0.5655610294250438,0.13360254895152213,-0.24223283806855092,-0.7767680026360828
87.0,0.013852084972462628,-0.0766042486231314,0.0069150275373721475,5.203323367427224,0.6321904012588513,8.277468135326515,0.1575776947285602,-0.4684008654602675,0.14577596380802516,252.0566679779701,32.06295239968529,-4.365952006294256,-0.5650677788316285,0.1354198338678206,-0.24349017567033834,-0.7764886375885129
88.0,-0.0002210857592446899,-0.07956412273800156,0.010450432730133755,5.164170731707317,0.6259315499606608,8.30328638867034,-0.04301976789929189,0.20331923682140046,0.03941040519276159,251.72005802517702,31.787495082612114,-4.309136506687647,-0.5631876227966167,0.13363288497010228,-0.24182478971321797,-0.7787111986762391
89.0,0.00401199338296112,-0.08189164598842019,0.014539909015715466,5.197658808933003,0.6067911497105047,8.284409842845328,0.22011605665839537,-1.1120941894127376,-0.2706898779983457,251.6128230976013,32.02094964846981,-4.191465053763441,-0.5621353769005377,0.13532782127088505,-0.2430002195758892,-0.7788265447694375
90.0,0.01439309346567411,-0.09048614557485525,0.014903019023986767,5.24849875930521,0.6067100909842846,8.252164598842018,0.2384098428453267,0.5588722601323409,0.2071197787427626,251.3762704197684,32.36410385649297,-4.211105510752688,-0.5600504787849464,0.13646133568382962,-0.2456171669048801,-0.7793041522516542
91.0,-0.00034780810587262036,-0.0922632340777502,0.015399090157154672,5.229717121588089,0.6320889164598844,8.26232423490488,0.1948601633581472,0.08183028329197695,-0.08744313482216709,251.3654789598842,32.23535333953681,-4.379771505376344,-0.5601368843844088,0.13475261391852772,-0.24555040629114971,-0.7795859017992142
92.0,0.0043664185277088475,-0.08906306865177832,0.02405438378825475,5.171398883374689,0.6600767162944584,8.296210504549213,0.16444117038875103,1.5892770368072788,-0.015596567411083548,251.37903484284533,31.82984904880066,-4.5503696236559135,-0.5607582478252691,0.1316267611850703,-0.24361964438751038,-0.7802582011939618
93.0,-0.009720016542597187,-0.09222911497105046,0.02263606286186931,5.005348635235732,0.6707762613730358,8.395113316790734,0.1367064722911497,0.5296939619520264,0.049963813068651775,251.3241444375517,30.700206782464846,-4.567271505376343,-0.561925463844086,0.12560398545947063,-0.23623752402440035,-0.7826391023147226
94.0,-0.03168548387096774,-0.08733870967741936,0.023016129032258064,4.872637096774193,0.6552500000000002,8.47383870967742,0.07313508064516129,0.7629032258064516,0.3355846774193548,251.26204637096774,29.801008064516125,-4.423891129032258,-0.5627127860403226,0.12178098595967742,-0.22961981997580647,-0.7846456220564515
95.0,-0.01995967741935484,-0.11266935483870967,0.028419354838709675,4.829653225806451,0.665274193548387,8.499508064516128,0.16013104838709677,0.180695564516129,-0.0888608870967742,251.02283266129032,29.50670362903226,-4.476461693548387,-0.5614638296612904,0.11947247963709676,-0.22816629737903227,-0.7863557876532257
96.0,-0.021362903225806456,-0.11870161290322581,0.02040322580645161,4.652927419354838,0.6681209677419355,8.595193548387096,0.1675907258064516,0.36255040322580645,-0.047227822580645167,250.85498991935484,28.330342741935482,-4.446471774193548,-0.5617788008145161,0.11329832992741934,-0.22022980780645157,-0.7892500358064516
97.0,0.0006451612903225837,-0.11125806451612902,0.019629032258064515,4.732580645161291,0.6779677419354838,8.552435483870969,0.14183467741935485,-0.6647681451612903,-0.1280241935483871,250.89667338709677,28.861139112903224,-4.536038306451613,-0.5614015154112904,0.11552640824999998,-0.2242022610403226,-0.7881122216451613
98.0,0.008314516129032262,-0.09280645161290323,0.014766129032258064,4.792870967741935,0.6801532258064515,8.519298387096773,0.0830141129032258,0.11819556451612895,-0.1415826612903226,250.92701612903227,29.26476814516129,-4.564415322580645,-0.5610829504354837,0.11746289622580643,-0.2270323229596774,-0.7872660481451612
99.0,0.008862903225806452,-0.0893306451612903,0.016169354838709675,4.7535483870967745,0.6874596774193548,8.54016935483871,0.2717741935483871,0.24959677419354834,-0.11567540322580647,250.90851814516128,29.005695564516127,-4.6043850806451605,-0.5613307832096772,0.11582361007258064,-0.22544324359677415,-0.7877903605161289
100.0,0.0033870967741935504,-0.07407258064516128,0.020064516129032258,4.81466935483871,0.6936451612903225,8.504991935483872,0.34158266129032255,-0.5071068548387097,-0.0041834677419354885,250.89627016129032,29.413810483870968,-4.663155241935485,-0.5607231384032257,0.11751329982258064,-0.22848545229032258,-0.7870857978467741
101.0,0.0005458300550747455,-0.06575629425649095,0.024055664830841865,4.865309008654602,0.6989348937844218,8.47684382376082,0.08302148898505111,-0.14933492328874903,-0.07734559402045633,250.85211447678992,29.74951563729347,-4.712681943351692,-0.5599493214508262,0.11882337101317858,-0.2310535410763179,-0.786709979696302
102.0,-0.006537568843430372,-0.07637411487018098,0.028878638867033835,4.864303697875688,0.7037940597954366,8.478034815106216,-0.06037937647521637,1.2002569335169158,-0.021737313139260424,250.85584554484655,29.733527979937058,-4.749435729740362,-0.5599779190318646,0.11854675348642801,-0.23111655240106221,-0.7867196559449253
103.0,-0.03576475216365065,-0.07039673485444532,0.0322094807238395,4.707426042486231,0.6916026750590086,8.56562627852085,0.06212381982690794,0.37661536191974826,-0.04479002753737214,250.7945810385523,28.6922932238395,-4.620811614870181,-0.560904324403029,0.11390995621498819,-0.223567541277144,-0.7888755895289143
104.0,-0.021198428309167877,-0.07043588662845154,0.03732382638342513,4.7092387508898135,0.6959142407553108,8.564525504851822,0.2811507155970177,-0.5968953720355176,0.17687053922670565,250.5985962028399,28.703405876512683,-4.647357372335243,-0.559540202709771,0.11342283297826981,-0.22397323090950133,-0.7898266179163389
105.0,-0.013530665767487163,-0.06971391105616126,0.0405933648046158,4.707885504477164,0.6955216365066877,8.566274849200106,0.16789390618560562,0.30533255591772507,-0.019452835225356846,250.45927794012965,28.692731164062792,-4.645200863586977,-0.5586076870242405,0.11310760565042521,-0.2240211485757184,-0.7905368915872016
106.0,-0.01123425499231951,-0.0737680491551459,0.047852150537634405,4.669572964669738,0.6948709677419356,8.587139784946235,0.06724750384024578,0.12898905529953916,-0.3743015552995392,250.71504416282642,28.438325652841783,-4.6282210061443925,-0.5607005247772658,0.11242221092434715,-0.22196868824615973,-0.7897299259139785
107.0,-0.011583885954066914,-0.07197942190251394,0.03623006818777865,4.646044546850998,0.6947887490165222,8.600414896407027,0.2586212932261811,0.09309528492750366,-0.1694832176576374,250.76768632216852,28.281285416900825,-4.617796085290921,-0.5612903643882394,0.11176559197643397,-0.2208032697610618,-0.7897373138238264
108.0,0.0023128957326439617,-0.07055825933835376,0.02723196957776029,4.680054531490015,0.7032734067663255,8.580336480461579,0.3594769772582518,-0.6670612285039901,-0.23118818140946387,250.71060727398748,28.508964281031055,-4.68397364748417,-0.5605881188796035,0.11241284366563634,-0.22274813621117606,-0.789598887157881
109.0,-0.031646931549960663,-0.061618607395751396,0.03436329661683713,4.664685483870969,0.7126044453186469,8.588049960660896,0.02814958693941777,0.3367746852871754,-0.024205841856805674,250.7445269472856,28.402614821007077,-4.741622000393391,-0.560949725786192,0.11156427724449251,-0.22223679752340678,-0.789613808492919
110.0,-0.01107297403619198,-0.04820554681353266,0.019882966168371357,4.708211447678993,0.7065047206923682,8.564502950432733,0.11136408339889849,-0.5264911978756884,-0.13151430959874114,250.93408979150274,28.69485395357986,-4.7120943154996064,-0.5618560046101495,0.11361222308202201,-0.22389986865715972,-0.7881989360100314
111.0,-0.005395357985837925,-0.043760031471282476,0.016292289535798584,4.717980723839496,0.7023088119590875,8.559489378442173,0.12402881589299763,-0.15858330055074746,-0.05590332415420928,250.953083202203,28.7604814122738,-4.686440302911093,-0.5619387834421714,0.11414647461762392,-0.22420638472777343,-0.7879797339445319
112.0,0.004075727773406766,-0.04435208497246264,0.012906176239181746,4.746506490952006,0.7079427616050353,8.542817073170731,0.14620992328874902,-0.23301903029110937,0.08277316089693156,251.13264407946497,28.955663601494884,-4.730916846970889,-0.5628950087084972,0.11522746221675847,-0.22554863206963022,-0.7867357066787963
113.0,-0.005925845790715976,-0.046611526357199076,0.018795830055074743,4.738071793863099,0.7065076711250982,8.548134343036978,0.08840234067663258,-0.031101249016522434,-0.06932410503540519,250.91541478166798,28.89630458300551,-4.727681205743509,-0.5615038234832808,0.11454870266483083,-0.2253283126719119,-0.7879029922063335
114.0,-0.006708890637293472,-0.04541463414634148,0.01659952793076318,4.788854445318647,0.7204594807238394,8.518538945712038,-0.14405487804878048,-0.9026726003147129,-0.6223888670338317,251.04291404405978,29.239936565696304,-4.838109756097561,-0.561906052140834,0.11587998865499607,-0.22800987135208495,-0.786636505873328
115.0,-0.0009193548387096788,-0.05090322580645164,0.012580645161290325,4.837032258064517,0.710741935483871,8.492467741935485,-0.09364919354838708,0.30206653225806446,-0.24526209677419356,251.64243951612906,29.557409274193546,-4.782258064516128,-0.5655877882741935,0.11903263213709679,-0.22927339597580648,-0.7831445997258064
116.0,0.007798387096774197,-0.06079838709677421,0.005935483870967742,4.840112903225808,0.6864354838709679,8.491975806451613,-0.5457157258064516,-1.070766129032258,-0.9596774193548386,251.9216733870968,29.58422379032258,-4.616784274193548,-0.5675015354999997,0.12076888528225807,-0.2284264350887097,-0.7817357704596772
117.0,0.006790322580645163,-0.06230645161290323,0.012483870967741933,5.148919354838711,0.5837177419354839,8.30649193548387,-0.0878024193548387,-1.2645161290322582,0.2949092741935484,252.1665322580645,31.713558467741933,-4.0,-0.5662621277338707,0.1360177807983871,-0.23941222195161288,-0.7765379871129031
118.0,-0.003717741935483871,-0.036548387096774194,0.012169354838709675,5.136120967741936,0.5474516129032259,8.32250806451613,0.37152217741935484,0.02222782258064515,0.5123487903225806,251.9139616935484,31.60060483870968,-3.7512096774193546,-0.5648228799193546,0.13652068112903226,-0.23784593188709674,-0.7781478383467741
119.0,-0.001322580645161289,-0.01820161290322581,0.013322580645161286,5.076290322580646,0.5482096774193546,8.361830645161291,0.42162298387096775,0.43014112903225804,0.3260584677419355,251.55282258064517,31.18346774193548,-3.7321572580645164,-0.5629507746370968,0.13373698529838707,-0.2354135824193548,-0.7807809148306452
120.0,0.002301902398676592,-0.02434718775847809,0.014596980976013234,5.02008105872622,0.5542127791563274,8.396481389578163,0.30981958229942097,0.2864803039702233,0.21898779983457403,251.17837830851943,30.79602331472291,-3.7609194065343257,-0.5608974512431764,0.13083319824462364,-0.23339735388482216,-0.783386478089537
121.0,0.0083767576509512,0.002628825475599658,0.012463813068651781,4.985403432588916,0.5594410669975186,8.417377791563275,0.16720817824648468,0.32406172456575677,0.37839510959470635,250.96076173490488,30.55952879445823,-3.7940433726220015,-0.5597740268635236,0.12901614242473117,-0.23215452633354008,-0.7848904773955752
122.0,-0.06816645988420181,-0.08192349048800664,0.023348842018196862,4.878568651778329,0.5853939205955334,8.477241315136474,0.468054693961952,0.935770781637717,0.17132961124896606,250.50172663358148,29.837098066583955,-3.950625516956162,-0.5575340688833748,0.12345506210752685,-0.22850168294499582,-0.7884317340082716
123.0,-0.017991864875224427,-0.07475718190804738,0.019281718412717627,4.795873232262099,0.6695627156085455,8.51742661744235,0.4956102541406927,0.3466631740604006,-0.2655153674675705,250.5353317471605,29.288497031915107,-4.494917154622849,-0.5583855372621044,0.1172431564851167,-0.2272780474241108,-0.7891322172037819
124.0,-0.016104803405354143,-0.08161649417983013,0.027084407593455588,4.734150325808468,0.7059628094171762,8.549745566785688,0.33013879642518507,-0.05504542909883195,0.1664358646533115,250.28636547035444,28.869601338538196,-4.718401117634005,-0.5571644668770199,0.11321850970626804,-0.22575799711124894,-0.7910224023317296
125.0,-0.002083005507474424,-0.07075531077891424,0.01961250983477577,4.807699645948073,0.7254230920535012,8.506738788355626,0.3208644767899292,-0.21272742918961446,0.012860198662470484,250.18192859952794,29.360751868607394,-4.873411683713611,-0.5558215023764752,0.11454682896066093,-0.22988847700806453,-0.7905864870922502
126.0,-0.0051463414634146335,-0.06741797797010228,0.021515932336742722,4.657732887490166,0.7325220298977184,8.587433910306846,0.7548878835562549,1.0536917289535799,0.3004573170731707,249.61616591266719,28.36344045043273,-4.877885277340676,-0.5530998372769473,0.10833906884323367,-0.223642043467742,-0.7950824747920929
127.0,0.009362313139260421,-0.05275334382376082,0.023245869394177814,4.588858379228953,0.7605916601101494,8.622805664830842,0.0402463611329662,0.5493509047993707,0.025833497246262757,249.60702448859163,27.90659421715185,-5.0415888080251765,-0.5535631930255704,0.1049467477804878,-0.22133874075806453,-0.7958947156742723
128.0,0.013088709677419355,-0.05563709677419356,0.020798387096774194,4.559758064516128,0.7756129032258066,8.63851612903226,0.21476814516129034,-0.4544354838709676,-0.22807459677419353,249.70509072580643,27.713407258064514,-5.12898185483871,-0.5544696933467741,0.10354988304838711,-0.22035630773387097,-0.795747326032258
129.0,0.002637096774193547,-0.06579032258064517,0.027395161290322587,4.560088709677419,0.789217741935484,8.637314516129035,0.1481350806451613,0.21985887096774198,-0.2113407258064516,249.71507056451614,27.711995967741935,-5.220060483870968,-0.5545084804596774,0.10294922841129034,-0.22077390568548386,-0.7957041089919354
130.0,0.019709677419354844,-0.0707822580645161,0.022532258064516135,4.529403225806451,0.8093951612903227,8.651451612903227,0.34087701612903226,0.25433467741935484,0.09002016129032259,249.58331653225804,27.507308467741936,-5.342439516129032,-0.553816173967742,0.10087866025806452,-0.2200722477580645,-0.7966522215806452
131.0,0.021717741935483877,-0.08137096774193549,0.015411290322580649,4.5241612903225805,0.835693548387097,8.652096774193549,0.34299395161290325,-0.15519153225806454,-0.06360887096774194,249.5859375,27.470463709677418,-5.513961693548387,-0.5538633772258064,0.09958909574999998,-0.22061777426612902,-0.7966330247661291
132.0,0.00823387096774194,-0.07510483870967742,0.026782258064516135,4.477298387096774,0.849991935483871,8.674467741935482,0.20826612903225805,0.06532258064516128,-0.12147177419354838,249.4524193548387,27.168195564516125,-5.591330645161291,-0.5532575544354839,0.09727128547580643,-0.2190215079516129,-0.7977674913064516
133.0,0.005387096774193548,-0.06563709677419355,0.027290322580645163,4.534379032258064,0.8551048387096776,8.644282258064514,0.15907258064516128,-0.3694556451612903,-0.12061491935483871,249.52253024193547,27.546824596774194,-5.648739919354838,-0.5532742408064515,0.09897249327419352,-0.22179240575806453,-0.7967841361693548
134.0,-0.02298387096774194,-0.0822983870967742,0.026129032258064514,4.631379032258064,0.8437983870967741,8.59307258064516,-0.10166330645161291,-0.25090725806451614,-0.13497983870967742,249.70342741935482,28.190574596774194,-5.608266129032258,-0.5537618331129033,0.10286569887903226,-0.2257689935080645,-0.794805415903226
135.0,-0.030524193548387105,-0.08303225806451613,0.032395161290322584,4.634677419354839,0.8477903225806449,8.591322580645162,0.1205141129032258,0.2944052419354839,-0.11950604838709677,249.7102318548387,28.2133064516129,-5.639616935483871,-0.5538018013306452,0.10280653376612903,-0.22604916512903228,-0.7947281868951614
136.0,-0.008661290322580652,-0.07940322580645161,0.025733870967741934,4.658387096774193,0.8707016129032258,8.576354838709676,0.16396169354838708,-0.6176915322580645,-0.12600806451612903,249.81925403225807,28.372227822580644,-5.798689516129032,-0.5543462443951612,0.10281839662903222,-0.2277791183225807,-0.7938569097741937
137.0,-0.0006073957513768702,-0.07347501966955153,0.02295830055074745,4.7276776160503555,0.8719944925255705,8.537919551534225,0.023714103068450038,-0.672916256884343,-0.049065696302124304,249.85437401652243,28.834295092446894,-5.833342348544452,-0.5540226749598742,0.10503565719866245,-0.23102067701553897,-0.7928573182682926
138.0,0.0032985837922895377,-0.0674274193548387,0.022365263571990562,4.769495869394179,0.8698060582218725,8.514834972462628,0.160217102675059,-0.3216033143194335,-0.20101544059795434,249.89036560778914,29.10775472069237,-5.831967938630998,-0.553952374251967,0.10651496450373721,-0.2328570601721086,-0.7921783508988984
139.0,0.0012944531864673497,-0.06335483870967742,0.0287108575924469,4.761598741148703,0.8698788355625491,8.520115066876473,0.07524464004720692,0.04728806058221871,0.017234215184893792,249.78422010228164,29.049845102281665,-5.828735985444531,-0.5532589096058222,0.10601489319944926,-0.23256009715460269,-0.7928241147317074
140.0,-0.012969708890637293,-0.06168548387096775,0.03141994492525572,4.787605822187254,0.8563103855232104,8.50715833988985,0.07958300550747444,-0.4492894374508261,-0.04236575531077891,249.72582980920532,29.22638424468922,-5.752850855625492,-0.5526215714319435,0.10727983409166011,-0.2334525357466562,-0.7928348561077893
141.0,-0.014186467348544455,-0.07774193548387097,0.02934303697875689,4.850754523996852,0.851050354051928,8.471317073170733,-0.005571400472069242,-0.34566286388670336,-0.024660700236034616,249.710218332022,29.653565106215577,-5.740160306845004,-0.5519979481675845,0.10952279510228166,-0.23627174264752165,-0.792126288231314
142.0,-0.029787962234461052,-0.10345869394177813,0.03588552321007082,4.891673878835562,0.8482199055861528,8.448277734067663,-0.19534569236821403,-1.676917781274587,-0.5021906963021243,249.72733575924468,29.933701317859953,-5.736027242328875,-0.5517163414771833,0.11100052065027538,-0.23812472646616833,-0.791553073797797
143.0,-0.01900806451612903,-0.09848387096774194,0.025975806451612904,5.03325,0.8467661290322583,8.363758064516126,0.09117943548387096,-0.02399193548387102,0.10045362903225805,249.88840725806452,30.88321572580645,-5.786139112903226,-0.5515912461209677,0.1159163438790323,-0.24453572842741933,-0.7889361472741935
144.0,-0.0180279307631786,-0.09068941778127458,0.02174291896144768,5.108732494099135,0.8347368214004722,8.31917014162077,-0.03748155979543667,-0.3024759047993706,-0.1374840184893784,250.15936516522424,31.403675747442957,-5.7307939122738,-0.5527616822273798,0.1194949034219119,-0.2474692902804878,-0.7866626772350509
145.0,-0.013602675059008654,-0.08526809598741147,0.022835169158143195,5.110753343823761,0.8098361526357201,8.32046813532651,0.05719167977970101,0.1566753540519276,0.0014444826907946545,250.22454145357983,31.416101986624703,-5.563355625491738,-0.5532608716620769,0.12076038481982693,-0.2467184172934697,-0.7863861774602674
146.0,-0.016638276947285605,-0.08569335169158143,0.0321308025177026,5.098426829268294,0.796854642014162,8.330139850511408,0.21794723642800942,0.3826379327301337,0.24716143784421712,250.18553427419354,31.324384097167584,-5.474396390637294,-0.5531007852037766,0.12077629163965384,-0.24577639818115657,-0.7868049827197088
147.0,-0.01952416328753858,-0.09664206459682463,0.032066952127337664,5.019009940688737,0.8056217999152695,8.37666535536323,0.34747069741168873,0.78375137434687,0.2042213568460126,249.83710582092635,30.78414006864169,-5.498281089239242,-0.5514390513930381,0.11711401251192785,-0.24264595546971396,-0.789476556748502
148.0,-0.016217726805059614,-0.08979683875002523,0.03499718574108819,4.9164202929250145,0.8236173515705381,8.43571977445581,0.3217192196735863,0.8398091549153706,0.47920241229397403,249.46217690239865,30.09038152625633,-5.57436735913575,-0.5497472452690997,0.11228977321967362,-0.23868312362598604,-0.7925432033823153
149.0,-0.0321371875567391,-0.11192831709334462,0.03760087453852208,4.8278088876112095,0.8326938056043091,8.48609749541044,0.34127857128447214,-0.01732496620871915,0.13520506137908775,249.02350092169502,29.499508229689923,-5.601158895932942,-0.5474434485118118,0.10819154749103271,-0.23522480138419677,-0.7957318847360042
150.0,-0.03449198087514375,-0.10191173919183358,0.04292543726926105,4.800368153483024,0.8320444834473155,8.50215761867296,0.3375747695132038,0.2539383233472533,0.03965394197986645,248.70900348504102,29.310011171296576,-5.591632875385826,-0.5455172557397769,0.10666843037454861,-0.23420702261548554,-0.7975809474486473
151.0,-0.031124826000121047,-0.08801487825051947,0.030737305574048312,4.766885886340255,0.8246375052956483,8.521805795961185,0.2983949772034941,-0.029172655792935084,0.04196996862958704,248.47413687233956,29.08572942514475,-5.527327059250741,-0.5441970940878271,0.10546936966799815,-0.23263216624794733,-0.799117258422986
152.0,-0.018674075531077895,-0.068455743509048,0.029557238394964602,4.754229543666406,0.8196835169158141,8.529429779701024,0.14193425452399686,0.09176706333595594,-0.05121828284815106,248.31615238985052,29.000252016129032,-5.487391817466562,-0.5431918669702991,0.1049573435354052,-0.23201239656235248,-0.8000536300452398
153.0,-0.021468135326514558,-0.061209284028324165,0.026388670338316295,4.772309598741149,0.8181062155782846,8.519436270653028,0.2683566089693155,-0.11367771439811172,0.01340971675845791,248.20850708103853,29.1231461447679,-5.4840947088906375,-0.5423019269323368,0.10539559153855232,-0.23292128024350903,-0.8003387183241542
154.0,-0.01939417781274587,-0.06395239968528718,0.025331235247836356,4.752466365066876,0.8172915027537369,8.53145141620771,0.21813778520849725,0.11516645357985839,0.03675993312352478,248.0277734067663,28.988185975609756,-5.4697961742722265,-0.5411735969272226,0.10441494825236035,-0.23211230692269863,-0.8014689949047995
155.0,-0.02498741148701809,-0.06301652242328876,0.0317704563335956,4.753406569630212,0.823774783634933,8.52997974036192,0.2731313926042486,-0.4251032651455547,0.028863837529504326,247.8912556549961,28.999082907159718,-5.515921272619984,-0.5402273457216757,0.10390629429956727,-0.23251701532022032,-0.8020552692991738
156.0,-0.01393843430369787,-0.06379209284028325,0.02992564909520063,4.800261801730921,0.8466213611329659,8.500951612903224,0.22359854445318644,-0.1796407848151062,-0.06360518292682926,247.8047010228167,29.316886309992128,-5.6879769866247045,-0.5391849587177419,0.10419463869335169,-0.23551110400393388,-0.8018388528613298
157.0,-0.014539339103068448,-0.05889811172305273,0.02633634933123525,4.791406372934698,0.8579429583005509,8.505096774193543,0.13933664437450824,-0.058271046420141616,0.10256933516915814,247.7220987411487,29.254349429583005,-5.758445613690007,-0.5386238480822187,0.10324937065420928,-0.23550415070849723,-0.8023407366369001
158.0,-0.0187551140833989,-0.06353166797797011,0.027883359559402056,4.798034421715185,0.856047010228167,8.501503540519275,0.07383334972462627,-0.4326760424862313,-0.12128122541306058,247.6629425649095,29.298899734461052,-5.7504118312352475,-0.5381986121898111,0.10343386112332809,-0.235807672374705,-0.8025128392578679
159.0,-0.012050944138473645,-0.06485051140833989,0.027477970102281677,4.826029307631787,0.8558743115656966,8.48547757671125,0.1720225216365067,-0.30595495672698664,-0.05340774980330448,247.68515071793863,29.48722708497246,-5.754868214004721,-0.5381465569860346,0.10437245230763179,-0.2371068746026751,-0.8020419274071597
160.0,-0.0020886441122475747,-0.05721557828481512,0.020491289198606277,4.857607395751376,0.8538701434940618,8.467832490352551,0.00852230152485857,-0.7188040912667191,-0.008573114532988646,247.71100253830878,29.70111882282417,-5.754690251395601,-0.5380503857401371,0.10550190118991419,-0.2385324746285265,-0.8015364195311528
161.0,-0.0019684163201079035,-0.06455061631261474,0.02306906822524447,4.864593289872991,0.8538598778614515,8.463937788018434,0.2571694344535611,0.31636413023116405,-0.002645086358697688,247.59400980199314,29.741597120752314,-5.759988151436814,-0.537188647384699,0.10543582240848974,-0.23894682481585552,-0.8019957697563974
162.0,0.0017073732718893998,-0.07566397849462365,0.020584101382488486,4.85414400921659,0.8540983102918587,8.469678571428574,0.04224030337941628,0.10949500768049156,-0.01109831029185868,247.54608534946237,29.670242895545314,-5.757138056835637,-0.5369164331943164,0.10499020023886328,-0.23849864675883253,-0.8023738509293397
163.0,-0.0035589805552433415,-0.07664483346446366,0.020394627402495227,4.839969624592559,0.8439441197407366,8.478573255029783,0.17342825062755235,0.21226741926117418,0.01946313832377955,247.47232166273275,29.582971319920574,-5.686944569330485,-0.5365569204378349,0.10486093845361733,-0.23761240347363344,-0.8028956402968886
164.0,0.0003777677868944578,-0.07106031995803828,0.020471507249634716,4.842916263909183,0.8369639953542392,8.477871304934247,0.06950142370087295,-0.24928463714360644,-0.030843027612303772,247.38757212168895,29.599550176089316,-5.629762607245888,-0.5359451604568206,0.10511712352519573,-0.2375837410956877,-0.8032782843863473
165.0,-0.002112191375369975,-0.06453015997901915,0.01994082274924132,4.840603293244914,0.8212692480611441,8.480280506537786,0.08378104979206473,-0.03956167341051289,0.020292771908133823,247.26333291184295,29.58305081769136,-5.527808530965494,-0.53511657266159,0.10546479141620771,-0.23713639963540145,-0.8039151070380277
166.0,-0.005154405979543668,-0.0570446498819827,0.01845889063729347,4.813612706530291,0.8151784028324152,8.49632612116444,0.2274464004720692,0.11310606805664833,0.02791232297403619,247.1657774390244,29.397544994099135,-5.480551730920535,-0.534658968627262,0.10467338435326513,-0.2357506371256884,-0.804731526379229
167.0,-0.006653815892997642,-0.054752163650668775,0.020806058221872543,4.770003933910306,0.8205125885129816,8.520606608969317,0.20107199055861524,0.5040076711250984,0.0649390243902439,247.0126770259638,29.10222511801731,-5.498239575137687,-0.5339417035354052,0.10276379037018096,-0.2339330286475216,-0.8059787490283241
168.0,-0.019693548387096783,-0.06303225806451615,0.028653225806451618,4.73324193548387,0.8222177419354838,8.540435483870972,0.09737903225806452,0.07409274193548387,-0.006854838709677416,246.9401209677419,28.859324596774194,-5.497177419354839,-0.5337516549919354,0.10143919894354839,-0.2323200359193548,-0.8067440407580644
169.0,-0.007975806451612909,-0.07897580645161292,0.025346774193548395,4.731685483870969,0.8237741935483869,8.541362903225808,0.15473790322580644,-0.13563508064516128,0.061542338709677416,246.88029233870967,28.85115927419355,-5.514264112903226,-0.5333305612741935,0.10116458992741935,-0.23239652583870968,-0.8070359754596774
170.0,-0.009983870967741938,-0.08113709677419355,0.02526612903225807,4.631137096774193,0.8335806451612902,8.594653225806454,0.2605846774193548,0.5760584677419354,0.08366935483870967,246.61421370967741,28.17998991935484,-5.542842741935484,-0.5322205089032258,0.09714503082258065,-0.22811756750806447,-0.8094506047580645
171.0,0.0013306451612903171,-0.0796290322580645,0.02396774193548387,4.606451612903227,0.84875,8.607282258064519,0.18956653225806452,-0.02807459677419355,0.0888608870967742,246.5203125,28.019354838709674,-5.6360383064516135,-0.5316999377580647,0.09554167700806451,-0.22749599332258064,-0.8101722964516127
172.0,-0.010048387096774197,-0.08656451612903224,0.025161290322580646,4.541129032258065,0.8146532258064516,8.644951612903228,0.038104838709677416,0.06880040322580644,0.27913306451612907,246.25806451612902,27.590625,-5.390221774193549,-0.5303703069274195,0.09457353142741937,-0.22361484647580646,-0.8122173188467742
173.0,-0.0007661290322580664,-0.0804516129032258,0.023096774193548386,4.548040322580646,0.8097741935483871,8.64225,0.13432459677419356,0.09465725806451611,0.014969758064516142,246.1623487903226,27.636542338709678,-5.355594758064516,-0.529655555016129,0.09479709691935484,-0.22389418104838704,-0.8126011028225808
174.0,-0.011427832919768403,-0.06531017369727048,0.026412737799834576,4.568819065343259,0.8216801075268819,8.630558519437553,0.24582945616211743,-0.21243408808932998,-0.14008090363937137,246.1727370244003,27.76789056038048,-5.441329352770884,-0.5295774225521093,0.09489683089474772,-0.22519425051819686,-0.8122885235384615
175.0,-0.022556658395368072,-0.055582506203473964,0.032157981803143096,4.769631306865179,0.807965053763441,8.518589743589743,-0.2933403122415219,-0.9191454714640198,-0.4636644437551695,246.94163564929693,29.122276933416046,-5.4187745554177,-0.5333558025744416,0.1032988569433416,-0.2336826060978081,-0.8062236073740695
176.0,-0.014996661219713932,-0.06506613508442777,0.02742340474893583,4.8076172860053665,0.7798156307369526,8.501247468175674,-0.06216546001533216,-0.39555695091690374,-0.21837025787286407,247.05763061969174,29.36445708885594,-5.241042347535759,-0.5339467342927282,0.1058394222606165,-0.2345377809119056,-0.8053297638730104
177.0,-0.018219528766538998,-0.06520799073729837,0.028649298380612313,4.795514672188551,0.7600906110674011,8.510406184164644,-0.1799318563517521,0.07031868275967412,-0.1165692015170772,247.16975833019916,29.28015841193949,-5.100335881909199,-0.534899233658845,0.1065460153169442,-0.2332498656343322,-0.8050198267204913
178.0,-0.011315793569137391,-0.061759717334855024,0.02393179204744901,4.723233910595044,0.7529212655951446,8.551411233403368,0.09537033334486127,0.20164839667937623,-0.1518953918491684,247.25620332984613,28.79755808461798,-5.031075919065199,-0.5360954316919416,0.10477817070743523,-0.229563303158564,-0.8055237106718816
179.0,-0.015133678018807838,-0.06970240905174029,0.027603592971413588,4.7265429170881585,0.7551519519688286,8.549005057884681,0.2898349982203739,0.5520796452924207,0.0513395198756135,247.4446459012401,28.818484402513956,-5.0503070440410625,-0.5373603436457046,0.10516946413521411,-0.2295937496151512,-0.8045886086095593
180.0,-0.019200479562399307,-0.07734966842755986,0.030647034580944896,4.640554868682328,0.7636353077816496,8.596058596530666,0.17233805402570157,0.6925180772545052,0.07094385748004944,247.20923251283205,28.244031227754675,-5.072440148364617,-0.5363861397587202,0.10169277474579447,-0.22597979244352034,-0.8067251951129593
181.0,-0.014909445131317672,-0.07566460604698214,0.029409276535161667,4.565865160541007,0.7651221385485745,8.635963995354238,0.12136768948334645,0.26794963658161924,0.00677897043947397,247.02073053651043,27.748574425836424,-5.05986779251433,-0.5356654711523735,0.09897943729657938,-0.22265585735393956,-0.8084707502818926
182.0,-0.02360005245213742,-0.09718957701097747,0.023917762541680723,4.504971938106479,0.7164051552957926,8.67219699524184,-0.9330382900603199,-0.33240488366865234,-0.38449407103518035,246.87270006743844,27.348523612828295,-4.7204937994080405,-0.5351725058983927,0.09901653930609569,-0.21848351070986477,-0.809927874675059
183.0,0.04994897156344834,-0.07508920609943426,0.027509347720205315,4.653551309430146,0.6520450713723727,8.596040987598817,-0.11365090292607999,-0.39411810160728333,1.0326737008729534,246.86536402720017,28.337463470832866,-4.33274816417519,-0.5339731064114119,0.10634923312022779,-0.22363277901674722,-0.8083030123718109
184.0,0.03353939530178711,-0.1015957438837061,0.014670488179536175,4.704878723165113,0.6305425986287512,8.570846614963848,0.5241393400397137,-0.3859014976958525,0.10927548143568988,246.4667398420816,28.67742567719456,-4.206150832677682,-0.5307755572686486,0.10800368368049156,-0.22580814902922336,-0.8096320264156459
185.0,0.025458300550747437,-0.09275059008654601,0.012958300550747443,4.7196884343036976,0.6167633752950434,8.564575924468924,0.33242402635719903,-0.1760805959874115,0.13071031667977967,246.1590910208497,28.773042879622345,-4.119884687254131,-0.5285015488090086,0.10842562716797799,-0.226370857790716,-0.8109360464240756
186.0,0.016423288749016524,-0.08911565696302123,0.01849016522423289,4.7421172305271435,0.61337922895358,8.55283477576711,0.229543666404406,0.3061713217938631,-0.006146734854445335,246.01010031471282,28.920618607395753,-4.1028274980330455,-0.5272824457718331,0.1089575748111723,-0.22748889508575923,-0.8113650487002362
187.0,0.01225177025963808,-0.08710700236034619,0.014858772619984265,4.811754917387884,0.6473544453186467,8.511063335955939,0.33873426435877263,-1.1646267702596378,-0.3103855232100708,245.9498278914241,29.396702891424077,-4.3510301927616055,-0.5262423170715973,0.10951093633949649,-0.23193067179543664,-0.810695181765539
188.0,0.008327301337529507,-0.08579268292682929,0.012224036191974826,4.847856215578284,0.6556662077104641,8.490334972462628,0.22428452006294253,0.5665802025963809,0.08404307631785995,246.03665666797795,29.63715455350118,-4.41620648111723,-0.5265654842053502,0.1104004564789536,-0.23375250263493308,-0.8098393941825334
189.0,0.010744295830055078,-0.08717859952793078,0.016390243902439025,4.767101494885916,0.6780629425649095,8.53365538945712,0.274390243902439,-0.005595987411487036,-0.13247442958300548,245.9253343823761,29.095013768686073,-4.542604248623131,-0.5264248416349331,0.10675093974350908,-0.23065830975295037,-0.8113043927364278
190.0,0.004209284028324156,-0.08365538945712038,0.015486231313926041,4.783143194335168,0.682123524783635,8.52462234461054,0.15030487804878048,-0.05693351691581433,-0.03477576711250982,245.94432533438237,29.19615460267506,-4.575865460267506,-0.5264251154319433,0.10705360395672699,-0.23150618025098346,-0.8110434934956727
191.0,0.011671911880409124,-0.08316443745082613,0.0116117230527144,4.776404799370574,0.694112116443745,8.527841463414632,0.27232985837922896,-0.14554976396538158,-0.07883556254917387,245.90374704956724,29.150275373721477,-4.652193154996066,-0.526198908696302,0.10626029821597169,-0.2315732054763965,-0.811282347305665
192.0,0.0024999999999999996,-0.07090322580645164,0.01542741935483871,4.786072580645161,0.7039435483870967,8.521653225806448,0.147883064516129,0.13659274193548387,-0.03830645161290322,245.8733870967742,29.214112903225804,-4.723790322580645,-0.5258898827258065,0.10604154516935485,-0.23235577000806446,-0.8112910123145161
193.0,-0.004943548387096774,-0.06997580645161292,0.018645161290322582,4.750822580645162,0.698459677419355,8.541096774193548,0.0783266129032258,0.20841733870967744,-0.024596774193548384,245.8327116935484,28.97626008064516,-4.674546370967741,-0.5258808265080646,0.10516879179838709,-0.2305253553306451,-0.8119337023387095
194.0,-0.002169354838709678,-0.07960483870967744,0.020870967741935486,4.747016129032259,0.6965564516129032,8.54409677419355,0.22222782258064513,-0.1438508064516129,-0.018548387096774192,245.81597782258063,28.947530241935482,-4.666280241935484,-0.5257559504193547,0.1050812248951613,-0.23029952476612903,-0.8120930326935483
195.0,-0.0001532258064516136,-0.08921774193548387,0.02349193548387097,4.771620967741935,0.722540322580645,8.528354838709678,0.13079637096774194,-0.4565524193548387,-0.05630040322580645,245.8078125,29.115977822580646,-4.84375,-0.5254762219435484,0.10467219123387098,-0.23225294504032257,-0.8117706788870966
196.0,0.001814516129032258,-0.08275806451612902,0.02051612903225807,4.9205000000000005,0.71625,8.441798387096775,-0.1601814516129032,-0.932258064516129,-0.26809475806451616,246.18029233870965,30.124092741935485,-4.856401209677419,-0.5268501037419354,0.11027201930645161,-0.23890646683064512,-0.8081297842096774
197.0,0.0020403225806451615,-0.08983870967741936,0.01343548387096774,4.981314516129032,0.6937258064516132,8.408862903225806,0.046774193548387105,-0.9173387096774193,-0.07973790322580647,246.278125,30.534727822580646,-4.71789314516129,-0.5270757858709678,0.11333696887903226,-0.24107203354838708,-0.8069444712903227
198.0,0.003459470636889992,-0.08641211745244004,0.015502481389578163,5.078535980148884,0.6995064102564104,8.350009511993385,0.11086124896608768,-0.11015172663358141,-0.04162401778329198,246.21006255169561,31.193681503308518,-4.787320357733664,-0.5257636154602977,0.11593671063130687,-0.24600795003246478,-0.8059426088680728
199.0,0.01332650951199338,-0.07905686517783292,0.011122208436724564,5.075953473945409,0.6922249793217534,8.352746691480561,0.12130764061207609,-0.39461719396195205,-0.16317592018196855,246.21874095326717,31.174940550041356,-4.738695461124896,-0.5258697944962778,0.11620677219065344,-0.24564895322994207,-0.8059677619340364
200.0,0.004183416046319272,-0.08052440033085195,0.01637158808933003,5.096359801488834,0.6871044251447478,8.341393507030602,0.11083023159636063,-0.040075734077750225,0.061784015715467336,246.18268196856906,31.311915839536805,-4.707931399917287,-0.5254311063933004,0.11695284374855253,-0.24650592006658392,-0.8058938299791151
201.0,0.0008618693134822167,-0.08857671629445824,0.017455955334987595,5.123212158808931,0.6781691480562453,8.326684656741108,0.11952801902398676,-0.03987153639371383,0.07071055624483044,246.1222885649297,31.498397435897434,-4.663416304797353,-0.5248205231321341,0.11802273891459887,-0.2475905568397436,-0.8058061655984287
202.0,-0.011730355665839536,-0.10300206782464844,0.023328784119106702,5.126339950372207,0.6985603804797356,8.321983457402814,0.35981441273779985,0.7117426592224979,0.09253773779983457,246.09405758891646,31.520267266335814,-4.8037091604631925,-0.5245471763523574,0.11713320445326716,-0.2483778024884202,-0.8058583906298594
203.0,-0.01406451612903226,-0.10023387096774192,0.029701612903225816,5.033854838709679,0.7050080645161291,8.3771935483871,0.17555443548387098,0.2657762096774194,0.10841733870967742,245.90700604838707,30.8890625,-4.811542338709677,-0.5241059829032257,0.11362452267741938,-0.24422321970161281,-0.8079041505887097
204.0,-0.011266129032258064,-0.1049516129032258,0.027766129032258075,4.999137096774194,0.7027419354838708,8.39850806451613,0.12424395161290322,0.10907258064516129,0.05705645161290323,245.78876008064515,30.656854838709677,-4.781754032258064,-0.5235403724354837,0.11242272165322584,-0.24265584695161288,-0.8089295897822582
205.0,-0.012911290322580645,-0.10998387096774194,0.02824193548387098,4.987137096774195,0.7016290322580642,8.406870967741938,0.10408266129032258,-0.06612903225806452,0.0007056451612903261,245.73089717741937,30.563407258064515,-4.766885080645162,-0.5232046293387096,0.11191012469354837,-0.24209914683870964,-0.809394245451613
206.0,-0.014677419354838711,-0.12054032258064515,0.02904838709677421,4.990161290322581,0.7012903225806448,8.404959677419356,0.07847782258064516,-0.12852822580645162,0.004183467741935484,245.70292338709675,30.591129032258067,-4.762046370967742,-0.5229703331290321,0.1119445797983871,-0.2423019413387097,-0.8094779728225807
207.0,-0.0055403225806451625,-0.12729032258064515,0.02580645161290324,4.995233870967742,0.7025564516129031,8.401330645161288,0.12651209677419356,-0.1060483870967742,-0.018296370967741934,245.68896169354838,30.628276209677416,-4.785332661290322,-0.5228219300403223,0.11205646158870965,-0.24259131675,-0.8094736906774196
208.0,-0.00367741935483871,-0.12956451612903225,0.023298387096774203,4.993419354838711,0.7076774193548389,8.402274193548385,0.18104838709677418,-0.04894153225806452,0.04375,245.67540322580646,30.607610887096772,-4.810080645161291,-0.5227074405645158,0.11179209057258063,-0.2425917105725807,-0.8095820776129035
209.0,-0.006879032258064516,-0.13774193548387095,0.0265967741935484,4.998266129032258,0.7137741935483871,8.399685483870964,0.12560483870967742,0.015322580645161284,-0.0329133064516129,245.61048387096776,30.653074596774193,-4.869556451612903,-0.522266463596774,0.1114845509919355,-0.2431284247903226,-0.8097506623629032
210.0,-0.015924075531077893,-0.13765381589299763,0.024671911880409132,4.996320613690008,0.6920326514555468,8.402154799370571,-0.1596442269866247,0.2347364280094414,0.22975019669551533,245.51995967741937,30.636357936664044,-4.712217250196695,-0.521680673645948,0.112242050220299,-0.24246817760149492,-0.8102209745214398
211.0,-0.01324291896144768,-0.12237136113296618,0.027218135326514563,4.90365283241542,0.6681957120377656,8.45734402045633,0.213552321007081,0.9811319826907946,0.08089226003147128,245.32284864280095,30.00633236624705,-4.522560975609755,-0.5210820857970103,0.11007532858162865,-0.23747219918922108,-0.8123541241197876
212.0,-0.013633556254917384,-0.09980664830841855,0.02885503540519277,4.782338512981903,0.644803501180173,8.52758733280881,0.43681648308418564,0.6935901848937844,0.18376770259638078,245.0898517407553,29.194421223446106,-4.325595003933911,-0.5204094923097955,0.10701613879484659,-0.23117774694944923,-0.8149876589590874
213.0,-0.022516129032258067,-0.09865204563335955,0.027050944138473646,4.675811172305272,0.6630064909520063,8.584578874901649,0.47358010424862307,0.5033143194335169,-0.11124606608969316,244.8815794649882,28.48639112903226,-4.4152721774193555,-0.5197368019815107,0.10261631086723053,-0.22679786970456334,-0.8172043684291896
214.0,0.00048465774980330223,-0.09193233674272228,0.019214004720692367,4.623365066876476,0.6827033831628638,8.612294256490948,0.37019571203776547,0.28191876475216365,-0.05863001573564123,244.75331923682137,28.134495476003146,-4.533418568056648,-0.5192076147977971,0.09990196944846577,-0.22498414321007082,-0.8184013311431944
215.0,-0.0027151848937844217,-0.08659795436664044,0.01865656963021243,4.623135719905585,0.7000739575137684,8.611874901652241,0.34361968922108577,-0.07489427616050354,-0.01117968135326514,244.63653865066877,28.130701711250985,-4.654435483870968,-0.5183840485208497,0.09886076045121953,-0.22557000407867825,-0.8189045881931549
216.0,0.005613296616837134,-0.07768922108575925,0.014639063729346969,4.620029701022816,0.7073265145554681,8.61319551534225,0.030434942958300543,0.5666539634146341,0.31175378638867035,244.59172526553894,28.10466537175452,-4.695357985837923,-0.5180744402517703,0.0983660491359166,-0.2256122819527931,-0.8191510687818646
217.0,-0.0016333595594020468,-0.0908198269079465,0.024077891424075536,4.49241384736428,0.7369897718332021,8.67647521636507,0.27152832415420924,0.4005261605035405,0.08453973249409914,244.31152143981117,27.27080546813533,-4.851160503540519,-0.5169516964114871,0.0928027643634933,-0.22063778686939423,-0.821827756418568
218.0,-0.005099134539732491,-0.09504642014162075,0.03369826907946499,4.406232100708104,0.7322014162077103,8.720525570416996,0.45993312352478366,1.1590799567269865,0.2792092840283242,244.01778865066876,26.69805025570417,-4.7987214791502755,-0.5154569207863887,0.08990254018332022,-0.2166263939508261,-0.8241348668560187
219.0,-0.010524390243902441,-0.08960267505900865,0.0326563729346971,4.321432336742722,0.7675373721479148,8.759868607395752,0.3838267112509835,-0.23031446695515345,-0.03928009441384736,243.82979814122737,26.149452940597953,-5.007262981904013,-0.5146474270572384,0.08555866124429583,-0.21380352790853654,-0.8258502134335168
220.0,-0.010186305957352378,-0.08475295043273014,0.036811333696463513,4.3116733644011385,0.7900201335512114,8.763757711472898,0.1937924912747887,0.08574550122052088,0.0589579676814138,243.75551567007605,26.08135061732131,-5.146319146038855,-0.5141880123622626,0.08413202269886422,-0.21398790378377613,-0.8262610586944258
221.0,-0.0029830034900845247,-0.07789260424862313,0.032289223103149155,4.297656509108515,0.7851965341241502,8.772020476507493,0.14376878694345258,-0.0695879102866711,-0.1287920625794347,243.75331349986885,25.98873294044665,-5.105835615505659,-0.5142696854266072,0.08394800903943997,-0.2131817546802437,-0.8264519305265994
222.0,0.0005895368072787453,-0.07960483870967741,0.02941211745244003,4.280338089330026,0.7857241521918941,8.780605045492143,0.1498397435897436,-0.5338153949545078,-0.1671448511166253,243.64749663978495,25.87743098635236,-5.1072696960297765,-0.5136134387880478,0.08320185039619518,-0.21246438981927213,-0.8271149833089332
223.0,-0.0036850703060380464,-0.07058870967741934,0.020081058726220014,4.349713399503722,0.7863136889991731,8.745649296939622,0.11453680727874277,-0.17041072167080226,-0.014973635235732002,243.7075436827957,26.335010856079407,-5.132843517369727,-0.5135857311803143,0.08531686335132341,-0.21575916725641023,-0.8260584024447892
224.0,0.0025244003308519457,-0.07058064516129031,0.024379239040529365,4.3689292803970226,0.7729028122415219,8.737437551695617,0.01926437138130687,-0.11637975599669145,-0.06479528535980147,243.73484543010753,26.46231389578164,-5.0559630893300245,-0.5136244227837056,0.0864660947522746,-0.21628503545078576,-0.8257810200570719
225.0,0.0020645161290322586,-0.07361290322580644,0.028572580645161296,4.384201612903226,0.7704274193548388,8.73035483870968,0.2045866935483871,-0.14329637096774195,0.019153225806451617,243.65680443548388,26.56209677419355,-5.042993951612903,-0.5129648026854838,0.08687689945967744,-0.2170054282903226,-0.825962731048387
226.0,0.0017338709677419358,-0.08224193548387096,0.02726612903225807,4.437935483870968,0.7760161290322583,8.701967741935484,0.11466733870967741,-0.461491935483871,-0.10191532258064516,243.68845766129033,26.913860887096774,-5.089969758064516,-0.512822846717742,0.08826604020161291,-0.2196866433951613,-0.8251931962499999
227.0,-0.00874193548387097,-0.08844354838709675,0.03113709677419356,4.468862903225806,0.7807580645161292,8.685637096774192,0.13286290322580643,-0.033820564516129026,0.04828629032258064,243.61507056451615,27.11355846774194,-5.131199596774193,-0.5120823522258067,0.08883036969354838,-0.2213255851935484,-0.825156722346774
228.0,-0.010564516129032257,-0.09095161290322579,0.02983064516129033,4.494427419354839,0.7854596774193545,8.673137096774195,0.16648185483870967,-0.21925403225806453,-0.0814516129032258,243.5483870967742,27.28462701612903,-5.162449596774193,-0.5114272085080644,0.08928227528225807,-0.22270576662096778,-0.8251438757338709
229.0,-0.01996877584780811,-0.09581120760959472,0.03390570719602979,4.514837262200165,0.8039501654259715,8.660919768403637,0.26045285359801484,0.4206730769230769,0.13659144954507857,243.5233186000827,27.414903846153848,-5.301468155500414,-0.5110592296848634,0.08894522631968568,-0.22421823231203478,-0.8249997404669147
230.0,-0.01387551695616212,-0.11066770057899092,0.038485111662531026,4.3828904052936295,0.8255678246484697,8.723677626137302,0.3709018300248139,0.12087081265508685,-0.024521815550041362,243.239355872622,26.559165632754343,-5.406580851943755,-0.5098902811004962,0.08366267147435896,-0.2187969939423077,-0.8276605109350703
231.0,-0.029873045653533464,-0.10788292582057335,0.0384612812443261,4.445959168028404,0.8391405212935505,8.691442766648507,0.19131674408400412,-0.48354632557646904,-0.018073260253384172,243.25201590838023,26.967928607093143,-5.519769822116645,-0.5095357017416329,0.08485350584398514,-0.22219056831802636,-0.8268834568524682
232.0,-0.006650424516474875,-0.10059334463071679,0.03341670052999715,4.504068293691621,0.8088671116452392,8.664328910205972,0.031769883178714806,-0.35343430910159856,-0.04122148995772127,243.15950569804573,27.34834362382307,-5.333174801611317,-0.5084918065900946,0.08769530595962699,-0.2241791369330147,-0.8267068537722402
233.0,0.01160092857575155,-0.08241606649317114,0.0229286492421819,4.554887510339123,0.7949016911491344,8.63921707115334,0.08273314182539201,-0.7952225145035924,0.020380600418464304,243.25909367317706,27.682508013721133,-5.257114667721473,-0.5088659679410936,0.0899872050257419,-0.2261556134003193,-0.8256963083557307
234.0,0.013739256678281065,-0.08708313663781797,0.017695093851860178,4.567596774193548,0.7775070904050055,8.634781405717284,0.1971513103667903,0.32458167078790595,-0.02916040285114833,243.17944344535613,27.760376215297292,-5.141843107227155,-0.508232232953177,0.09094485165761867,-0.22628727385648717,-0.8259518164772863
235.0,0.010893035105466261,-0.0776706005769735,0.01545936832640216,4.58381589299764,0.7838775617249263,8.625996328350382,0.07434153834625903,-0.22822721141957963,-0.0605129069723877,243.1971273088307,27.86797516016635,-5.193513262897605,-0.5082164030351055,0.09117792169840022,-0.22724319241781876,-0.8256820006972387
236.0,0.007673110786407405,-0.08296984002098087,0.01857154096886591,4.516848937844216,0.7833195833801656,8.660500131130345,0.1888230115020044,0.7050002809935934,0.07232025776478962,243.04213662845154,27.428775148926604,-5.170197819489715,-0.5075772170643662,0.08895916939758719,-0.2241374638879023,-0.8271520108875651
237.0,-0.02074485781724177,-0.08778292308268704,0.0279954479037878,4.445398355250832,0.7794670113521412,8.697834550972235,0.14471872541306058,0.06472172267805631,-0.05278956389794313,242.9298864785883,26.95785915664456,-5.11958911711813,-0.507269721811753,0.0868805482126185,-0.2206838392327376,-0.8284869504706642
238.0,-0.007391836199467994,-0.08105923344947732,0.024972022404555844,4.486768714173316,0.7798367239893595,8.67692971413585,0.1293109100445843,-0.1531862331872166,-0.10591596886590984,242.8807505338878,27.22933818983927,-5.136745824903525,-0.5066434619925724,0.08794841384329925,-0.2227194183769997,-0.8282172143488908
239.0,0.008727661009328981,-0.07517477801506126,0.01952268554943614,4.528611891648871,0.782052002547675,8.654554718819078,0.21015276685024914,-0.373103293244914,-0.00044022329624217316,242.9124470795399,27.509146341463413,-5.165285114832715,-0.506526282368214,0.08909332026151139,-0.22480277520962122,-0.8276109201112734
240.0,0.001724176688771493,-0.08681240867708218,0.024009965906110677,4.550002247948749,0.780203814019707,8.64378404705706,0.06940073432992394,-0.19078060020231538,0.06896753587351542,242.875775073995,27.65302911093627,-5.159599677794013,-0.5061240140755311,0.08971937472556293,-0.22582499702259187,-0.8275120735214115
241.0,0.0037102394065415298,-0.08691525233224681,0.020207185942827173,4.616543216814657,0.77826083698625,8.608544265857407,0.11099364017833727,-0.5893664999438013,-0.0033309448877898995,242.85768494061665,28.08966856805665,-5.16531321419205,-0.5055382294492525,0.09169744693005133,-0.22897759526581996,-0.826780699246937
242.0,0.0015094975834550977,-0.0871865048143569,0.024373946274024953,4.669581132216852,0.7670336442995769,8.581126971638378,0.11389255741635756,-0.13274488591660108,0.01035929714135851,242.79647399872616,28.43805144992694,-5.103009909707392,-0.5047536482730134,0.09360022471694579,-0.23122833171893148,-0.8264228461288448
243.0,-0.004256003896444494,-0.09014087145479749,0.02486976883593721,4.6880409501330025,0.7622871754524,8.571486680903673,0.10751751526731856,-0.3139962908845678,-0.0423721947472931,242.7450399947548,28.56150364355026,-5.076428149938181,-0.5042296728423439,0.09423892850133003,-0.23202903248926604,-0.8264522832310891
244.0,-0.009447229403169607,-0.08447641527106514,0.029328687572590016,4.706176538908245,0.7600080926154886,8.561180847476676,0.1883148814207036,-0.21375650968491253,-0.04167696976508936,242.67270662395563,28.68539488966318,-5.074504982953055,-0.5035766948447042,0.0946957267731445,-0.2329465681850811,-0.8265434033628564
245.0,-0.005703662715464445,-0.08010219520841078,0.026122614076193935,4.760869039693587,0.7653917886467061,8.530435488193946,0.21356800981604285,-0.4760889762610848,-0.11559150592392134,242.68078102889766,29.048978714375053,-5.135629879561822,-0.5032077063500084,0.09604478352345217,-0.23577607010930507,-0.825803824275489
246.0,-0.010297150004467074,-0.08922733678595204,0.03356799468561861,4.790436880192978,0.7768800013257132,8.513071402633557,0.15021929208347382,-0.2645197044956093,-0.03977844375661055,242.74617336259988,29.247414219500662,-5.216674105791927,-0.5034374716038005,0.09655201656109666,-0.23746495348816943,-0.8251246263375872
247.0,-0.005243045048316485,-0.09274884504428171,0.03193223082975247,4.811865137485123,0.7953363140269119,8.499256899473458,0.09985042945187515,0.20651222916540582,-0.070177240311485,242.73053675810485,29.38716237088704,-5.347987590530371,-0.503149545768106,0.09629597522678489,-0.23899817366036738,-0.8248857849598843
248.0,-0.00608119994351308,-0.09714055155439894,0.028591115414876238,4.8160454719683665,0.7850512215295853,8.497680869091568,-0.009777406241804357,-0.4597731192882648,-0.11900999112348443,242.77658390324598,29.416187032217714,-5.277169198490992,-0.503405482291311,0.09696712936339247,-0.23887262981002236,-0.8246899168428454
249.0,-0.01172746071133168,-0.09478742762613732,0.03117990074441688,4.837578990901572,0.7765492142266339,8.486495037220845,-0.03504704301075269,-0.1197813275434243,-0.04278587675765095,242.8219809760132,29.56007030603805,-5.226871381306865,-0.5035959062117451,0.09807592099090157,-0.23961330864143918,-0.8242301211633583
250.0,-0.022217741935483874,-0.0842258064516129,0.02708870967741936,4.839822580645162,0.7588064516129032,8.486733870967742,-0.062348790322580644,0.14279233870967745,-0.0007560483870967735,242.86995967741933,29.576612903225808,-5.11108870967742,-0.5039865308387096,0.09904179680645162,-0.23919840174999996,-0.8239938546048386
251.0,-0.016943548387096777,-0.08853225806451612,0.030056451612903223,4.838241935483872,0.7408870967741934,8.489395161290323,0.010937500000000003,-0.19102822580645162,-0.057358870967741934,242.90977822580646,29.56789314516129,-4.989516129032258,-0.5043181390564515,0.0998788645080645,-0.23859164298387098,-0.8238663205887096
252.0,-0.008215971675845792,-0.08577045633359559,0.02448524783634933,4.863334382376081,0.7190147521636506,8.477397128245478,-0.039422698662470494,-0.05274881982690796,-0.043639358772619985,242.92957808811957,29.730616886309996,-4.847987559008654,-0.504285180488395,0.10162924474488594,-0.23915847207808816,-0.8235070060950038
253.0,0.019359756097560972,-0.08357474429583005,0.0038353658536585383,4.916691384736426,0.675793666404406,8.449242918961453,-0.13967102675059007,-0.0770800550747443,-0.1981805664830842,243.33706726986622,30.09401308025177,-4.5723556746656175,-0.5067969639256491,0.10602919149744297,-0.24019053748662475,-0.8210631856321793
254.0,0.017829071597167585,-0.08740027537372148,0.006276553894571203,4.906623918174665,0.6466750590086544,8.457690007867823,-0.08677099724626279,0.015341020849724621,-0.04072334775767111,243.20628565106216,30.027248475609756,-4.368864329268293,-0.5060225503418568,0.10676520563178599,-0.23896800388847364,-0.8218253370822186
255.0,0.010559598741148701,-0.08921400472069238,0.011579268292682928,4.867630999213217,0.6286003147128245,8.482067859952792,0.05624754130605822,0.25425476986624707,-0.03429140440597954,243.16201440794651,29.763024931156565,-4.235154405979544,-0.506029370430173,0.10630176200255705,-0.23661450187765534,-0.8225670131050352
256.0,0.0077918961447679,-0.09613926042486232,0.016995279307631787,4.90588001573564,0.6120259638080252,8.461223446105429,0.22192417387883556,0.18052960267505902,0.25961841070023606,243.12382474429583,30.01772718332022,-4.135621557828482,-0.5054390602836348,0.10807681183595594,-0.2380609589952793,-0.8222795558509048
257.0,-0.004757081038552318,-0.0895629425649095,0.017735247836349333,4.848188630999212,0.6160011801730921,8.493287568843428,0.28814540715971676,0.0861735346184107,0.1012932730133753,242.70236280487802,29.633362018095987,-4.151194925255704,-0.5028878926736822,0.10535085885110149,-0.2357588853512982,-0.8248494118688039
258.0,-0.018205153422501966,-0.08113630999213216,0.026924075531077896,4.785945121951219,0.6108876868607396,8.528716365066877,0.30513621164437454,0.29845471085759245,0.050596233280881205,242.25254228953577,29.21627778324154,-4.096161978756884,-0.5001161119940991,0.10287362064732494,-0.23298030298210076,-0.827625905357789
259.0,-0.010509834775767111,-0.07548347757671124,0.01924429583005508,4.845113690007866,0.6252140047206924,8.493092053501181,0.02409028324154211,-0.5880458300550747,-0.05960611723052715,242.21387195121952,29.616984657749803,-4.207002360346184,-0.49933860437608185,0.10387410653737214,-0.2363265280837923,-0.8270056770055075
260.0,-0.006580645161290322,-0.07834677419354838,0.017862903225806456,4.9232499999999995,0.6075967741935484,8.44922580645161,-0.029737903225806446,-0.6019153225806451,-0.02615927419354839,242.28256048387095,30.1375,-4.13366935483871,-0.4992451819677419,0.10694919727419358,-0.2396369693951613,-0.8257282385161293
261.0,-8.064516129030475e-06,-0.09119354838709676,0.01966129032258065,4.970193548387095,0.605225806451613,8.422,0.33870967741935487,0.7137600806451613,0.1565524193548387,242.2641633064516,30.449395161290326,-4.132762096774194,-0.4987931780000001,0.10834965923387098,-0.2418713486693548,-0.8251691755161291
262.0,0.007809553349875932,-0.10870802315963606,0.022766335814722913,4.889568858560793,0.6463194789081885,8.466179280397025,0.3309411186931348,-0.47348273366418525,-0.10692075062034738,242.064355872622,29.91391129032258,-4.377716604631927,-0.49793365105252274,0.10381349204321755,-0.23924465578577334,-0.8270297381021506
263.0,-0.007420684154555122,-0.10368350466737564,0.027785241640080352,4.963865650478553,0.675769762495569,8.421296437433535,0.501570069715231,-0.4727652723620465,-0.09015032346685573,241.97679199161053,30.410987903225806,-4.598190099550987,-0.4966770677474595,0.1044615637249498,-0.24379756959219542,-0.8263854080234256
264.0,-0.010539915686117559,-0.10119174737853198,0.02567879345766963,5.035213039302009,0.6753431588356147,8.378598388430854,0.6042548827343313,-0.20383531444275457,-0.023005633154566548,242.00360251740977,30.894454561220947,-4.61497496931615,-0.4962727770237532,0.10662660711895997,-0.2472770263135956,-0.8253092871885189
265.0,-0.007164128102213431,-0.09974862875591284,0.01955805536814902,5.106388145933152,0.6612764986487671,8.336141929956966,0.661198473526127,0.1546948433980172,0.06421026131776653,242.09032202080786,31.380138419181407,-4.53823205876243,-0.49630204050604804,0.10953903684088327,-0.250316623182001,-0.8239863103787473
266.0,-0.0006900245089631169,-0.09864434559543822,0.01143017232507347,5.17865856308104,0.6394180360049246,8.293209492553924,0.6856444370752384,0.5305049399092063,0.15868958045076673,242.21143149687634,31.87471817551162,-4.409584129017011,-0.49657094461553697,0.11290713880740832,-0.25316508495858636,-0.8225081821178335
267.0,0.015161191219463853,-0.08305004707398048,0.005301521232842773,5.1854508696298485,0.6304608790446458,8.290366532877457,0.3222783806550716,0.13636495961547992,0.08677345027501115,242.14397050443486,31.925665539368712,-4.350615058718597,-0.49603131052034083,0.11335065816218223,-0.25333402460997967,-0.8227407917255835
268.0,0.009110549526782618,-0.07568861800703634,0.010765967989693277,5.190974282741189,0.6122926515038893,8.289084188097714,0.02870831475149896,0.10595609731926069,0.04695815370893414,242.097172464199,31.96051422129726,-4.225393934889253,-0.495669795317774,0.11421626510182845,-0.2531233338579852,-0.8229135787890589
269.0,0.006318220108022398,-0.08400852286804421,0.011589514890243298,5.203806005648875,0.5946335166740988,8.282159704672711,0.027627781081215004,-0.01748209949952926,0.018838263713393786,242.08026671126308,32.05307405480402,-4.102667422327932,-0.49541456444338705,0.11533677981343839,-0.25327430222620284,-0.8228655625063177
270.0,-0.0018093865898236327,-0.09402517409749458,0.012061180927986338,5.208708756903864,0.594598655246938,8.278551455481736,0.21851161650524295,0.05549307612262867,0.05750486939352704,242.0462764981723,32.08640013407508,-4.103644791083006,-0.4951227953823873,0.11541414433162572,-0.25356171775584996,-0.8229435906613036
271.0,0.0016452419859186195,-0.0960419264056164,0.016038965885936774,5.132275116504266,0.5831762089208978,8.325881397647724,0.0907283597107063,0.7804923440053259,0.15680200831164637,241.8384189526216,31.55812513239121,-4.001734041185015,-0.49431224872098983,0.11328541390561642,-0.2496238707178529,-0.8248878445239465
272.0,0.007080065161693794,-0.0950760707296899,0.01529822570558212,5.0854635508079635,0.5865771449898121,8.351540574754381,0.34030124044261534,-1.2136826948294295,-0.23595874563739433,241.73693396452418,31.25056083439246,-4.019162745365046,-0.4939380467849159,0.1115900988514848,-0.2475669301243317,-0.8258854340481602
273.0,-0.004883354515927293,-0.10771142246161913,0.008540241885049123,5.129066452823336,0.6045547015271642,8.323983997054611,0.4594399347374367,1.0784913138756078,0.213396635245819,241.60483290968142,31.542064691389776,-4.153583388811556,-0.49264377215052246,0.11174230963945209,-0.25031968096539164,-0.8258242118023058
274.0,0.0039615485484879665,-0.09752506606951925,0.014903185458653594,5.066904194153603,0.6463418668926143,8.360358934011174,0.4346090802719441,-0.0013037382234863948,0.17617916439710304,241.3030212935504,31.116672466662628,-4.417114275050938,-0.49093947151477735,0.1073918655616615,-0.24867671082946996,-0.8279415208124433
275.0,0.006902196937602129,-0.089833666202667,0.009498739131311908,5.072641509814602,0.6576415703362988,8.35770221307672,0.1551405616413484,-0.45451353164276054,0.10222833323246384,241.1541212753939,31.155394752768863,-4.493710156549456,-0.48982943608824064,0.10673467617619883,-0.24940108147759685,-0.8284994045377353
276.0,-0.006523986765922254,-0.07645368072787428,0.0009937965260545922,5.126938378825476,0.6451674937965258,8.325579404466502,0.04284532671629446,0.305197994210091,0.14913409842845327,241.36761269644333,31.53086745244003,-4.42838864764268,-0.49096455970554187,0.10934145904797352,-0.2515659703899917,-0.8268290792187759
277.0,0.004503628092337768,-0.07331970448905933,-0.003484228137453944,5.101718681855778,0.6156903714565004,8.343492386645611,-0.10508120911346716,0.4550723973607038,0.21342147435897435,241.14694502406195,31.35091712722761,-4.210538033874728,-0.4896054349257088,0.10947697928223926,-0.24970325162781032,-0.8282063129393376
278.0,0.02878957064440935,-0.081665350778254,-0.009754943980750433,5.048064986089178,0.5901336754643207,8.378111662531019,0.2024676432438529,0.5795317082111436,0.14034114407098278,240.93945949883448,30.983064868599143,-4.024461190691029,-0.48857110843206264,0.10859635443290849,-0.2465231573721896,-0.829886120404786
279.0,0.009501090307541923,-0.08305774870291,0.013082938566809532,5.019158959320249,0.6044916911045943,8.394330024813897,0.38512999097676515,1.312591642228739,0.32606774945484623,240.7463014136401,30.7875803631852,-4.110099913527333,-0.4874111862658847,0.1066956307842695,-0.24561998456989248,-0.8310886314828183
280.0,-0.026835288367546426,-0.07397605083088954,0.023362658846529813,4.999802052785924,0.6030474095796676,8.406375855327468,0.4670240713587488,1.2510538856304985,-0.025140518084066477,240.58809872922774,30.643863025415445,-4.101799242424242,-0.48639840853861194,0.10580993265395895,-0.2447189069037146,-0.8320605749951124
281.0,-0.03469208211143695,-0.0767741935483871,0.010850439882697944,4.943079178885631,0.5972727272727272,8.440058651026392,0.14956011730205282,1.0685483870967742,0.013563049853372432,240.5822947214076,30.262280058651026,-4.045271260997067,-0.48682786137829914,0.10442685653958944,-0.24177600410557185,-0.8328290039296187
282.0,-0.03589442815249266,-0.08087976539589445,0.008826979472140766,4.891495601173021,0.5758651026392961,8.470381231671553,-0.05351906158357769,0.4002932551319648,-0.29343841642228735,240.75678152492668,29.91293988269795,-3.8936950146627565,-0.48848887656891493,0.1042822335777126,-0.2384980049560117,-0.8328175488269793
283.0,-0.015327468230694037,-0.08026392961876835,0.02444770283479962,4.867038123167156,0.5648191593352884,8.486226783968718,-0.1425342130987292,-0.084005376344086,-0.20185728250244378,240.6619012707722,29.749694525904204,-3.812133431085044,-0.4880065619257087,0.10391041397849463,-0.23708238365591397,-0.8335610681133918
284.0,-0.02956989247311828,-0.08897360703812318,0.017751710654936467,4.8295014662756595,0.5182600195503422,8.51051808406647,-0.6287267839687194,0.14943792766373412,0.04349951124144674,240.61797409579665,29.504521016617787,-3.4862536656891496,-0.48801181338220917,0.1049330962561095,-0.23405998000977518,-0.8342795273704788
285.0,-0.026940371456500488,-0.09832844574780061,0.004125122189638317,4.793489736070381,0.5759628543499513,8.52631476050831,0.8823924731182796,-0.3158602150537634,-0.7084555229716519,240.70937194525902,29.25995845552297,-3.8733504398826977,-0.4888501365591398,0.10142587145650048,-0.23378129474095796,-0.8342840022189637
286.0,-0.02880893300248138,-0.09367847206556885,0.01850214301827205,4.758811564779306,0.6227720129333031,8.542520866230543,0.4620507180991052,0.3074173810060907,-0.2269390555680878,240.5243674336416,29.02791798255508,-4.177370009023235,-0.48772272766523794,0.09796989966087676,-0.23351986275434242,-0.8354305876945634
287.0,-0.021832618993909314,-0.07979818031430935,0.022567787051658017,4.748707835175576,0.6364915783141591,8.547512632528763,0.33514925934280776,0.1657138224678547,-0.1767943078426949,240.29876729453343,28.961319695089855,-4.262878552898714,-0.4861558449587186,0.09662210154304836,-0.2335699265208662,-0.8364985678120911
288.0,-0.01769574825908421,-0.07222009723819324,0.02212116076946919,4.768174727973312,0.6536034471691435,8.535602959327587,0.11035262599975426,-0.5349370666050446,-0.08986417463994173,240.25658680095148,29.095761555517655,-4.382773117912771,-0.48567940680010413,0.09634370369376388,-0.23503404181603238,-0.8363979756795834
289.0,-0.01602969231136029,-0.06808952075985908,0.025321577452183275,4.808761850790175,0.6567958584819327,8.512915849165259,0.27634566783858683,-0.013949471718944617,-0.08114909611762483,240.29000527730858,29.36399148157114,-4.414077174792163,-0.4856056405114889,0.09739910360641273,-0.23706130111329476,-0.8357503545787945
290.0,-0.011758498254957735,-0.060275716677762325,0.023870644959551338,4.828367407048761,0.6549353729145231,8.502191420040752,0.08241189049607618,-0.36355017753031127,0.0642529857370534,240.26995122959914,29.498847629062517,-4.40433089481329,-0.4853093442525974,0.09800625077466762,-0.23801965301855998,-0.8355869364260827
291.0,-0.006134146341463416,-0.06773131392604251,0.023255704169944935,4.8909779701022815,0.6389726593233673,8.466960464201414,-0.07738001573564121,-0.7113222856018883,-0.02144718725413061,240.28514948859166,29.925623278914237,-4.3173817368214005,-0.4849757542891424,0.10050675951632572,-0.2407055582859953,-0.8347078221776161
292.0,-0.009655782848151061,-0.08272856018882771,0.023466561762391824,4.974553501180175,0.6262081038552321,8.418661683713612,0.03883015342250197,-0.5099454169944926,-0.010874803304484659,240.3345102281668,30.4907602281668,-4.25095397324941,-0.4847416067171517,0.10354612839929189,-0.244492134054288,-0.8333661900767113
293.0,-0.002812942564909519,-0.09489457120377656,0.022472069236821407,5.055058811959088,0.622344807238395,8.371090086546026,0.020501819433516918,-0.6216918273013375,0.0607899783634933,240.36764850511406,31.039857887490165,-4.246788945712037,-0.48435397676219505,0.10617681968981119,-0.24830917307513772,-0.8321316550603854
294.0,-0.002321793863099921,-0.11426986624704956,0.019816679779701026,5.12675924468922,0.6262974036191976,8.327295043273015,0.12081038552321006,-0.3407602281667978,0.13863591660110147,240.30509441384737,31.527640637293466,-4.299100118017309,-0.48330109836900076,0.10784275307474431,-0.2520680061101495,-0.8314035439535797
295.0,-0.0036117230527143974,-0.12619708890637293,0.020400865460267512,5.159422108575923,0.6343674272226594,8.307309992132181,0.268228756884343,-0.17742181353265146,0.02563188434303698,240.27082513768687,31.749048485444533,-4.358578383162865,-0.48273392292250206,0.1083203980141621,-0.2539266953084186,-0.8311112041278521
296.0,0.0027645929339477687,-0.12836136712749613,0.01597503840245776,5.215749231950845,0.6429654377880186,8.270991551459295,0.4288930491551459,-0.5426771313364055,0.1395569316436252,240.1535858294931,32.1353518625192,-4.440430587557604,-0.4814317696347926,0.1092733168095238,-0.25711302217895543,-0.8307511012492319
297.0,-0.0039429395676445255,-0.11536606908695812,0.016038758382975533,5.215357601813345,0.6446634820726088,8.271807341425948,0.10256365675695926,-0.04701286248173539,0.10211213517665131,239.97239676997864,32.13040151642876,-4.4547740811509495,-0.48011203996540974,0.10876310896908134,-0.2572919651451425,-0.8315299425029598
298.0,-0.012608566558015809,-0.11249351841444678,0.0310274437076168,5.195086058971189,0.6586543216814656,8.282714154583942,0.3763070299913828,-0.11788647156344834,-0.11875240015360984,239.79030624789254,31.986722935633736,-4.545935427672249,-0.47892913872060816,0.10710460837566971,-0.2567941906532164,-0.8325758744288994
299.0,-0.019737701847064557,-0.11089998501367501,0.02945648345884381,5.200514115244838,0.6613055243340452,8.279181624892287,0.08064404902401555,0.5577875618185906,-0.022602129463114913,239.69843486568504,32.02500362950058,-4.565462550578847,-0.47822560375044953,0.10692232207453825,-0.25721023701602597,-0.8328756398309918
300.0,-0.02088497995579034,-0.10758708928103106,0.03129275785845417,5.106365928590161,0.6302213105541192,8.339369038252595,0.042716177737814234,0.7576992244576823,0.15772615301037804,239.48974162639092,31.38110060507287,-4.322776638192649,-0.4774809281292571,0.10523972133565623,-0.25184130083462586,-0.8351412801574314
301.0,-0.025294256490952002,-0.11945790715971676,0.03119630212431158,5.03218450039339,0.6022926829268291,8.386314319433517,-0.03128688040912668,0.3620869394177813,0.09672501966955153,239.3247959284028,30.875189319433517,-4.108752950432731,-0.47691462152084985,0.10409521974232888,-0.24753819205940197,-0.8368966071125099
302.0,-0.013984657749803304,-0.11787608182533438,0.02955959874114871,5.006666601101494,0.583294256490952,8.402838512981905,0.2403311860739575,0.11596184107002361,0.1079366640440598,239.17215897915028,30.701289584972464,-3.973780487804878,-0.4760550727234462,0.10393133432435092,-0.24589588160798584,-0.8379055242250195
303.0,-0.015564909520062944,-0.10104287962234462,0.029404799370574365,5.0397647521636495,0.5772116443745082,8.383632966168374,-0.017410011801730907,-0.5104666601101495,-0.03514457120377655,239.1226470298977,30.930760719905585,-3.9397128245476,-0.4754422842568843,0.10502889341620769,-0.24745810929189616,-0.8376571334996064
304.0,-0.023619590873328086,-0.09352143981117231,0.030903029110936276,5.036311959087332,0.5647521636506687,8.386718135326513,0.2509920830055075,-0.12932361329661685,-0.06721331628638866,239.02621828284816,30.905550501573565,-3.8492476396538158,-0.4747653517743902,0.10528458314712824,-0.24703999941699448,-0.83813936547915
305.0,-0.011463021243115656,-0.09581582743246789,0.03163603836499195,5.057935165411561,0.5784356056348583,8.372651502379078,0.19741544434453562,0.15080838344385747,0.15469979346970889,238.9205364167697,31.05243562905099,-3.943899453467461,-0.4738439732537465,0.10506224613654416,-0.2485799704719381,-0.8382315597944905
306.0,-0.0244976396538159,-0.09792001049042749,0.02951963208572178,5.027943389157395,0.5761734479787193,8.391176557641153,0.08958473830130008,-0.017161332471619634,-0.00962086939417782,238.72982465999775,30.84743757259001,-3.9265616218950203,-0.4726688010180023,0.10388260859246562,-0.24718562603435612,-0.8394531859335355
307.0,-0.02215552995391706,-0.08641551459293395,0.028816052227342556,5.056311059907834,0.5971009984639017,8.37224539170507,0.3494959677419354,-0.24869671658986175,-0.18719518049155146,238.8096678187404,31.0434571812596,-4.080006720430108,-0.47301944155261144,0.10393584142204303,-0.24910351491781868,-0.8386632237419356
308.0,-0.015223502304147471,-0.07944047619047619,0.02498809523809524,5.113688556067588,0.6112546082949308,8.336101766513057,0.32773137480798764,-0.734744623655914,0.012269585253456228,238.65606038786484,31.43508784562212,-4.1909322196620575,-0.4714233870103687,0.10453072314746545,-0.25251765333102916,-0.8384644074139784
309.0,-0.01595161290322581,-0.06978033794162826,0.023525345622119817,5.179238095238096,0.5950353302611366,8.296751920122887,-0.09530049923195083,-0.06315284178187403,0.021471774193548395,238.52159178187404,31.88477822580645,-4.102016129032258,-0.4699230288556068,0.10678680437019969,-0.255532073046851,-0.8381077549147466
310.0,-0.006501152073732721,-0.07717511520737327,0.017261904761904763,5.273559139784947,0.5627403993855605,8.237565668202762,-0.39322436635944696,-1.5464573732718896,-0.39162586405529953,238.999323156682,32.546915802611366,-3.9098070276497694,-0.47258466717357905,0.11205111689708142,-0.2590272028175883,-0.8347675613705836
311.0,-0.013350005619871867,-0.07270990221422952,0.017880558989921698,5.370470757933386,0.5411286575999399,8.176744970214678,-0.1608793694503765,-0.6035075025289425,-0.10657033269641453,239.17907370461953,33.2167807032333,-3.7864202821175676,-0.4731422714742798,0.116181925627927,-0.2631971605632985,-0.8326188075903862
312.0,-0.004098010565359111,-0.07276572627477426,0.019565021917500282,5.416428009441384,0.5274984077029707,8.148354876175487,0.3606178112472369,0.30926857367652005,0.021592016035367728,239.24387668127832,33.53444513131767,-3.7071004739425275,-0.47322483781986446,0.11820842407178447,-0.2651046881463789,-0.8317125201500504
313.0,-0.019282904349780822,-0.07385448278445919,0.02555018545577161,5.318295867520886,0.5468742272676181,8.211809973399271,0.32671476340339445,0.7517655764115245,0.06265454647634033,239.11393119403544,32.844300279120304,-3.8126779626091194,-0.47312113499550407,0.11422394995391705,-0.2607070539796186,-0.8337103503615452
314.0,-0.01339327863324716,-0.08566876475216365,0.021603724101757153,5.258907309580006,0.5442074107377017,8.250484620283991,0.26325938518601777,0.4165882226218575,0.07574182308643362,239.0185725057135,32.429271570941516,-3.774850370911543,-0.4729294768509984,0.11242816566726611,-0.25770018969015773,-0.8350094582707654
315.0,-0.02173504177438088,-0.07648645610880073,0.022779588625379342,5.199733992731631,0.5596766700385898,8.286697763290995,0.300576505189015,0.43820482559664303,0.06408058896257164,238.95967507774154,32.02180744445693,-3.851110861339028,-0.47299596193548393,0.10995776451950093,-0.2551425209433892,-0.8360895493312352
316.0,-0.012295530328575173,-0.0852141171181297,0.019898842306395416,5.172754486531039,0.5835008055149675,8.301708441047543,0.49615272938443666,0.47510162601626016,0.029335731145329884,238.77933104791876,31.838131298939714,-4.011117979843393,-0.4718560261290322,0.1076924639080589,-0.2546216770649283,-0.8371922569551533
317.0,-0.009869244314562962,-0.09933797909407666,0.019674047431718557,5.1141073770184695,0.6007669251807725,8.33599190738451,-0.05712131430070061,-0.642833726724364,0.007783522535686186,238.7125903862725,31.440480873702747,-4.1151183919673295,-0.47181299682140043,0.10515586101382488,-0.252224400247649,-0.8382506683713611
318.0,-0.007586827020343937,-0.08237832977408116,0.017689858004570833,5.150487430219924,0.5784103255779103,8.31604660747068,0.13338531714810237,-0.1635804203664156,-0.08769107564347534,238.79764714697836,31.688743396650555,-3.9749728372859767,-0.47215982115207367,0.10736880641826833,-0.2533681320220299,-0.8374415314495525
319.0,-0.006377205799707767,-0.07305462515454647,0.01862226967891799,5.176780300475815,0.5591618897755795,8.30176051852684,0.07429985762991272,-0.12852506462852642,-0.08395667078790603,238.8616136993743,31.865777087782398,-3.84723759881608,-0.4723584006940543,0.10909277559544416,-0.25411574327930764,-0.8368899190300476
320.0,-0.006849125173279383,-0.07607800382151288,0.017834176314113367,5.128722715522086,0.5707130493424748,8.330000074931625,0.534624967217414,0.6163154246749841,0.23258963695627743,238.42244951481769,31.534304634521,-3.912794106627702,-0.4695479689760594,0.10625192197744557,-0.25240435628788727,-0.8393333981117981
321.0,-0.016335656213704995,-0.08021838822074856,0.018460754561462664,5.067016747218163,0.5977444082274922,8.365306882469746,0.37684729871492256,0.5147863512045259,0.1068534337417107,238.1901783372672,31.117049052114943,-4.084495007680491,-0.46830827505844674,0.1027842552216103,-0.25025224371436067,-0.8411040810149863
322.0,0.00038055898992169976,-0.08084876924806114,0.01722408302424038,5.043618523097674,0.5954851073395524,8.379856431006704,0.18650586808287434,-0.01072739874864187,0.14877486793301115,237.95767276422762,30.955751119291147,-4.062605489678169,-0.46681695983842886,0.10175278273275636,-0.2492031030058821,-0.8423776020181146
323.0,-0.009025373721479147,-0.08783025177025963,0.019177025963808027,5.008834382376081,0.5864862313139259,8.401810778914239,0.24068032061369,0.44626032651455544,0.21409569236821402,237.68760818253344,30.71324867230527,-3.996153373328088,-0.46509879219217154,0.10060065819236823,-0.24742493121754525,-0.8439896280430763
324.0,-0.0005255704169944914,-0.08113985051140833,0.020351888276947283,4.996233477576711,0.6088135326514554,8.407503540519274,0.2742218233674272,-0.2514616935483871,-0.18521218528717542,237.58891620771044,30.633677960267505,-4.141061418174665,-0.4644572884864281,0.0990369373945712,-0.24748077360621556,-0.8445172000887096
325.0,0.0030133752950432724,-0.0888985051140834,0.019464988198269084,5.012391817466561,0.6279858379228953,8.397269866247047,0.217397718332022,0.04794453186467351,0.15057041699449253,237.5487804878049,30.73780487804878,-4.27704563335956,-0.4640443382218725,0.09852356402045634,-0.24879034216365065,-0.8444221546892211
326.0,-0.001528979805927092,-0.09191793257882952,0.019880570517863988,4.987242228005406,0.621411567713692,8.412301438399,0.175243095483064,-0.1440302911093627,0.007755603300449887,237.30244331134378,30.572154471544714,-4.232042708144203,-0.4623893389761745,0.0975848685765297,-0.24761405238294093,-0.8457835358209769
327.0,0.003746131654864934,-0.07650027234763662,0.02219677621093829,4.968754866953135,0.616739615485485,8.422773063810045,0.11296576489338095,0.48478560188827696,-0.17974237930964915,237.2164704754988,30.44890178337267,-4.191896649115375,-0.4619248665384412,0.09713831893263936,-0.24664157985551455,-0.846370984248018
328.0,-0.0010616312614739058,-0.07067106457665073,0.020179426657790153,4.916172083358551,0.6038403034154409,8.455196917428232,0.18316462910286668,0.05068843430369788,0.1760119732090621,237.03382532429544,30.090309467610805,-4.0866446266819985,-0.46097922070431113,0.09594803346789325,-0.24378484974286352,-0.8478427783938752
329.0,0.001153684762654079,-0.06123639774859288,0.017872561479957236,4.914884625471564,0.5910122052089009,8.456739292703102,0.17144069378038693,-0.037200039339103055,-0.031048891444249438,236.8848955496379,30.084661028061895,-3.9994788829712116,-0.45987662652052685,0.09618802044362404,-0.24352467188638058,-0.8484985177335229
330.0,0.006543010752688172,-0.05384243176178661,0.01328246484698098,4.912438378825476,0.6051009098428453,8.457110008271297,-0.1471179693961952,-0.4908266129032257,-0.6193600082712986,237.07028019023988,30.065658602150535,-4.092491211745244,-0.4612928319644334,0.09589060756327542,-0.24360861402894954,-0.8477331521153846
331.0,-0.0010080645161290335,-0.05920161290322581,0.016250000000000004,4.960677419354838,0.6025645161290321,8.428903225806451,0.31376008064516125,0.00156250000000005,0.13195564516129032,237.21602822580644,30.390625,-4.087550403225807,-0.46199173508064506,0.09759393558064515,-0.24582755791935482,-0.8465088872016129
332.0,-0.0006532258064516135,-0.05325000000000002,0.015475806451612905,4.94149193548387,0.6150322580645158,8.439225806451615,0.16335685483870965,-0.1163306451612903,0.07565524193548387,237.22172379032259,30.261592741935484,-4.164768145161291,-0.46217710503225795,0.09652262049999999,-0.2451581894435484,-0.8467317142741935
333.0,0.0014516129032258068,-0.06375806451612903,0.018411290322580647,4.899725806451612,0.6194112903225806,8.462879032258064,0.5162802419354838,0.8377016129032259,0.2664818548387097,236.92021169354837,29.9726310483871,-4.18351814516129,-0.4602201895645161,0.09453395673387098,-0.24340554554838711,-0.8485002085080644
334.0,-0.00422725392886683,-0.0674259718775848,0.016759718775847806,4.84600682382134,0.650925558312655,8.491268610421836,-0.2746962882547559,-0.8525098221670802,-0.33752455541770054,236.91102538254754,29.6183596980976,-4.378353753101736,-0.46053109438730355,0.09166996921215881,-0.24156607510297767,-0.849158846745244
335.0,-0.0015289495450785773,-0.07487427626137304,0.018170181968569062,4.904523573200992,0.6328821339950372,8.459581885856078,0.1698343155500414,-0.052010959470636886,-0.005783447063688996,236.97544716708023,30.006407671629447,-4.27559320719603,-0.46061306304445826,0.09415875677543425,-0.24392840568052107,-0.8481829737435898
336.0,0.008275847808105875,-0.06786455748552524,0.01858105872622002,4.946850496277916,0.6157878411910671,8.436476426799008,0.14774477874276262,-0.08921112489660878,0.04224436517783292,236.92073769644333,30.290199803556657,-4.16705567617866,-0.4599272626875518,0.0959791950167494,-0.245675770207196,-0.8478561885572786
337.0,0.0011701819685690689,-0.08142018196856907,0.02414536807278743,4.924211538461538,0.6199745657568239,8.449060794044662,0.35106492969396197,0.2681968569065343,0.041963916459884204,236.75432046112488,30.137211796939617,-4.196607475186104,-0.4588575265413566,0.09476795068176179,-0.24479720203101737,-0.8488284198794456
338.0,0.006210090984284533,-0.08016170388751033,0.016504135649296942,4.932650124069479,0.6347816377171216,8.443264267990077,0.0456937551695616,-0.35662737799834576,-0.02352409015715467,236.76060277088501,30.198671422663356,-4.298379342431762,-0.45882925011745257,0.09435124110297768,-0.24562370791066998,-0.848660671976013
339.0,0.011258064516129037,-0.08397580645161287,0.009943548387096775,4.945999999999999,0.6303064516129031,8.435346774193548,0.16764112903225806,-0.016733870967741954,0.0014616935483870968,236.66582661290323,30.29465725806451,-4.272530241935483,-0.458020954516129,0.0947289741370968,-0.2462745912580645,-0.8488698157258063
340.0,0.008185483870967743,-0.07693548387096774,0.011241935483870969,4.975298387096775,0.6443306451612906,8.417080645161288,0.2018649193548387,-0.3252520161290322,-0.2110383064516129,236.73860887096774,30.493548387096773,-4.380241935483871,-0.4582803054677419,0.09498079356451612,-0.24811406291129035,-0.848166484233871
341.0,-0.00031451612903225876,-0.0724516129032258,0.013959677419354843,4.995814516129032,0.6518629032258065,8.404330645161288,-0.07560483870967742,-0.3149193548387097,0.025705645161290328,236.8188004032258,30.633417338709677,-4.43351814516129,-0.45876036654838714,0.09540508624999999,-0.24926684015322587,-0.8475223169596773
342.0,-0.004580645161290324,-0.07742741935483868,0.015024193548387098,5.025032258064517,0.6145725806451614,8.390080645161287,0.02368951612903225,-0.07036290322580646,0.15413306451612904,236.7616935483871,30.82978830645161,-4.189717741935484,-0.4581293910080646,0.09776217536290321,-0.24980207925806458,-0.847436425048387
343.0,-0.008423076923076925,-0.08032196029776674,0.01675909842845327,5.053607320099257,0.5866488833746898,8.374957196029776,0.07089149090157154,-0.16877197063688998,0.1328163771712159,236.57450372208436,31.026372518610422,-4.003313688999173,-0.45654072236931353,0.09943304825268817,-0.25070788441087677,-0.8478316382411083
344.0,-0.004203473945409431,-0.0768182382133995,0.019286807278742768,5.115928660049628,0.5620421836228287,8.33834553349876,-0.13549679487179486,-0.9752882030603804,-0.18918656947890816,236.5907800868486,31.454214485111663,-3.8580076509511994,-0.4562252508217536,0.10228322436021506,-0.25326197242721254,-0.8468913468463606
345.0,0.0009143920595533496,-0.07714702233250621,0.011502274607113321,5.23262158808933,0.5573920595533498,8.264918734491316,0.1443987799834574,-1.301479787014061,0.02881901364764268,236.7120231079404,32.254803815136476,-3.859195357733664,-0.45618225028184456,0.10593917245430105,-0.2589814652619934,-0.8447104198385027
346.0,-0.0020573594383586523,-0.07499453791684318,0.007998678609614883,5.342779912848757,0.5514586182896568,8.194866035223628,0.1122613490790615,-0.6380585648288245,-0.22420981359317316,236.73491165723533,33.019040504145735,-3.8566586790635276,-0.4554477478141127,0.10924296551757147,-0.2644685313057607,-0.8429823859571153
347.0,-0.007811232826968467,-0.062346698541427104,0.009146270854768102,5.423620680263874,0.5490067481692186,8.142563426738487,-0.11522000897738506,-0.11040910145453814,-0.4147307919264056,237.0367067875083,33.580824835078374,-3.859823364905485,-0.45700854015715464,0.11226368848006821,-0.26823316914629114,-0.8405578022520628
348.0,-0.020714004720692368,-0.047079661683713615,0.01485385523210071,5.48523859166011,0.5596398505114082,8.10055999213218,0.08149218135326515,-1.310215873328088,-0.4490398800157357,237.27509588906372,34.01429730527144,-3.9530303402832416,-0.45823397611329664,0.11403359230979544,-0.27147199109657755,-0.8386147740273409
349.0,-0.002623131392604246,-0.0507374114870181,0.013406766325727772,5.620631392604248,0.5801384736428008,8.004703383162864,0.3967692761605035,-0.40319261408339885,0.17943671321793864,237.26809229937055,34.97594905586153,-4.145391178206137,-0.4569624570163257,0.11681896823151063,-0.2790959365845791,-0.8363987321225415
350.0,-0.012612116443745082,-0.0518174665617624,0.015199055861526355,5.654313139260426,0.5906530291109361,7.9812824547600325,-0.0003442171518489301,-0.4551730920535012,-0.0728658536585366,237.1705743509048,35.21329661683714,-4.237499999999999,-0.4559504522297403,0.11701612104169946,-0.2812418459590873,-0.8362283460928404
351.0,0.003973249409913455,-0.0577183320220299,-0.0012911093627065318,5.739017309205351,0.5867073170731708,7.9198859166011015,-0.170412077104642,-0.5795239968528718,-0.49566778127458694,237.55411093627063,35.82802911093627,-4.2435287175452405,-0.4579143485224232,0.12057805307002363,-0.2852067009811172,-0.8332559531959087
352.0,-0.003713611329661684,-0.061526357199055866,0.0076195908733280825,5.793261605035406,0.5746872541306056,7.88155192761605,0.13880556648308418,-0.42776848937844214,0.10294797403619199,237.63777045633358,36.21857297403619,-4.1750688434303695,-0.4580432210432729,0.12287741025255704,-0.2876705668910307,-0.8320272475578285
353.0,-0.016035405192761604,-0.057966168371361135,0.016769669551534225,5.8343695908733295,0.5732468528717544,7.851291306058222,0.10855010818253344,-0.21484313532651453,0.06945687450826123,237.51842299370574,36.518221380802515,-4.179637096774194,-0.4568190514697088,0.12378898904681351,-0.2899564488884737,-0.8317926376522424
354.0,-0.027184369263047473,-0.06373346821025815,0.016420741073770184,5.8694330673260655,0.5710368288936345,7.8252875501105255,0.09169944925255705,-0.561432224345285,-0.07441974822974035,237.56485425798957,36.773706024502644,-4.1768433179723505,-0.4568251286242553,0.12502001031411336,-0.29173661797399875,-0.8309862053330335
355.0,-0.012612640965119326,-0.06838915739387809,0.01612539807425724,5.8971240867708214,0.5837599565396574,7.803556442246451,-0.2455546813532651,0.44791783747330555,-0.649080448465775,237.81874203851484,36.97052236709003,-4.279240895807575,-0.45840808777396874,0.1258511472262935,-0.2932368050845603,-0.8294550458529841
356.0,-0.019968790978232363,-0.07244005470008617,0.015135869768835937,5.915469989884231,0.5944409538795848,7.788737308456032,0.24757572777340675,-0.49282412610992476,0.037797501966955194,237.99279450470195,37.108146706755086,-4.366312029335731,-0.4594688233913118,0.12633682704351654,-0.2943365184588812,-0.828402298677869
357.0,-0.016974954104379755,-0.07507919336105803,0.01850813944775392,5.904229880858717,0.5995926248548198,7.796689661309053,0.4112091856805664,0.4390472209733617,0.3882437549173879,237.6147833656476,37.024691960773296,-4.398709712543554,-0.4568215455194168,0.12482023623222246,-0.294277176098048,-0.8301045007708779
358.0,-0.013566745344872806,-0.07657824734929378,0.01664362519201229,5.83671968079128,0.5797326814281969,7.849242253943275,0.053968332022029886,0.040610599078341,0.193007474429583,237.30091486830764,36.532658480386644,-4.227927953242666,-0.45529191032314287,0.12304798564984454,-0.29048830193061326,-0.8325433544352028
359.0,-0.02394177812745869,-0.09206136900078679,0.017380015735641227,5.866231313926043,0.5687018095987413,7.828221872541306,0.13090086546026747,-0.5904307631785995,-0.0011801730920535103,237.1557336742722,36.74759047993706,-4.163011408339889,-0.45392412395751386,0.12400278771046419,-0.29195410623918167,-0.8326445787411487
360.0,-0.019543666404405975,-0.0789771833202203,0.014980330448465775,5.8790637293469725,0.5674114870180962,7.818969315499605,0.32415420928402827,0.025324547600314662,0.03599527930763179,237.0775963808025,36.84288945712038,-4.150127852084973,-0.4532327126593234,0.12425941400472071,-0.29265329726199835,-0.8327510901258852
361.0,-0.02143981117230527,-0.07187254130605823,0.016215578284815107,5.88564909520063,0.5700393391030685,7.814893784421715,0.15302911093627064,-0.1557828481510622,0.011850904799370574,236.96346380802515,36.885670731707314,-4.168568056648308,-0.4522922627458694,0.12401560970102281,-0.29317500136900077,-0.8331204221636508
362.0,-0.017041699449252552,-0.07081825334382377,0.01531077891424076,5.893092053501181,0.5635641227380017,7.809236821400473,0.12239378442171517,-0.1432435090479937,-0.004376475216365067,236.88562155782847,36.93769669551534,-4.1294256490952,-0.4516186177261998,0.12427237944925257,-0.29349895376081825,-0.833335893815893
363.0,-0.014541306058221872,-0.07029110936270654,0.014379228953579862,5.899768686073958,0.5566168371361135,7.803787568843434,0.12476396538158929,-0.11921715184893784,0.008320220298977185,236.8403914240755,36.99122738001573,-4.0669551534225015,-0.4511902478284815,0.12473642028796225,-0.29371206286546025,-0.8334243774036192
364.0,-0.01600629425649095,-0.07007553107789143,0.014898505114083402,5.902789929189616,0.5566624704956726,7.800876475216371,0.17682926829268292,-0.014280094413847363,-0.019305664830841854,236.7906963021243,37.01878442171518,-4.077822580645161,-0.4508581122092841,0.12467776698977186,-0.2939931703273012,-0.8335160886073958
365.0,-0.02048151062155783,-0.07312195121951218,0.017441384736428013,5.905415420928403,0.5582171518489378,7.800040912667196,0.07589988198269079,-0.06113296616837136,-0.04874606608969315,236.7854691188041,37.03390538945712,-4.101091660110149,-0.45082941511329666,0.12459757519826908,-0.2941450228583792,-0.8334857050786784
366.0,-0.018862272791462405,-0.08566777623111219,0.01770523916157276,5.915121618350178,0.5599470031673021,7.792452016381207,0.168562697956384,-0.02211046722750106,-0.07662973582279248,236.7861508074603,37.10398226462103,-4.119358999576348,-0.45078796157902123,0.12481872336876877,-0.29471802914439466,-0.8332759536256029
367.0,-0.01864592789848494,-0.08054356553491093,0.018423036575278908,5.852589133329298,0.559739040529363,7.838876676955355,-0.07873005936169784,0.8129022801549355,-0.39400920308055437,236.99675852725494,36.64654266653553,-4.091121277915633,-0.4528972097666939,0.1236094283153836,-0.29111637641720123,-0.8335608599591431
368.0,-0.015581028465371502,-0.09062662147713288,0.022671195706994295,5.813806663438842,0.579772746071133,7.866639951380902,0.5394404138675382,0.10650154330327422,0.2454097129758518,236.93787019104684,36.3649800026226,-4.218040477667493,-0.45279329779060495,0.12145641518591761,-0.2896633239626329,-0.8344402882819908
369.0,-0.023758256168169622,-0.07397460106114709,0.023988823659948765,5.772556557525872,0.5824549214226632,7.896574007948515,0.2829762553208658,0.29518625552260486,0.2678913484234098,236.59474154713632,36.06726822711776,-4.2269385856079404,-0.4506798551291734,0.11928302279860396,-0.28789004526760675,-0.8365004113345438
370.0,-0.018836641852770883,-0.07782837055417702,0.019546732837055422,5.732156327543423,0.5841306865177831,7.9257142266335805,0.25373242349048797,0.5320099255583126,0.28353753101736967,236.2451431968569,35.777251344086025,-4.2179047766749385,-0.4484886653482216,0.11722865204052936,-0.2861643274284532,-0.8385574384532671
371.0,-0.025524193548387086,-0.07605645161290321,0.022000000000000006,5.639951612903227,0.5730645161290322,7.9921209677419345,0.055040322580645146,0.4788306451612903,-0.07031250000000003,236.0662802419355,35.11900201612903,-4.099445564516129,-0.448002477032258,0.11476346895161291,-0.28115977640322587,-0.8408439389999999
372.0,-0.018274193548387094,-0.06933064516129032,0.016241935483870967,5.643048387096774,0.5646048387096774,7.991112903225806,0.14223790322580643,0.09999999999999998,0.017086693548387086,235.8945060483871,35.14072580645161,-4.0406249999999995,-0.4467307305725806,0.11481456112903227,-0.2812825850806452,-0.8414834790645161
373.0,-0.010741935483870963,-0.0775725806451613,0.011951612903225807,5.718120967741935,0.5689112903225806,7.935629032258065,0.13442540322580643,-1.3091229838709677,-0.12303427419354838,236.16456653225808,35.69112903225806,-4.101209677419355,-0.44800946572580647,0.11740757095161292,-0.2851654053548387,-0.8391025177903226
