time,linaccel_x,linaccel_y,linaccel_z,gravity_x,gravity_y,gravity_z,gyro_x,gyro_y,gyro_z,euler_x,euler_y,euler_z,quaternion_w,quaternion_y,quaternion_x,quaternion_z
0.0,-0.024883720930232566,-0.04953488372093024,-0.027209302325581393,1.5306976744186047,1.2802325581395355,9.5946511627907,0.03343023255813953,0.3488372093023256,0.2194767441860465,89.50290697674419,8.979651162790697,-7.598837209302325,-0.7062477288372092,0.10228356674418604,0.008678347674418605,0.7004763583720933
1.0,-0.03337393872277593,-0.059527500922849766,-0.020022148394241414,1.5624547803617572,1.2657918050941313,9.591550387596897,0.034952934662236985,-0.5662606127722406,0.004706533776301217,89.38092930970838,9.167820228866741,-7.514096530084902,-0.7069279926282763,0.10298383748615722,0.010245096843853822,0.6996699239018087
2.0,-0.03855398767561477,-0.06732363279968823,-0.023215067081852593,1.5728987386219377,1.27028708023198,9.58941009642654,0.12996240753817126,-0.19651587237277207,-0.1809097433641636,89.43503242193077,9.227846300176338,-7.542626735890045,-0.7065395475027106,0.103510590142151,0.010488316487087177,0.6999803537279528
3.0,-0.03812519424862023,-0.06608436197318784,-0.019633697971531215,1.524019411356904,1.2688006374415912,9.597458044999058,0.07231579018447992,0.26329259289270635,0.2822421197633903,89.26801513023436,8.937161606748958,-7.5273924767486875,-0.707712433901265,0.10164478566633714,0.008625016760640683,0.6990834421397114
4.0,-0.04425412624933237,-0.06118165429859207,-0.019445101693541855,1.3702532950310748,1.272315021264027,9.61891164254478,-0.04132634857320601,0.999940947780499,0.5425483112938514,89.06280826521962,8.028602980448944,-7.532137193706092,-0.7093424087877875,0.09609637839873905,0.002766561028948875,0.6982174379511585
5.0,-0.020177325690307595,-0.062437038702184255,-0.018961110486680904,1.282115394702334,1.24247634033944,9.635735641227377,0.13766859615600766,0.13144084148214752,0.4467664662245701,88.474099181372,7.508984535985913,-7.342700254767525,-0.7132185251545838,0.09175111928414072,0.00023445503585478263,0.694845900550223
6.0,-0.01325845790715972,-0.059257277734067665,-0.018405192761605033,1.300541699449253,1.2263359559402047,9.635527143981113,0.16424567269866247,-0.0027389850511408548,0.37688827694728555,88.13078776553894,7.617695220298978,-7.243993410700236,-0.7153381087199054,0.09184607781392604,0.0012263219756097567,0.6926750537789139
7.0,-0.02167437525757746,-0.060645086358697683,-0.02095543441609531,1.2875094320182834,1.2216880783784791,9.6379909894721,0.13187275205125323,0.3229802414671612,0.3510574725562924,87.82193166704133,7.542541786088943,-7.217354222865385,-0.7172299446772882,0.0912083970426642,0.0006840682108388598,0.6908207853394964
8.0,-0.03465003184594057,-0.07396337716833391,-0.017512925705293916,1.2711932486605972,1.2302746056723237,9.638812764602292,0.15370314431830956,0.16570309280281742,0.18489636019632083,87.59625423832003,7.443184617474055,-7.263249667490914,-0.7186385732633096,0.090894527145742,-0.000410811578884268,0.6894080405279308
9.0,-0.03126510808886891,-0.08202908283691132,-0.012009432018283316,1.2899836836386798,1.238986915065003,9.636104145592142,0.10535017655764116,-0.19479939399048368,0.26409311659360835,87.5022139368139,7.558217950339065,-7.316518618167172,-0.7191513966814842,0.09191678732226219,-0.00013894108467273612,0.6887360317389946
10.0,-0.03399123299988761,-0.08669176876100557,-0.01332134427335057,1.3064860814506765,1.246290884567832,9.632963171106361,0.08688087744932749,-0.4700835487617549,0.10187422726761829,87.41727080289236,7.65308530965494,-7.367544303323217,-0.719573152791203,0.09280371175752125,0.00010006518039788683,0.688176884144843
11.0,-0.03531077891424076,-0.07659997752051254,-0.013623880708853172,1.3710091416582366,1.2346309617474054,9.625028474017459,0.13260673073320595,-0.09797778277321942,0.1552548143568993,87.35645208122588,8.03217844966468,-7.311064591060656,-0.7197913444492526,0.09482663783129144,0.002734739045558428,0.6876618121357385
12.0,-0.036088569180622684,-0.07256266157131618,-0.014542355100970366,1.3651320669888727,1.227703345697051,9.626511932861263,0.14068412573526656,0.13591894271477278,0.2639513319096325,87.24730246150386,7.995351897643401,-7.263635214117118,-0.7204629908152561,0.09432837678430932,0.0027113616387546367,0.6870318005417556
13.0,-0.04345622119815668,-0.05933947772657451,-0.013801843317972353,1.3657450076804913,1.2187403993855601,9.627995391705069,0.16129032258064516,-0.22897465437788014,0.1052227342549923,87.11525537634408,7.997599846390169,-7.21121351766513,-0.7212863809677419,0.09403604948540706,0.002970284001536098,0.6862116523579109
14.0,-0.0440015360983103,-0.05637480798771123,-0.01576036866359447,1.3684101382488478,1.2110445468509985,9.628325652841779,0.0660042242703533,0.0254416282642089,0.13517665130568357,87.02419354838709,8.013536866359447,-7.163306451612904,-0.7218379943010752,0.09385238122119816,0.0032913045852534565,0.6856606948847926
15.0,-0.040230414746543784,-0.04921658986175117,-0.015629800307219666,1.382311827956989,1.201728110599078,9.627803379416282,0.11242319508448541,-0.04670698924731183,0.2895545314900153,86.91349846390169,8.097974270353303,-7.10882296466974,-0.7224596901305684,0.09406309807219662,0.004050493794162826,0.684972759984639
16.0,-0.04408677082162527,-0.05274605672324005,-0.01388258214379379,1.2553109662433029,1.2011286575999398,9.642571091379114,0.12256823461091754,1.7993541830579596,0.34435881945224983,86.68813691881158,7.354240427484919,-7.089694325802705,-0.7241311053604211,0.08924342131317672,-0.0005831418594282717,0.6837707958609643
17.0,-0.033986549773331834,-0.05943370424487655,-0.011726237308456035,1.0928974186055225,1.2190320707354538,9.66089000037466,0.2647451388108351,0.4127819302386572,0.532562474242254,86.06589065602637,6.395366181484396,-7.183456033869094,-0.7281259886594733,0.08376235603293246,-0.007403760568731033,0.6801455394089769
18.0,-0.03744988947585329,-0.058661533850361554,-0.012323817016972018,1.088680454085647,1.2351496759207223,9.659925630362299,0.21913753699748978,-0.22336883219062606,0.18999264733430749,85.79027106515304,6.377381420703609,-7.279489106815031,-0.7297438198656852,0.0842198982827545,-0.008347164256865611,0.6783954652845531
19.0,-0.04130324828593909,-0.05211775504851825,-0.015071185043647673,1.1046034243752576,1.2331077891424074,9.658577610430486,0.08403698812333743,-0.2133736559139785,0.014344722940316995,85.65480288299426,6.471644234011464,-7.268358248098609,-0.7305585046777942,0.08473465642089094,-0.0078166662266307,0.6774902366082202
20.0,-0.036932673935034285,-0.05040725338128958,-0.011440185830429734,1.0822048630624554,1.2277239518938965,9.6623326214829,0.17561162938818325,0.13708740774043685,0.11985079240193325,85.55847242516202,6.340112303772807,-7.240125416807163,-0.7312060310880073,0.08370143548312164,-0.00849455407066052,0.6769248096807914
21.0,-0.030539507699224457,-0.055006931175302545,-0.012195309280281747,1.0313266644187178,1.2201365628863665,9.66953767187442,0.0864289460866959,0.14127187066801544,0.4383183938406205,85.25364120864711,6.0350000936645305,-7.19200409314001,-0.7330930976525795,0.08145929247405492,-0.010194530745007677,0.6751293977042825
22.0,-0.028426435877262006,-0.050564909520062956,-0.014069236821400474,1.0275373721479149,1.2049645948072385,9.671581431943354,0.09323367427222659,-0.23853265145554683,0.45045239968528716,84.80348151062157,6.010808418568057,-7.096400472069236,-0.7357936854461053,0.08076705863257277,-0.010090700838709676,0.6722621865963809
23.0,-0.04491315136476426,-0.05055752587302549,-0.010266981379491216,1.0037961225766103,1.2221886663035364,9.672042203796735,0.2778916762492687,0.19883697472210451,0.012581956464725957,84.70906993282091,5.868103804797353,-7.196096350541669,-0.7363581470700234,0.08041496614484858,-0.011623787983053923,0.6716689459817227
24.0,-0.0615997700175513,-0.048152091024632346,-0.009878573301862053,1.119183663176582,1.2392516895640426,9.655628497649746,0.12120882002864691,-1.7620488611834006,-0.56708136637818,84.96237328269684,6.558063507434081,-7.310095775585547,-0.7345808240723839,0.08548038477108677,-0.008021510711432547,0.6729911153158024
25.0,-0.05220822489862615,-0.05168029413544757,-0.012422370836611591,1.2649104783231455,1.2423764348685675,9.636703312554218,-0.017036227279146235,0.2598144757812344,1.0046575858903748,84.89320965472372,7.414195994472351,-7.333155676935181,-0.7346388215499606,0.09106707524943009,-0.0031444549631120247,0.6722046821433456
26.0,-0.06650162471936666,-0.05560223915869079,-0.011163978494623656,1.2624608590334396,1.2295936724565755,9.639244091929577,0.13738663889873567,-0.37107741049273296,0.0678787442396313,84.4650871809642,7.397618678364646,-7.259529348339832,-0.7371600393625192,0.09054748681395487,-0.003113522397819923,0.6695461728089624
27.0,-0.04609931466383079,-0.05998103509393833,-0.011841013824884793,1.3089522037102683,1.2268580881484104,9.634899503722083,0.07844994387333097,-0.3359299302847689,0.14924155145929335,84.2815679280397,7.670077100319036,-7.258645722557013,-0.7381571237503841,0.09222746235897436,-0.0015948250547087326,0.6682544293651185
28.0,-0.04194047619047621,-0.06013940092165898,-0.010587173579109065,1.36080529953917,1.2231105990783404,9.628029569892472,0.11900681643625192,-0.3710253456221198,0.20634120583717358,84.16507056451613,7.981057987711214,-7.25354742703533,-0.738649638391321,0.09412452051612905,0.00020177719969277977,0.6674623557718893
29.0,-0.038046850998463916,-0.05836405529953917,-0.014942780337941634,1.4006728110599078,1.2209827188940086,9.623696236559141,0.10605078725038403,-0.21998847926267281,0.20503552227342547,84.09501008064515,8.215075364823349,-7.249051939324117,-0.7389846609496928,0.09559886811290325,0.0015744938095238095,0.6668873936923965
30.0,-0.03833794162826422,-0.06274654377880184,-0.013168970814132108,1.4261428571428576,1.2200921658986168,9.620182795698927,0.09483486943164363,-0.18862327188940092,0.1468221966205837,84.06612903225806,8.364669738863286,-7.247887864823348,-0.7390853295837172,0.09654742535483872,0.0024231617757296464,0.6666358208341014
31.0,-0.03634562211981568,-0.0646067588325653,-0.013261904761904761,1.4438548387096781,1.2234546850998456,9.614561443932418,0.13721198156682027,-0.08604070660522274,0.195482910906298,84.04811347926267,8.46732910906298,-7.25,-0.739105829341014,0.09731686787250386,0.002954926447772658,0.6665035738909372
32.0,-0.03651494885916603,-0.06022777340676634,-0.013476986624704958,1.4531528324154213,1.2273422501966949,9.612305074744302,0.18075580251770257,-0.1221897128245476,0.1442552616050354,84.04829243705743,8.5211865656963,-7.256294256490952,-0.7391570395617626,0.09777683632376083,0.0031633392771439816,0.6663958810672701
33.0,-0.040799370574350916,-0.06288335955940207,-0.01225413060582219,1.3730873328088122,1.24167269866247,9.622905979543667,0.09631072974036191,0.31080718922108574,0.08159667584579072,84.05374704956726,8.04630827104642,-7.3365460267505895,-0.739284263007868,0.09514158674193549,-9.492596380802519e-05,0.6666262270165222
34.0,-0.04845997714585441,-0.06678634183807276,-0.01135056760705856,1.2762564160203815,1.2546765951069652,9.63509354276723,0.1911121141021318,1.0023878015997902,0.23633405220860965,83.94752444644263,7.4758195061069275,-7.406176239181747,-0.740120905175977,0.0918476499316436,-0.004001996091351016,0.6661185541995054
35.0,-0.04550900116144019,-0.07247391442808436,-0.010273434865685063,1.2042611741785623,1.2511856618335764,9.64459368326402,0.040819997845715786,0.06665232428533968,0.10607947201303809,83.8736196189727,7.053137059308382,-7.380015735641227,-0.7407615924369263,0.08901181816841819,-0.006407790796167247,0.6657872994951106
36.0,-0.042697163837997834,-0.07457045446030497,-0.009958412948184782,1.227726574500768,1.2507200929152145,9.64139597617174,-0.006928833689258555,-0.23237936008392343,0.0818955827807126,83.83009019894347,7.192272207860327,-7.383457907159717,-0.7409489991476527,0.0899106687269117,-0.005629325244464425,0.6654804541047543
37.0,-0.04263646922183508,-0.07201790865834926,-0.008322655576786183,1.1774927878311043,1.2461200404630772,9.648543329212092,0.11283531902139297,0.14143344198418945,0.06011155445655839,83.67153019744484,6.893662657824735,-7.354934715821813,-0.7419786159941552,0.08783011516466226,-0.007326185154546477,0.6645859375598516
38.0,-0.03723955640478065,-0.07547079539919825,-0.007597205050391517,1.234547338054026,1.2309490839608856,9.642962459255926,-0.5591753774680603,-3.168135560675883,-0.7897170394515005,83.82674169195609,7.246969015773107,-7.270022432655201,-0.7409136026477463,0.0896288432408677,-0.004487225466336967,0.6654951526516804
39.0,-0.059144355775355,-0.06757026713124273,-0.001690307594320183,1.8626384923757078,0.8839553407515641,9.549248510733955,-3.2615193323592218,-2.6289938556067587,2.854594245251208,84.33356093814393,10.98715578284815,-5.24922492600502,-0.7361608465443034,0.10175124478940467,0.03104392156637068,0.6670427805885131
40.0,-0.1019199355588026,-0.030465700048705552,-0.03269566520549998,2.04179997002735,0.34741590798396466,9.546544790378778,0.2660735360233788,2.421704881795362,0.7364631336405529,82.66584616537409,12.029238788355624,-2.0705703701622267,-0.7456939813736466,0.09106660042617362,0.056255489090030336,0.6562018672360346
41.0,-0.06309293394777266,-0.09077572964669738,-0.0023840245775729532,1.3770038402457758,0.7788448540706607,9.6211866359447,2.5950892857142853,3.0457757296466976,-1.3545506912442398,84.58301651305683,8.089314516129033,-4.597662250384024,-0.7359209609370201,0.080206570327957,0.017965309396313363,0.6698753345967743
42.0,-0.05015629800307219,-0.10879032258064514,-0.004398617511520732,1.1619504608294933,1.0465153609831028,9.643389016897082,1.309161386328725,0.29602534562212,-0.973622311827957,86.7844998079877,6.818250768049155,-6.166870679723502,-0.7233091523847927,0.0811224731593702,0.0020257955545314897,0.6842134351708911
43.0,-0.04827534562211981,-0.10375883256528415,-0.00528149001536098,1.1475445468509986,1.1514934715821816,9.648374807987707,0.6638248847926267,-0.20274337557603678,-0.1370895737327189,88.35333141321044,6.729709101382488,-6.788476862519201,-0.7140320766044546,0.08398463054416283,-0.0012068785691244257,0.6941840037895546
44.0,-0.03857895919973024,-0.10504228016934547,-0.0068554381626765555,1.0882766007268367,1.1937523416132783,9.660158489753101,0.5429741064403731,-0.22532489884230636,0.22389411458918734,89.19350898945336,6.371204127795886,-7.033971540032221,-0.7091871067400715,0.08307786288645985,-0.004317527016269531,0.6996955170206625
45.0,-0.032742862762729016,-0.11036693080064444,-0.006078387846090441,1.1350127102768721,1.2243483383912181,9.65623296242179,0.10132699224457684,0.031431767730695725,0.11466207007980217,89.90654071128844,6.640461672473867,-7.221389290865835,-0.7048563179743828,0.08570367475735266,-0.003253020031246488,0.7040620970113147
46.0,-0.03501985688059646,-0.10230808137574465,-0.005805514967592072,1.2077872691169307,1.2035094226518304,9.649580382900599,0.22259609980892436,0.6575589618223372,0.13878624817354163,90.32905520587462,7.075031143456595,-7.103944213405267,-0.7021717063571988,0.08763060478382226,0.0004477448952830538,0.7065594549349969
47.0,-0.05995972425162039,-0.09735191637630661,-0.004939118054775017,1.192773594095388,1.2170701734667118,9.650173841369746,0.11003123712112697,-0.4671190663519538,0.2060924094263984,90.55263361245363,6.990365432168146,-7.181141349143905,-0.7007973583027987,0.08761706012981904,-0.00039570581169682677,0.7079323605737889
48.0,-0.05982878123712111,-0.09694428833689259,-0.008663969128170544,1.3206268030422241,1.215323142632348,9.633298115469636,0.13243228054400358,-0.7096118541830579,0.2132952118691694,90.68339749353714,7.743209321494136,-7.184774362144543,-0.6996659661530102,0.09220245201341276,0.004434784182683301,0.7084400364980705
49.0,-0.057318197145105096,-0.09003709115432168,-0.014033194709827283,1.375657712337492,1.199802555168409,9.628252219849388,0.09401811472031771,-0.635651998801094,0.13887640028474016,90.48741382863136,8.066054568955828,-7.097535217863699,-0.7007725226435876,0.09363192902626354,0.006823108523097672,0.7071557788288186
50.0,-0.05087703720355175,-0.07405159042373834,-0.015934772020531267,1.4211648121089504,1.1804945112584764,9.62391603911431,0.10450807388258214,-0.2477384698962197,0.20389925443033233,90.34335777977594,8.332284758907496,-6.98907543741336,-0.7016081504028323,0.09456355069409164,0.009037876618747893,0.7061912503813644
51.0,-0.047681990183957135,-0.057413660035217876,-0.01795893746955903,1.434206061968454,1.167673522910344,9.624272151661609,0.22834850698737402,-0.3892590198943464,-0.1521402345359859,90.19077451200779,8.407146603724101,-6.912423663407141,-0.7025430993565621,0.09459493955288298,0.009831270632722641,0.7052505267997452
52.0,-0.05456933048593159,-0.05018017309205351,-0.016900303473080816,1.4797870817878684,1.1694154209284031,9.616348357124126,0.09576566070960249,-0.48807580270503165,0.03669027012850773,90.22440897680866,8.678111769884978,-6.928001245738264,-0.702202025664943,0.09630397696706755,0.011444843767149977,0.7053361292143794
53.0,-0.058681203401895754,-0.034610149488591674,-0.016687759919073848,1.5192051065902363,1.1712498033044851,9.609905099097077,0.14224750384024576,-0.12958569836274397,0.13574777078415945,90.25303847738937,8.909472879435015,-6.941970725150799,-0.701938630263628,0.09780735349533551,0.012839908763984116,0.7053651653782361
54.0,-0.06497555355737888,-0.028541821213143012,-0.01521211269716384,1.5626393447229403,1.1655954909894723,9.603549923195086,-0.025060940485556932,0.16207435324641264,0.336348043347945,90.2007091575812,9.170220474598178,-6.91331025673448,-0.7021599207616143,0.09923874535450153,0.014550609689211721,0.7049078032703062
55.0,-0.054266578622007414,-0.03505835300288487,-0.019243921171930613,1.5533674834213778,1.1481297347420476,9.607465821812601,0.047993003259525685,-0.15105407721703945,0.20316106084447938,89.92426730920535,9.111544329080964,-6.808674857629913,-0.7038956393107226,0.09825507285313402,0.01462904417275486,0.7033120792981715
56.0,-0.057774418343261774,-0.030908208759506957,-0.018081638005320148,1.4249176126784309,1.155681802854895,9.62551920122888,0.14808924356524672,0.7748257839721254,0.10304222397062679,89.84025865460268,8.350152204863061,-6.839166057847215,-0.7047347881956838,0.09378927350721218,0.009611831360570979,0.7031352310442468
57.0,-0.05170624497453766,-0.03961604459008079,-0.019907828337411337,1.3860001037514804,1.149689241259658,9.632717948717946,0.04649824342979339,0.5818474896464668,0.4763261456613148,89.65684540020692,8.127733995613617,-6.800393246931406,-0.705960177293222,0.09215938097758103,0.008298936157362175,0.7021478551776829
58.0,-0.03903565592550644,-0.04926828980094126,-0.019625826049114798,1.3520504059276681,1.1271286489539833,9.640166999536,0.09038621848909024,0.18056772594046394,0.5529250712570932,89.1752411501428,7.927271797177383,-6.6628834842052775,-0.709069077382252,0.09014544038100136,0.007534297324943871,0.6992793932607533
59.0,-0.04624796171570364,-0.048369786127850645,-0.02391126078222853,1.3589890109890108,1.1278105872622002,9.639598842018193,0.10220038697861278,-0.09233317086139667,0.3349646992792154,88.79403284887155,7.966920713694908,-6.666301104809169,-0.711379523723384,0.09045066812991848,0.007467665372149355,0.6969013696508329
60.0,-0.055711538461538465,-0.04931162117452441,-0.019841191066997523,1.348052109181141,1.1340397022332505,9.640256410256407,0.19270445616211745,-0.2188288358147229,-0.1514836641852771,88.52015870554177,7.903828060380479,-6.705572787427626,-0.7130625837841189,0.09029776227770886,0.006615652683002481,0.6952095817977666
61.0,-0.04616932529835756,-0.05776468155500414,-0.020214758359919652,1.4008148410729055,1.1348055654023397,9.632460770412383,0.09920721079995273,0.5954326923076924,0.471310779274489,88.43052626137305,8.210033749852297,-6.715886432116271,-0.7134797458467446,0.09227720518858562,0.00837537311089448,0.6944964366557957
62.0,-0.06301612903225806,-0.06177611367127497,-0.011726190476190475,1.2190568356374807,1.144701612903226,9.653574116743474,-0.36119191628264213,-1.127402553763441,-0.16329445084485406,87.88464381720429,7.137540802611367,-6.754932315668203,-0.7171194142987711,0.08590798330030722,0.0011919950748847928,0.6914829803502305
63.0,-0.020496159754224263,-0.05477995391705069,-0.04905491551459292,2.081359831029186,0.8048225806451612,9.493567972350231,-1.1989175307219662,-4.669412442396314,1.1526377688172043,87.5639664938556,12.312106374807987,-4.795806931643625,-0.7160794213559906,0.10647133259639019,0.044417193531490026,0.6866017588413977
64.0,-0.1177642089093702,-0.06070046082949309,-0.0482089093701997,2.342788786482335,0.6141290322580646,9.4566267281106,0.8069172427035329,3.436110311059907,0.729872311827957,86.69380280337941,13.839117703533026,-3.693442780337941,-0.7205703260610599,0.10974878186674347,0.05972348655606757,0.6805195518682794
65.0,-0.08506758832565284,-0.07315668202764977,-0.03081413210445469,1.4146282642089094,0.9166774193548386,9.584184331797236,1.0884888632872503,4.284965437788019,3.89744623655914,86.08092357910905,8.32797619047619,-5.42101574500768,-0.7265676938894009,0.08523076757450077,0.015374212374807981,0.6788437897204301
66.0,-0.17625030909295264,-0.04849612228841182,0.006701322543179358,0.653482035142932,1.1778219624592559,9.623534037690609,0.7108262148289686,2.2242752706904945,2.817550625679068,83.06256954591436,3.846123459218463,-6.953640506163126,-0.7446567667371398,0.06410090783196583,-0.022193125259525687,0.6599142264545728
67.0,-0.15050994717320443,-0.07087632535311528,0.0002170207185942883,0.7862878685699299,1.1736728859915329,9.652362256940542,0.30145765426548277,1.2532666676033117,-0.30651846596230947,84.75745124761156,4.605401399348095,-6.91564033756697,-0.735287135899292,0.06973216225315648,-0.016698670917013228,0.6713366098747517
68.0,-0.15091549586002773,-0.08787287849837024,0.03391035367726949,0.4010433198456409,1.1940676257914653,9.694837042448768,-0.5955509347720206,5.724319585721778,1.0797476794612417,87.91628802779964,2.334310722715522,-7.0123516587988455,-0.7171861418705369,0.05717412589232325,-0.02991356717893672,0.6920110246916
69.0,-0.11225498295305535,0.0022279232700161203,-0.08649970027350043,-1.5943483477576712,0.955685502603874,9.402352084972463,-6.4208865464950735,13.938521880034468,16.34069349218838,80.8106545745757,-9.591590798396464,-5.758023947678993,-0.7496367196580027,-0.03580137397588139,-0.08457487006028247,0.6394761884299014
70.0,-0.16427822112322504,0.01673185718032296,-0.09181859053613578,-3.2412127683488823,0.9514896407028586,8.948503615450903,-3.1567218350754938,8.428391124349032,8.821402813682514,68.8111020568731,-19.700154078153684,-6.0657595256828145,-0.8001181457723576,-0.11891752260986849,-0.12684368415533326,0.5497958310793901
71.0,0.04167127496159749,0.06619047619047619,-0.08233179723502303,-2.5870092165898617,0.9317849462365592,9.17467588325653,4.536587941628264,-14.459235791090627,-14.76375768049155,76.10224654377879,-15.553293010752686,-5.7985023041474655,-0.7664750858602152,-0.08363795598156681,-0.10947206562211981,0.6024162328079878
72.0,-0.007368663594470068,-0.07844700460829493,-0.05242089093701996,-1.3987158218125961,1.089230414746544,9.44487096774194,2.255865975422427,-6.54473886328725,-5.202899385560675,84.6570564516129,-8.39500768049155,-6.554493087557604,-0.7259296940829493,-0.022387226629800305,-0.08065127398924732,0.6637799288187404
73.0,-0.013846390168970825,-0.07007680491551459,-0.028514592933947768,-0.5650629800307221,1.1846205837173578,9.578354838709677,1.3175691244239631,-3.4534658218125958,-3.2355510752688166,89.0776113671275,-3.411184715821812,-7.0275825652841775,-0.7046739797926266,0.01752778769124424,-0.0577138122718894,0.6953544934132103
74.0,-0.02213440860215054,-0.08216205837173579,-0.016653609831029183,-0.10484715821812596,1.2092035330261135,9.660579109062983,0.7158842165898618,-2.7152121735791086,-1.7860503072196618,91.82312788018433,-0.6535090245775729,-7.1233102918586795,-0.6911663469508447,0.038685699026113664,-0.044000703716589866,0.7147463800783409
75.0,0.00429818103480574,-0.07803318534337417,-0.007809308381102243,0.27924074594432574,1.2274246281518113,9.704027799632833,0.4004365352553295,-2.076043481416957,-0.7751899048368364,93.09327020343936,1.632393117061931,-7.203555154359147,-0.6855713837785208,0.05532131873114531,-0.032233619446620586,0.7241008597977032
76.0,-0.021865310404256117,-0.1052041886778315,0.0005302536435502622,0.46269199355588025,1.2366514461803604,9.707936326851746,0.35228119965531446,-0.6066529331047918,-0.2500877519575887,93.79146277069049,2.7012039990071557,-7.255341805290172,-0.6815074517644524,0.06262223575305345,-0.025901687892473116,0.7285219493358716
77.0,0.039903366303248304,-0.020559851635382737,0.03527434341163688,0.7659043685137312,1.2807763759319621,9.680024999063352,-0.02079440401258853,0.03692770971488518,1.314694267262373,94.51628990109026,4.477040891592671,-7.534556943351691,-0.6764372408530404,0.07489614921312426,-0.015649408762288784,0.7322291738858699
78.0,-0.05317410363043722,-0.21156120040463072,-0.10002510209433889,0.7442726012513581,1.3059872241579558,9.679240567981717,0.5902586546026751,-2.005906719493462,-1.8276197969352965,94.98034449814543,4.3615614813982235,-7.683541502753737,-0.6733179220478813,0.07519664087819865,-0.016910442980967368,0.7348927651833951
79.0,-0.05678843055711662,-0.1835337754299202,-0.05537484545352365,0.9923086433629313,1.3575755872766098,9.649464238882018,0.4314609793563373,-0.7950151736540406,-0.5896041736915065,96.03499072721141,5.81513431493762,-8.005252238582294,-0.6660457777115882,0.0858475416687273,-0.008505994991570193,0.740506107379641
80.0,-0.055329699149526054,-0.16766775317522759,-0.028411262223221306,1.1114257614926377,1.3778987299089578,9.635554306695143,0.06248009628713799,-1.2514611666853996,-0.8735786407403244,96.55095818815332,6.51781499381814,-8.131068290809637,-0.6624889816370687,0.09083204647952493,-0.004305052617736315,0.7433000491028809
81.0,-0.0799029635457645,-0.16767524633771685,-0.012295155670450711,1.141872353976996,1.400659023640927,9.631106178112475,0.24081033869094448,0.09027270428234235,-0.005393906185605646,96.63120878760631,6.68944705144056,-8.270320520025477,-0.6619228359068601,0.09280263195496607,-0.003957606651305684,0.7436876214952606
82.0,-0.0547285601888277,-0.15887490165224233,-0.010125885129819039,1.2524783634933125,1.388111723052714,9.61808025177026,-0.04179779701022818,-0.6081825334382376,-0.5517309205350118,97.0701219512195,7.341168371361133,-8.206874508261212,-0.6588371991266719,0.09607543437450826,0.0011121752163650673,0.7459664935562549
83.0,-0.04390558615263572,-0.14872856018882769,-0.0016428009441384736,1.1361054287962236,1.3643540519276163,9.636531864673486,0.09968528717545241,0.7712922895357985,0.5507572777340676,96.84423682140047,6.654268292682927,-8.051475216365066,-0.6606587938017309,0.09118412236349331,-0.0027540924248623147,0.7450125681180172
84.0,-0.0467993705743509,-0.13785365853658535,-0.008579071597167587,0.954154209284028,1.3522911093627066,9.656794649881988,-0.011723052714398108,-0.011260818253343852,0.0965578284815106,96.52887490165224,5.585788749016523,-7.965204563335956,-0.6630448790369787,0.084460986736428,-0.00956447278992919,0.7436002501369001
85.0,-0.04979543666404406,-0.13877734067663255,-0.010975609756097562,1.1139874114870176,1.3403847364280095,9.640907159716757,0.05936762391817467,-0.9355477970102282,0.12025963808025175,96.66287863886703,6.529420731707317,-7.910415027537372,-0.6618764134752163,0.08955381594728559,-0.0029172789748229747,0.7441070292738001
86.0,-0.05950039339103068,-0.1253682140047207,-0.01474036191974823,1.1933705743509044,1.32295397324941,9.634714004720689,0.1447506884343037,0.006458988985051151,0.5191679779701023,96.45422649488592,6.989828383162864,-7.8114968528717545,-0.6631308804276159,0.09159442616404406,0.0005019529004720686,0.7427902017376082
87.0,-0.048950039339103066,-0.13004445318646737,-0.010634539732494099,1.1648033044846575,1.3137688827694731,9.640605625491732,0.011507916994492537,0.06684082415420928,0.3293027143981117,96.0781458988985,6.816988345790716,-7.751996459480724,-0.6656647257283634,0.09023244913552322,-0.0005879953357592451,0.7407263563054682
88.0,-0.04390204563335956,-0.11880409126671915,-0.01512824547600315,1.1967958300550743,1.2867230527143982,9.640929976396531,0.08400619590873329,-0.3506859756097561,0.2836718135326515,95.79604887883556,7.003951121164437,-7.593683615263572,-0.6675089117171518,0.0903154706140834,0.0013325017619984264,0.7390721591856806
89.0,-0.04756546214079652,-0.10514405604885543,-0.013952231089131168,1.237765866771571,1.2609758907496909,9.639157244014829,0.1152265159604361,-0.14161790257015472,0.17935557631785995,95.59618580467199,7.243489554063167,-7.447589016428759,-0.668785584058531,0.09074610800383087,0.0035913556902982284,0.737875425555337
90.0,-0.04499644074781762,-0.08837847963733095,-0.013347083286501069,1.2414676108051403,1.241157300213555,9.641885073620312,0.09120700798021805,-0.0892817335431419,0.22750540912667194,95.37468060394889,7.264310301225132,-7.3283560001498635,-0.6702281563478139,0.09012366157852833,0.004221775671762016,0.736644035688959
91.0,-0.041745733940855886,-0.07491186888118437,-0.013929790508468713,1.2343103350884626,1.2325836330598325,9.64403892769962,0.14931941010078303,-0.033687070043777356,0.2685621620871916,95.17119172625172,7.22450180376272,-7.273112641685615,-0.6715686112789726,0.08954763748145081,0.004132473898036791,0.7354948984900442
92.0,-0.030066415357524717,-0.06508496669865671,-0.017182637189718228,1.2569132320603602,1.2103119778202391,9.64451543159174,0.062210108276197974,-0.24884958340898544,0.24226999233391838,94.97984989538392,7.360890014784586,-7.14774583697184,-0.6727967628370668,0.08951573818830605,0.005607531134502268,0.7343642213579253
93.0,-0.02911739335932884,-0.0596911851589271,-0.01770382842963488,1.2785541770057902,1.2138302611367127,9.64081082358501,0.1341685867895545,0.01481596360628619,0.1489428246484698,94.84158210740873,7.483656061680255,-7.1706520294221905,-0.6736360357135768,0.09038892847967622,0.006172857807219663,0.7334824884429281
94.0,-0.04029480622970001,-0.05529115475397931,-0.017078844640803725,1.3058558978393755,1.2045306189352218,9.638414291190053,0.09160274062418043,-0.05069915168754665,0.17338466960196897,94.63466698566644,7.644618297222054,-7.115570877211564,-0.6749093440257217,0.09100337145050841,0.007375666397521636,0.7322245283999325
95.0,-0.044760798079444816,-0.05352136415905104,-0.015509229558796828,1.3243181928221268,1.195571859428272,9.63649904173979,-0.004874770521898775,-0.43060380479735316,0.12009799471443845,94.40647897375375,7.7590063850390365,-7.070603224797756,-0.6763460615136476,0.09135848766044305,0.008197211502753737,0.7308465755698521
96.0,-0.040878048780487806,-0.05859933123524784,-0.017589693154996068,1.3700871361132965,1.1887956333595597,9.630605428796219,0.07524095200629426,-0.5662470495672698,0.012263965381589297,94.29004966561763,8.029430566483084,-7.03231461447679,-0.6769763959480726,0.09274267470082613,0.010072749256490952,0.7300636522966166
97.0,-0.04426160503540519,-0.055594020456333604,-0.014536782061369,1.3932492132179384,1.1889824940991347,9.627738198269078,0.17759023406766328,0.09182607199055864,0.12286585365853658,94.29875467151848,8.165975363886703,-7.031580694335169,-0.6768646927966169,0.09351218459638082,0.010953561128245477,0.7300541284305664
98.0,-0.034445318646734856,-0.06224862313139262,-0.0123933910306845,1.3582738001573562,1.195479150275374,9.632107002360343,0.056461447678992915,-0.07261014948859165,0.14187647521636507,94.09647915027537,7.962145948072384,-7.064958693941778,-0.6781935267773408,0.09254867839496461,0.009251854273800158,0.7289675924531863
99.0,-0.04129583005507475,-0.07428245476003147,-0.015868607395751376,1.3642501966955152,1.206052714398112,9.631084185680564,0.15642702596380803,0.14129622344610543,0.2016866640440598,93.91583890637293,7.994094217151849,-7.130566483084186,-0.6793104990479939,0.09317549172541306,0.008947605180173093,0.7278493435074744
100.0,-0.040631392604248626,-0.08610188827694727,-0.022677812745869396,1.3518709677419358,1.2178036978756883,9.630463414634143,0.18702055468135326,0.16561762391817467,0.25046961054287964,93.73517161683714,7.916318351691581,-7.200250786782061,-0.6804607089685288,0.09319893088552322,0.007905937253343823,0.7267849708481511
101.0,-0.057986821400472066,-0.0838180566483084,-0.020843233674272228,1.2549244689221086,1.2238979150275373,9.642517309205349,-0.02861305074744297,0.24009146341463414,0.143871705350118,93.49300378638867,7.348845643194335,-7.2259859362706536,-0.6822138886896143,0.08999954292505902,0.003914839657356412,0.725554621234461
102.0,-0.0526610936270653,-0.07706136900078676,-0.015896931549960663,1.234869000786782,1.2113670338316282,9.646276160503541,0.18668371361132965,0.40359706923682137,0.07683541502753737,93.44938901455546,7.232511309992132,-7.1510412568843424,-0.6825807454923286,0.08883904693095987,0.0035508573928009447,0.7253614399795436
103.0,-0.045821203776553895,-0.07103717545239968,-0.010548583792289536,1.1639716758457905,1.2291837136113295,9.6532653422502,0.2280020653029111,0.2470766129032258,0.2726937450826121,93.17995303894571,6.812212332808812,-7.2524820515342245,-0.6844233069687252,0.0869892556184107,7.517875649095231e-05,0.7238591122527538
104.0,-0.04290656963021243,-0.06717584579071598,-0.012576711250983474,1.1832600314712822,1.234333792289536,9.650144767899292,0.05271071007081039,-0.27631048387096774,0.09667953383162864,93.06404405979544,6.927577940597954,-7.283625098347757,-0.6850903764400078,0.08786548872049568,0.0005243688540519278,0.7231298765981511
105.0,-0.03951376868607395,-0.07099921321793863,-0.013562549173878833,1.237896144767899,1.2160660896931548,9.645104642014157,-0.002802911093627059,-0.4310483870967742,0.07749803304484658,93.04936073957514,7.249449252557041,-7.181127065302911,-0.6851281860062942,0.08915216588040914,0.0031911832415420934,0.7229274947789143
106.0,-0.02449645948072384,-0.060774193548387104,-0.01718410700236035,1.270724626278521,1.2095082612116448,9.64142879622344,0.1604002753737215,-0.4168715578284815,0.05836939417781274,92.9943499213218,7.442019079464988,-7.145500590086546,-0.6853686577482296,0.0900860563808025,0.004592240107789142,0.7225812499889852
107.0,-0.021145927898484934,-0.05467142770683291,-0.02363421695010995,1.3199867760091994,1.1948521757550086,9.636859367749999,0.12341073806209527,-0.2954060879783736,0.3548034053541528,92.89504774909722,7.73467987804878,-7.06410136627731,-0.6859196540001007,0.09128573258215819,0.006867196719552542,0.7218899473627067
108.0,-0.022338502894954506,-0.054543424317617877,-0.02050475599669148,1.3164410669975188,1.1942388337468983,9.637340777502063,0.04784816997518611,0.03970352564102564,0.09822684036393711,92.69039366211746,7.714364919354839,-7.062759770471464,-0.6872293704445822,0.09116503244292803,0.006591401992349048,0.7206621645806452
109.0,-0.02355231596360629,-0.05965880893300249,-0.018272539288668323,1.2673858560794042,1.2119782878411907,9.64114619520264,0.253939205955335,0.06765922249793216,0.20586745244003307,92.48514138751034,7.4213205645161295,-7.159429280397022,-0.6886005000045494,0.09006917167307692,0.003977055306658395,0.7194984640403226
110.0,-0.051375812359683325,-0.06142272243885148,-0.01946269053527118,1.3153718834928507,1.2308326539052346,9.632466530781045,0.13699264445232184,-0.03927906770648705,0.12261258566702113,92.43682352593643,7.707454877112134,-7.284958975835991,-0.6887400421958232,0.09251364852682263,0.005039955883551932,0.7190510454016896
111.0,-0.03672822876048683,-0.0633000708968451,-0.01649344204182914,1.3113109417464255,1.2370332624364881,9.632390523455037,0.20387938674228995,0.2897354661467565,0.35825689767222024,92.20792789200047,7.6793826804915515,-7.314026866950254,-0.6901778163842018,0.0925635820617984,0.004487204965969514,0.7176697294024577
112.0,-0.0522557603686636,-0.06672695852534563,-0.016803379416282644,1.3100326420890935,1.2468268049155147,9.632052995391701,0.112485599078341,0.1610071044546851,0.2310411866359447,91.98354934715822,7.672755856374808,-7.373375096006145,-0.6915641955403227,0.09289599064132104,0.003910382248079878,0.7162947092173578
113.0,-0.049482718894009216,-0.06964170506912444,-0.01496620583717358,1.2898187403993857,1.2424577572964666,9.634889400921656,0.12590005760368664,-0.30684523809523806,0.2508280529953917,91.75145209293395,7.554044258832565,-7.346843798003071,-0.6930786833145162,0.09203382433678957,0.0031197076966205835,0.7149391895360984
114.0,-0.05297926267281106,-0.0678410138248848,-0.010966973886328724,1.255973886328725,1.2421643625192007,9.639815668202763,0.26630184331797235,0.555952380952381,0.5132920506912443,91.43941052227342,7.352400153609831,-7.337812019969277,-0.6951045724354838,0.09076700280952382,0.0016474195176651308,0.713129571768049
115.0,-0.05305448465774981,-0.06373701809598743,-0.016231117230527142,1.219848151062156,1.2614708890637294,9.642049567269861,0.15017210857592447,0.09407700629425647,0.29297674075531077,91.0372590479937,7.140713512981904,-7.446477920928403,-0.697625394722856,0.09018132596341463,-0.0006522537230527143,0.7107398825397324
116.0,-0.047576907946498825,-0.05952596380802519,-0.01343273013375295,1.2250668764752164,1.2586339496459478,9.641649291896137,0.136003884736428,-0.15205178009441384,0.2906114771833202,90.70022497049567,7.173169502360347,-7.431825334382376,-0.6997002732165618,0.09028144602084973,-0.000630256643194335,0.7086917339996066
117.0,-0.02611880409126672,-0.05696616837136115,-0.008070613690007868,1.0786976789929188,1.2545001966955152,9.657196892210855,0.29343036978756887,0.6308627557041699,0.6303833103855232,90.11034864280094,6.315640981510621,-7.394839201416207,-0.7036138652020063,0.08478372932690795,-0.006196533129425649,0.7053683780717939
118.0,-0.026164830841856807,-0.04834461054287963,-0.018298387096774196,1.0084201416207708,1.2685771046420142,9.664370377655391,0.156349577104642,0.23293789339103066,0.29765809402045634,89.70995402242329,5.90088512981904,-7.470900127852085,-0.7062185386276554,0.08269087656392604,-0.009561799435877262,0.7030123862657356
119.0,-0.02140384399235698,-0.04276984751414335,-0.0165284178187404,1.0099689033756696,1.2682735753624816,9.6648889138661,0.10462328125585402,0.17875173279382564,0.22334541605784725,89.5497194747293,5.911924899778951,-7.472118410700236,-0.7071992882840659,0.08274114554943615,-0.00962888063729347,0.7020583588250722
120.0,-0.011509947173204454,-0.049969502828668855,-0.020950282866883968,0.926963995354239,1.272979431268967,9.672514480536513,0.19128685699299391,0.1339126484582818,0.1726138960698363,89.40888314413098,5.425931962084597,-7.494925255704169,-0.7081960181443931,0.07989024424914766,-0.012904422585365855,0.7013365926194596
121.0,-0.023843093177475558,-0.05228608894383875,-0.022387021842568657,0.9752129182121313,1.2736140272001801,9.667193510921283,0.09202914840208311,-1.2142936757708593,-0.1143962384324304,89.48060207560601,5.710605634858192,-7.498052714398112,-0.7076805757913152,0.08168704644794128,-0.011088578204563333,0.7016735080524521
122.0,-0.021523472331497512,-0.06028095612753363,-0.024660035217863696,1.107217001985688,1.2742108201266347,9.651491738788355,0.12651572627477425,-1.1891583305233975,-0.33048195084485404,89.50572290285115,6.4865806826271015,-7.51664933872841,-0.7072353526813532,0.08652870957723578,-0.006361327831441308,0.7015535280073433
123.0,-0.02753330710726462,-0.05615018170919036,-0.022568862163276013,1.3041466973886329,1.2909720692368216,9.623257202802442,0.08055418961447679,0.27165851785245954,-0.2777262232587764,90.12615558615263,7.642297731445056,-7.639021814469297,-0.7029158984930874,0.09432516328267956,0.0006465716125473009,0.7048378788270202
124.0,-0.02922057060432355,-0.07584774830467197,-0.0182759825409314,1.2566847158218126,1.2983385691806224,9.630713086808283,0.1690837384324304,-0.07648832939942302,0.17374729543666403,90.08009488217002,7.360482583080438,-7.673240745944326,-0.7033454637334868,0.0928736988886516,-0.0013965415646940917,0.7046671616661981
125.0,-0.015351910612335472,-0.07008568143107875,-0.020376721626131543,1.3056396077041241,1.294499206012975,9.626125360608444,0.04296114651150058,-0.4364761746252699,0.19246000524521373,89.9634603856673,7.649173518587366,-7.655796861805909,-0.7039603488164952,0.09451921761181961,0.00042582689248752835,0.7038791938184175
126.0,-0.019605931702705897,-0.06409712867777384,-0.022326834455866716,1.3724649651423848,1.279093820158337,9.61904301075269,0.09975555358619874,-0.6159170802315963,0.09912634408602151,89.92077425262909,8.045820040174878,-7.568245598487534,-0.7040923174082478,0.09640731613635828,0.0033727769844026944,0.703492382518965
127.0,-0.0462737799834574,-0.05934119106699752,-0.02003131277324826,1.439942159990547,1.281707432352594,9.607635944700462,0.020528698452085548,-0.041267871913033244,0.00359543010752688,89.98243973768167,8.444549805033676,-7.594933091102446,-0.7034950638892238,0.09897560740688882,0.005796333233368782,0.7036827687917404
128.0,-0.02066377171215881,-0.05928887510339123,-0.020133167907361457,1.4285547973531842,1.2791294458229947,9.610311827956991,0.1903574751861042,-0.08632133995037222,-0.11644825268817204,90.03954456162117,8.377977667493797,-7.573200992555831,-0.7032151224745657,0.09843966291004963,0.005491649757237387,0.7040734384588503
129.0,-0.05332382133995037,-0.05251943755169561,-0.023905293631100083,1.4380959470636887,1.2771050454921427,9.608010752688173,0.1362825682382134,1.0706498138957818,0.4714381720430108,90.01306865177833,8.425379962779155,-7.5624069478908185,-0.7033378834267991,0.09866387002357321,0.00588992282216708,0.7038684630479735
130.0,-0.04108870967741935,-0.05193548387096775,-0.016620967741935486,1.1676451612903225,1.265225806451613,9.643370967741937,0.058014112903225806,1.2945060483870967,0.4726814516129032,89.31733870967741,6.836139112903226,-7.47258064516129,-0.7082406811129034,0.08831924957258064,-0.003987466161290322,0.7002024989193547
131.0,-0.04776612903225805,-0.060129032258064506,-0.024306451612903228,0.9621048387096773,1.2449999999999999,9.669725806451613,0.015272177419354835,0.6488407258064516,0.4412802419354839,88.71401209677418,5.631502016129032,-7.333366935483871,-0.7123925488145161,0.08001856627419356,-0.011065231153225809,0.6969195452580643
132.0,-0.028650472069236807,-0.06316640440597954,-0.021556058221872544,0.8092315106215577,1.2348666404405977,9.685509047993705,0.056461447678992915,0.7753270062942565,0.6959714299763965,88.07724478756884,4.731376622738002,-7.262132425255704,-0.7165718170806452,0.07393718764555468,-0.01658666515873328,0.6932392541500785
133.0,-0.04948249409913454,-0.06456707317073171,-0.012386900078678207,0.7975955940204563,1.246376868607396,9.686810975609756,0.19194040125885128,-0.26112681943351684,0.34533954563335956,87.50369295830055,4.663697383949646,-7.330133752950433,-0.7200436175967742,0.07388002274213216,-0.01780962376888277,0.6896760905952006
134.0,-0.050070023603461834,-0.06941286388670338,-0.016454169944925254,0.9061778127458694,1.2563292682926832,9.676152635719905,0.14648652635719905,-1.865401258851298,-0.2525299960660897,87.37990017702596,5.304487116443745,-7.393703284815105,-0.7205928596376869,0.07829924780094416,-0.014426499328678207,0.6887003869091266
135.0,-0.05077694728560188,-0.07129110936270652,-0.014779504327301338,1.0694921321793864,1.2694791502753737,9.65631825334382,0.02520898898505114,-0.22377925845790725,0.019450727773406756,87.59141178206137,6.261467348544453,-7.48651898111723,-0.7189761946011015,0.08484393827143981,-0.009015164595790716,0.6896766972529503
136.0,-0.04388040912667191,-0.0731294256490952,-0.011780881195908734,1.1218186467348543,1.2525137686860737,9.653876868607398,0.021828284815106215,-0.15183418568056647,0.01622738001573564,87.5825506490952,6.567023996852871,-7.388370377655389,-0.7189583904940993,0.08616370018410699,-0.006550315745476003,0.6896005723280881
137.0,-0.053755310778914246,-0.08040578284815106,-0.011652045633359559,1.1037047600314713,1.243634539732494,9.657873131392607,0.09893046813532651,0.22345839889850505,0.20782848151062155,87.45947949449251,6.460346184107001,-7.331213119590872,-0.7197648916986625,0.08516615255625493,-0.0069423331780094424,0.6889060373536584
138.0,-0.06771636506687648,-0.07875531077891423,-0.012346184107002361,1.0564047993705743,1.2411317859952786,9.663295436664043,0.055463217938630995,-0.25505507474429584,0.18476101494885916,87.19861575531078,6.183197285601889,-7.313943253343823,-0.7214268766396539,0.08332748877812746,-0.008701879665617626,0.6873639574107001
139.0,-0.060970692368213994,-0.08049095200629426,-0.01011880409126672,1.1341229346970891,1.2450466168371357,9.653783831628637,0.16222216758457908,-0.7109018489378442,0.025676140833988975,87.16854469905586,6.6411904996066085,-7.344668322187253,-0.7214540698776553,0.08635367649370573,-0.0061168538099921335,0.6869931113882766
140.0,-0.058668333895320515,-0.07114985388333148,-0.008905024165449029,1.2023320126634447,1.2454136694016702,9.645453551759017,0.07417463985987786,0.2145999587876063,0.25843378854295457,87.1077566525233,7.039990891124349,-7.35048916301375,-0.7216890699676295,0.08885582925798957,-0.0037544222652111207,0.686439584249438
141.0,-0.0473893778657744,-0.07354215192098748,-0.009460576598853548,1.2154140418983064,1.2263731911938045,9.64609433171077,-0.05169279276650442,-0.1420602873555765,0.233859160607292,86.91033187775048,7.119168315702787,-7.235123613764939,-0.7228664536765361,0.08865873147638934,-0.0027432072090116813,0.6852443094449218
142.0,-0.0379204953845001,-0.06698075337984859,-0.009573030234910644,1.2156908919168952,1.2054043375323857,9.649127811016674,-0.14074054960905866,0.21190836438672786,0.025548531916549225,86.60851775339137,7.1171698433352635,-7.1107573713985985,-0.724708914636655,0.08792500588335594,-0.0021819438141832603,0.6833938607264931
143.0,-0.04732718317612102,-0.0701879573350856,-0.012838934472294032,1.0892204459584476,1.2006497494113542,9.66435019583092,0.14782528971159972,0.1769219241288478,-0.3494233146868867,86.56973266701827,6.374411534570857,-7.070701266344461,-0.7252169518586501,0.0830293588045812,-0.006473682120801308,0.6834117527059886
144.0,-0.050661231241876395,-0.056610894481862226,-0.011447004608294932,1.080124778447359,1.2128166134940326,9.664354484225454,0.2575623301429753,0.21641631218244123,0.0632554945054945,86.77124025168379,6.31760014179369,-7.145382104454685,-0.7240182180788137,0.08311265471700344,-0.00714167452853598,0.684684038423018
145.0,-0.06481141439205956,-0.05233540115798181,-0.01114516129032258,1.066174524400331,1.2124904880066172,9.6665459057072,-0.001599979321753514,-0.08048232009925559,-0.005229011579818043,86.72801643920596,6.237347497932175,-7.142641129032258,-0.7242949000463192,0.08259575675558314,-0.007647892092224979,0.6844632713428453
146.0,-0.04743548387096774,-0.05474999999999999,-0.013024193548387098,1.0753709677419354,1.211790322580645,9.665677419354843,0.15922379032258066,-0.3090221774193548,0.005393145161290316,86.80771169354838,6.291481854838709,-7.138659274193548,-0.7238212344193549,0.08291931097580646,-0.007220458975806451,0.6849397726209678
147.0,-0.044255760368663584,-0.057109062980030725,-0.01692319508448541,1.119927035330261,1.2050149769585254,9.661485023041482,0.08465101766513057,-0.3026761712749616,0.24574212749615976,86.88225806451612,6.558282930107526,-7.1078076996927795,-0.7232936947169739,0.08437394469354839,-0.005349605133640553,0.685334508595238
148.0,-0.04058677082162526,-0.0549378910494174,-0.02381328912367465,1.177617333558128,1.206202512082724,9.654263656288638,0.20308045080738824,-0.5402745775729647,-0.002002313513918552,86.82968381195909,6.899439827563597,-7.117789938556067,-0.7234869304644076,0.0865815784478757,-0.0033901688807463195,0.684864325820239
149.0,-0.04031335468884642,-0.06054939867371024,-0.024034140721591546,1.2767193810647783,1.2292297122625602,9.63826950095538,0.39827961672473866,-0.22051891321044548,0.24740034093889327,86.9489888913866,7.481206328912368,-7.2541906682027655,-0.722452356626597,0.09105754237773968,-0.000628358349359335,0.6853501455610411
150.0,-0.03765146491326664,-0.05957898729908957,-0.021914493649544793,1.3321523734592184,1.2575797459817917,9.6266021973699,0.12611782763852986,0.1743657155033532,0.11595282585890375,86.83854956961147,7.811385274999063,-7.4331449505451275,-0.7229051488353284,0.09417089675191073,0.0001589553500056196,0.6844613451659454
151.0,-0.03105222734254992,-0.0641058783859728,-0.021671349893222433,1.1461355887752425,1.2526565134314933,9.649904462178267,0.12738142070360797,0.6237577741560826,0.24173059270915287,86.35861573189464,6.710080176838634,-7.382776497695852,-0.7261983894732309,0.08693639903282004,-0.006540297614926381,0.681828186965644
152.0,-0.036417818740399385,-0.05935094226518302,-0.020053800906672657,1.0960685624367765,1.2539757221535348,9.656546701135216,0.141062062118317,0.23235219736989998,0.22706249297516015,86.10047722078603,6.41821213143007,-7.386155913978495,-0.7278598165446032,0.08514097898415196,-0.008538720282117569,0.6803064270987973
153.0,-0.030248248473268142,-0.0627494286463602,-0.016764902026900452,1.0766338091491514,1.251906035742385,9.660659660559743,-0.021802761230377277,0.09520835674946612,0.20568801281330784,85.89830607695478,6.301193988610393,-7.369287634408602,-0.729131028823049,0.08431330166280768,-0.009301590993143757,0.6790591301119476
154.0,-0.03743902439024391,-0.07122187254130606,-0.015740361919748227,1.0029874114870183,1.2497686860739576,9.668788355625496,0.17077104642014163,0.583044846577498,0.34969020456333594,85.58519374508262,5.872251180173092,-7.358266129032258,-0.7311154880259638,0.08143277391896145,-0.01203125353343824,0.6772421943186466
155.0,-0.030520456333595604,-0.06679976396538159,-0.021361919748229742,0.972698269079465,1.2364382376081826,9.672320220298982,0.06440794649881984,-1.0688188434303698,0.06785749409913454,85.33006245082612,5.695306353265146,-7.277559500393391,-0.7326971312018096,0.07981130597678993,-0.012752875686467354,0.6757170601703382
156.0,-0.02342309205350118,-0.0552094807238395,-0.018898898505114087,1.0793271046420143,1.239245869394178,9.660790322580644,0.0670190794649882,-0.35263817859952795,-0.08433443154996065,85.31242992722267,6.318566827301337,-7.3066101986624705,-0.7325675946882377,0.08395658848800158,-0.009188113095003936,0.6753990071622737
157.0,-0.04666365066876475,-0.065242525570417,-0.013808811959087331,0.9553992918961447,1.2660928402832412,9.668529307631788,0.605441089693155,2.2425095889063726,-0.20307705546813531,85.52760006884344,5.590406176239182,-7.458746803697876,-0.7314784089842643,0.08024537247088905,-0.01437540844708891,0.6768705535918568
158.0,-0.03817475928215504,-0.06596938106477838,-0.009505020418867784,0.7599173878835561,1.3463041006331722,9.674395798209138,0.37303064469296765,-0.2724892051627892,0.34348715390955753,85.28582504402232,4.447639244033569,-7.916584183338953,-0.7330181397129463,0.0756324956352141,-0.024289683696086695,0.6754002901390543
159.0,-0.05855396950282868,-0.06328864598553818,-0.007951434940616687,0.8037044696714248,1.3835954066913938,9.666706155632987,0.07301565836798922,-0.21984915327263876,0.20295037418980183,85.11150651202652,4.705392442677307,-8.138540027537372,-0.7339142643098141,0.07856684828995728,-0.024298415658911242,0.6741466697219849
160.0,-0.07018021055786595,-0.07583305233973997,-0.004803117155595519,0.8858191899891348,1.4010404256116291,9.657714210782657,0.14266747218163425,-0.7687094900902925,-0.2130329511820464,85.07495504102506,5.1821470720467575,-8.248819826907946,-0.7339465230721967,0.08226248441946724,-0.02216256296242179,0.6737708742474992
161.0,-0.06259525682814432,-0.08057997077666629,-0.003117155595519089,0.9392847776404032,1.3926199842643587,9.654471544715449,0.03484788880146865,0.02112369337979103,0.21343570866584244,85.03164456183731,5.494361395226855,-8.201182046382675,-0.7341410806687647,0.0839590013311603,-0.020026426197220035,0.6734418501506125
162.0,-0.06115207373271889,-0.07647409239069348,-0.008462590386272525,0.9819437263497057,1.3813139260424858,9.65207054812484,0.035667453448728036,0.15378076879847144,0.2752859109812296,84.95342062867633,5.744426960398636,-8.13766812783335,-0.7345602871439811,0.08516559531939605,-0.01819329250065565,0.672897235264134
163.0,-0.0540180210557866,-0.07366846502566407,-0.00338765876138024,0.9573369300513279,1.3765975422427035,9.656345959312127,0.1085618747892548,-0.14152125248211003,0.04103794350155483,84.77266447491664,5.6018636900078675,-8.10658672398936,-0.7356908621881907,0.08404012440185832,-0.018979057054063164,0.671798474793376
164.0,-0.061882282417294224,-0.07361282829418156,-0.0038522348357124124,0.8992548049904463,1.3636274399610362,9.663719605859656,0.033250908545951814,0.2743644861563823,0.23565996028623878,84.58738432430408,5.262691543966131,-8.024385560675883,-0.7368932563343449,0.0813612556858117,-0.02061000643775055,0.6707570281330785
165.0,-0.05293956764452438,-0.07618092240830242,-0.001886778314787756,0.8270349556030123,1.346994679854633,9.672351541718186,0.06997911280956128,0.37152036266906446,0.15844760406129405,84.3933430276123,4.838294041062531,-7.920434322430781,-0.7381998855668577,0.07797615797272489,-0.02259631195609007,0.6696528421192537
166.0,-0.03579543666404406,-0.06899291896144769,-0.007493312352478364,0.8317340676632572,1.3345979543666404,9.67328560188828,0.03125491738788356,-0.5029110936270653,0.21772226593233673,84.32330841856805,4.866070023603462,-7.8500885129819045,-0.7386288955169158,0.07775633052399686,-0.022032711852084975,0.6692363120204563
167.0,-0.01396223446105429,-0.06545712037765539,-0.007784421715184894,0.9400802517702596,1.3218867033831627,9.663828481510627,-0.027439024390243906,-0.39296813532651453,0.16342446892210857,84.47532454760031,5.50060975609756,-7.778924075531078,-0.7375655970920536,0.08144389107631786,-0.01768460780802518,0.6700542792368214
168.0,-0.020298190401258846,-0.06255546813532652,-0.009335169158143194,0.8831738788355624,1.3038237608182532,9.671701022816684,0.2035405192761605,-0.21652242328874902,0.3818745082612116,83.9544895751377,5.166517505900865,-7.668754917387883,-0.7407455577836349,0.07855214058221872,-0.019313938995279306,0.6668031605790715
169.0,-0.03147167584579072,-0.06674272226593234,-0.01220967741935484,0.9089181746656175,1.3063524783634932,9.669032258064522,0.09204858379228953,0.17376081825334383,0.20998229740361918,83.64225757277734,5.321560287175452,-7.685115066876475,-0.7425099894645948,0.07958355329583006,-0.01876608021361133,0.6647643059016521
170.0,-0.046879032258064515,-0.06319354838709679,-0.010620967741935484,0.913016129032258,1.3018709677419356,9.670387096774196,0.08941532258064516,-0.11088709677419355,0.13306451612903225,83.45781249999999,5.342993951612903,-7.656552419354838,-0.7435950003145162,0.07953569988709676,-0.01858052954032258,0.6635904126290322
171.0,-0.04750806451612903,-0.06904032258064516,-0.007298387096774192,0.9329999999999998,1.3008064516129032,9.667943548387097,0.1029233870967742,0.9382560483870968,0.45947580645161284,83.3462197580645,5.454989919354839,-7.649395161290322,-0.7442349341935485,0.08019345216129031,-0.01797682283064516,0.6628079811370968
172.0,-0.03675,-0.07403225806451612,-0.006096774193548387,0.7759274193548387,1.3037096774193546,9.680967741935483,0.0705141129032258,0.30962701612903226,0.32384072580645157,82.75962701612903,4.538306451612903,-7.658266129032258,-0.7478589452338711,0.07416923286290322,-0.02376669621774194,0.6591891380322581
173.0,-0.05212903225806452,-0.08224193548387097,-0.009846774193548388,0.8425887096774194,1.3010080645161293,9.676241935483873,0.06950604838709677,-0.6410786290322581,0.18245967741935484,82.69400201612902,4.92641129032258,-7.651310483870968,-0.7481387716451613,0.07665592303225807,-0.0214745795967742,0.6586991334354838
174.0,-0.049491935483870965,-0.08255645161290323,-0.008040322580645161,0.9262661290322581,1.3038225806451615,9.668661290322586,0.24798387096774194,-0.4329133064516129,0.05735887096774194,82.59919354838709,5.417086693548386,-7.673891129032258,-0.7485498233870966,0.07996904907258066,-0.01884455491935484,0.6579296477016128
175.0,-0.05265322580645161,-0.07591935483870968,-0.009814516129032258,0.977967741935484,1.2907096774193554,9.665298387096778,0.03306451612903226,-0.3370967741935484,0.09390120967741934,82.41083669354839,5.720866935483871,-7.600907258064517,-0.7495571504677419,0.0815246580967742,-0.016711376427419357,0.6566611506451612
176.0,-0.051500000000000004,-0.07211290322580646,-0.005870967741935484,0.9305725806451612,1.2747016129032263,9.671975806451616,0.08810483870967742,0.11476814516129025,0.2829133064516129,82.10110887096775,5.441129032258065,-7.498084677419355,-0.7514535223387095,0.07906257847580647,-0.017884777669354836,0.6547602009032256
177.0,-0.03456336405529954,-0.07276267281105991,-0.00850768049155146,0.9283298771121351,1.2659823348694317,9.673938940092167,0.01277601766513057,0.021025345622119787,0.24137624807987712,81.91748991935484,5.430472350230415,-7.450237615207373,-0.7525457865207372,0.07866517489631336,-0.01777064107795699,0.6535687000291857
178.0,-0.0008551478026301001,-0.06489844891536473,-0.014988104604548348,0.9875729834026453,1.246013197332434,9.66992708216253,0.00667629069723877,0.2958367286725862,0.6996140435914727,81.63425944138473,5.780814459930314,-7.335138600089918,-0.7540990785323983,0.08027658864131165,-0.01521736532861264,0.6516379194726967
179.0,-0.021609025514218286,-0.06363470832865009,-0.012679536173241916,0.8886332658948709,1.2368977276984747,9.680169186242559,0.18297524212281296,-0.6028880872766101,0.34196932018283316,80.88759343036978,5.201798358997415,-7.2748777677868945,-0.7584746955363604,0.07600265062307518,-0.018615929769145025,0.6468864496194129
180.0,-0.028739996628076882,-0.062446386422389574,-0.017638155183395152,0.9721553426248548,1.2503480573976244,9.670306367314831,0.11847854848076131,-0.04587448718669218,0.19149877299464238,80.71063139260424,5.687139098853546,-7.36112840002248,-0.7593165067520511,0.07968865727927951,-0.016543092348282187,0.6455473525718031
181.0,-0.029688546701135216,-0.0680538383724851,-0.012012625978794352,0.9103800906672661,1.247561125473006,9.6772459255929,0.15694592746618713,-0.2859664774643138,0.1516969671424825,80.41519472856018,5.322223783297741,-7.340997667753175,-0.7610917030695739,0.07712504524851072,-0.01867090269027013,0.6437165612859015
182.0,-0.023588512981904012,-0.0714209284028324,-0.012152242328874904,1.0189819040125883,1.2587029897718334,9.664874114870182,0.11491689614476791,-0.3336226396538159,0.009729051927616056,80.53743607395751,5.9624655782848155,-7.408229248623131,-0.7601507943804091,0.08178660746066088,-0.015398881334382372,0.6443365161007081
183.0,-0.03756451612903225,-0.0805806451612903,-0.006508064516129031,1.0735806451612904,1.2673467741935487,9.658209677419352,0.2009576612903226,-0.30882056451612905,0.1044858870967742,80.44465725806452,6.282762096774194,-7.470514112903226,-0.7605480563467741,0.0842375232983871,-0.014048225225806451,0.6436080930000001
184.0,-0.03512903225806451,-0.06843548387096775,-0.01392741935483871,1.119814516129032,1.270346774193549,9.653080645161287,0.11239919354838711,-0.3026209677419355,0.1339717741935484,80.37449596774194,6.554082661290323,-7.4936491935483875,-0.7608387110887096,0.08613783272580645,-0.012710079217741931,0.6430587271451613
185.0,-0.030395161290322582,-0.06019354838709679,-0.01383064516129032,1.2102499999999998,1.2733629032258067,9.642338709677416,0.15463709677419354,-0.683366935483871,-0.2272681451612903,80.48422379032257,7.087247983870968,-7.518598790322581,-0.7600117346290323,0.08979487286290322,-0.009766314387096773,0.6435747208145163
186.0,-0.03131038552321007,-0.06504032258064517,-0.01701121164437451,1.2355735641227379,1.269185287175452,9.639074940991348,-0.0690007867820614,0.4585193745082613,0.10782110542879625,80.62247738001574,7.236178452006294,-7.497198318253345,-0.7591881972537373,0.09061560848426436,-0.008654615274980331,0.6444380347014163
187.0,-0.055604531057717524,-0.060958850289495464,-0.01651315338215417,1.2082090318545862,1.2522640662510842,9.64435271036333,0.03965955284552845,-0.05506490952006288,0.13197222558453872,80.54570674211705,7.076319814299259,-7.393982094403761,-0.7597423563532955,0.08899067625453913,-0.008938862100062537,0.6440216492677882
188.0,-0.025076459077245865,-0.06078990901571547,-0.01081302830398031,1.1543383868950348,1.2497046137707035,9.651144097117147,0.25082776029373194,-0.41125221282454755,-0.011080419465795147,80.29246022589723,6.760135713601242,-7.374032377847042,-0.7613104856363252,0.08677005908291473,-0.01081853973551514,0.642433803004862
189.0,-0.031014626076781866,-0.0618361425487704,-0.010606750186608567,1.2023247796001535,1.2648554540135974,9.642779267283984,0.06663757212168894,0.27417142014162077,0.10678460832375074,80.2884944471343,7.043690865258528,-7.468361463313764,-0.7611731145362979,0.08916849812052896,-0.009810651534063627,0.6422911187756412
190.0,-0.030068288648147035,-0.07375746938610825,-0.01351187233956707,1.162652161633279,1.2719887026165546,9.646797776836323,0.08765407815368476,-0.3335513375295043,0.13180251265912163,80.11893496943654,6.808794685186306,-7.5024082591942545,-0.7621910363719058,0.08780953050105914,-0.01151902747906958,0.6412390334947244
191.0,-0.03201290120841656,-0.08308251124694868,-0.009458532550586053,1.2356887873469304,1.2766237769573725,9.636644364421308,-0.006772882244951477,-0.32214053894571204,0.11714043807621699,80.11515690249954,7.238509262341383,-7.541010384514514,-0.7620122547477153,0.09085244557704411,-0.00931386323206036,0.6410632835648289
192.0,-0.029351888276947284,-0.08605940204563334,-0.009634146341463416,1.282510818253344,1.2729724626278525,9.6317448859166,0.17994197482297403,-0.27552247246262784,0.16319458103855233,79.99010621557828,7.516531028717545,-7.523001081825333,-0.7625982580607789,0.09259380295889061,-0.007742102773406767,0.6401483289398111
193.0,-0.03147915027537372,-0.08785995279307632,-0.01153422501966955,1.2984893784421718,1.2741070023603467,9.629417781274586,0.058221872541306056,-0.19172895357985836,0.05005900865460268,79.96434893784422,7.606264752163651,-7.531077891424076,-0.7627240294020456,0.0932539872619984,-0.007289739284028324,0.6399186536349333
194.0,-0.025339103068450046,-0.08808025177025963,-0.012948859166011014,1.3317073170731706,1.2647993705743512,9.626404405979542,0.04141424075531078,0.009470889063729351,0.15208497246262787,79.9090283241542,7.802173485444532,-7.480684500393391,-0.7629505842297404,0.09425196709677422,-0.005864868673485445,0.6395146497214792
195.0,-0.03876317859952793,-0.07918174665617624,-0.013638080251770258,1.4321715184893784,1.2612116443745083,9.61151062155783,0.028353658536585367,-0.12245279307631787,-0.15586152635719905,80.25319630212431,8.394079464988199,-7.471656176239181,-0.7607306336333597,0.09810765069236821,-0.002099071575137687,0.6415447530432732
196.0,-0.04488700310966243,-0.08628376606346708,-0.008076392791577684,1.2987559476977255,1.2685049267543367,9.628425499231952,0.2662819396051104,-1.0717378985425798,-0.23259197856955527,79.87179550222922,7.6111739444007345,-7.50379997002735,-0.7631963997465063,0.09305305077891425,-0.007095346959312128,0.6392746007099397
197.0,-0.043148458281817834,-0.06081851560451089,-0.020134970589337227,1.4899483908433555,1.2659251620396388,9.599961766138396,0.013628774680603944,-0.5771700901052789,-0.08173658723914427,80.3788953907684,8.741606838447417,-7.507569733243415,-0.759808144621483,0.1005324004343037,-0.00021524514763403453,0.6421601950426172
198.0,-0.0335671481023566,-0.057364411224757425,-0.024306667041324788,1.5304612135176652,1.2509885448278444,9.596818805964556,0.09467335665580158,-0.33974554859315875,0.12954378348506987,80.28876909585628,8.977141932205612,-7.42179234105129,-0.7602522166230938,0.10162440306530289,0.0016011887117848712,0.6415401722215447
199.0,-0.039948896631823466,-0.0555289798059271,-0.013600914165823683,1.5903717357910905,1.2536192724139221,9.587187628788726,0.1171703476827395,-0.07685362107077293,0.18568923045221236,80.23362345921845,9.32765866771571,-7.444212702783709,-0.7603613493599342,0.10408346450039335,0.003412726400247274,0.6410448331389982
200.0,-0.033596006144393245,-0.0633978494623656,-0.017665130568356373,1.5585407066052228,1.2498694316436247,9.593492319508451,-0.017516321044546854,0.21763632872503838,0.33389496927803375,79.90668682795699,9.139448924731182,-7.418639592933948,-0.7623086152826422,0.10272421209677418,0.002169659440092166,0.6389728929086022
201.0,-0.03185483870967741,-0.0686451612903226,-0.015629032258064515,1.5730483870967742,1.2475806451612899,9.591895161290324,-0.009324596774193547,0.34294354838709673,0.23059475806451613,79.79107862903226,9.225302419354838,-7.4046875,-0.7629262612580645,0.1032018849032258,0.0026382442500000004,0.6381668092338709
202.0,-0.0372016129032258,-0.07579032258064516,-0.013112903225806449,1.4950725806451612,1.2351532258064513,9.605927419354842,0.15292338709677422,0.2253024193548387,0.2375,79.42288306451613,8.767389112903224,-7.3191028225806445,-0.7652476641532258,0.09970831131451613,0.00026284494354838735,0.6359402072419355
203.0,-0.04801612903225806,-0.07029838709677419,-0.01475,1.554975806451613,1.2377499999999992,9.59543548387097,0.05519153225806452,-1.0703629032258064,-0.2704133064516129,79.55594758064517,9.127016129032256,-7.344354838709677,-0.7643066403709676,0.10219332760483871,0.002277251274193548,0.6366324644919354
204.0,-0.037338709677419354,-0.07736290322580645,-0.016870967741935486,1.546241935483871,1.2431290322580644,9.596508064516133,0.014112903225806458,-0.017237903225806428,0.2092741935483871,79.5155745967742,9.07358870967742,-7.378377016129033,-0.7645443826048384,0.10205772133064517,0.001738173201612903,0.636401859798387
205.0,-0.03615322580645161,-0.07211290322580645,-0.017637096774193547,1.5531451612903222,1.2169435483870967,9.59877419354839,0.036038306451612906,-0.04067540322580645,0.33442540322580644,79.23019153225806,9.110987903225807,-7.220715725806452,-0.766165702629032,0.10146592631451613,0.0027283701370967744,0.6345521006854837
206.0,-0.034741935483870966,-0.06479032258064517,-0.020088709677419353,1.5569838709677417,1.19508064516129,9.60196774193549,0.10166330645161291,-0.20730846774193548,0.26376008064516127,79.04299395161291,9.13719758064516,-7.089465725806451,-0.7672588719919354,0.10091139285483869,0.0035575127177419367,0.6333200271854837
207.0,-0.02300806451612903,-0.0532741935483871,-0.021862903225806453,1.5382177419354839,1.1841209677419355,9.606233870967747,0.2234375,0.21083669354838713,0.14899193548387096,78.82615927419354,9.020110887096774,-7.019858870967742,-0.7685495681935484,0.09976914919354837,0.0031505957580645165,0.6319388110967742
208.0,-0.020250000000000004,-0.05256451612903226,-0.023435483870967746,1.5216693548387097,1.188185483870968,9.608516129032264,0.13568548387096774,-0.16885080645161288,0.2558467741935484,78.66139112903225,8.924949596774194,-7.0418850806451605,-0.769509739483871,0.09927156489516129,0.002320222161290323,0.6308535666774193
209.0,-0.03987903225806451,-0.04996774193548388,-0.020193548387096777,1.6206290322580648,1.213177419354839,9.587661290322583,0.03432459677419354,0.17671370967741934,0.34203629032258065,78.93074596774193,9.511844758064516,-7.203780241935483,-0.7676153856774195,0.10402630208064514,0.004819907145161289,0.6323192968387098
210.0,-0.020153225806451607,-0.05990322580645162,-0.022056451612903233,1.5805241935483874,1.2131612903225804,9.594588709677424,0.23971774193548387,-0.09475806451612903,0.23054435483870966,78.46915322580645,9.272177419354838,-7.203125,-0.7702894640080646,0.10245321937903226,0.0030530871209677414,0.6293459493548388
211.0,-0.02600729646697389,-0.05900076804915516,-0.021975038402457757,1.5511943164362523,1.2181586021505373,9.599183947772662,0.03966493855606759,-0.3297523041474654,-0.021442972350230433,78.23572388632871,9.101159274193549,-7.231048387096774,-0.771664379891321,0.1014498381516897,0.0017049391328725035,0.6278487996908602
212.0,-0.038234863811771755,-0.051214388745269956,-0.02231983627439961,1.600610336817654,1.2079759375819563,9.59211724926005,0.13309220570604324,-0.4674381111610655,0.00829282342362593,78.13295832396688,9.396243115656961,-7.1744013080251765,-0.7720962559978832,0.10310891014911396,0.0036303469391742527,0.6270483206700762
213.0,-0.020703289498332767,-0.041003634183807286,-0.025741055037278485,1.5934725562923837,1.19766863362182,9.595016138398716,0.11223539769959912,0.11904574575699672,0.10664321540968866,78.02796249203851,9.35081628638867,-7.110406422108576,-0.7727330785809636,0.10247301498073319,0.003704458523481697,0.6263767320287833
214.0,-0.016709433891573935,-0.043385963433367064,-0.030220252144917765,1.5356056723240044,1.1885201940729084,9.605833108538464,0.06976467957363905,-0.07817874002472744,0.2201691932673935,77.78755151549211,9.008732051534224,-7.044560139653816,-0.7742490864812765,0.0998432579971526,0.002011496087763665,0.6249368744167324
215.0,-0.007298265332883741,-0.04547120752313516,-0.029823835749878243,1.5384318684200666,1.189155258326777,9.605989134914395,0.035966009141658234,0.28923724289086206,0.4458960885691806,77.41252575774604,9.019915420928402,-7.051337529504327,-0.7762800476801544,0.0999617692566408,0.0017264800680753811,0.6223929501922372
216.0,-0.02584421715184894,-0.05508890637293471,-0.028236034618410698,1.5486498819826906,1.1951313926042486,9.602675059008659,0.30911683713611326,0.41490952006294257,0.20454366640440597,77.37191188040913,9.0787077104642,-7.089378442171518,-0.7764521852509835,0.1005793102281668,0.0017572272682926829,0.6220658849724627
217.0,-0.020385523210070804,-0.05729583005507474,-0.026655389457120378,1.4708756884343033,1.2269032258064514,9.610339889850513,0.19439417781274587,0.050472069236821404,0.4298829661683714,76.86984657749802,8.624577104642015,-7.270289142407552,-0.7793192096514556,0.09845885458772621,-0.0024203481479150284,0.6187640226168372
218.0,-0.025875688434303695,-0.05588237608182534,-0.023827301337529506,1.492342643587726,1.2340393391030684,9.606100708103856,0.12316581431943352,-0.7774193548387097,0.19786339496459482,76.67053501180172,8.756785995279309,-7.314221085759245,-0.7803077463214005,0.09958399764634146,-0.002151277607395752,0.6173613184437451
219.0,-0.04290322580645162,-0.04191129032258066,-0.026201612903225813,1.647766129032258,1.2220967741935485,9.58151612903226,0.15635080645161292,-0.04516129032258065,0.48623991935483873,76.58608870967741,9.674193548387098,-7.262903225806452,-0.7802581291048385,0.10550236794354836,0.0031764371129032257,0.6164097937419355
220.0,-0.021735641227380018,-0.05013808025177027,-0.02320338316286389,1.555971479150275,1.221775963808025,9.597459087332812,0.14243951612903227,0.16324744295830054,0.29550304878048783,76.11687647521636,9.128882277734068,-7.2484608575924465,-0.7830846851258851,0.10172728434343034,-0.00011228015499606609,0.6134638255320614
221.0,-0.031417743808774504,-0.05192426286014014,-0.022602843655164667,1.628805440035967,1.2592775748379603,9.580550204188683,0.41012384792626727,-0.27600396669289273,-0.2747379149338728,76.16795004636394,9.562324203383163,-7.481560497920647,-0.7824725978789948,0.1059174406582743,0.0007167316797984344,0.6135464776521673
222.0,-0.16122578771870666,-0.1502662226967892,-0.010017000112397452,1.3981946161627514,1.2813434491026938,9.604603583604963,0.5892242469371698,1.3888260555992658,4.693444009684912,73.88915487664381,8.193080005900866,-7.593232796167247,-0.7947262145871175,0.09667219467079725,-0.009260819987205425,0.5979256683349349
223.0,-0.0667771346146641,-0.06583187216664793,-0.022289676295380454,0.7957471900640665,1.3256365160541006,9.651494651755275,-0.0484949280656401,3.279349839365329,1.6595029106253043,71.45393830083174,4.657136359166011,-7.808699034787007,-0.8082364449716666,0.07245222164430894,-0.030757227161777378,0.5816206782566689
224.0,-0.026780188078378477,-0.07639016897081413,-0.013450601326289755,0.5765347870068561,1.3035817316698515,9.681927990708477,0.26546167247386754,1.8454301075268815,0.2643704806863738,70.16836433629314,3.3663945712037764,-7.6622597504776895,-0.8154623171971827,0.06248891344086021,-0.0373534125757746,0.5731028363455847
225.0,-0.02873706492825297,-0.07403300738076504,-0.007685174778015059,0.4501611779251432,1.2897829980143127,9.697525757746053,0.13394051365628862,0.8133670993968003,0.08425054325428055,69.69237453636057,2.6275914634146345,-7.5717966730358555,-0.818298124949496,0.05678988361342775,-0.0408938528929227,0.5700006428116593
226.0,-0.03473642800944139,-0.07511250983477577,-0.002582218725413059,0.4187395751376868,1.285442958300551,9.705976396538155,0.1230330448465775,0.09986231313926036,0.15293076317859955,69.4219217151849,2.4473642800944138,-7.54240755310779,-0.8198707117781274,0.055349417365853665,-0.04184607684815106,0.5681873714319434
227.0,-0.03660503540519276,-0.07518410700236035,-0.005724626278520849,0.44118332022029894,1.2847592446892213,9.70628481510621,0.06127065302911094,-0.09360739575137689,0.04555959874114872,69.20498623131392,2.577906176239182,-7.540061959087333,-0.8209593276435877,0.05623375939889851,-0.04130613984815107,0.566676206490952
228.0,-0.035106608969315514,-0.07217820613690007,-0.005924468922108576,0.4632588512981904,1.262414240755311,9.708378442171513,0.051814516129032255,-0.25584185680566485,0.24830104248623133,69.00244394177813,2.708076809598741,-7.4030463217938625,-0.8219737072309204,0.05645498877812746,-0.039803299434697084,0.5653108580676633
229.0,-0.02650452399685288,-0.07445810385523209,-0.007649881982690794,0.5019166011014949,1.2505737608182534,9.709228560188823,0.0062770456333595594,-0.36613394964594803,0.2099835267505901,68.87344856412273,2.938071646341463,-7.329650619590873,-0.8225966290238,0.057692794800550756,-0.038252616231117226,0.5643917985987412
230.0,-0.02270790715971676,-0.08382179386309992,-0.008042682926829268,0.5509663650668765,1.2466699449252556,9.704582022029893,0.09416674862313139,-0.28306697482297405,0.15400890047206925,68.80416379819039,3.2190610247836347,-7.299931156569629,-0.8228964717820613,0.059596796021243126,-0.036711003917977963,0.5638623658558224
231.0,-0.017406372934697094,-0.08598347757671124,-0.009726986624704958,0.5937372147915028,1.2448591660110147,9.702133752950425,0.08289486624704956,-0.317087922895358,0.33121311959087335,68.71944581038552,3.4674690204563334,-7.292405094413847,-0.8232609252297403,0.06129423591384736,-0.03544367291463415,0.5632223323835563
232.0,-0.02747187254130607,-0.07983674272226593,-0.003970495672698663,0.6067663257277736,1.2346601101494885,9.703014162077098,0.0709763473642801,-0.1641989575137687,0.10440966758457909,68.51076047403619,3.546332857985838,-7.238944482690794,-0.8242960931892211,0.06150442316542092,-0.034751077110346196,0.5617294949919356
233.0,-0.030772226593233677,-0.0742006294256491,-0.007420731707317073,0.6320686467348544,1.2217816679779703,9.702378048780481,0.09806377852084971,-0.06113173682140047,0.21437721282454758,68.36886309992131,3.691840824154209,-7.173680910700236,-0.825013321538159,0.06216493921577498,-0.03358071677694729,0.5606731365725808
234.0,-0.03614417781274587,-0.07482612116443745,-0.01117407553107789,0.6328044846577499,1.2205682533438234,9.702189024390236,0.11145628442171518,0.006505704169944927,0.18165937254130604,68.22707267899293,3.697659323367427,-7.15435557631786,-0.8257269986319826,0.06211749282159716,-0.03352796984815106,0.5596313516209677
235.0,-0.048213217938630995,-0.07243725413060582,-0.012163650668764752,0.6036199842643588,1.2164171911880408,9.706122738001568,0.06336423092053502,0.2984141424075531,0.1361169846577498,68.01585488788355,3.524535306845004,-7.134007425255705,-0.8267928784329267,0.06067866442289535,-0.03431346304504328,0.5581641676209679
236.0,-0.0506066089693155,-0.06331943351691582,-0.013904405979543665,0.6666164437450826,1.215494885916601,9.701900078678202,0.07404602675059008,-0.7853191384736427,-0.15046469315499605,68.09812401652242,3.895684992132179,-7.134871656176239,-0.8262975740188825,0.06336338805822188,-0.03243949185719906,0.5586970801935485
237.0,-0.05088709677419355,-0.0722741935483871,-0.014459677419354836,0.6263467741935485,1.2031935483870966,9.705532258064512,0.07560483870967742,0.11728830645161292,0.4410786290322581,67.80670362903226,3.6567036290322577,-7.063457661290322,-0.8278063872580645,0.0612064976451613,-0.03324865513709677,0.5566449076129033
238.0,-0.05160483870967742,-0.07270967741935483,-0.008733870967741935,0.6251129032258064,1.2171774193548388,9.703249999999997,0.36325604838709674,-0.0523689516129032,0.06607862903225806,67.5477822580645,3.6532762096774194,-7.143598790322581,-0.829023250766129,0.06149759579032258,-0.03403093928225806,0.5547512424516129
239.0,-0.047338709677419356,-0.0819758064516129,-0.013161290322580645,0.6425161290322581,1.2385887096774193,9.699653225806447,0.04420362903225805,-0.0255040322580645,0.15483870967741936,67.50766129032257,3.7575100806451616,-7.26633064516129,-0.8291321783548387,0.06283825292741935,-0.03443234334677418,0.554420028766129
240.0,-0.048391852770885035,-0.08219582299421009,-0.00716501240694789,0.6272196029776675,1.2401228287841195,9.700463399503716,0.14584367245657567,-0.08225547973531844,0.10325294665012406,67.40745321546731,3.669973893713813,-7.280133374689827,-0.8296385013612488,0.062236872215260544,-0.0349929567098842,0.5537004941552938
241.0,-0.04325109947749602,-0.07986059835784462,-0.00799025600677843,0.6065340737154269,1.2350435151001635,9.703415118319914,0.1329299499182957,0.033103918275535105,0.23916396840767412,67.29538364451572,3.5445912200669776,-7.246374466652545,-0.8302188636752152,0.06114882693975065,-0.035430999694340215,0.552924954821451
242.0,-0.04545216264197381,-0.07539804111440618,-0.009825773164679535,0.6183154239544876,1.2368765962597592,9.70207852690189,0.12087525721721237,-0.07356900860416793,0.13334206484899835,67.16961722548368,3.6106272632592953,-7.257889854294014,-0.8308157463497045,0.06164802705858499,-0.035260842939912045,0.55198479541879
243.0,-0.04681665960580201,-0.06925173495531481,-0.010021757550081703,0.6043525388851901,1.2360738213399496,9.70303729649579,0.1422592749500696,0.009941130040953018,0.057171253706953945,67.06235827835945,3.5284284280497893,-7.251276629546693,-0.8313402219020354,0.061004774819615075,-0.03567389102011338,0.55124694090373
244.0,-0.042456716899675194,-0.0663234481228187,-0.006018943291169883,0.6183859468619499,1.2258635235732007,9.703514615989828,0.10116996005567995,-0.13943467691500736,0.15615619136960598,66.97412268756682,3.6125005043474747,-7.1936826696120555,-0.8317715788542435,0.06130508298238819,-0.034874343445540565,0.5506079407260586
245.0,-0.040426042486231314,-0.06138670338316286,-0.007113690007867822,0.5903095987411486,1.2167903225806453,9.706119590873325,0.07412716365066875,0.16442761605035405,0.14174124704956725,66.85603363493311,3.449390243902439,-7.135737116443745,-0.8324126860904799,0.059807814228166806,-0.03531389450275375,0.5497711419047993
246.0,-0.03584952793076317,-0.05951868607395752,-0.008830645161290323,0.6190540912667191,1.212822383949646,9.705154996066085,0.12304902635719905,-0.3966070023603462,0.02650595003933911,66.83584038158929,3.617515735641227,-7.112862657356412,-0.8324775094850512,0.06092566625806452,-0.03434334443469709,0.5496070756250981
247.0,-0.033154602675059014,-0.05854563335955941,-0.009129032258064516,0.6411923682140047,1.2187136113296615,9.702561369000781,0.0646243115656963,-0.14437204956726987,0.004255999213217943,66.79196252950433,3.7495844807238394,-7.145771046420142,-0.8326529547667192,0.06200198761290323,-0.034000837225413055,0.5492492744335169
248.0,-0.03425,-0.05921774193548386,-0.009306451612903228,0.6473145161290322,1.2271129032258066,9.701733870967734,0.1189516129032258,0.4716229838709676,0.12595766129032257,66.72474798387097,3.7844254032258062,-7.1987903225806456,-0.8329497312016132,0.062477702387096774,-0.03422477505645161,0.5487338646290323
249.0,-0.04347580645161292,-0.06921774193548386,-0.0038387096774193555,0.5675080645161292,1.2241209677419354,9.707129032258067,0.061895161290322576,0.6129032258064516,0.2620967741935484,66.56471774193548,3.310735887096774,-7.175302419354839,-0.8338076196693549,0.05889346219354839,-0.03641500194354838,0.5476515737096773
250.0,-0.048507444168734495,-0.08463668320926385,0.0032386269644334165,0.4909061207609596,1.2128457402812243,9.713220636889996,0.1442346464019851,-0.6966708023159636,0.19189412737799832,66.23294044665012,2.8685535566583953,-7.106968569065343,-0.8354956897768817,0.0552385023668321,-0.03821548813275434,0.545328156480976
251.0,-0.0523908188585608,-0.08383043837882548,-0.0019532671629445804,0.4260014474772539,1.2063986765922246,9.716477253928872,-0.14917803970223326,0.7528742762613729,0.4608664185277088,65.9652101426799,2.484680004135649,-7.071327026468155,-0.8368607090295699,0.05213372640115798,-0.039932176517990074,0.5434101488453267
252.0,-0.05769540942928039,-0.08872167080231597,0.0013701406120760992,0.5105773366418528,1.2021509511993382,9.712754755996691,0.15509848014888336,-0.4550144747725393,-0.0064115488006617205,65.94538228908188,2.9862916149710506,-7.048869158395368,-0.8368737025188171,0.055710112724772526,-0.03739204360980149,0.5432148479387924
253.0,-0.03588399503722084,-0.08829631927212572,-0.00238751033912324,0.5197483457402812,1.201535153019024,9.712038668320929,0.08846153846153845,0.07561776261373038,-0.08690033085194375,65.98693005583127,3.0365681865177834,-7.046990022746071,-0.8366607919166665,0.05607325817287015,-0.03710459399441687,0.5435194139532671
254.0,-0.04664764267990074,-0.08158767576509512,-0.0007018196856906525,0.5426443341604631,1.1983643507030604,9.711370140612079,0.10219447890818859,0.2882625103391232,0.1251990281224152,66.03910514888338,3.171283085194375,-7.025082712985938,-0.8364170325430107,0.05696192794127378,-0.03629836713027296,0.543880422468569
255.0,-0.041435483870967744,-0.0886209677419355,-0.006572580645161286,0.48043548387096763,1.1844435483870965,9.715443548387102,0.09994959677419354,-0.6949092741935485,0.0953125,65.74007056451613,2.810584677419355,-6.938508064516128,-0.8379352192499998,0.05383630588709677,-0.037521510120967744,0.5417663075080645
256.0,-0.04291935483870968,-0.07691935483870968,-0.004717741935483869,0.5130887096774193,1.1710564516129032,9.71605645161291,0.19390120967741933,0.33230846774193545,0.4217741935483871,65.17918346774194,3.002016129032258,-6.861391129032258,-0.8405660310241935,0.0546892227016129,-0.03631783768548387,0.5376501752338709
257.0,-0.05013709677419355,-0.08019354838709677,-0.005266129032258064,0.4256209677419355,1.1723870967741936,9.719112903225813,0.02121975806451612,0.8888608870967742,0.21265120967741932,64.79521169354838,2.4800403225806456,-6.864868951612904,-0.8424275055806452,0.050741478322580635,-0.03896755105645162,0.5348896639193548
258.0,-0.05115322580645161,-0.08553225806451611,-0.005758064516129031,0.4720887096774194,1.2061612903225807,9.713120967741938,0.29566532258064515,-0.9671875,-0.5734374999999999,65.32908266129033,2.7624495967741938,-7.075957661290322,-0.8397712951935483,0.05397619429838709,-0.038890173693548385,0.5387359614032258
259.0,-0.05678225806451613,-0.08078225806451614,-0.002508064516129032,0.5565080645161289,1.2105,9.708709677419357,0.10246975806451611,-0.657913306451613,-0.12041330645161283,65.63709677419355,3.2523185483870964,-7.1023689516129025,-0.8382451709274192,0.057796059911290304,-0.03660046971774193,0.5409006921451611
260.0,-0.040314516129032266,-0.08362096774193548,-0.007387096774193548,0.6366693548387095,1.217064516129032,9.704040322580642,0.1407258064516129,-0.3396673387096774,0.04838709677419356,65.7539314516129,3.7221270161290323,-7.13976814516129,-0.8375855473467744,0.06145831683870966,-0.03460393078225806,0.5416800712741934
261.0,-0.05384408602150538,-0.083392089093702,-0.013967741935483871,0.7278083717357908,1.1875652841781874,9.701012672811054,0.04226910522273425,-0.37109254992319507,0.8178307411674347,65.51159274193549,4.2532450076804915,-6.974925595238094,-0.8386466612062214,0.06449536407450075,-0.03099010619086022,0.5398907803855606
262.0,-0.046513899816417514,-0.0805025945075119,-0.010797600314712828,0.7829300513281632,1.1906691487767413,9.696127205799705,0.046093369487842345,-0.4331269201228879,0.06133411074894157,65.2582218725413,4.578134600614439,-6.99579838475516,-0.8397527921372374,0.06690023285373346,-0.02973076238958826,0.5379655261011201
263.0,-0.03552642276422764,-0.07441307931512495,-0.009703973249409917,0.8681294631149077,1.1870305814694093,9.689890019107565,0.24386567569592746,-0.5834632928702559,-0.12031765154921137,65.13083448072383,5.074699922258439,-6.976865680379154,-0.8402014845168877,0.07044147764893598,-0.027320662765211126,0.5369459856129126
264.0,-0.029920469446629953,-0.07081944288336894,-0.010928599527930766,0.902605054138099,1.198317710089544,9.685195009553784,0.14022920881570566,-0.3550885012738376,-0.10423644674234761,65.17670756294257,5.278025364355026,-7.04690058212506,-0.8399071422463469,0.07223368844140346,-0.02680572902373459,0.5372097768991984
265.0,-0.016246525045895622,-0.06691375369974899,-0.009395751376868607,0.980923494810985,1.1919653066576752,9.677500730583343,0.07775069311753026,-0.332811387733693,0.08638984114495522,65.29226003147127,5.736794940242029,-7.016721460417369,-0.839214050957851,0.07549241974489529,-0.02431614753606084,0.5379566999576637
266.0,-0.02861954043858057,-0.0654741874962174,-0.017741713570981865,0.9478648550505355,1.1835567996126612,9.681891686336218,-0.0075270078072989105,0.4099062670217274,0.2463051503964171,65.13465358893663,5.537292587100809,-6.964286524844156,-0.840041526386996,0.07374664427307391,-0.024998295304424135,0.536881090682483
267.0,-0.04153951058121005,-0.07032088603764448,-0.011200518469204543,0.8806633480602795,1.1749853234884708,9.689394308943086,0.1366525071112994,-0.19363557616655563,0.21789097016280334,64.77800736095139,5.145057583872985,-6.910172373358349,-0.8418746291565193,0.07056298536076985,-0.026692088291079098,0.5343350266016664
268.0,-0.04784449958643508,-0.07107940446650124,-0.00804321753515302,0.8885291563275436,1.175216501240695,9.688239247311827,0.21034041563275435,0.24585530397022337,0.34658808933002483,64.53851194168735,5.193619468569064,-6.909634770471463,-0.8429727869228703,0.07086268862531017,-0.02664932652791563,0.5325782519412738
269.0,-0.05410104601666363,-0.0763707407855716,-0.010504004518953378,0.8845014979120014,1.1819120468437934,9.687624246000524,0.15971571824123948,0.19588017460509594,0.5623872783392846,64.20353692580039,5.171755028344328,-6.948206571899776,-0.8445275501967813,0.07079141094562126,-0.027213069898989285,0.5300928954920767
270.0,-0.06438598720974802,-0.07076847424801791,-0.0111654562327261,0.8894819645342855,1.179336530896326,9.688115525832679,0.07087563547781879,-0.20794971403498155,0.27203746293046055,63.825491171397445,5.206105189231172,-6.933316626823216,-0.8462476920851139,0.07087319331840464,-0.027182073511650428,0.5273330989776474
271.0,-0.06390597954366639,-0.06376140833988984,-0.008777930763178598,0.8136516522423287,1.1761422108575925,9.69465991345397,0.21433049763965384,0.9910933811959086,0.1401750590086546,63.579913699842635,4.757586300157357,-6.913292928796223,-0.8475163925653031,0.06740683191974824,-0.02926078601140834,0.5256155162340677
272.0,-0.05895298977183319,-0.058279897718332016,-0.007925255704169945,0.7458298583792289,1.1799541699449256,9.699963021243114,0.15436786978756883,-0.44822851101494887,-0.07527537372147916,63.342552616050355,4.358556254917387,-6.931470053107789,-0.8487019846294257,0.06449292054051928,-0.03139603661054288,0.5239305785283241
273.0,-0.029624704956726988,-0.0590763178599528,-0.012819826907946495,0.8082226593233673,1.2069850511408342,9.691756884343036,0.05835955940204564,-0.6577104642014162,-0.2691286388670338,63.64248131392604,4.72874704956727,-7.091483084185681,-0.8471568998481509,0.06799560368056648,-0.03069244349881982,0.5260294100157357
274.0,-0.027829661683713616,-0.04962863886703384,-0.012243902439024387,0.9310664830841855,1.2293461841070021,9.67695633359559,0.3004720692368214,-1.5962136113296617,-1.4629720692368213,64.32620721872541,5.453476593233674,-7.233143194335169,-0.8436596360531077,0.07413331500708104,-0.027856148071203773,0.5308378347442959
275.0,-0.02268194335169158,-0.04853815892997641,-0.015610542879622342,1.0826418174665617,1.2627848151062155,9.656541896144766,-0.05997738001573563,0.34305664830841875,0.2597905192761606,65.23069802321007,6.338540027537372,-7.4444630212431155,-0.8390005396984658,0.0818051385302911,-0.02454199670200629,0.5371683992352478
276.0,-0.023490165224232886,-0.05960778914240755,-0.021111723052714398,1.13320397324941,1.2337633752950432,9.655291109362702,-0.004081431943351699,-0.7769595790715971,0.27712308221872545,65.09380163257278,6.638776062155783,-7.273138768686074,-0.8396426343210072,0.08320460903127458,-0.02203170094374508,0.5361559504079465
277.0,-0.02287411487018096,-0.05294099134539734,-0.016120377655389456,1.1958560188827694,1.2130228166797796,9.651242328874897,0.03102380015735641,-0.10455841856805659,0.11802222659323369,64.86388670338316,7.005123918174665,-7.157587529504327,-0.8406286449669553,0.08532877685837922,-0.019609255963808025,0.5344316309378443
278.0,-0.030244295830055074,-0.04691817466561764,-0.009071203776553894,1.046452793076318,1.2225082612116442,9.665304091266718,0.26837381982690794,0.925464693154996,0.22569581038552322,64.61655192761606,6.123470692368214,-7.20152193154996,-0.8421105103922109,0.07900817333320219,-0.02430580823996853,0.5328259333579859
279.0,-0.02236447678992919,-0.051743902439024395,-0.010389260424862313,0.97876140833989,1.2171235247836347,9.673682730133754,0.1343098446105429,0.4660761703383162,0.21771120180959871,64.3114230920535,5.7257794059795435,-7.165719659716759,-0.8437143966634542,0.07585446023072381,-0.026129042365460264,0.5306839798418568
280.0,-0.029065302911093625,-0.059291306058221874,-0.01585995279307632,0.9846105428796224,1.1909407946498813,9.677393784421717,-0.059331972856018864,-0.5789326809598742,0.46417314122738,63.961306304091266,5.765107444925255,-7.007330595987411,-0.8453987780051142,0.07535258511939417,-0.025049906190794648,0.5281522598564123
281.0,-0.032443941778127455,-0.05999645948072384,-0.016929976396538163,1.1131762391817466,1.180700236034618,9.663995279307631,0.28870598937844216,-1.4278483969315499,-0.033815647128245474,63.72972069236821,6.5203309402045635,-6.957773160896931,-0.8461728701235249,0.08066738931372935,-0.021290191974429582,0.5262526192830448
282.0,-0.022770653029110934,-0.054677025963808024,-0.026163257277734067,1.263314909520063,1.2564429583005507,9.634354445318648,0.3989734952793076,0.6298288749016524,-1.1136875491738787,64.72005802517702,7.397895357985838,-7.42357518686074,-0.8409088369793468,0.08941847775039338,-0.019761931358575922,0.5331562697987804
283.0,-0.010796616837136109,-0.020249016522423294,-0.011153029110936264,0.801623524783635,1.402937450826121,9.650765145554683,0.20497393784421714,2.046378343823761,0.5679853461841069,63.914471872541306,4.688429386309991,-8.258184992132179,-0.8449671498583791,0.07292730653186466,-0.0391621707631786,0.5274367985763179
284.0,-0.004151258851298186,-0.052020653029110936,-0.006520653029110932,0.6110045239968529,1.3759101101494888,9.675178009441382,0.05736993509047993,0.7953665912667192,0.23400742525570412,63.69464742328874,3.5741517505900866,-8.087147177419354,-0.846533246396538,0.06395192338001573,-0.0432722103029111,0.5261442884148309
285.0,-0.01724901652242328,-0.06519984264358772,-0.013627261998426432,0.6665708103855232,1.361233280881196,9.677851101494884,0.16429484657749802,-0.06837013178599533,0.7250934303697876,63.28704145357986,3.9048682140047206,-8.000453629032258,-0.8484829046498819,0.06590919477065303,-0.04138922311919749,0.5231553236711252
286.0,-0.026761605035405187,-0.07613217938630999,-0.007551534225019667,0.7393579858379229,1.356560188827695,9.675010228166794,-0.032671125098347756,0.008733280881195914,0.16748623131392607,63.26058221872541,4.3312647521636505,-7.975806451612903,-0.848555987905586,0.06897981110306844,-0.03926935697088907,0.522941669996853
287.0,-0.03613217938630999,-0.07856176239181746,-0.010442958300550743,0.7424523996852871,1.3386703383162866,9.678955153422503,0.32889948859166007,-0.5427124311565696,-0.048893587726199825,63.07585070810385,4.348795239968529,-7.868341856805664,-0.8494930055413059,0.06860254093154997,-0.03852716298190402,0.5216345515468135
288.0,-0.04258221872541307,-0.08206215578284815,-0.010054681353265144,0.7694630212431155,1.362826907946499,9.674387883556257,0.006773701809598742,0.3961742722265932,0.12492378048780486,63.16941138867033,4.50293322187254,-8.013444138473641,-0.8489647774724625,0.0703914067372148,-0.038832273788355624,0.5222566086608968
289.0,-0.040677419354838706,-0.09091935483870968,-0.00021774193548387052,0.7235080645161289,1.3593387096774197,9.678306451612904,0.12575604838709678,-0.015725806451612923,0.2946068548387097,62.75015120967741,4.230493951612903,-7.985887096774193,-0.8509565291532257,0.06813152701612905,-0.04013430666129032,0.5192160817419356
290.0,-0.044750000000000005,-0.09284677419354839,-0.007774193548387095,0.6802903225806451,1.3469435483870966,9.683145161290323,-0.02348790322580644,0.24294354838709675,0.21421370967741937,62.512096774193544,3.974344758064516,-7.909374999999999,-0.8521356890645161,0.0657901394919355,-0.04088361136290322,0.5175246204596773
291.0,-0.030693548387096772,-0.08967741935483871,-0.006177419354838709,0.7310887096774192,1.3481451612903226,9.679129032258066,0.22298387096774194,-1.8271169354838708,-0.4938004032258064,62.33276209677419,4.280141129032258,-7.921320564516128,-0.8528597434516129,0.06805331280645163,-0.03965621406451614,0.5161127394838709
292.0,-0.027016129032258064,-0.08419354838709678,-0.0007983870967741939,0.829701612903226,1.345024193548387,9.670653225806454,0.13755040322580644,0.2441532258064516,0.5970262096774193,62.33528225806452,4.853175403225807,-7.908014112903225,-0.8526895838951611,0.07226208071774194,-0.036946056862903226,0.515999775564516
293.0,-0.030032258064516124,-0.08618548387096772,-0.005927419354838709,0.847258064516129,1.3265806451612898,9.67226612903226,0.06885080645161291,0.07127016129032257,0.5258064516129032,62.03039314516129,4.951965725806451,-7.797782258064515,-0.8540876331854836,0.07243435741935485,-0.03587444636290322,0.5137663314838709
294.0,-0.016604838709677418,-0.08510483870967742,-0.008016129032258065,0.7926935483870967,1.308782258064516,9.679701612903227,0.1443548387096774,0.8957661290322579,0.4177923387096774,61.593951612903226,4.628175403225807,-7.695564516129032,-0.8561735587258064,0.06943413480645164,-0.0368273821532258,0.5106193787096773
295.0,-0.0260519023986766,-0.08391066997518609,-0.0012435897435897443,0.6914667080231596,1.3087272539288661,9.68673986765922,0.07557511373035566,0.48105355665839533,0.4303517886683209,61.237233767576505,4.037949751861042,-7.688336176592225,-0.8579155376385441,0.06484523501902399,-0.03964225836269645,0.5080721920289495
296.0,-0.06574536504670256,-0.09204719179325788,-0.0013045250055478228,0.6883481258447821,1.302436305957352,9.68861186931348,0.15880016996509916,-0.07781507847646713,0.4214068394561117,60.85556121895741,4.018052865702354,-7.650129806431439,-0.859632479336778,0.06444057154747422,-0.03968395111270148,0.5052324764814298
297.0,-0.07258484133228427,-0.09557229316710039,0.004444511690774477,0.7380835955940204,1.3009498527305368,9.684848842018198,-0.007780694587342887,-0.3864209800984486,0.4599279854848797,60.52043789339103,4.310731095795759,-7.640724797756662,-0.8610420725103038,0.06649092362950633,-0.03852553390147067,0.5026603580492344
298.0,-0.06362306582743246,-0.09062485626096953,0.002270642942161431,0.8139732494099134,1.287140248945914,9.680331679073618,0.07932537851278017,-0.5915219819847082,0.19687427500050433,60.32032479346971,4.759624620478525,-7.567086189200912,-0.8618215625737,0.06946222197604349,-0.03607310412815469,0.501101444508488
299.0,-0.0633558877524259,-0.07762694425951704,0.005030482761403296,0.8583414634146342,1.2798765760858606,9.677343258891646,0.09820603603058364,0.029188605781839516,0.23369419395186508,60.246528324154205,5.0218738021747455,-7.519757812342391,-0.8620870219924952,0.07118366902834433,-0.034637179491496695,0.5005154551776312
300.0,-0.04090540458754463,-0.08611868304787267,-0.005176239181746664,0.7763998466783677,1.2675917206318472,9.686839536807277,0.12085136375557304,0.6947793731969577,0.9179068571082734,59.55028546067098,4.539054146744942,-7.4415579797857525,-0.8652833151980672,0.06695115775652122,-0.036577392578668114,0.4953616536897254
301.0,0.05655831265508684,-0.10493424317617864,-0.010435483870967743,0.6130984284532672,1.233766749379653,9.700677832919771,-0.14116263440860213,1.5302083333333334,1.382133995037221,58.57631306865177,3.5853856492969394,-7.241392679900744,-0.8697546820947063,0.05851218512531017,-0.039645714221670805,0.4881372576906534
302.0,-0.008862706530291104,-0.09984834775767112,-0.0031130999213217947,0.3735853658536586,1.2083343823760822,9.71324173878836,-0.053731068056648304,2.5600572875688434,0.864993115656963,57.51853363493312,2.18224577104642,-7.088353166797797,-0.8745033298534619,0.04664453653560188,-0.044953462394177815,0.4802451451581431
303.0,0.060439614476789943,-0.10312175452399684,-0.019875098347757664,0.0008410700236034241,1.1957397718332021,9.718108772619992,0.2173128933910307,1.251374409913454,0.0018513965381589115,56.971817220692365,0.007201514555468025,-7.007079809205349,-0.8769116206323759,0.029222177546026747,-0.05377760244708892,0.476151797821007
304.0,-0.011372934697088888,-0.11399232887490163,-0.014699645948072382,-0.006055271439811197,1.1952690794649883,9.724042289535802,0.056715922501966956,-0.27159102084972464,0.29654061762391815,56.70599429583005,-0.03435287175452405,-7.00553083202203,-0.8781520919008652,0.028888639442368212,-0.054048288775963814,0.47418621712018094
305.0,-0.06602517702596379,-0.11986309992132177,-0.005305468135326515,0.12956510621557832,1.1794248623131391,9.726662273800162,0.043856953186467346,-1.9506392604248624,0.1447924862313139,56.413178599527924,0.7644767899291897,-6.908839004720692,-0.8794106858133358,0.0346662757413454,-0.05005972298072384,0.4719678334996066
306.0,-0.07214162077104641,-0.12272187254130604,-0.011439024390243906,0.24308497246262786,1.1657930763178599,9.726657749803309,-0.013832612116443752,0.021958595594020247,0.7917510818253343,55.95023849331235,1.4132867820613688,-6.83007474429583,-0.8813110401042487,0.0392069069956727,-0.046901834450039336,0.46839784257238404
307.0,-0.09280645161290324,-0.13531451612903225,-0.006693548387096775,0.32653225806451613,1.1574354838709675,9.725064516129038,0.06280241935483871,-0.6173891129032258,0.38130040322580644,55.51496975806451,1.9018145161290323,-6.783467741935484,-0.8830665835564517,0.04264482070161291,-0.04468718525806452,0.46504186844354856
308.0,-0.11227419354838711,-0.1388548387096774,-0.0008387096774193543,0.46037096774193553,1.1469435483870964,9.720443548387099,-0.09243951612903226,-1.113054435483871,0.021875000000000006,55.42293346774193,2.6869959677419355,-6.724092741935484,-0.8833572392016129,0.04843503894354839,-0.04102778236290323,0.46428867488709685
309.0,-0.09596774193548388,-0.13389516129032258,-0.0009193548387096771,0.4996129032258064,1.1346774193548383,9.721250000000003,0.21582661290322575,0.029233870967741993,0.13140120967741936,55.29440524193548,2.915423387096774,-6.651260080645161,-0.8838755953306452,0.049857748427419364,-0.039598575653225804,0.46331718258064525
310.0,-0.08054032258064517,-0.12816129032258064,-0.0015483870967741935,0.46608870967741933,1.1486532258064512,9.720879032258068,0.20574596774193543,0.17631048387096776,0.11018145161290324,55.246270161290326,2.7223790322580643,-6.736441532258064,-0.8840881837822581,0.04864319823387098,-0.04106489608064517,0.4629346793548388
311.0,-0.05226996927803379,-0.11969086021505378,-0.00589900153609831,0.41341705069124424,1.152829877112135,9.723656682027654,0.07422955069124422,0.40761328725038404,0.14921514976958525,55.10110647081413,2.4144105222734256,-6.759173387096774,-0.8847229757768817,0.04630153427841783,-0.04255842233256528,0.4618281373824884
312.0,-0.07374385560675882,-0.1281962365591398,0.0015948540706605219,0.3572569124423963,1.1559270353302606,9.72499769585254,0.11718029953917049,0.6846030145929339,0.4337557603686636,54.8735119047619,2.0879512288786484,-6.772429435483871,-0.8856671123440862,0.0437773276109831,-0.044061026142089094,0.4600906698767281
313.0,-0.054765810572852264,-0.13281910569105693,0.001114598553819638,0.3082369337979094,1.1555488835187888,9.72696934359897,0.13460313167359783,0.3226313410887565,0.09511475075868273,54.675890983852234,1.7987245817878685,-6.7648099429583,-0.8865023042937974,0.041426284226715,-0.04527485425869206,0.45859730336057103
314.0,-0.02467726012513581,-0.1340103592971414,-0.0013580233037353425,0.2575620152860515,1.1521494417593945,9.72860967179949,-0.0005159744857817228,-0.38112384558465395,0.13624185118579296,54.432955572571274,1.5026132989584506,-6.7430148505114085,-0.8875147577073825,0.038953941681905885,-0.04637921673015248,0.45674027960770486
315.0,-0.013197501030309838,-0.1187067925517965,-0.0005177213292870267,0.30201084635270325,1.1330626241055035,9.729583061706197,0.15069967404743173,-0.30354075343748826,0.29090318365741263,54.207127987898545,1.7617653188340638,-6.637283634933124,-0.8884367621319171,0.04043501587724327,-0.04459274245378591,0.45500029446111045
316.0,-0.03483300550747442,-0.12077812745869392,-0.006154405979543668,0.38544551534225013,1.1219360739575137,9.728816876475221,0.017414929189614486,-0.7555050157356412,0.24661806648308418,54.039455891030684,2.252565647128246,-6.570557140047207,-0.8890500301250983,0.04394537947856019,-0.04219228514240754,0.4536999474333202
317.0,-0.026710857592446888,-0.11779228953579857,-0.006057041699449253,0.5109122738001572,1.1060204563335958,9.724178599527937,-0.07934697088906373,-1.0607666207710464,0.09435238001573563,53.93648701809599,2.98790076711251,-6.483111231313925,-0.8893574789173877,0.04926150800944139,-0.03859999168410699,0.45284903017230527
318.0,-0.02179760031471282,-0.1096750590086546,-0.01235582218725413,0.6923483477576711,1.0959606608969317,9.71162903225807,0.14531864673485445,-1.7185963316286388,-0.6899894276160504,54.069443351691575,4.052491886309992,-6.429227724232888,-0.8885479333414634,0.05734646217545239,-0.033826722930959875,0.45372313493273
319.0,-0.018814122738001572,-0.11227301337529504,-0.007536782061369002,0.7642265932336743,1.1241738788355622,9.704427419354836,0.3188790814319433,-0.08160159323367411,0.3061393587726199,54.1488849822974,4.467148160896931,-6.600626966955153,-0.8880765113400862,0.06126585673288748,-0.033460730606608965,0.4542478451195909
320.0,-0.019669158143194337,-0.11072974036191972,-0.006038355625491739,0.7956817466561761,1.1341186073957514,9.70172580645161,0.1978990460267506,-0.06805787765538938,0.31364821007081034,54.04185680566483,4.652349282061369,-6.662954858379229,-0.8884348785389458,0.06292296359303697,-0.03325780024311566,0.45340052399645947
321.0,-0.022358772619984268,-0.10022777340676634,-0.009281274586939418,0.7899457120377655,1.1193133359559406,9.704411290322579,0.0322408536585366,0.1756232789142408,0.20032208890637287,53.884537273800156,4.616925649095201,-6.569985493705744,-0.8891074183743115,0.062258910953776544,-0.03279285512962235,0.4522306277966168
322.0,-0.018645554681353267,-0.08702360346184107,-0.009335562549173879,0.7388650668764751,1.1204819040125888,9.70704838709677,0.21234018489378442,0.3927321007081038,0.12510572383949642,53.68647226593234,4.322560975609756,-6.574245180959874,-0.889980844420535,0.059900749285208485,-0.034133025091266714,0.45072807807749793
323.0,-0.023749213217938638,-0.08056530291109362,-0.0106992525570417,0.693966758457907,1.111982100708104,9.71178225806452,-0.10129450236034618,0.089993115656963,0.006681500786782035,53.62691532258064,4.057956333595594,-6.521200088512982,-0.8903229662661292,0.057630845740951994,-0.034791904852478364,0.450302696757081
324.0,-0.019499606608969315,-0.07816168371361132,-0.013434303697875688,0.6591003147128245,1.0927612116443743,9.716500000000007,0.049781176239181754,-0.10056795830055075,0.07645062942564908,53.496874999999996,3.853675747442958,-6.411885326514556,-0.8909459966129034,0.05556779618095987,-0.034811201998819825,0.4493331076325727
325.0,0.004168371361132956,-0.0710595987411487,-0.014954760031471285,0.6904549567269866,1.0749132572777342,9.717439614476795,-0.058287027930763166,-0.43327473446105425,0.1100929386309992,53.35212062352478,4.039839447285601,-6.30842102675059,-0.8915147985503542,0.05655376216994493,-0.03333080642427222,0.44820051452439025
326.0,-0.00303540519276161,-0.06364909520062942,-0.013947678992918962,0.7277671125098348,1.0572934697088905,9.716525570416998,0.15867918961447677,-0.12819630212431155,-0.010931353265145556,53.30507474429582,4.253806058221873,-6.202360346184108,-0.8916814267442958,0.057816050732100714,-0.03170292088434303,0.4478224135094414
327.0,-0.005805664830841861,-0.06258772619984264,-0.015636309992132183,0.7019008654602676,1.0585483870967742,9.718298190401265,-0.02269620377655389,0.3487411487018096,0.05592791109362706,53.27743902439025,4.099881982690794,-6.209166011014949,-0.8918216943241541,0.05663385698288749,-0.032351170036978745,0.44764767333615274
328.0,-0.006471479150275373,-0.06080015735641227,-0.01756549960660897,0.6885761211644374,1.0558111723052712,9.719339496459487,0.13972020062942567,-0.07370058025177029,-0.015986428009441386,53.301548977183316,4.018831136900078,-6.197781028717545,-0.891756644927616,0.05597860924685287,-0.03254484836250983,0.44785082617387884
329.0,-0.013047670923359355,-0.05827311424479009,-0.014219370977828884,0.6336099174887531,1.048780689543868,9.724028929371183,0.06234743488874096,0.03726119147047549,0.12638695555690047,53.189915824406384,3.6985426879703036,-6.151673677096572,-0.8922866145576871,0.05327644089007241,-0.03351962643466683,0.4470421345538542
330.0,-0.010948697774818938,-0.05879194657951542,-0.009430692569952995,0.6353108596098369,1.0418781496499827,9.725275676329968,0.17002108172446487,0.20079031249369567,0.09384847384453993,53.12834205854465,3.7090716980370795,-6.103723345235934,-0.8925632820695597,0.05315309760160584,-0.03317530728499668,0.4465368483406563
331.0,-0.028010934253263127,-0.058665052754745914,-0.011087494200004034,0.6303430773265548,1.0433631503560694,9.724260969557594,0.026788668320926384,-0.23561979261231814,0.0763597207932377,53.05170545098751,3.684866297484315,-6.117051483790272,-0.8928607434336784,0.05297661650890678,-0.0333848981531199,0.4459522341789828
332.0,-0.024444491516875465,-0.06097847444975691,-0.012365147572071253,0.6849079666727189,1.0281701668381449,9.722134418689109,-0.06747702697250299,-0.22534333454376726,0.1830116857310012,52.928955597248276,4.002946524037201,-6.032281642760596,-0.893292261749097,0.05508905117656197,-0.03155084047152454,0.44495395052772896
333.0,-0.012999586435070305,-0.06359387923904053,-0.011420181968569063,0.7741534325889164,1.0205587262200166,9.715256823821342,0.1536729735318445,-0.25800506617038876,0.11634356906534324,52.89699648469809,4.529949855252275,-5.994445306038048,-0.8932587757266335,0.05903060811621174,-0.029188897115384617,0.44465092270760953
334.0,-0.024250000000000008,-0.07153225806451613,-0.013919354838709678,0.753072580645161,1.02416935483871,9.716846774193554,-0.031098790322580644,0.174445564516129,0.1821068548387097,52.72852822580646,4.401461693548386,-6.013961693548387,-0.893958011879032,0.05806727241129032,-0.029917317024193552,0.44333939133064515
335.0,-0.031354838709677424,-0.07029032258064516,-0.012943548387096774,0.7093145161290322,1.0268629032258065,9.720000000000006,0.23744959677419356,0.293195564516129,0.1440524193548387,52.5195564516129,4.144506048387097,-6.030997983870968,-0.8948220530241936,0.05603947775806452,-0.031151654725806457,0.4417683760564516
336.0,-0.0351093627065303,-0.06957533438237609,-0.01306392604248623,0.7604244689221085,1.035494885916601,9.715545633359561,0.13531176239181747,-0.9594376966955154,-0.031112313139260425,52.449251327694725,4.443958988985051,-6.0865779897718335,-0.8949576539215185,0.05859471872482297,-0.03043098129760032,0.4412003796304091
337.0,-0.039253933910306835,-0.06624586939417781,-0.016884539732494097,0.9004335169158143,1.039039929189614,9.702288945712038,0.13164584972462628,-0.6183910306845004,-0.005193990952006292,52.4670989870181,5.266556845003933,-6.111657897324941,-0.8946016390409126,0.06511540780743509,-0.027382937994689223,0.4411697276854839
338.0,-0.060359700619338694,-0.07731896447376385,-0.013297832314551433,0.969984128184954,1.0439055105005142,9.695445031168674,0.09870004438257782,-0.5004369855655753,0.07442236453226815,52.4269705801509,5.674695657820411,-6.142430091135589,-0.894586683957801,0.06841292582648428,-0.02605526773607497,0.44081053960256417
339.0,-0.04406694708386289,-0.06900222417236579,-0.019935206479856363,1.0588106124795738,1.0507874326696118,9.685291063971437,0.029339941546127617,-0.6267053879440779,-0.0659894225725756,52.46870202394642,6.193875046652141,-6.186764440729084,-0.8941956102893844,0.07268430491324215,-0.024301344053521357,0.4410221821803143
340.0,-0.019751215477415318,-0.07494062821521516,-0.01687486130444431,1.0410061126914,1.0380751679477092,9.688657628759913,0.08808226916016058,-0.06511680687526483,0.05241355484274446,52.375732060360306,6.089956676551877,-6.111149357461317,-0.8946423701527568,0.07153492504533077,-0.024228126429986487,0.44032507167080226
341.0,-0.027052633702515677,-0.07430036918235186,-0.016741128527910595,1.0365376747564001,1.0445190945954121,9.688724565756822,0.17421914402146504,0.4394272377897477,0.10682243438439346,52.33144883899212,6.059327276120156,-6.145223577235772,-0.8948150081456151,0.07142842642667797,-0.02466140735110654,0.43997555191171894
342.0,-0.030515301902398675,-0.06929652605459057,-4.242104631927213,0.9760918114143919,1.0428771712158809,9.695555831265505,0.06341759718775848,-0.0016671836228287773,0.1658472911497105,52.19724979321754,5.706542080231596,-6.132594086021506,-0.8955088923151362,0.06860166019602977,-0.02603022961497105,0.4389264715467328
343.0,-0.03424193548387097,-0.07065322580645161,-2.1303145161290327,0.9588548387096774,1.0418306451612902,9.69820967741935,0.1958165322580645,0.3448084677419355,0.24339717741935485,52.06391129032258,5.602469758064516,-6.128125,-0.8960722885967742,0.0677403108548387,-0.026464991120967743,0.4378895414838709
344.0,-0.03460483870967743,-0.06659677419354838,-1.072991935483871,0.9188064516129031,1.0472258064516131,9.701161290322574,0.19380040322580644,0.023387096774193594,-0.03165322580645161,51.94627016129033,5.370816532258065,-6.15398185483871,-0.8965920728064518,0.06600361478225808,-0.027647005814516134,0.43702372866935474
345.0,-0.04769315499606608,-0.06699606608969316,-0.5434496459480725,0.9395715971675844,1.0364195515342245,9.699812352478357,-0.09919354838709676,-0.07809549567269863,0.0019079464988198333,51.94337136113297,5.49550550747443,-6.09214693154996,-0.8965504845544847,0.06671835762057435,-0.026665977279307633,0.43706965177006285
346.0,-0.043809402045633355,-0.06315440597954367,-0.2763682140047207,0.9912865853658537,1.015251180173092,9.696173092053495,-0.023781717151848937,0.13061319826907947,0.23456923682140046,51.880452153815895,5.80302911093627,-5.970029750196695,-0.8967282559653814,0.0686388632857986,-0.024590047587529508,0.436512344216365
347.0,-0.041481313926042485,-0.06473446105428796,-0.017740558615263573,0.9103650668764751,1.001540912667191,9.705925255704166,0.08233797206923682,-0.1365079169944925,0.20085316679779702,51.56237829464989,5.326917781274586,-5.8838808025177025,-0.8981499390310778,0.0645199958243509,-0.025933600192958303,0.4341112355517309
348.0,-0.037397915027537365,-0.06693981117230527,-0.018253343823760815,0.9118196302124311,1.0113349724626275,9.705535208497242,0.15051878442171518,-0.11837996656176239,0.31791650275373723,51.32965184893784,5.336593971282454,-5.942343627065302,-0.8990113745558614,0.06475464767427222,-0.026484659552124312,0.4322757184169944
349.0,-0.04084815106215578,-0.06523603461841068,-0.015965381589299762,0.9854783634933122,1.024429583005507,9.69665066876475,0.19083398898505113,-0.8670780881195909,-0.09744295830055075,51.30030979543666,5.766104445318646,-6.027119394177813,-0.8989215216247046,0.0684645313855232,-0.025481994892997642,0.4319425937246262
350.0,-0.03147600314712825,-0.07100826121164436,-0.01421007081038552,1.0524496459480726,1.0302533438237607,9.688933516915814,0.4304976396538158,0.1456309008654602,0.22967151848937845,51.21868361526357,6.153542977970102,-6.066293764752164,-0.899042882878442,0.07162390522856019,-0.024360347997246262,0.4312279202462627
351.0,-0.04658064516129033,-0.08318548387096772,-0.007983870967741936,0.8930241935483871,1.0877096774193549,9.697685483870965,0.39657258064516127,0.9251512096774193,0.5139112903225806,50.7765625,5.214566532258065,-6.395110887096774,-0.9008961829758064,0.06535270421774195,-0.030777518911290325,0.4278479796612903
352.0,-0.04859677419354838,-0.07949193548387096,-0.00904032258064516,0.7858629032258064,1.1024758064516131,9.704532258064514,0.10907258064516127,0.3013608870967741,0.29616935483870965,50.283114919354844,4.590070564516129,-6.47242943548387,-0.9029217633467743,0.0605922080403226,-0.03402719827419355,0.42402161704838703
353.0,-0.042725806451612905,-0.07940322580645162,-0.007701612903225807,0.7754758064516128,1.097725806451613,9.706572580645158,0.11708669354838708,0.08336693548387097,0.23548387096774193,50.0234375,4.5337197580645165,-6.444203629032257,-0.9039209682580647,0.05994636795967742,-0.034173879354838704,0.4220279819112903
354.0,-0.054588709677419356,-0.073,-0.006338709677419355,0.7450645161290324,1.095604838709678,9.710572580645167,0.05725806451612902,0.06305443548387096,0.1662298387096774,49.745766129032255,4.3521169354838705,-6.432358870967741,-0.9050209782096776,0.05842319602419355,-0.03489266654032258,0.419838985
355.0,-0.04252911093627065,-0.0720245869394178,-0.007499606608969315,0.7410238001573565,1.0865019669551539,9.711623131392605,-0.02492623918174666,-0.2870426829268293,0.3072826514555468,49.53784667584579,4.3330165715971685,-6.378953579858379,-0.9058110668729349,0.058000538437450816,-0.03467916072344611,0.4182363955818254
356.0,-0.040151652242328875,-0.06752439024390244,-0.011717545239968529,0.776846577498033,1.0737590479937058,9.710876081825333,0.11006712234461055,-0.2848519866247049,0.07481068056648309,49.414387047600314,4.541785503540519,-6.302430418961447,-0.9062238530009836,0.05935455352517703,-0.03338323709559402,0.4172602631457513
357.0,-0.03513630999213217,-0.06506058221872543,-0.012528127458693944,0.813011998426436,1.0682142014162075,9.70847836349331,0.018214004720692366,-0.2831517997639654,0.09657872738001574,49.40822678992919,4.750832267899291,-6.271754523996853,-0.9062110843996853,0.060899343359362715,-0.03235518343489378,0.4171489901011014
358.0,-0.023592451935685613,-0.069105559926567,-0.01078711997417741,0.8407408007020518,1.0659932669612058,9.705293151969975,0.11374022196332384,-0.3321550200225947,0.10820264429381267,49.363152373459215,4.911527460459158,-6.25840750393391,-0.9063135525710173,0.06212882405199318,-0.031672735961553594,0.4168077761446367
359.0,-0.03009058080655248,-0.07722213480199319,-0.009437914825798383,0.8535760455123163,1.0684200205773768,9.704489317920466,0.13502031259456515,-0.07079021162420059,0.20042188666303537,49.265850380277996,4.9907183673263535,-6.279833792289535,-0.9066214812976052,0.06276021469131918,-0.0315745538073897,0.4160537592416732
360.0,-0.022170388751033908,-0.07655913978494625,-0.016835401157981808,0.8774205955334988,1.07775682382134,9.701539702233244,0.10757211538461536,-0.053422249793217524,0.08809449958643507,49.235551075268816,5.125478184449959,-6.333165322580646,-0.9066677706472289,0.06404134931182795,-0.03153377995719603,0.41575536659408596
361.0,-0.01814321955254292,-0.07841174927878311,-0.01584669349795235,0.8547801246746961,1.0790186558131087,9.703378033650061,0.10328018141378684,-0.04988308595089672,0.05398160266497206,49.085783012063985,4.996162577669511,-6.344448269079465,-0.907261460091317,0.06299440751783374,-0.03215821267893239,0.41457374993797536
362.0,-0.02355597248280175,-0.06777275111460793,-0.018913413625451393,0.8589069781516676,1.0983943593778367,9.700203473945404,0.5131424756400169,0.6342226240190441,-0.5169921599184975,49.407549009965905,5.021245259133733,-6.4640219315499605,-0.9060127575010086,0.06370026547941254,-0.03280950625488713,0.4170950912056124
363.0,-0.023026750590086544,-0.05876180173092054,-0.0183756884343037,0.7477065302911095,1.2053855232100705,9.695910306845,0.7111440302911093,0.32077350511408337,-1.055110395357986,50.08431476199843,4.372450334382376,-7.084784372541306,-0.9034134475816287,0.0611043850043273,-0.039803387836939416,0.42237783408300555
364.0,-0.017747246262785208,-0.06865912667191187,-0.01009107002360346,0.6883371361132966,1.3012814712824552,9.687697088906374,0.35554681353265144,-0.18855477970102283,-1.00636064122738,51.1053882277734,4.024229199449253,-7.646348839496459,-0.8994202679722659,0.06088358840538946,-0.04498118745476003,0.4302947918237608
365.0,-0.011087332808811953,-0.07736585365853658,-0.0078882769472856,0.6989992132179388,1.3373705743509054,9.682767899291896,0.1668863099921322,-0.03616247049567271,-0.4748033044846578,51.73396931549961,4.083359559402046,-7.860523210070809,-0.8969463983288748,0.06239807889221086,-0.04604964722738002,0.43517827275059007
366.0,-0.02481589299763965,-0.07339968528717544,-0.006221872541306057,0.6484099134539734,1.3500582218725423,9.685506687647521,0.29970987411487016,0.09605133752950432,0.10460267505900861,51.780094413847365,3.787795043273013,-7.934023406766325,-0.8968300141723051,0.06035641222738001,-0.04773561003383163,0.4355853928387098
367.0,-0.031681746656176235,-0.06867859952793076,-0.002244689221085759,0.6403591660110151,1.3597372147915032,9.684925649095202,0.021761900078678204,-0.2708177616050354,0.07408044846577497,51.67844217151848,3.741596184107002,-7.9843799173878836,-0.8972270201412273,0.06014004736309991,-0.048376354503933905,0.43475719034618415
368.0,-0.026309008654602672,-0.06310798583792289,-0.0023497246262785196,0.697272423288749,1.340116443745083,9.682270062942568,0.08390416011014949,-0.3965467643587727,0.13347020062942566,51.570387490165224,4.072066778127459,-7.874934844610542,-0.8975975072381981,0.06227329555409126,-0.04631022758634933,0.43390640715971673
369.0,-0.028047010228166802,-0.057852675059008665,-0.005296813532651455,0.7243379228953581,1.3296070023603463,9.682263965381592,0.07098741148701809,-0.20791822383949646,0.21137268882769472,51.424293125491744,4.231757720298977,-7.8123352675059,-0.8981478683271047,0.06323097883261211,-0.045316582727970095,0.432737428774587
370.0,-0.04543076317859954,-0.06302714398111725,-0.002547600314712824,0.7610802517702597,1.332601888276948,9.679220692368215,0.08579612509834776,-0.03155487804878049,0.2556107395751377,51.24256490952006,4.451740755310778,-7.830008359559402,-0.8987513341514555,0.06492517986388668,-0.04472857895672698,0.43130086675019674
371.0,-0.039524980330448475,-0.06858202202989773,-0.0057112509834775765,0.784199449252557,1.3300121951219515,9.678436467348547,0.07721651258851298,-0.37093086152635724,0.1864648898505114,50.99408438237608,4.5817564909520065,-7.815717201022817,-0.8996522557161681,0.06583142729464987,-0.04424205094177812,0.42933039995416994
372.0,-0.03153265145554682,-0.06616601101494887,-0.003387883556254917,0.84475295043273,1.3156915814319432,9.674496459480727,0.06554878048780488,-0.7680763178599528,0.06727478363493312,50.882223642800945,4.940273406766325,-7.733035011801731,-0.8999852619669549,0.06829242878442171,-0.042291077390243896,0.42843657756176234
373.0,-0.02548590853154189,-0.06286159696584559,-0.007337388287034236,0.9770834493332525,1.307390869293308,9.662955425770146,0.028390980249752867,-0.37504816518388506,0.0917804600657669,51.03163210625593,5.717894248421393,-7.6966557979785755,-0.899137464640501,0.07429958688832738,-0.03891287474587948,0.42948233022513055
