time,linaccel_x,linaccel_y,linaccel_z,gravity_x,gravity_y,gravity_z,gyro_x,gyro_y,gyro_z,euler_x,euler_y,euler_z,quaternion_w,quaternion_y,quaternion_x,quaternion_z
0.0,-0.003538461538461538,-0.2619999999999998,-0.11076923076923081,-0.1500000000000002,-9.799999999999999,0.0,-0.014423076923076924,0.016346153846153847,0.021153846153846155,359.875,-0.875,90.0,0.7069702100000008,0.010620120000000007,-0.7072143600000012,0.00048828000000000044
1.0,-0.003887820512820512,-0.2616041666666665,-0.10931891025641025,-0.1500000000000002,-9.799999999999999,0.0,0.059645432692307696,0.0021935096153846154,0.005749198717948718,359.875,-0.8749999999999999,90.0,0.7069702100000008,0.010620120000000007,-0.7072143600000012,0.0004882800000000004
2.0,-0.0045233516483516485,-0.2616696428571427,-0.10827953296703295,-0.1500000000000002,-9.799999999999997,0.0,0.011053399725274726,-0.010220638736263735,0.001347870879120879,359.875,-0.875,90.0,0.7069702100000008,0.010620120000000007,-0.707214360000001,0.00048828000000000044
3.0,-0.004027564102564102,-0.2619458333333332,-0.10786378205128205,-0.1500000000000002,-9.799999999999997,0.0,-0.0010917467948717962,-0.0052904647435897435,-0.0014543269230769228,359.875,-0.875,90.0,0.7069702100000008,0.010620120000000007,-0.7072143600000012,0.00048828000000000044
4.0,-0.0036423697270471468,-0.261102822580645,-0.10912763647642681,-0.1500000000000002,-9.8,0.0,-0.057483909739454095,0.0009683235111662531,0.0008083901985111662,359.875,-0.875,90.0,0.7069702100000008,0.010620120000000007,-0.7072143600000012,0.0004882800000000004
5.0,-0.004344758064516129,-0.2622933467741934,-0.1130997983870968,-0.1500000000000002,-9.8,0.0,-0.0380859375,0.006268901209677419,-0.013041834677419354,359.875,-0.875,90.0,0.7069702100000008,0.010620120000000007,-0.7072143600000012,0.0004882800000000004
6.0,-0.0044007616487455195,-0.2631721230158729,-0.11337493599590373,-0.1500000000000002,-9.8,-2.8423528536230326e-20,-0.09587113575268817,0.02625468029953917,-0.015706005184331795,359.875,-0.875,89.98719918074757,0.7070202161034311,0.010620120000000007,-0.7071388539272916,0.0004882800000000004
7.0,-0.0037582405273937523,-0.26303299411162306,-0.10902425755248335,-0.1500000000000002,-9.8,-0.005161290322580648,-0.05623059875832054,0.006273901529697901,-0.01806215597798259,359.875,-0.875,90.02585765488992,0.7067747020839739,0.010620120000000007,-0.7073656185765489,0.0004882800000000004
8.0,-0.0037566404249871985,-0.26140056963645664,-0.10326212877624164,-0.1500000000000002,-9.8,-0.010241935483870973,-0.05262386792754736,0.007688992095494111,-0.012496299763184844,359.875,-0.875,90.0451868919611,0.7066046908806964,0.010620120000000007,-0.7075267447721449,0.0004882800000000004
9.0,-0.0031362007168458774,-0.2628253008192523,-0.10072740655401942,-0.1500000000000002,-9.8,-0.014050819252432165,0.026671206957245258,0.003222206221198157,-0.02524061539938556,359.875,-0.875,90.05485151049668,0.7065169338607271,0.010620120000000007,-0.7076165655350739,0.0004882800000000004
10.0,-0.0032356341773615445,-0.2631053858414679,-0.10150671836545921,-0.1500000000000002,-9.8,-0.012186699948796731,0.06774517440083908,0.012348209640255684,-0.027819522384916508,359.875,-0.875,90.05968381976447,0.706617564188428,0.010620120000000007,-0.7075414705094728,0.0004882800000000004
11.0,-0.0028569363923162047,-0.2631271936887831,-0.10094537147151607,-0.1500000000000002,-9.8,-0.011254640296979014,0.027520180646400078,-0.009394891595642767,-0.019766136000445963,359.875,-0.875,90.0625,0.7066663166615463,0.010620120000000007,-0.7075062825614444,0.0004882800000000004
12.0,-0.0028757040450588835,-0.26293270640288713,-0.10355925230827673,-0.1500000000000002,-9.8,-0.010627320148489508,-0.0062592554310572646,0.0012497735338932664,-0.03141528477177378,359.875,-0.875,90.0625,0.7066991465565796,0.010620120000000007,-0.7074804224097548,0.0004882800000000004
13.0,-0.0023604710701484893,-0.2645820326049253,-0.10353533851972976,-0.1500000000000002,-9.8,-0.010235535074244757,-0.046904679318831244,-0.0005409378458285847,-0.014573319789240704,359.875,-0.875,90.0625,0.7067170381976446,0.010620120000000007,-0.7074660003379423,0.0004882800000000004
14.0,-0.002450076804915515,-0.2632075549609368,-0.09818600003303435,-0.1500000000000002,-9.8,-0.013522785458269336,-0.1279710288555242,0.009474154732999686,0.0014979023173612152,359.875,-0.875,90.0840053763441,0.7065285596262154,0.010620120000000007,-0.7076330105990787,0.0004882800000000004
15.0,-0.0026450621872057883,-0.2617949226169829,-0.09339593346877426,-0.1500000000000002,-9.8,-0.01692268305171532,-0.06567646135804305,0.01514832433146689,0.0032848553920354134,359.875,-0.875,90.10551075268818,0.7063437999743974,0.010620120000000007,-0.7077977707834104,0.0004882800000000004
16.0,-0.002100820904150769,-0.2624028376525774,-0.09152387559255404,-0.1500000000000002,-9.8,-0.017885304659498218,0.07086440628974448,0.0013817658523693904,-0.0017497894058768142,359.875,-0.875,90.11063108038914,0.7062829218791593,0.010620120000000007,-0.7078491488069638,0.0004882800000000004
17.0,-0.0015770609318996414,-0.26345110087045565,-0.08935483870967742,-0.1500000000000002,-9.8,-0.020660522273425512,-0.012064772145417305,0.012800819252432153,-0.0017281105990783405,359.875,-0.875,90.12291986687148,0.7061899775576032,0.010600117132616499,-0.7079433405939581,0.0004682804096262165
18.0,-0.003499743983614952,-0.26501536098310285,-0.0843817204301075,-0.1500000000000002,-9.8,-0.029039938556067582,0.09616615463389656,0.007440476190476189,0.005152329749103943,359.875,-0.875,90.17436315924219,0.7058875440207371,0.010578614050179224,-0.7082403890873014,0.00044678084997439873
19.0,-0.003644393241167435,-0.26425115207373273,-0.08690028161802353,-0.1500000000000002,-9.8,-0.02682923707117256,0.14051299283154123,0.001904121863799283,-0.019857270865335383,359.875,-0.875,90.16312243983614,0.7059836873547103,0.010567862508960586,-0.7081417820551714,0.0004296317153097799
20.0,-0.003660394265232976,-0.2637564004096262,-0.10853718637992832,-0.1500000000000002,-9.8,-0.008012672811059909,0.19928875448028674,0.004712301587301587,-0.04429883512544802,359.895993343574,-0.875,90.02834181387608,0.7067627668826804,0.010562486738351268,-0.707366236828917,0.00039595198668714786
21.0,-0.003934651817716334,-0.262730734767025,-0.13408682155657967,-0.1500000000000002,-9.8,0.011777073732718907,0.15939220110087043,-0.006140392985151049,-0.042006688428059394,359.9177547363031,-0.875,89.88329853110599,0.7076343532058049,0.01055979885304661,-0.7065234023903926,0.0003791121223758318
22.0,-0.004161386328725038,-0.2620310099846389,-0.14304699500768053,-0.1500000000000002,-9.8,0.021743631592421934,0.04126164074500768,0.013442860343061958,-0.00969062019969278,359.92863543266765,-0.875,89.81047287026368,0.708045097998192,0.010559080000000014,-0.7061133463948894,0.00037131717741935457
23.0,-0.0046166154633896575,-0.2620566116231438,-0.13282154057859705,-0.1500000000000002,-9.8,0.01400121607782899,-0.17350760448668714,0.005665862615207374,-0.0029861911162314386,359.92127496159753,-0.875,89.86788254448284,0.7076874313993694,0.010559080000000014,-0.7064695437327186,0.0003677790725806449
24.0,-0.0038607270865335377,-0.2623438300051203,-0.11795058883768561,-0.1500000000000002,-9.8,0.0073937532002048174,-0.12230382744495648,0.010944700460829494,0.0072644649257552485,359.89813748079877,-0.875,89.93151561699949,0.7072800449411155,0.010559080000000014,-0.7068917120276496,0.00036620999999999973
25.0,-0.004001536098310292,-0.2635784690220173,-0.11203213005632359,-0.1500000000000002,-9.8,0.00353814644137225,-0.049823188684075786,-0.0013120839733742947,-0.020897337429595493,359.8859126984127,-0.875,89.9673579109063,0.7070535917050682,0.010559080000000014,-0.7071254155401945,0.00036620999999999973
26.0,-0.0003776241679467481,-0.26249839989759327,-0.1045977342549923,-0.1500000000000002,-9.8,0.0014490527393753209,0.09908034114183306,-0.0029441884280593956,-0.04003456221198157,359.8907130056324,-0.875,89.97439836149513,0.7070542806707625,0.010559080000000014,-0.7071020072452638,0.00036620999999999973
27.0,-0.0008454941116231436,-0.26396809395801324,-0.08616983486943161,-0.1500000000000002,-9.8,-0.011614183307731703,-0.19921174955197132,0.043362775217613926,0.10009440604198667,359.8853766641065,-0.875,90.06229998719918,0.706580923975934,0.010559080000000014,-0.707558918300051,0.00039082290322580646
28.0,-0.0015697004608294927,-0.26473366295442896,-0.07389904953917048,-0.1500000000000002,-9.8,-0.02137032770097288,-0.0854449684779826,0.01044866871479775,0.046911002304147464,359.87958029313876,-0.875,90.1289802547363,0.7062145958461337,0.010559080000000014,-0.7079165919892473,0.00041002096774193567
29.0,-8.640552995391204e-06,-0.2637756016385048,-0.06610023041474652,-0.1500000000000002,-9.8,-0.025281938044034835,-0.014984959037378395,0.01354086661546339,0.016147033410138248,359.8772901465694,-0.875,90.15420786930363,0.7060706545359697,0.010559080000000014,-0.708055724704301,0.00041962000000000027
30.0,-0.0005022721454173071,-0.26374647977470544,-0.061327124935995875,-0.1500000000000002,-9.8,-0.028124839989759363,-0.0024281554019457245,0.000930059523809524,0.022986471134152586,359.8761450732847,-0.875,90.1738781282002,0.7059868708163716,0.010559080000000014,-0.7081371044489246,0.0004244195161290326
31.0,-0.00199332757296467,-0.2648340693804403,-0.061888600870455696,-0.1500000000000002,-9.8,-0.027857862903225828,-0.013718878008192523,0.0010490671402969792,0.012437295986943164,359.8752205141129,-0.875,90.17253654233872,0.7059911527878584,0.010559080000000014,-0.7081324157741298,0.0004268192741935488
32.0,0.0004776305683563744,-0.2648313492063491,-0.0652134536610343,-0.1500000000000002,-9.8,-0.023881048387096787,-0.006103390616999487,-0.00643741199436764,0.006486415130568356,359.875,-0.875,90.14856350806451,0.7061154249977601,0.010559080000000014,-0.7080081087842429,0.00042725000000000033
33.0,0.001388880272952853,-0.26558421215880884,-0.06914097394540943,-0.1500000000000002,-9.8,-0.02177923387096775,0.07857814438585607,-0.014281075527295286,-0.0021198433622828788,359.875,-0.875,90.13577368951613,0.7061821703125004,0.010559080000000014,-0.7079413615221783,0.00042725000000000033
34.0,-0.0010217897022332513,-0.2651660980148882,-0.07175294665012405,-0.1500000000000002,-9.8,-0.020756048387096784,0.06315184941066998,-0.02404136941687345,0.0031928504962779156,359.875,-0.875,90.12959929435485,0.7062145330947587,0.010559080000000014,-0.707908997671372,0.00042725000000000033
35.0,-0.00017563585607940473,-0.2640312499999999,-0.07257669044665012,-0.1500000000000002,-9.8,-0.02021673387096775,-0.03460229916253102,-0.007365171370967742,0.0016516749379652605,359.875,-0.875,90.12629158266128,0.7062310836441539,0.010559080000000014,-0.7078924465776222,0.00042725000000000033
36.0,-0.0004259013835626738,-0.26333000366568904,-0.07217368552146776,-0.1500000000000002,-9.799999999999999,-0.02000000000000001,-0.04684765419392435,0.006565592925219941,-0.02703340006767426,359.875,-0.875,90.125,0.7062377900000008,0.010559080000000016,-0.7078857400000012,0.00042725000000000033
37.0,-0.0006553359275133467,-0.2622221125648544,-0.07047428848033685,-0.1500000000000002,-9.799999999999999,-0.02000000000000001,-0.014270310502669371,0.0054411692138506655,-0.026049655989172117,359.875,-0.875,90.125,0.7062377900000008,0.010559080000000014,-0.7078857400000012,0.00042725000000000033
38.0,-0.00012419401834724386,-0.2635502622377622,-0.06900141223024286,-0.1500000000000002,-9.799999999999999,-0.02000000000000001,0.0503555395377472,-0.0013892168819084143,-0.007891453304759757,359.875,-0.875,90.125,0.7062416674789087,0.010559080000000014,-0.7078818631563284,0.00042725000000000033
39.0,-0.001676667418602902,-0.26265237987818624,-0.05339799984961274,-0.1500000000000002,-9.8,-0.03095781637717121,-0.08130122565606436,0.036053462666365894,0.03265283103992781,359.875,-0.875,90.1929900744417,0.7058006408585604,0.010559080000000014,-0.7083248325657572,0.00042725000000000033
40.0,3.883750657944225e-05,-0.2645854951500112,-0.03907120836153095,-0.1500000000000002,-9.8,-0.04362406947890818,-0.12427344161215129,0.03300812091134672,0.06873026167381005,359.875,-0.875,90.26736197270472,0.7053094370421832,0.010559080000000014,-0.7088150690248142,0.00042725000000000033
41.0,0.00034925558312655093,-0.2655837468982629,-0.021717121588089333,-0.1500000000000002,-9.8,-0.06277977667493798,-0.06517524813895781,0.02064981389578164,0.05905707196029776,359.875,-0.875,90.35747130893301,0.7046710431985108,0.010559080000000014,-0.7094529748349876,0.00042725000000000033
42.0,0.0005840570719602977,-0.26634522332506194,-0.015704714640198514,-0.1500000000000002,-9.8,-0.07084894540942929,0.005346619106699757,0.013736817617866003,0.020983250620347393,359.875,-0.875,90.39855575372209,0.7043944952890819,0.010559080000000014,-0.7097292792040943,0.00042725000000000033
43.0,0.0006022022332506202,-0.264522487593052,-0.018671215880893308,-0.1500000000000002,-9.8,-0.06606963399503725,-0.08009654156327542,0.011970766129032258,0.02522487593052109,359.875,-0.875,90.38733618951613,0.7045081177115387,0.010559080000000014,-0.709615539120658,0.00042725000000000033
44.0,-0.000599643300248139,-0.2662810949131513,-0.02466811414392061,-0.1500000000000002,-9.8,-0.06333754652605462,0.009905203163771713,0.0008830257444168736,0.03032335607940447,359.875,-0.875,90.38307566299628,0.7045676250294668,0.010559080000000014,-0.709555912825838,0.00042725000000000033
45.0,-0.0014392059553349878,-0.2649429280397022,-0.02691811414392061,-0.1500000000000002,-9.8,-0.061746898263027344,0.009119106699751862,0.007909429280397022,0.016004962779156327,359.875,-0.875,90.37968362282878,0.7046058377667497,0.010559080000000014,-0.7095177011861047,0.00042725000000000033
46.0,0.008029024738702158,-0.26651191818933756,-0.025632453567937453,-0.15594330400782022,-9.799999999999999,-0.06430453417550192,-0.12043856680953455,-0.015246447101285811,0.043914956011730205,359.8393206256109,-0.9116568914956011,90.38610891796375,0.7045422352665616,0.01082493869012709,-0.7095784396204227,0.0006926290811339201
47.0,0.01197864501090308,-0.2643173170915106,-0.01497616362132492,-0.16329423264907136,-9.799999999999997,-0.0825219941348973,-0.10882303180690278,-0.03363598766824573,0.05742725016918565,359.7926441837732,-0.9578445747800586,90.47644465749303,0.7039110422709984,0.01116454095796678,-0.7102110653188957,0.0010324659921798621
48.0,0.013759849522969412,-0.2641168823152452,-0.008656557052320176,-0.16696969696969693,-9.799999999999997,-0.09190615835777116,-0.09858557427165997,-0.028046744621130756,0.022952264394248023,359.76930596285433,-0.9809384164222874,90.52260508308896,0.7035875702248298,0.011334342091886624,-0.710535253587487,0.0012023844477028333
49.0,0.015355449237009185,-0.2657637573468097,-0.005471747959952102,-0.16880742913000973,-9.799999999999997,-0.0965982404692081,-0.0810536338160315,-0.018786888364404012,0.012353077832134164,359.75763685239485,-0.9924853372434017,90.54557673509285,0.7034261825317704,0.011419242658846546,-0.7106969993743881,0.0012873436754643188
50.0,0.015454399556469857,-0.2653247691162952,-0.003283509140514437,-0.16972629521016613,-9.799999999999997,-0.09894428152492657,-0.05572485811412148,-0.006220273267095606,0.002188927065552005,359.7518022971651,-0.998258797653959,90.55706256109482,0.7033454886852406,0.011461692942326508,-0.7107778722678387,0.0013298232893450617
51.0,0.018161246553157973,-0.26623050436964724,-0.0038772413591864723,-0.16999999999999993,-9.799999999999997,-0.09999999999999988,-0.010471378445018309,-0.0063661713426999885,0.013911381508877895,359.75,-1.0,90.5625,0.7033081100000012,0.011474610000000017,-0.710815429999999,0.001342769999999998
52.0,0.01743350695204331,-0.2656592404546183,1.1525947972746385e-05,-0.16999999999999993,-9.799999999999997,-0.10375366568914957,-0.09515198932026087,0.011311660174202303,0.003900949796472184,359.75,-1.0,90.60844330400782,0.7031066864222877,0.011474610000000017,-0.7109934637829911,0.0013642503519061579
53.0,0.020314221543653144,-0.26792832027545554,0.0017996398892204499,-0.16999999999999993,-9.799999999999997,-0.14271174745558052,-0.1670842999080842,-0.011075916776304779,-0.009743604514944684,359.75,-1.0,90.83784356851245,0.7017142928601003,0.011474610000000017,-0.7123577091305846,0.00139613211143695
54.0,0.01807184120268604,-0.26249453836165426,0.0010305440592053064,-0.16999999999999993,-9.799999999999997,-0.13707795809503587,-0.017582773309181593,-0.03466561836258655,-0.004421345456209089,359.75,-1.0,90.7984348115515,0.701879703980919,0.011474610000000017,-0.7122122465876253,0.0014009555718475074
55.0,0.01617860050208744,-0.26394822413984653,0.0018969172660866,-0.16999999999999993,-9.799999999999999,-0.1336258276827536,0.09590046047677246,-0.02041739260861864,0.00982218688540023,359.75,-1.0,90.77476020974598,0.7020254131740823,0.011474610000000015,-0.7120784501846316,0.0014033673020527864
56.0,0.01799906229128241,-0.264282803218287,0.007442819672421193,-0.16999999999999993,-9.799999999999997,-0.13472102723336116,-0.05657662230242875,0.03829876638225784,-0.01409805801409217,359.75,-1.0,90.78935346753183,0.7019928070220365,0.011474610000000017,-0.7120960722917291,0.001404573167155426
57.0,0.020006148184516313,-0.2660309797729151,0.018749607445053374,-0.16999999999999993,-9.799999999999999,-0.14940202049689716,-0.03188374125874126,0.05445372938257188,-0.005499100440988487,359.75,-1.0,90.87399472760004,0.7014994135238762,0.011474610000000015,-0.7125760196099971,0.001404504838709678
58.0,0.01852635536506505,-0.26690382735544016,0.03282397172719754,-0.16999999999999993,-9.799999999999999,-0.1626507256184675,-0.13722366343334086,0.053566997518610424,-0.002875216181667795,359.75,-1.0,90.95452947590044,0.70101392764659,0.011474610000000015,-0.7130552994220617,0.0014038100000000006
59.0,0.01901255733513799,-0.2665908714940972,0.04308940521843749,-0.16999999999999993,-9.8,-0.1697422362583652,0.05392228739002933,0.01826923076923077,-0.011874953003985262,359.75,-1.0,90.99762764117602,0.7007524985478606,0.011474610000000015,-0.7133125623586736,0.0014038100000000006
60.0,0.022022332506203487,-0.2675096623806301,0.034327543424317625,-0.16999999999999993,-9.799999999999999,-0.16904286036544097,0.0017101849763140158,-0.06848494247687796,-0.01950616587713362,359.74169110459434,-1.0,90.99265969245809,0.7007851229217232,0.011433084369501476,-0.7132797034555984,0.0014467672629521016
61.0,0.019684186780960983,-0.26719813519813507,0.026503947665237993,-0.16999999999999993,-9.799999999999997,-0.1505404917662982,0.06422569366117753,-0.005940296262876909,-0.020902887435145498,359.68132942326486,-1.0,90.88964301827204,0.7014242703855931,0.011107323313782995,-0.7126630492449059,0.0017718125024437925
62.0,0.021063538611925718,-0.26691585833521314,0.016846980976013236,-0.16999999999999993,-9.799999999999997,-0.1397491540717347,0.10074065719227009,0.006665914730430857,-0.0359134145424468,359.6511485826002,-1.0,90.8219875554553,0.7018243393778478,0.010944442785923755,-0.712256775103993,0.0019099907233626585
63.0,0.021052861117377256,-0.26801624182269335,0.014517783291976845,-0.16999999999999993,-9.799999999999997,-0.1386586961425671,-0.017185502669373638,0.005007895330475974,-0.05069554101812166,359.6360581622678,-1.0,90.80967553951425,0.7019078923266413,0.010863002521994135,-0.7121663381822692,0.002001000808331453
64.0,0.01974231145198888,-0.2672463343108503,0.013253928866832097,-0.16999999999999993,-9.799999999999999,-0.13875862846830586,-0.03332910369200692,0.012227893074667269,-0.027999755620723363,359.62851295210163,-1.0,90.80755178960823,0.7019280870218816,0.010822282390029327,-0.7121402782325735,0.0020489292751334686
65.0,0.019404391307617126,-0.26951026392961863,0.01013625084592827,-0.16999999999999993,-9.799999999999997,-0.13894187532897206,-0.0198873035566584,0.008542465598917212,-0.020918866080156404,359.625,-1.0,90.8073224490563,0.701933018501166,0.010803219999999999,-0.7121323544657487,0.002071551094067223
66.0,0.020299571396345605,-0.2692506203473944,0.009375441762538541,-0.16999999999999993,-9.799999999999999,-0.13959801488833745,-0.03514737950221821,0.010783705541770057,-0.02150725618467554,359.625,-1.0,90.81032361455749,0.7019161236274161,0.010803219999999999,-0.7121470670666963,0.0020733755470336112
67.0,0.01987247161440711,-0.26848800661703875,0.008292653582976166,-0.16999999999999993,-9.799999999999999,-0.13996029776674934,-0.033111512143770214,0.010514888337468983,-0.017899842093390482,359.625,-1.0,90.81225186104217,0.7019056327692312,0.010803219999999999,-0.712157018684863,0.0020750485359801486
68.0,0.021094367997593816,-0.26730385743288954,0.008390405293631102,-0.16999999999999993,-9.799999999999999,-0.13999999999999996,-0.014811264004812391,0.005179900744416873,-0.03627434393563426,359.625,-1.0,90.8125,0.7019043000000005,0.010803219999999999,-0.7121581999999995,0.0020751999999999997
69.0,0.021745018422437784,-0.2673795774118353,0.009064892097150164,-0.16999999999999993,-9.799999999999997,-0.13999999999999996,-0.04292240018046469,-0.012856229791713664,-0.01462280998571321,359.625,-1.0,90.8125,0.7019043000000005,0.010803219999999999,-0.7121581999999994,0.0020751999999999997
70.0,0.02127573501767051,-0.2667860741409127,0.009493345364313111,-0.16999999999999993,-9.799999999999997,-0.13999999999999999,-0.006187495300398523,-0.018158320174449207,-0.011481126400481238,359.625,-1.0,90.8125,0.7019043000000005,0.010803219999999999,-0.7121581999999993,0.0020751999999999997
71.0,0.02046168884878563,-0.26753695766598984,0.009446424543198741,-0.16999999999999993,-9.799999999999997,-0.13999999999999996,0.014012331754267238,-0.012289457853973984,-0.008361530942176103,359.625,-1.0,90.8125,0.7019043000000005,0.010803219999999999,-0.7121581999999994,0.0020751999999999997
72.0,0.021802315963606298,-0.2669288668320925,0.008907662230242877,-0.16999999999999993,-9.799999999999997,-0.13999999999999996,0.03821668922475374,-0.011202909993232573,-0.001977592300172945,359.625,-1.0,90.8125,0.7019043000000005,0.010803219999999999,-0.7121581999999994,0.0020751999999999997
73.0,0.02172471614407099,-0.2690729378148732,0.010961651251973837,-0.16999999999999993,-9.799999999999997,-0.14046920821114367,-0.0033592751334686824,-0.001691386570418828,0.00869473268666817,359.625,-1.0,90.81592130987292,0.7018976166764419,0.010803219999999999,-0.7121830212707718,0.002070903929618768
74.0,0.024344762764117615,-0.2652769381156477,0.02276088427701332,-0.16999999999999993,-9.799999999999997,-0.14187683284457484,-0.08021702759605985,-0.0013497255432739306,0.056537615610196254,359.625,-1.0,90.82887341153469,0.7017868811534702,0.010808948093841643,-0.7123056891104589,0.002065414506353861
75.0,0.023192420482743073,-0.2669824798857056,0.034645913226558384,-0.16999999999999993,-9.799999999999997,-0.15126099706744875,-0.04107827656214753,-0.0052710730130084964,0.024436047823144597,359.625,-1.0,90.8852028347996,0.7013725731673053,0.010806084046920822,-0.7127088386495228,0.0020703072531769303
76.0,0.020897360703812328,-0.266250695541018,0.03719114219114219,-0.16999999999999993,-9.799999999999997,-0.1559530791788857,-0.03424740581998646,0.004300135348522445,0.003513422061809157,359.625,-1.0,90.91336754643206,0.7012604081965562,0.010804652023460412,-0.7128115425505683,0.0020727536265884652
77.0,0.02070794123225516,-0.26818399879690186,0.03741157173752263,-0.16999999999999993,-9.799999999999997,-0.15829912023460418,0.004542845214487005,0.010487686763565436,0.018065380294556992,359.625,-1.0,90.9274499022483,0.7012043257111817,0.010803936011730207,-0.7128628945010911,0.0020739768132942323
78.0,0.021265505317984868,-0.2684492819008947,0.03624977413855604,-0.16999999999999993,-9.799999999999997,-0.15945747800586518,0.04989483414194536,0.011475514936034917,0.004847695034864029,359.625,-1.0,90.93438416422288,0.7011860401454248,0.010803578005865101,-0.7128825449191671,0.0020747226588465296
79.0,0.021617601143840925,-0.2673258139709751,0.0358008401484569,-0.16999999999999993,-9.799999999999997,-0.15515151515151526,0.04747613163597757,0.00234699500467435,0.013986042043336219,359.625,-1.0,90.9067082111437,0.7012633059329273,0.010803219999999999,-0.7128030123325065,0.0020751999999999997
80.0,0.022105965772311477,-0.26790322580645143,0.03359069753869948,-0.16999999999999993,-9.799999999999997,-0.1524144672531771,0.03890508965436746,-0.0011152084154010006,0.012982193139872485,359.625,-1.0,90.8898460410557,0.7013150647605082,0.010803219999999999,-0.7127492232258068,0.0020751999999999997
81.0,0.022345448485072958,-0.2677520114294306,0.03189182218840381,-0.16999999999999993,-9.799999999999997,-0.151045943304008,-0.024303799634805893,0.022057348044348526,0.002795799931091217,359.625,-1.0,90.88141495601172,0.7013379757673507,0.010803219999999999,-0.712725418387097,0.0020751999999999997
82.0,0.023196330551169275,-0.26739017971276025,0.030290172193398017,-0.16999999999999993,-9.799999999999997,-0.15036168132942346,0.009135085344762763,2.02082863373209e-05,-0.001068689375140988,359.625,-1.0,90.87719941348973,0.701349431270772,0.010803219999999999,-0.7127135159677422,0.0020751999999999997
83.0,0.0233951424919167,-0.26807940446650114,0.03102706970448908,-0.16999999999999993,-9.799999999999997,-0.15001955034213116,0.00012359951876080716,-0.004654955259793968,0.01596501616662907,359.625,-1.0,90.87509164222874,0.7013548606842617,0.010803219999999999,-0.7127077288172046,0.0020751999999999997
84.0,0.021897962252800975,-0.2666007970524098,0.03199202947590046,-0.16999999999999993,-9.799999999999997,-0.1500000000000002,0.01751964433416046,-0.012484491315136476,0.02858673584480036,359.625,-1.0,90.875,0.7013549799999996,0.010803219999999999,-0.7127075200000003,0.0020751999999999997
85.0,0.022813143845401923,-0.26840424092036974,0.03279299195428229,-0.16999999999999993,-9.799999999999999,-0.1500000000000002,0.022182118956312502,-0.0012030979772915257,0.01361380554928942,359.625,-1.0,90.875,0.7013549799999996,0.010803219999999999,-0.7127075200000003,0.0020751999999999997
86.0,0.020493420557936695,-0.269083013760433,0.032659523272426515,-0.16999999999999993,-9.799999999999999,-0.1500000000000002,0.002049496202722007,0.0011664410857959249,-0.02483081434694338,359.625,-1.0,90.875,0.7013549799999996,0.010803219999999999,-0.7127075200000001,0.0020751999999999997
87.0,0.021150913602526515,-0.2685395518460033,0.03295977141138433,-0.16999999999999993,-9.8,-0.1500000000000002,0.016970495901947512,-0.008153338596886982,-0.027979312354312356,359.625,-1.0,90.875,0.7013549799999997,0.010803219999999999,-0.7127075200000001,0.0020751999999999997
88.0,0.02130039852620499,-0.270697251673058,0.02738363786750885,-0.16999999999999993,-9.799999999999999,-0.14710654936461404,0.02763988363786751,-0.03472887999097676,-0.045293231633957445,359.625,-1.0,90.85691593352882,0.7015158313782989,0.010805129364613881,-0.7125614648680352,0.002070903929618768
89.0,0.020960485750808347,-0.2669330306789983,0.030310436874953016,-0.16999999999999993,-9.799999999999999,-0.15006195954583065,-0.042824589724791334,-0.03242830757951726,-0.0481172809045793,359.625,-1.0,90.87538724716143,0.7014644844782316,0.01080417468230694,-0.7126131668558535,0.0020730519648093837
90.0,0.020500093992029487,-0.2676699892849086,0.031051000075193638,-0.16999999999999993,-9.799999999999999,-0.15519227009549602,-0.028794428857432892,-0.046642193491991876,-0.05828630794608618,359.625,-1.0,90.90745168809686,0.7013593301746002,0.010803697341153471,-0.7127296451053466,0.002074125982404692
91.0,0.0201991409128506,-0.2689181587901345,0.030094790961726462,-0.16999999999999993,-9.799999999999999,-0.1577574253703287,-0.05170594064873299,-0.018022296084292053,-0.012510324436987744,359.625,-1.0,90.92348390856455,0.7012941512163329,0.010803458670576735,-0.7128130857784801,0.0020746629912023456
92.0,0.01960012030979774,-0.26972644559741327,0.030309797729152585,-0.16999999999999993,-9.799999999999997,-0.159040003007745,0.017126757650951195,-0.006283837130611324,-0.018474603353635613,359.625,-1.0,90.9315000187984,0.7012615617371991,0.010803339335288369,-0.7128548061150468,0.0020749314956011724
93.0,0.01953740882773142,-0.2680723362658846,0.035284457478005876,-0.16999999999999993,-9.799999999999997,-0.15977171215880903,0.023848597638920218,-0.00019456350101511484,-0.0008308895405669597,359.625,-1.0,90.93607320099255,0.7012402403920606,0.010803219999999999,-0.7128802305062041,0.0020751999999999997
94.0,0.02055282352056547,-0.26843070907587036,0.03544868035190617,-0.16999999999999993,-9.799999999999999,-0.1600000000000001,0.06280829385668095,-0.018475073313782994,0.005322768629220242,359.625,-1.0,90.9375,0.7012336976129042,0.010803219999999999,-0.7128890449032265,0.0020751999999999997
95.0,0.021134145424468016,-0.2686145574855251,0.03621362508459283,-0.16999999999999993,-9.799999999999997,-0.1600000000000001,-0.0050356229791713725,-0.003403921347469735,0.00861906910294007,359.625,-1.0,90.9375,0.701232910000001,0.010803219999999999,-0.7128906200000007,0.0020751999999999997
96.0,0.02040822618241974,-0.2681758026919316,0.03892548311903151,-0.16999999999999993,-9.799999999999999,-0.1600000000000001,-0.048720768478833,0.015267125347770508,0.01944577599819535,359.625,-1.0,90.9375,0.7011256047580645,0.010803219999999999,-0.7129757771774202,0.0020751999999999997
97.0,0.02070264681555005,-0.26803218287089237,0.041872321227159934,-0.16999999999999993,-9.799999999999999,-0.1600000000000001,-0.046385066546356865,0.019149936085419955,0.019192584968794647,359.625,-1.0,90.9375,0.7010217451209672,0.010803219999999999,-0.7130592114919364,0.0020751999999999997
98.0,0.020278122415219202,-0.2674577787803593,0.04207015565080081,-0.16999999999999993,-9.8,-0.1600000000000001,-0.031249295059778928,-0.0010717441160989546,0.007851565437250919,359.625,-1.0,90.9375,0.7009698153024184,0.010803219999999999,-0.7131009286491945,0.0020751999999999997
99.0,0.02108198924731184,-0.2670576735092863,0.04191348973607037,-0.16999999999999993,-9.8,-0.1600000000000001,-0.025224523460410556,0.02727119990224829,0.033508599095796676,359.625,-1.0,90.9375,0.7009438503931442,0.010803219999999999,-0.7131217872278236,0.0020751999999999997
100.0,0.020514112903225815,-0.266774193548387,0.041249999999999995,-0.16999999999999993,-9.8,-0.1600000000000001,-0.04271673387096774,0.016507056451612902,0.04533140120967742,359.625,-1.0,90.9375,0.7009308679385069,0.010803219999999999,-0.7131322165171381,0.0020751999999999997
101.0,0.021794354838709687,-0.26753528225806444,0.04084677419354839,-0.16999999999999993,-9.8,-0.1600000000000001,-0.03751890120967742,-0.002866683467741934,0.03931451612903225,359.625,-1.0,90.9375,0.700927729999999,0.010803219999999999,-0.713134770000001,0.0020751999999999997
102.0,0.020478830645161303,-0.26759072580645143,0.03986895161290323,-0.16999999999999993,-9.8,-0.1600000000000001,0.01716859879032258,-0.019940776209677415,-0.00834803427419355,359.625,-1.0,90.9375,0.700927729999999,0.010803219999999999,-0.713134770000001,0.0020751999999999997
103.0,0.020897337429595507,-0.2677807379672297,0.04088229646697389,-0.16999999999999993,-9.8,-0.1600000000000001,0.004212269585253455,0.006233398937532003,-0.012319288434459806,359.625,-1.0,90.9375,0.700927729999999,0.010803219999999999,-0.713134770000001,0.0020751999999999997
104.0,0.021483454941116243,-0.2682059651817714,0.04295562916026625,-0.16999999999999993,-9.8,-0.1600000000000001,-0.010954701100870455,0.0012420794930875579,-0.013745379704301074,359.625,-1.0,90.9375,0.700927729999999,0.010803219999999999,-0.713134770000001,0.0020751999999999997
105.0,0.02287178379416284,-0.26833917370711713,0.042453357014848925,-0.16999999999999993,-9.8,-0.1600000000000001,-0.00808501744111623,0.0020626320084485405,-0.04258872567844341,359.625,-1.0,90.9375,0.700927729999999,0.010803219999999999,-0.713134770000001,0.0020751999999999997
106.0,0.02228918650793652,-0.2672311027905785,0.041956445212493594,-0.16999999999999993,-9.8,-0.1600000000000001,-0.038821484575012805,0.009042578725038402,-0.019781766033026112,359.625,-1.0,90.9375,0.7009897338914485,0.010803219999999999,-0.7131032654838714,0.0020751999999999997
107.0,0.024736798638983877,-0.26623920188956596,0.04165931651883785,-0.16999999999999993,-9.8,-0.1600000000000001,-0.003343697867631272,0.0014462861106981817,0.013347951043060304,359.625,-1.0,90.9375,0.701049683371322,0.010803219999999999,-0.7130306065868893,0.0020751999999999997
108.0,0.023097137571643313,-0.2671539236575655,0.039466990403514854,-0.16999999999999993,-9.8,-0.1600000000000001,-0.0010075483540624036,0.0012676940356440873,0.03710689097005434,359.625,-1.0,90.9375,0.7010832150727573,0.010803219999999999,-0.7129881799063484,0.0020751999999999997
109.0,0.021761062385412033,-0.26794460135771253,0.03736022331235651,-0.16999999999999993,-9.8,-0.1596722990271378,0.06750057810151462,-0.021351560048230182,0.03514650744099235,359.625,-1.0,90.93493983614951,0.701118982172835,0.010803219999999999,-0.7129499653576804,0.0020751999999999997
110.0,0.023189798985844785,-0.267687098425912,0.02996531390912245,-0.16999999999999993,-9.8,-0.1495135688684076,0.09069793370001486,-0.023524602348743866,-0.004892184067522256,359.625,-1.0,90.8717037890425,0.7014328838283532,0.010803219999999999,-0.7126643392917431,0.0020751999999999997
111.0,0.02369679401417176,-0.26603760963282275,0.026357464942272445,-0.16999999999999993,-9.8,-0.14443420378904248,0.07359077432568588,-0.02121890639710619,-0.027599701864790313,359.625,-1.0,90.840085765489,0.7015878970345045,0.010803219999999999,-0.7125225107749034,0.0020751999999999997
112.0,0.02365120658044697,-0.2678445072097516,0.024000792824934357,-0.16999999999999993,-9.8,-0.14189452124935992,0.07059806666336324,-0.02090146672612854,-0.04207443469930462,359.625,-1.0,90.82427675371224,0.7016644990271381,0.010803219999999999,-0.7124533748489499,0.0020751999999999997
113.0,0.02245759212460566,-0.268298069140941,0.024504897345688198,-0.16999999999999993,-9.8,-0.14062467997951864,0.10082296879903539,-0.020723906975207703,-0.06140676874287697,359.625,-1.0,90.81637224782386,0.7017026888684079,0.010803219999999999,-0.7124189974244746,0.0020751999999999997
114.0,0.021876517516475905,-0.26761293626017857,0.022738879804436528,-0.16999999999999993,-9.8,-0.13999999999999996,0.10564701947376244,-0.0014813851312290433,-0.04196810531357878,359.625,-1.0,90.8125,0.7017416913005632,0.010803219999999999,-0.712380838719918,0.0020751999999999997
115.0,0.021779726805741383,-0.2689306773698031,0.02140148324331468,-0.16999999999999993,-9.8,-0.13999999999999996,0.048445939249789405,0.0038216639413309545,-0.0072407214706902544,359.625,-1.0,90.8125,0.701794444521249,0.010803219999999999,-0.7123285854889916,0.0020751999999999997
116.0,0.021888327304560407,-0.2684899162578661,0.01941809953256364,-0.16999999999999993,-9.8,-0.13999999999999996,0.046928422773896236,-0.01777042762994896,-0.008980703797301091,359.625,-1.0,90.8125,0.7018208211315919,0.010803219999999999,-0.7123024588735283,0.0020751999999999997
117.0,0.020802404902300856,-0.26794195860793135,0.021966536180896234,-0.16999999999999993,-9.8,-0.13999999999999996,0.051064945575871684,0.007825016930115785,0.0020037411426589357,359.625,-1.0,90.8125,0.7018340094367632,0.010803219999999999,-0.7122893955657967,0.0020751999999999997
118.0,0.02136382405893333,-0.2680902829393983,0.021879325438118373,-0.16999999999999993,-9.8,-0.13999999999999996,-0.040519754554614075,-0.009080323076160744,-0.01619923029912624,359.625,-1.0,90.8125,0.7018356036917557,0.010803219999999999,-0.712282863911931,0.0020751999999999997
119.0,0.02320111325834532,-0.26827453215070274,0.02026121929868029,-0.16999999999999993,-9.8,-0.13999999999999996,0.028127219496886513,0.003396346398427565,-0.018516281816229788,359.625,-1.0,90.8125,0.701809260696364,0.010803219999999999,-0.7122802700000006,0.0020751999999999997
120.0,0.022882744495647735,-0.2679877112135176,0.019718381976446504,-0.16999999999999993,-9.8,-0.13999999999999996,0.03052995391705069,-0.00508832565284178,0.002624167946748591,359.625,-1.0,90.8125,0.7017947609933429,0.010803219999999999,-0.7122802700000006,0.0020751999999999997
121.0,0.02255504352278547,-0.2677982590885815,0.017931387608806974,-0.16999999999999993,-9.8,-0.13999999999999996,-0.0018561187916026622,0.013440860215053762,0.00508832565284178,359.625,-1.0,90.8125,0.7017875111418325,0.010803219999999999,-0.7122802700000006,0.0020751999999999997
122.0,0.022099334357398887,-0.2681208397337428,0.016600102406554025,-0.16999999999999993,-9.8,-0.13999999999999996,-0.025889656938044035,0.003136200716845878,-0.014528929851510497,359.625,-1.0,90.8125,0.7017838862160772,0.010803219999999999,-0.7122802700000006,0.0020751999999999997
123.0,0.022493599590373795,-0.26884280593958,0.01572964669738864,-0.16999999999999993,-9.8,-0.13999999999999996,-0.01657706093189964,0.01580901177675371,-0.033314132104454684,359.625,-1.0,90.8125,0.7017822299999994,0.010803219999999999,-0.7122802700000006,0.0020751999999999997
124.0,0.022457757296466985,-0.26718894009216576,0.01667562724014338,-0.16999999999999993,-9.8,-0.13999999999999996,0.0294578853046595,0.004624295954941116,-0.001200076804915514,359.625,-1.0,90.8125,0.7017822299999994,0.010803219999999999,-0.7122802700000006,0.0020751999999999997
125.0,0.023399897593445993,-0.2673195084485406,0.016138632872503847,-0.16999999999999993,-9.8,-0.13999999999999996,0.06695628520225294,0.014808947772657448,0.010792690732206862,359.625,-1.0,90.8125,0.7017822299999994,0.010803219999999999,-0.7122802700000006,0.0020751999999999997
126.0,0.024164106502816196,-0.2684562211981565,0.013533986175115215,-0.16999999999999993,-9.8,-0.13999999999999996,0.02693372375832053,0.00541234639016897,0.015869015616999486,359.625,-1.0,90.8125,0.7017822299999994,0.010803219999999999,-0.7122802700000006,0.0020751999999999997
127.0,0.023531105990783424,-0.26990911418330754,0.013643593189964165,-0.16999999999999993,-9.8,-0.13999999999999996,0.016267041090629798,-0.009998639912954427,0.03662434395801331,359.625,-1.0,90.8125,0.7017822299999994,0.010803219999999999,-0.7122802700000006,0.0020751999999999997
128.0,0.022292946748591922,-0.26971646185355846,0.013460301459293401,-0.16999999999999993,-9.8,-0.13999999999999996,0.06309703821044546,0.0002010128648233479,0.023240487391193033,359.625,-1.0,90.8125,0.7017822299999994,0.010803219999999999,-0.7122802700000006,0.0020751999999999997
129.0,0.023645833333333345,-0.2686179915514591,0.01349094342037891,-0.16999999999999993,-9.8,-0.13999999999999996,0.05796971006144393,-0.00236515136968766,0.020364303315412186,359.625,-1.0,90.8125,0.7017822299999994,0.010803219999999999,-0.7122802700000006,0.0020751999999999997
130.0,0.022982670890937033,-0.26902225742447505,0.01394721262160779,-0.16999999999999993,-9.8,-0.13999999999999996,0.04628196204557092,0.009186087909626215,0.0005975382424475168,359.625,-1.0,90.8125,0.7017822299999994,0.010803219999999999,-0.7122802700000006,0.0020751999999999997
131.0,0.02165898617511522,-0.2698463901689706,0.012283666154633905,-0.16999999999999993,-9.8,-0.13999999999999996,0.05459549411162315,3.2002048131079576e-05,-0.007712493599590373,359.625,-1.0,90.8125,0.7017822299999994,0.010803219999999999,-0.7122802700000006,0.0020751999999999997
132.0,0.020865335381464428,-0.2689196108550945,0.011162314388120844,-0.16999999999999993,-9.8,-0.13999999999999996,0.004192268305171529,0.005536354326676907,-0.013952892985151049,359.625,-1.0,90.8125,0.7017822299999994,0.010803219999999999,-0.7122802700000006,0.0020751999999999997
133.0,0.02270865335381466,-0.26815668202764964,0.013476702508960582,-0.16999999999999993,-9.8,-0.13999999999999996,0.01420890937019969,-0.008160522273425497,-0.030657962109575013,359.625,-1.0,90.8125,0.7017822299999994,0.010803219999999999,-0.7122802700000006,0.0020751999999999997
134.0,0.023405017921146968,-0.26789042498719906,0.012334869431643632,-0.16999999999999993,-9.8,-0.13999999999999996,-0.010656682027649772,0.004192268305171531,-0.004864311315924219,359.625,-1.0,90.8125,0.7017822299999994,0.010803219999999999,-0.7122802700000006,0.0020751999999999997
135.0,0.02330261136712751,-0.2686277521761391,0.01404505888376857,-0.16999999999999993,-9.8,-0.13999999999999996,-0.026401689708141322,0.005344342037890425,0.008096518177163338,359.625,-1.0,90.8125,0.7017822299999994,0.010803219999999999,-0.7122802700000006,0.0020751999999999997
136.0,0.023974530498984205,-0.26863766248781845,0.016091373073683177,-0.16999999999999993,-9.8,-0.13999999999999996,-0.0027304973324744405,-0.002907024759262013,0.01417381034966883,359.625,-1.0,90.8125,0.7017822299999994,0.010803219999999999,-0.7122802700000006,0.0020751999999999997
137.0,0.024442462382108593,-0.2691037774804683,0.01746708950663166,-0.16999999999999993,-9.8,-0.13999999999999996,-0.01754228399649836,-0.003661653700675553,0.004814759757527707,359.625,-1.0,90.8125,0.7017822299999994,0.010803219999999999,-0.7122802700000006,0.0020751999999999997
138.0,0.025098855359001054,-0.2690193746593329,0.01740994004261435,-0.16999999999999993,-9.8,-0.13999999999999996,0.004109682374510676,0.002089424045719571,-0.02092211320879375,359.625,-1.0,90.8125,0.7017822299999994,0.010803219999999999,-0.7122802700000006,0.0020751999999999997
139.0,0.02518639644550156,-0.2674999587070345,0.01663379746626365,-0.16999999999999993,-9.8,-0.13909882232462875,0.1198383793336967,-0.02327684455676131,-0.008236914259286788,359.625,-1.0,90.80686763952892,0.7018192321095746,0.010803219999999999,-0.7122487685151051,0.0020751999999999997
140.0,0.023124721272484036,-0.2685104801546008,0.014057199015575712,-0.16999999999999993,-9.8,-0.13438812083973367,0.036105536560791504,-0.008108389904695836,-0.012763139421568141,359.625,-1.0,90.77742575524833,0.7019897426676905,0.010803219999999999,-0.7121070121607779,0.0020751999999999997
141.0,0.023373800439357162,-0.26968567794790466,0.008542193151974633,-0.16999999999999993,-9.8,-0.1289196108550947,0.0781149348397007,-0.011043803577622515,0.026079604578563995,359.625,-1.0,90.74375960061444,0.7022440067741931,0.010821722652329745,-0.7118656220737323,0.0020546970609318996
142.0,0.021277108831739437,-0.26976727284739765,0.0063857093305584485,-0.16999999999999993,-9.8,-0.12413722478238612,0.018253555324314948,-0.007539063145202583,0.006876311051649242,359.625,-1.0,90.71361367127496,0.7024856448387091,0.010843975842293904,-0.7116319189400917,0.0020334440143369176
143.0,0.0212837157061923,-0.26818112746312517,0.004060750210594124,-0.16999999999999993,-9.8,-0.12174603174603182,0.01280701319723172,0.007895214971177511,-0.003490287894554283,359.625,-1.0,90.69854070660523,0.702606463870967,0.010855102437275983,-0.7115150673732713,0.0020228174910394267
144.0,0.020807112300348523,-0.2689880745916124,0.004274317427283089,-0.16999999999999993,-9.8,-0.12057859703021001,-0.07478414102373519,0.022909853327387146,0.015864757279949786,359.625,-1.0,90.69118023553507,0.7026103346778321,0.010860665734767024,-0.7115125004337413,0.0020175042293906816
145.0,0.020884825661100385,-0.26900236195761673,0.007027897527377239,-0.16999999999999993,-9.8,-0.12012800819252442,-0.1297600465784649,0.0019758683910608994,0.006631650232066465,359.625,-1.0,90.6883320532514,0.7025998983066581,0.010863447383512543,-0.7115232840878385,0.0020148475985663087
146.0,0.020711230034851272,-0.2683414267545379,0.008373139751911868,-0.16999999999999993,-9.8,-0.1200000000000001,-0.046798866095172025,0.010428538394199164,-0.01818955122805279,359.625,-1.0,90.6875,0.7025893985952136,0.010864259999999999,-0.7115340044120709,0.0020141600000000005
147.0,0.020857572303982306,-0.2680263614290668,0.008862791734800063,-0.16999999999999993,-9.8,-0.1200000000000001,0.019765910179541806,-0.0018891531638670026,-0.016068125134202138,359.625,-1.0,90.6875,0.7025805704266394,0.010864259999999997,-0.7115428960770034,0.0020141600000000005
148.0,0.02122499710949244,-0.26857539269610015,0.009147217679996041,-0.16999999999999993,-9.8,-0.1200000000000001,-0.00919026559635301,-0.006944960606511074,-0.035443816791371416,359.625,-1.0,90.6875,0.7025761563423523,0.010864259999999997,-0.7115473419094696,0.0020141600000000005
149.0,0.0212600961300233,-0.26740861866772364,0.009411079728457464,-0.16999999999999993,-9.8,-0.1200000000000001,0.002947801562525806,-0.003017483441520902,-0.005985931486711922,359.625,-1.0,90.6875,0.7025756800000005,0.010864259999999997,-0.7115478500000003,0.0020141600000000005
150.0,0.02036866359447006,-0.2670814132104453,0.009626216077828985,-0.16999999999999993,-9.8,-0.1200000000000001,0.013600870455709164,0.005440348182283666,0.00422427035330261,359.625,-1.0,90.6875,0.7025756800000005,0.010864259999999997,-0.7115478500000003,0.0020141600000000005
151.0,0.020257337759939223,-0.2686597955172355,0.009987281766678232,-0.16999999999999993,-9.8,-0.1200000000000001,0.020224262094709546,0.0029524470211254807,0.03813198883438217,359.625,-1.0,90.6875,0.7025756800000005,0.010864259999999997,-0.7115478500000002,0.0020141600000000005
152.0,0.02027715838329783,-0.26936574005252445,0.00984259121616042,-0.16999999999999993,-9.8,-0.1200000000000001,0.011344209900401369,0.014501057099912458,0.00700122227177378,359.625,-1.0,90.6875,0.7025756800000005,0.010864259999999997,-0.7115478500000003,0.0020141600000000005
153.0,0.02060452901243745,-0.26953438052293394,0.011654526534859527,-0.16999999999999993,-9.8,-0.1200000000000001,-0.008584807492195628,0.005378408734288026,0.011533125216788067,359.625,-1.0,90.6875,0.7025756800000005,0.010864259999999997,-0.7115478500000003,0.0020141600000000005
154.0,0.021264886114001628,-0.26941644781395024,0.012473448623292542,-0.16999999999999993,-9.8,-0.11762416794674865,0.04316663363229441,-0.006047354772640932,-0.0012738879804436512,359.625,-1.0,90.67367511520737,0.7026631864823352,0.010864259999999997,-0.7114593446850995,0.0020141600000000005
155.0,0.02023049733247445,-0.2685305485357513,0.005094891234329322,-0.16999999999999993,-9.8,-0.10848950332821297,0.03563221594569149,-0.011936247790826353,-0.020318203590836262,359.625,-1.0,90.61607142857142,0.7029974616282649,0.010864259999999997,-0.7111255741167428,0.0020141600000000005
156.0,0.021259600614439336,-0.26664106502816165,-0.0007322068612391187,-0.16999999999999993,-9.8,-0.10392217101894513,0.022497439836149512,-0.007008448540706605,-0.012800819252432153,359.625,-1.0,90.58726958525347,0.7031645992012299,0.010864259999999997,-0.7109586888325645,0.0020141600000000005
157.0,0.02021505376344087,-0.26545314900153594,-0.004372759856630826,-0.16999999999999993,-9.8,-0.10163850486431122,0.039330517153097794,-0.014656938044034817,0.009344598054275472,359.625,-1.0,90.57286866359448,0.7032481679877123,0.010864259999999997,-0.7108752461904754,0.0020141600000000005
158.0,0.02066564260112648,-0.2669943676395287,-0.008136200716845881,-0.16999999999999993,-9.8,-0.10049667178699426,0.0027201740911418325,-0.017505120327700973,0.011104710701484895,359.625,-1.0,90.56566820276498,0.7032899523809535,0.010864259999999997,-0.7108335248694309,0.0020141600000000005
159.0,0.020957501280081933,-0.2667076292882743,-0.009933435739887354,-0.16999999999999993,-9.8,-0.0999999999999999,-0.039554531490015366,-0.027425755248335893,0.01241679467485919,359.625,-1.0,90.56813236047107,0.703296609252433,0.010864259999999997,-0.7108214298771118,0.0020141600000000005
160.0,0.02182349734899163,-0.2671435178303022,-0.0143428637497316,-0.16999999999999993,-9.8,-0.0999999999999999,0.025560345539533885,0.0011272979535206368,0.0062961448887567505,359.625,-1.0,90.59757424475166,0.7032393557552483,0.010864259999999997,-0.710849929293395,0.0020141600000000005
161.0,0.02333366367705599,-0.2665236278347619,-0.02059181077911568,-0.16999999999999993,-9.8,-0.0999999999999999,0.05614294798738087,0.018516797978296418,-0.0024362849544951517,359.625,-1.0,90.59334997439836,0.7032647308499742,0.010864259999999997,-0.7108286768612387,0.0020141600000000005
162.0,0.022678592075054106,-0.26718596699866193,-0.02565944865632692,-0.16999999999999993,-9.8,-0.0999999999999999,0.07922055398642287,-0.06584782716416432,0.0029844490692565616,359.61927679500513,-1.0,90.57792498719917,0.7033179197798256,0.010812942206035379,-0.7107905489144897,0.0020649696566077008
163.0,0.02067621360025107,-0.270067637877211,-0.03289244834250038,-0.16999999999999993,-9.8,-0.10040322580645153,-0.02335375270468923,0.06114610689922864,0.0007801789637117422,359.5898803329864,-1.0,90.57424475166411,0.7033263024705578,0.010586585619146717,-0.7107867442959541,0.002291580312174817
164.0,0.020156335166741004,-0.26702562641428385,-0.03885021802685694,-0.16999999999999993,-9.8,-0.09028225806451612,0.08632939604908907,0.027636865533587695,-0.0058663109277703445,359.5751821019771,-1.0,90.50720846134152,0.7037393961175109,0.010473407325702387,-0.7103790689260109,0.0024048856399583748
165.0,0.021004286209801305,-0.26645506086583076,-0.043324692780337945,-0.16999999999999993,-9.8,-0.08481854838709679,0.007459703227458175,0.031004306856283963,0.0006113294476652958,359.56783298647235,-1.0,90.46933003712238,0.7039667490264968,0.01041681817898022,-0.7101552380113925,0.0024615383038501535
166.0,0.022118886576482838,-0.2669231269510925,-0.04583669354838709,-0.16999999999999993,-9.8,-0.08208669354838713,0.003377829084287202,0.0008292143600416215,-0.011615098204994796,359.56415842872,-1.0,90.45098286290323,0.7040787379233862,0.010388523605619138,-0.7100444319959676,0.002489864635796043
167.0,0.022802419354838722,-0.2665624999999998,-0.043805443548387085,-0.16999999999999993,-9.8,-0.08072076612903228,0.009135584677419354,0.002772177419354839,0.03940902217741936,359.5625,-1.0,90.44222530241936,0.7041334667036281,0.010375979999999993,-0.7099898884173388,0.0025024399999999973
168.0,0.022872983870967752,-0.26710685483870955,-0.04877016129032258,-0.16999999999999993,-9.8,-0.08002520161290327,-0.005544354838709678,0.022145917338709676,0.03383316532258065,359.5625,-1.0,90.4377205141129,0.7041614002116925,0.010375979999999993,-0.7099621397731855,0.0025024399999999973
169.0,0.022973790322580654,-0.26687499999999986,-0.054082661290322576,-0.16999999999999993,-9.8,-0.08000000000000004,0.0022681451612903223,0.01924773185483871,0.012065272177419355,359.5625,-1.0,90.4375,0.704162599999999,0.010375979999999993,-0.70996094,0.0025024399999999973
170.0,0.023069556451612912,-0.26439012096774184,-0.05547883064516129,-0.16999999999999993,-9.8,-0.08000000000000004,-0.021484375,0.01411290322580645,0.014490927419354838,359.5625,-1.0,90.4375,0.704162599999999,0.010375979999999993,-0.70996094,0.0025024399999999973
171.0,0.022772177419354847,-0.2657862903225805,-0.05939012096774193,-0.16999999999999993,-9.8,-0.08000000000000004,-0.014301915322580645,-0.0010710685483870958,-0.012033770161290322,359.5625,-1.0,90.4375,0.704162599999999,0.010375979999999993,-0.70996094,0.0025024399999999973
172.0,0.025017281105990795,-0.2672982270865334,-0.06466469854070658,-0.16999999999999993,-9.8,-0.07565796210957501,-0.029963917690732204,-0.009240091365847414,0.005878376216077827,359.5625,-1.0,90.41189836149513,0.704283105888377,0.010375979999999993,-0.7098404310803894,0.0025024399999999973
173.0,0.0250848854326677,-0.26483390937019957,-0.06833933371735791,-0.16999999999999993,-9.8,-0.0723399897593446,-0.011531738031233998,-0.025329621095750127,-0.006206397209421403,359.5625,-1.0,90.39346518177163,0.704361860911418,0.010375979999999993,-0.7097616764260115,0.0025024399999999973
174.0,0.02322036610343063,-0.26626272081413205,-0.07096150153609829,-0.16999999999999993,-9.8,-0.07754096262160783,0.043881308403737836,0.017829141065028163,-0.015546494975678442,359.5625,-1.0,90.43060355862775,0.7041593555363541,0.010375979999999993,-0.7099602428904246,0.0025024399999999973
175.0,0.0250825652841782,-0.2680141129032257,-0.08257664490527392,-0.16999999999999993,-9.8,-0.07360919098822326,0.019096722190220173,0.03128650233614951,0.011416230638760879,359.5625,-1.0,90.40179371479775,0.7043184848649515,0.010375979999999993,-0.7098030791871475,0.0025024399999999973
176.0,0.021309893063925334,-0.26555862282878406,-0.08156554019457242,-0.16999999999999993,-9.8,-0.06743486844696522,0.06027896554610264,-0.000466152910709363,0.03709163540312734,359.5749069478908,-0.996029776674938,90.37398928916065,0.7045187270081579,0.010299405588089325,-0.7096052755786854,0.002414720218362282
177.0,0.018201029481271426,-0.26594495401551843,-0.07224974398361492,-0.16999999999999993,-9.8,-0.06869183258497774,0.11451288267064476,-0.013065897755917917,-0.007575854085430697,359.60096153846155,-0.96575682382134,90.37428663126747,0.7044939149531314,0.01021168505210918,-0.70962985603179,0.0023010730124069477
178.0,0.016724682687384307,-0.26432424352081607,-0.06413818484382999,-0.16999999999999993,-9.8,-0.06673454916499272,0.07917784430511245,0.0027956481522509744,0.006724745768344561,359.6139888337469,-0.9506203473945409,90.3746113135856,0.7045299247423104,0.010167824784119105,-0.709593728000534,0.0022442494094292807
179.0,0.01604575308204341,-0.26646259699082275,-0.06988607270865335,-0.16999999999999993,-9.8,-0.05775863562960337,0.20956055033676,-0.02260446207018788,-0.010580769476938829,359.6205024813895,-0.9430521091811415,90.33748276812793,0.7047930032748531,0.01014589465012407,-0.7093332120816642,0.002212337106148332
180.0,0.015700807928630513,-0.2681570537437472,-0.08112327188940091,-0.16999999999999993,-9.8,-0.03954752057977866,0.021942973581078412,0.014619427951081173,0.011510690530347787,359.6237593052109,-0.9392679900744417,90.2359136830911,0.7054509406159213,0.010134929583126551,-0.7086759339875812,0.0021778783021781096
181.0,0.015020241295442915,-0.26738535266257035,-0.07507264464925754,-0.16999999999999993,-9.8,-0.038766001024065556,-0.027988791282642096,-0.006515416986687148,0.028859346998207885,359.625,-0.9375,90.23675115207374,0.7054696187501599,0.010131840000000001,-0.7086555389614537,0.0021853932974910404
182.0,0.016026625704045068,-0.2678494623655913,-0.07641577060931899,-0.16999999999999993,-9.8,-0.03611367127496161,0.025377624167946748,-0.019233230926779313,0.04800307219662058,359.625,-0.9375,90.22292626728111,0.7055582499590372,0.010131840000000001,-0.7085675966666666,0.0021913316487455203
183.0,0.015262416794674868,-0.266300563236047,-0.07939324116743471,-0.16999999999999993,-9.8,-0.032493599590373796,0.034682219662058374,0.006744431643625192,0.024689580133128518,359.625,-0.9375,90.20218894009216,0.7056671313210441,0.010131840000000001,-0.708457557885305,0.0021943008243727607
184.0,0.015245135688684084,-0.2662071172555042,-0.07911290322580646,-0.16999999999999993,-9.8,-0.030926779313876107,0.003276209677419357,-0.008196524577572964,-0.005640360983102919,359.625,-0.9375,90.19294034818228,0.7057200557936503,0.010131840000000001,-0.7084039756528422,0.002195894802867384
185.0,0.014660458269329244,-0.2651568100358421,-0.07927483358934972,-0.16999999999999993,-9.8,-0.03057859703020996,-0.000890056963645673,0.0042862743215565805,-0.016677067332309267,359.625,-0.9375,90.19095622119815,0.7057298138108032,0.010131840000000001,-0.7083939043522791,0.0021972700000000007
186.0,0.014388600870455716,-0.2650131208397336,-0.08021857398873528,-0.16999999999999993,-9.8,-0.030148489503328234,-0.014637936827956987,-0.00867355510752688,-0.03366815476190475,359.625,-0.9375,90.18836405529953,0.7057442715495386,0.010131840000000001,-0.7083793525038409,0.0021972700000000007
187.0,0.015468750000000007,-0.2652766577060931,-0.08103990655401945,-0.16999999999999993,-9.8,-0.030000000000000027,-0.0650826652905786,0.00020751328084997554,-0.038523465501792115,359.625,-0.9375,90.1875,0.7057491408669347,0.010131840000000001,-0.708374389193549,0.0021972700000000007
188.0,0.014492715920915718,-0.26489362932130867,-0.08215968402622928,-0.16999999999999993,-9.8,-0.030000000000000027,-0.017641387113291378,0.003746304279602927,-0.03125993611978263,359.625,-0.9375,90.1875,0.7057495099999994,0.010131840000000001,-0.7083740200000006,0.0021972700000000007
189.0,0.014500582230811165,-0.2653308392382272,-0.08585838784004754,-0.16999999999999993,-9.8,-0.030000000000000027,0.023709388368597525,-0.020928307153593315,-0.003461189258047996,359.625,-0.9375,90.1875,0.7057495099999993,0.010131840000000001,-0.7083740200000006,0.0021972700000000007
190.0,0.01472340939497548,-0.2650540524916174,-0.08727379197429924,-0.16999999999999993,-9.8,-0.030000000000000027,0.04888106387195877,-0.015360466940851955,0.00892608739862577,359.625,-0.9375,90.1875,0.7057495099999993,0.010131840000000001,-0.7083740200000006,0.0021972700000000007
191.0,0.014179421031333107,-0.26359461457146144,-0.0886215350040467,-0.16999999999999993,-9.8,-0.030000000000000027,0.008023481244735148,-0.004256014320400377,0.015983781026501824,359.625,-0.9375,90.1875,0.7057495099999993,0.010131840000000001,-0.7083740200000006,0.0021972700000000007
192.0,0.014359695794724417,-0.2648197407214705,-0.08960818653684155,-0.16999999999999993,-9.8,-0.030000000000000027,-0.025458145450341082,-0.005326211845300034,-0.004675170178633366,359.625,-0.9375,90.1875,0.7057495099999993,0.010131840000000001,-0.7083740200000006,0.0021972700000000007
193.0,0.013574228750640047,-0.26556283602150527,-0.09063916090629799,-0.16999999999999993,-9.8,-0.030000000000000027,-0.015737007168458782,-0.0027931787634408603,-0.011540238575268816,359.625,-0.9375,90.1875,0.7057495099999993,0.010131840000000001,-0.7083740200000006,0.0021972700000000007
194.0,0.014294674859190995,-0.2657682969129378,-0.09341230612952775,-0.16999999999999993,-9.8,-0.030000000000000027,-0.006275111284541567,0.0014091224419007977,-0.0368295828997572,359.625,-0.9375,90.1875,0.7057495099999994,0.010131840000000001,-0.7083740200000006,0.0021972700000000007
195.0,0.01526305683563749,-0.26641205424243913,-0.09509068967510692,-0.16999999999999993,-9.8,-0.030000000000000027,-0.0053136949151842494,0.010577193069388698,-0.03255969672381613,359.625,-0.9375,90.1875,0.7057495099999993,0.010131840000000001,-0.7083740200000006,0.0021972700000000007
196.0,0.014185547875064012,-0.26502502353699015,-0.09585691677815766,-0.16999999999999993,-9.8,-0.030000000000000027,-0.014225587856977685,0.01678533232578498,-0.028712644060832796,359.625,-0.9375,90.1875,0.7057495099999993,0.010131840000000001,-0.7083740200000006,0.0021972700000000007
197.0,0.01603286610343063,-0.2637260294336256,-0.09636419827643161,-0.16999999999999993,-9.8,-0.030000000000000027,-0.017401452402631187,0.002344279066118297,-0.01854859033558793,359.625,-0.9375,90.1875,0.7057495099999993,0.010131840000000001,-0.7083740200000006,0.0021972700000000007
198.0,0.014199948796722997,-0.26364648885915787,-0.09832070800918354,-0.16999999999999993,-9.8,-0.030000000000000027,-0.04651239614819219,0.0027082378433510067,0.021234907421171727,359.625,-0.9375,90.1875,0.7057495099999993,0.010131840000000001,-0.7083740200000006,0.0021972700000000007
199.0,0.013712877624167953,-0.2642269905273936,-0.10035442268305168,-0.16999999999999993,-9.8,-0.030000000000000027,-0.02535362263184844,-0.010303659434203789,0.03325012800819252,359.625,-0.9375,90.1875,0.7057495099999993,0.010131840000000001,-0.7083740200000006,0.0021972700000000007
200.0,0.015279377880184339,-0.2645405305939579,-0.10097086213517661,-0.16999999999999993,-9.8,-0.030000000000000027,-0.008548547107014848,-0.010576176875320021,0.002720174091141834,359.625,-0.9375,90.1875,0.7057495099999993,0.010131840000000001,-0.7083740200000006,0.0021972700000000007
201.0,0.016460253456221208,-0.2646316564260111,-0.10070468509984637,-0.16999999999999993,-9.8,-0.030000000000000027,-0.0028881848438300052,-0.007666490655401946,-0.003806243599590374,359.625,-0.9375,90.1875,0.7057495099999993,0.010131840000000001,-0.7083740200000006,0.0021972700000000007
202.0,0.018184043778801853,-0.2649783986175114,-0.10114343317972348,-0.16999999999999993,-9.8,-0.030000000000000027,0.02399753584229391,0.004551291282642089,-0.008415538594470045,359.625,-0.9375,90.1875,0.7057495099999993,0.010131840000000001,-0.7083740200000006,0.0021972700000000007
203.0,0.018149881592421924,-0.2644784466205836,-0.10024401561699947,-0.16999999999999993,-9.8,-0.030000000000000027,0.017791138632872506,0.009908134120583716,0.009185087845622119,359.625,-0.9375,90.1875,0.7057495099999993,0.010131840000000001,-0.7083740200000006,0.0021972700000000007
204.0,0.017086533538146452,-0.265467549923195,-0.10258672555043519,-0.16999999999999993,-9.8,-0.024677419354838727,0.01651905721966206,-0.0037562403993855603,-0.03287910426267281,359.625,-0.9375,90.15372983870968,0.7059665786290319,0.010131840000000001,-0.7081589215322582,0.00217068806451613
205.0,0.016336405529953926,-0.26717053891449044,-0.1026412890424987,-0.16999999999999993,-9.8,-0.022177419354838725,-0.027654769905273935,0.007858502944188429,-0.009439104102662571,359.625,-0.9375,90.1383568548387,0.7060470559274191,0.010131840000000001,-0.7080774591532257,0.0021524745161290333
206.0,0.01675691244239632,-0.2654451484895032,-0.10292850742447515,-0.16999999999999993,-9.8,-0.018830645161290335,0.03654433883768561,-0.022721454173067077,0.017127096134152583,359.625,-0.9375,90.09740423387098,0.7062502193346771,0.010131840000000001,-0.7078757736088706,0.0021433677419354846
207.0,0.016660586277521768,-0.26435851894521234,-0.10430859575012799,-0.16999999999999993,-9.8,-0.01409274193548388,0.03694536450332821,-0.021857398873527906,0.01850018401177675,359.625,-0.9375,90.07793598790323,0.7064093924092743,0.010131840000000001,-0.7077153742237898,0.0021388143548387107
208.0,0.016397369431643636,-0.2663753680235533,-0.10748967933947773,-0.16999999999999993,-9.8,-0.011723790322580651,0.034713721678187405,-0.006048387096774193,0.010338161642345108,359.625,-0.9375,90.06820186491936,0.7064889789465729,0.010131840000000001,-0.7076351745312495,0.0021365376612903233
209.0,0.016248079877112145,-0.2668746799795185,-0.10939252112135178,-0.16999999999999993,-9.8,-0.010705645161290328,0.01460043442780338,-0.005260836693548387,-0.0012415794610855105,359.625,-0.9375,90.06439012096774,0.7065219888205649,0.010131840000000001,-0.7076017965120963,0.0021362300000000007
210.0,0.01762112775217615,-0.2646070148489502,-0.1126001664106503,-0.16999999999999993,-9.8,-0.01019153225806452,-0.021279361879160266,-0.0034417202700972862,-0.009530109927035329,359.625,-0.9375,90.06243699596774,0.7065393705393148,0.010131840000000001,-0.707584292288306,0.0021362300000000007
211.0,0.018291410650281628,-0.2650656041986686,-0.11334645417306707,-0.16999999999999993,-9.8,-0.010000000000000005,-0.004654297875064002,-0.004918314772145417,-0.007962509600614438,359.625,-0.9375,90.0625,0.7065429700000003,0.010131840000000001,-0.7075805699999995,0.0021362300000000007
212.0,0.016414010496671794,-0.2648548707117254,-0.11412074372759856,-0.16999999999999993,-9.8,-0.010000000000000005,0.0441718269969278,0.004517289106502816,-0.008381536418330773,359.625,-0.9375,90.0625,0.7065429700000003,0.010131840000000001,-0.7075805699999995,0.0021362300000000007
213.0,0.01687572004608296,-0.2642605126728109,-0.11664306515617001,-0.16999999999999993,-9.8,-0.010000000000000005,0.0446153553827445,0.005682863703277009,-0.004750804051459293,359.625,-0.9375,90.0625,0.7065429700000003,0.010131840000000001,-0.7075805699999995,0.0021362300000000007
214.0,0.018258928571428582,-0.2648343894009215,-0.11717485919098822,-0.16999999999999993,-9.8,-0.010000000000000005,0.01432191660266257,0.003424219150025601,0.0013890889016897078,359.625,-0.9375,90.0625,0.7065429700000003,0.010131840000000001,-0.7075805699999995,0.0021362300000000007
215.0,0.01841005824372761,-0.2641785874295953,-0.11784242191500255,-0.16999999999999993,-9.8,-0.010000000000000005,-0.0031757032450076793,0.008896569380440348,-0.011834257392473117,359.625,-0.9375,90.0625,0.7065429700000003,0.010131840000000001,-0.7075805699999995,0.0021362300000000007
216.0,0.01758416538658475,-0.26388536866359436,-0.11934971838197643,-0.16999999999999993,-9.8,-0.010000000000000005,0.0012480798771121351,0.0009900633640552996,-0.011470734126984126,359.625,-0.9375,90.0625,0.7065429700000003,0.010131840000000001,-0.7075805699999995,0.0021362300000000007
217.0,0.01581461213517666,-0.2642071492575524,-0.1199231950844854,-0.16999999999999993,-9.8,-0.010000000000000005,0.016793074756784432,0.007343469982078853,0.00850554435483871,359.625,-0.9375,90.0625,0.7065429700000003,0.010131840000000001,-0.7075805699999995,0.0021362300000000007
218.0,0.015001520097286235,-0.2636806355606758,-0.12006144393241167,-0.16999999999999993,-9.8,-0.010000000000000005,0.0030681963645673316,-0.004632796498975935,0.007340969822068612,359.625,-0.9375,90.0625,0.7065429700000003,0.010131840000000001,-0.7075805699999995,0.0021362300000000007
219.0,0.015050563236047115,-0.26314484126984117,-0.11949756784434204,-0.16999999999999993,-9.8,-0.010000000000000005,-0.014086901561699948,-0.006428411418330773,0.012776817716333846,359.625,-0.9375,90.0625,0.7065429700000003,0.010131840000000001,-0.7075805699999995,0.0021362300000000007
220.0,0.01754832309267794,-0.26290882616487443,-0.12124903993855611,-0.16999999999999993,-9.8,-0.010000000000000005,0.0015010960701484898,-0.00036602342549923225,0.019589253712237582,359.625,-0.9375,90.0625,0.7065429700000003,0.010131840000000001,-0.7075805699999995,0.0021362300000000007
221.0,0.017051171274961606,-0.26365359383000503,-0.12222718253968255,-0.16999999999999993,-9.8,-0.010000000000000005,0.014767445116487456,0.006985447068612391,0.03315612199180747,359.625,-0.9375,90.0625,0.7065429700000003,0.010131840000000001,-0.7075805699999995,0.0021362300000000007
222.0,0.01755632360471071,-0.2632283666154633,-0.1209447004608295,-0.16999999999999993,-9.8,-0.010000000000000005,-0.005456349206349204,-0.00031201996927803346,0.03405817972350231,359.625,-0.9375,90.0625,0.7065429700000003,0.010131840000000001,-0.7075805699999995,0.0021362300000000007
223.0,0.016576420890937027,-0.26418458781362,-0.12063364055299544,-0.16999999999999993,-9.8,-0.009754224270353306,0.011752752176139272,-0.007580485151049666,0.012836821556579621,359.625,-0.9375,90.06045186891961,0.7065539705939583,0.010131840000000001,-0.7075700692319504,0.0021362300000000007
224.0,0.017155337941628268,-0.26269393241167427,-0.1276734511008705,-0.16999999999999993,-9.8,-0.004715821812596008,0.05425547235023041,-0.022311427931387608,0.012682811699948796,359.625,-0.9375,90.00603238607272,0.706844294409883,0.010131840000000001,-0.7073026266321047,0.0021362300000000007
225.0,0.01777121735791091,-0.2652550563236047,-0.13040354582693298,-0.16870967741935483,-9.8,-0.0033256528417818752,-0.04822908666154634,0.013445860535074244,0.028118799603174604,359.625,-0.9390120967741935,89.98890328981055,0.7069397422855868,0.010118550000000004,-0.7072171431547623,0.0021258937096774195
226.0,0.014666858678955457,-0.26433115719406036,-0.11015136968766004,-0.16419354838709682,-9.8,-0.022388632872503835,-0.06941444252432155,0.01255080325140809,0.024423563108038913,359.64415322580646,-0.9382560483870968,90.10584277393752,0.7062112359815028,0.01000164685483871,-0.7079343878677036,0.002020805887096774
227.0,0.011398969534050184,-0.2634098182283665,-0.09056467613927291,-0.1619354838709678,-9.8,-0.0399846390168971,-0.1149683579749104,0.009411602342549924,0.009131584421402971,359.66683467741933,-0.9378780241935484,90.20261896761392,0.7055920130713966,0.009909231169354833,-0.7085622541757877,0.0019525102016129028
228.0,0.00938100038402458,-0.263261488735279,-0.07988039234511007,-0.1608064516129033,-9.8,-0.05080645161290326,-0.06458863367255505,0.020306799635176648,0.00571786594342038,359.67817540322574,-0.9376890120967742,90.26165574596774,0.7052165929284275,0.009863023326612895,-0.708953794430444,0.001918362358870967
229.0,0.008679915514592938,-0.26298155081925234,-0.07454957117255503,-0.16024193548387106,-9.8,-0.05637096774193552,-0.022197920666922683,0.007711993567588325,0.014750944060419867,359.683845766129,-0.9375945060483871,90.29284274193549,0.705019982121976,0.009839919405241926,-0.7091577580645168,0.0019012884374999992
230.0,0.007565364183307735,-0.26308771761392713,-0.07453869047619047,-0.1600000000000001,-9.8,-0.05911794354838715,0.0035367263504864303,0.012300787250384025,0.008218525985663081,359.6866809475806,-0.9375,90.30812121975805,0.7049232302822583,0.009828782757056443,-0.7092582324495973,0.001893074485887096
231.0,0.007464637736815159,-0.26358518945212484,-0.07668970814132103,-0.1600000000000001,-9.8,-0.059873991935483914,0.02131536418330773,0.024106542818740397,0.005778869847670251,359.6875,-0.9375,90.31183845766128,0.7048991115574599,0.00982665999999999,-0.7092596190171379,0.0018920899999999993
232.0,0.007566453483792196,-0.26413440614045436,-0.0791010575446059,-0.1600000000000001,-9.8,-0.06000000000000005,0.021614567947733268,0.0119587653609831,0.016863971601874826,359.6875,-0.9375,90.3125,0.7048950200000001,0.00982665999999999,-0.7092455001209687,0.0018920899999999993
233.0,0.008418403393201785,-0.26362890301902386,-0.07994095375950212,-0.1600000000000001,-9.8,-0.06000000000000005,0.003454813415750914,0.006003384216589861,0.01848062891409666,359.6875,-0.9375,90.3125,0.7048950200000001,0.00982665999999999,-0.7092360257056461,0.0018920899999999993
234.0,0.009078114537791962,-0.26375672043010745,-0.08114386397652525,-0.1600000000000001,-9.8,-0.06000000000000005,-0.0001237002245066763,0.005081309819213045,0.018291570660522276,359.6875,-0.9375,90.3125,0.7048950200000001,0.00982665999999999,-0.7092312884979848,0.0018920899999999993
235.0,0.007654776674937967,-0.2635987903225805,-0.08046952543424318,-0.1600000000000001,-9.8,-0.06000000000000005,-0.01657490694789082,0.003260700992555831,0.010609879032258065,359.6875,-0.9375,90.3125,0.7048950200000001,0.00982665999999999,-0.7092289198941542,0.0018920899999999993
236.0,0.006609646401985113,-0.26407258064516115,-0.07806994416873447,-0.1600000000000001,-9.8,-0.06000000000000005,-0.03859239299007444,0.00811976581885856,0.010786290322580647,359.6875,-0.9375,90.3125,0.7048950200000001,0.00982665999999999,-0.709228520000001,0.0018920899999999993
237.0,0.006487205334987594,-0.2646231389578163,-0.07619254032258063,-0.1600000000000001,-9.8,-0.06000000000000005,-0.010487263492555833,0.007084076457816377,-0.00260158188585608,359.6875,-0.9375,90.3125,0.7048950200000001,0.00982665999999999,-0.709228520000001,0.0018920899999999993
238.0,0.007620967741935486,-0.26408746898263014,-0.07499193548387095,-0.1600000000000001,-9.8,-0.06000000000000005,-0.014436647022332508,0.012955567617866006,-0.015511592741935483,359.6875,-0.9375,90.3125,0.7048950200000001,0.00982665999999999,-0.709228520000001,0.0018920899999999993
239.0,0.0067186724565756846,-0.263513957816377,-0.07391532258064513,-0.1600000000000001,-9.8,-0.06000000000000005,-0.01523631358560794,0.0069197813275434245,-0.04333271944789081,359.6875,-0.9375,90.3125,0.7048950200000001,0.00982665999999999,-0.709228520000001,0.0018920899999999993
240.0,0.007228753101736976,-0.2643218827543423,-0.07489818548387095,-0.1600000000000001,-9.8,-0.06000000000000005,-0.02051362825682382,0.003924666563275434,-0.03461683855459057,359.6875,-0.9375,90.3125,0.7048950200000001,0.00982665999999999,-0.709228520000001,0.0018920899999999993
241.0,0.008523650744416876,-0.26482979218362274,-0.07558165322580643,-0.1600000000000001,-9.8,-0.06000000000000005,-0.021424278846153846,0.004261980459057072,-0.010425228753101735,359.6875,-0.9375,90.3125,0.7048950200000001,0.00982665999999999,-0.709228520000001,0.0018920899999999993
242.0,0.008605148883374693,-0.2646344602977666,-0.07581451612903224,-0.1600000000000001,-9.8,-0.06000000000000005,-0.059630893300248136,0.010969486662531017,0.00594176488833747,359.6875,-0.9375,90.3125,0.7048950200000001,0.00982665999999999,-0.709228520000001,0.0018920899999999993
243.0,0.008838554590570723,-0.2659698356079403,-0.0780040322580645,-0.1600000000000001,-9.8,-0.06000000000000005,-0.020448200992555832,-0.0033784700682382126,-0.01020374534739454,359.6875,-0.9375,90.3125,0.7048950200000001,0.00982665999999999,-0.709228520000001,0.0018920899999999993
244.0,0.009323511166253105,-0.26334026054590554,-0.07556451612903223,-0.1600000000000001,-9.8,-0.06000000000000005,-0.05231079404466501,-0.0012009537841191063,0.0005369882133995033,359.6875,-0.9375,90.31350806451613,0.7048900977419357,0.00982665999999999,-0.7092339342741945,0.0018920899999999993
245.0,0.00969897642679901,-0.2647833289022804,-0.06973617511520736,-0.1600000000000001,-9.8,-0.0636047107014849,-0.06260302197802198,0.022425489077454803,0.01756880132636181,359.6875,-0.9375,90.33655753968253,0.7047280464285712,0.00982665999999999,-0.7093962348995142,0.0018920899999999993
246.0,0.00945130272952854,-0.2642414628382369,-0.06968663594470043,-0.1600000000000001,-9.8,-0.06180235535074247,-0.08031864808578518,0.026254957240340306,0.017636467195438967,359.6875,-0.9375,90.32452876984127,0.704780028698156,0.00982665999999999,-0.7093438768045961,0.0018920899999999993
247.0,0.008780241935483876,-0.26422619047619034,-0.06902073732718891,-0.1600000000000001,-9.8,-0.06090117767537126,-0.04166366647465437,0.017384612615207372,-0.01924473166282642,359.6875,-0.9375,90.31851438492063,0.7048060198329484,0.00982665999999999,-0.709317697757137,0.0018920899999999993
248.0,0.00989679339477727,-0.2649464765745006,-0.0678744239631336,-0.1600000000000001,-9.8,-0.060450588837685656,-0.0042182699692780296,0.014080401145673323,0.004627796178955451,359.6875,-0.9375,90.31550719246032,0.7048190154003446,0.00982665999999999,-0.7093046082334076,0.0018920899999999993
249.0,0.008663114439324122,-0.26536386328725026,-0.06566100230414745,-0.1600000000000001,-9.8,-0.06022529441884285,-0.021955405145929335,0.00904057859703021,-0.014964957757296466,359.6875,-0.9375,90.31397209421402,0.7048256670046072,0.00982665999999999,-0.7092978942754742,0.0018920899999999993
250.0,0.00957349270353303,-0.2650820852534561,-0.06510008640552994,-0.1600000000000001,-9.8,-0.06000000000000005,0.02545662922427035,-0.01636104710701485,-0.032204061059907835,359.6875,-0.9375,90.3125,0.704833979999999,0.00982665999999999,-0.7093067790322582,0.0018920899999999993
251.0,0.00858966973886329,-0.2649805587557602,-0.06352030529953916,-0.1600000000000001,-9.8,-0.06000000000000005,0.014775945660522271,-0.001596602182539683,-0.003784742223502304,359.6875,-0.9375,90.3125,0.704833979999999,0.00982665999999999,-0.709329669032258,0.0018920899999999993
252.0,0.009808947772657454,-0.26484158986175105,-0.07137960829493087,-0.1600000000000001,-9.8,-0.05112903225806456,0.14205909178187404,-0.04176667306707629,0.021655385944700463,359.6875,-0.9375,90.25907258064515,0.7051819803225803,0.00982665999999999,-0.7089650552419351,0.0018920899999999993
253.0,0.010603753101736975,-0.2655842121588088,-0.07724705334987592,-0.1600000000000001,-9.8,-0.04420967741935486,0.09481912996277916,-0.0036736197270471477,0.008410553660049627,359.6875,-0.9375,90.21878877171216,0.7054393172133997,0.009829568109181135,-0.7086964507301485,0.0018920899999999993
254.0,0.009468750000000001,-0.2656393455334986,-0.08499976736972704,-0.1600000000000001,-9.8,-0.031459677419354855,0.03318276985111662,-0.0009072580645161296,-0.008658692617866006,359.6875,-0.9375,90.16887019230768,0.7057666924776675,0.009859618570719606,-0.7083629616553964,0.0018920899999999993
255.0,0.012585375310173702,-0.2655207040942926,-0.08687841191066996,-0.1600000000000001,-9.8,-0.02508467741935485,-0.02967247596153846,0.002161522952853597,-0.016972801643920597,359.6875,-0.9375,90.14391090260546,0.7059303801098016,0.009874643801488843,-0.7081956787107622,0.0018920899999999993
256.0,0.013077388337468987,-0.2654613833746896,-0.09389027605459056,-0.1600000000000001,-9.8,-0.021897177419354846,0.008473073045905706,0.0013565252791563273,-0.0197982901674938,359.6875,-0.9375,90.13143125775434,0.7060354862583749,0.009882156416873459,-0.708088327526597,0.0018920899999999993
257.0,0.012317617866004969,-0.2644019851116624,-0.09950868486352356,-0.1600000000000001,-9.8,-0.02058064516129033,0.014423076923076924,0.001457816377171216,-0.023511166253101737,359.6875,-0.9375,90.12686104218362,0.7061484052158813,0.009885912724565769,-0.7079751589875936,0.0018920899999999993
258.0,0.012544101060230097,-0.2632722761109857,-0.10292819008948037,-0.1600000000000001,-9.799999999999999,-0.02000000000000001,-0.017497556207233627,0.01875892924280021,-0.01315982404692082,359.6875,-0.9375,90.125,0.7062022604218369,0.009887700000000013,-0.7079212715186113,0.0018920899999999993
259.0,0.013396120009023238,-0.26243142341529424,-0.10611173772464094,-0.1600000000000001,-9.799999999999999,-0.02000000000000001,-0.009795614331904654,0.012372640800060154,0.002407370854951499,359.6875,-0.9375,90.125,0.7062229784367252,0.009887700000000013,-0.7079005523722095,0.0018920899999999993
260.0,0.011926347845702687,-0.2625581434694337,-0.10856951650500035,-0.1600000000000001,-9.799999999999999,-0.02000000000000001,-0.002493961012106173,0.0026503402511467026,-0.0023478034062711485,359.6875,-0.9375,90.125,0.7062333374441694,0.009887700000000013,-0.7078901927990087,0.0018920899999999993
261.0,0.010580882379269478,-0.262339176504499,-0.10961486184066827,-0.1600000000000001,-9.8,-0.02000000000000001,-0.015800773487265423,0.0023337269809044,0.008383879225613096,359.6875,-0.9375,90.125,0.7062377900000008,0.009887700000000013,-0.7078857400000012,0.0018920899999999993
262.0,0.011751453295808139,-0.2615842058926735,-0.1106812560199657,-0.1600000000000001,-9.799999999999999,-0.02000000000000001,-0.005906345838301484,0.00020485506876635902,0.008993992398730302,359.6875,-0.9375,90.125,0.7062377900000008,0.009887700000000013,-0.7078857400000012,0.0018920899999999993
263.0,0.014404939370665183,-0.2631375800498783,-0.1083469818711754,-0.1600000000000001,-9.799999999999999,-0.02317617866004964,-0.055306498357153594,0.02532847836527272,0.0035502614824691435,359.6875,-0.9375,90.14435483870967,0.7060793114689825,0.009869281975186106,-0.7080587598709681,0.0018920899999999993
264.0,0.013388167388167393,-0.2631050956212245,-0.10411056327185361,-0.1600000000000001,-9.799999999999997,-0.02674937965260548,-0.018319583642164287,0.008659664708051806,0.005906190583609938,359.6875,-0.9375,90.16693548387096,0.7059065352506197,0.009846986471464016,-0.7082557699354839,0.0018920899999999993
265.0,0.012875225133289654,-0.2628577587287264,-0.1032389044647109,-0.1600000000000001,-9.799999999999999,-0.028535980148883394,0.01562308659082853,-0.003502053502053502,-0.0018856143856143858,359.6875,-0.9375,90.17822580645161,0.7058288714689827,0.00983583871960297,-0.7083363430570723,0.0018920899999999993
266.0,0.014189788705917744,-0.263812391909166,-0.10725949319497706,-0.1600000000000001,-9.799999999999999,-0.029429280397022355,-0.015949977441912924,0.007289551846003458,-0.006775180464696594,359.6875,-0.9375,90.18387096774194,0.7058128197667497,0.009830264843672448,-0.7083315576575687,0.0018920899999999993
267.0,0.01419238288593128,-0.26332081359500703,-0.1124961275283856,-0.1600000000000001,-9.8,-0.029875930521091835,-0.015991803895029702,-0.006746512895706445,-0.014443167719377398,359.6875,-0.9375,90.1866935483871,0.7058047939156331,0.009827477905707187,-0.708329164957817,0.0018920899999999993
268.0,0.014287258440484254,-0.2622212008421685,-0.11472697195277842,-0.1600000000000001,-9.8,-0.030000000000000027,-0.04306103842394165,0.006242128167531394,-0.015131013140085721,359.6875,-0.9375,90.1875,0.7058057334441692,0.00982665999999999,-0.7083225617369733,0.0018920899999999993
269.0,0.013878722084367252,-0.2631584987593051,-0.1182481389578164,-0.1600000000000001,-9.8,-0.030000000000000027,-0.021820719602977667,-0.008349488213399503,-0.020303776364764266,359.6875,-0.9375,90.1875,0.7058091262382138,0.00982665999999999,-0.7083158069975193,0.0018920899999999993
270.0,0.014363678660049634,-0.26368098635235715,-0.12099255583126552,-0.1600000000000001,-9.8,-0.030000000000000027,0.003698821339950373,0.010465454404466501,-0.004041466346153846,359.6875,-0.9375,90.1875,0.7058105500000005,0.00982665999999999,-0.7083129900000007,0.0018920899999999993
271.0,0.014716501240694794,-0.2634323821339949,-0.13254807692307694,-0.1600000000000001,-9.8,-0.02309181141439208,0.038337468982630275,0.051599333126550864,-0.014750697890818858,359.6875,-0.9375,90.14283498759305,0.706048993672457,0.009851378769230769,-0.7080953842034745,0.0018697946550868482
272.0,0.014468672456575685,-0.2654618486352356,-0.14300728908188587,-0.1600000000000001,-9.8,-0.016223325062034753,0.05671526054590571,0.18086325217121588,-0.03878819013647643,237.90020161290323,-0.9375,90.10065136476426,0.706248728610422,0.010792448820099252,-0.7078891677468988,0.0009265284565756822
273.0,0.014544509925558318,-0.26310809553349856,-0.1331463244416874,-0.15610918114143935,-9.8,-0.024143920595533518,0.030994106699751865,0.04841859879032257,-0.023612457351116625,113.18045130272952,-0.9121898263027295,90.14308312655086,0.7060020129032258,0.011411156792183625,-0.70812143301737,0.00015504373945409436
274.0,0.011732940446650127,-0.26390787841191055,-0.11905552109181142,-0.15289330024813913,-9.8,-0.03739454094292802,-0.026337624069478906,0.016507056451612896,-0.009396324441687344,50.82107242555831,-0.8925868486352357,90.22980769230769,0.7054652491935484,0.011658474847704707,-0.7086267392506205,-0.0002995195818858564
275.0,0.009176643920595536,-0.26269339330024805,-0.11205877791563275,-0.151285359801489,-9.8,-0.04401985111662528,0.04784235421836229,0.015364260235732006,0.004188314205955334,19.6413829869727,-0.8827853598014888,90.27316997518611,0.7051968673387096,0.011782133875465247,-0.7088793923672458,-0.0005268012425558317
276.0,0.008296758684863525,-0.2623429745657567,-0.10162492245657567,-0.15048138957816398,-9.8,-0.0497258064516129,0.04195777760545906,0.004208184708436724,-0.027744552574441687,4.051538267679901,-0.8778846153846154,90.29624689826302,0.7050296298045899,0.011843190927807055,-0.709050911122829,-0.0006397453433622834
277.0,0.007951302729528537,-0.2656498138957815,-0.10375852977667493,-0.15007940446650142,-9.8,-0.04639516129032259,0.10197057227047146,-0.0022274348635235733,-0.02548076923076923,0.06246898263027295,-0.8754342431761786,90.27866780397022,0.7051694253256823,0.011844697245657551,-0.7089305183839949,-0.0006670886898263034
278.0,0.009135813782991204,-0.2635163123167154,-0.09001145527859236,-0.1500000000000002,-9.799999999999999,-0.04332661290322583,-0.07125087823802542,-0.031091535312805473,-0.0047806695992179855,0.0625,-0.875,90.26195167399804,0.7053018376545702,0.011840819999999981,-0.708793423814149,-0.0006837988367546437
279.0,0.007566898826979474,-0.26458577712609965,-0.06330461876832844,-0.1500000000000002,-9.799999999999999,-0.06585685483870965,-0.22131407319159335,-0.02285423539833822,-0.015558177541544475,0.0625,-0.875,90.39458470796676,0.704518594875672,0.011840819999999981,-0.7095893261006225,-0.0006775944183773223
280.0,0.006372314177757727,-0.26663493260771476,-0.04614719151815926,-0.1500000000000002,-9.799999999999999,-0.08190857630272946,-0.0902461533761937,-0.03647727860177457,-0.03535789227573501,0.0625,-0.875,90.4825746120479,0.7039439598571914,0.011840819999999981,-0.7101717838716508,-0.0006744922091886615
281.0,0.006556465711707649,-0.264555175671103,-0.034281334592826535,-0.1500000000000002,-9.8,-0.0916926954094292,-0.03927000209132265,-0.01470168985919994,-0.011771106497668998,0.0625,-0.875,90.52656956408848,0.7036002551024874,0.011840819999999981,-0.7105199713788692,-0.0006729411045943311
282.0,0.006297386081660277,-0.2651984547710353,-0.03000609068351005,-0.1500000000000002,-9.8,-0.09678132754342422,-0.03429918955372584,-0.01442304755056771,0.00811709292052034,0.0625,-0.875,90.54949634958456,0.7034213424025548,0.011840819999999981,-0.7107006025165512,-0.0006721655522971659
283.0,0.005123991935483871,-0.26487996277915626,-0.029789081885856092,-0.1500000000000002,-9.8,-0.09935840570719592,-0.0063832777605459055,0.009150608715880894,-0.0001560561414392053,0.0625,-0.875,90.56114541330646,0.7033486859399043,0.011840819999999981,-0.7107571298196337,-0.0006713900000000007
284.0,0.00549494367639529,-0.26554434006853356,-0.030326888613178952,-0.1500000000000002,-9.8,-0.09988585607940437,-0.01731729292213163,0.015052224880853914,-0.008373058952696048,0.0625,-0.875,90.5625,0.7033523910521091,0.011840819999999981,-0.7107308593200993,-0.0006713900000000007
285.0,0.0054422609200835016,-0.2662088946000236,-0.030538134132892216,-0.1500000000000002,-9.8,-0.0999999999999999,0.013968524754815075,-0.012045847857339791,-0.005318663471385245,0.0625,-0.875,90.5625,0.7033643249478905,0.011840819999999981,-0.7107080807593056,-0.0006713900000000007
286.0,0.004144207383118674,-0.26548409990547084,-0.03527527054039152,-0.1500000000000002,-9.8,-0.0937096774193548,0.10607700431289141,-0.017220194400133917,-0.03003216051981173,0.0625,-0.875,90.5367943548387,0.7035710047320095,0.011840819999999981,-0.7104964479602982,-0.0006713900000000007
287.0,0.0031207708062546773,-0.2660052187955413,-0.04339756390562842,-0.1500000000000002,-9.8,-0.08653225806451614,0.10615590167001457,-0.015046009098428452,-0.01800152132813423,0.0625,-0.875,90.4851310483871,0.7038490799466499,0.011840819999999981,-0.7102149118833749,-0.0006713900000000007
288.0,0.004315968529678207,-0.2652693587774232,-0.04692334770963803,-0.1500000000000002,-9.8,-0.0829435483870968,0.07655034537595021,0.0005647746071133167,-0.05121540086257828,0.0625,-0.875,90.45929939516128,0.7040407016011168,0.011840819999999981,-0.7100486826538468,-0.0006713900000000007
289.0,0.003292136850604593,-0.2652383660246562,-0.04999521200126038,-0.1500000000000002,-9.8,-0.08114919354838712,-0.012304064383197443,-0.009254223039505297,-0.032504141803536966,0.0625,-0.875,90.44638356854838,0.7041459478973331,0.011840819999999981,-0.7099614935849884,-0.0006713900000000007
290.0,0.0031721230158730162,-0.26476558499743974,-0.05127552163338452,-0.1500000000000002,-9.8,-0.0802520161290323,0.013280349942396314,0.002057131656426011,-0.023246487775217612,0.0625,-0.875,90.43992565524195,0.7041984347278232,0.011840819999999981,-0.7099180202217751,-0.0006713900000000007
291.0,0.002603206605222734,-0.264601094470046,-0.04982350870455709,-0.1500000000000002,-9.8,-0.08000000000000004,0.04040358582949309,-0.021666386648745522,0.00458829365079365,0.0625,-0.875,90.4375,0.7042184617137104,0.011840819999999981,-0.7099024843548396,-0.0006713900000000007
292.0,0.003477742575524834,-0.26399793586789544,-0.04744119623655914,-0.1500000000000002,-9.8,-0.08000000000000004,0.032890604998719916,-0.011137212781618024,0.0054463485663082435,0.0625,-0.875,90.4375,0.7042230147278234,0.011840819999999981,-0.7099002076612912,-0.0006713900000000007
293.0,0.003079946039623459,-0.2647844440505729,-0.04594396195202646,-0.1500000000000002,-9.8,-0.08000000000000004,-0.03590789810547875,-0.005836373527905786,-0.01630113558036945,0.0625,-0.875,90.4375,0.7042236300000009,0.011840819999999981,-0.709899900000001,-0.0006713900000000007
294.0,0.0033039259127968807,-0.2636185405096694,-0.04654084938359132,-0.1500000000000002,-9.8,-0.08000000000000004,0.00975982462877624,-0.01850318420378904,-0.03762445411890976,0.0625,-0.875,90.4375,0.7042236300000009,0.011840819999999981,-0.709899900000001,-0.0006713900000000007
295.0,0.003133817795108118,-0.2644806412225766,-0.04904663436921501,-0.1500000000000002,-9.8,-0.08000000000000004,0.033987775217613925,-0.01649705581157194,-0.008007035527196818,0.0625,-0.875,90.4375,0.7042236300000009,0.011840819999999981,-0.709899900000001,-0.0006713900000000007
296.0,0.00443685257394935,-0.26265250699121656,-0.04850565205403915,-0.1500000000000002,-9.8,-0.08000000000000004,0.0480998783922171,-0.02365751408090118,-0.0009553226791130013,0.0625,-0.875,90.4375,0.7042236300000009,0.011840819999999981,-0.709899900000001,-0.0006713900000000007
297.0,0.0035420309976761594,-0.2633999862145022,-0.049739257158611994,-0.1500000000000002,-9.8,-0.08000000000000004,0.02104174667178699,-0.005156330005120328,-0.004157896874630745,0.0625,-0.875,90.4375,0.7042236300000009,0.011840819999999981,-0.709899900000001,-0.0006713900000000007
298.0,0.0035005440348182286,-0.2633042114695339,-0.05181131592421914,-0.1500000000000002,-9.8,-0.0787903225806452,0.07917006688428059,-0.004090261776753713,0.02476658506144393,0.0625,-0.875,90.43397177419355,0.7042487331451619,0.011840819999999981,-0.7098733204032265,-0.0006713900000000007
299.0,0.0030047523041474658,-0.264642377112135,-0.0541442652329749,-0.1500000000000002,-9.8,-0.07374231950844853,-0.04776455693164362,0.03787742415514593,0.0317445316500256,0.0625,-0.875,90.40347782258064,0.7044021940661802,0.011840819999999981,-0.7097201023060675,-0.0006713900000000007
300.0,0.0041964285714285714,-0.26578389016897064,-0.057530801971326165,-0.1500000000000002,-9.8,-0.07170986943164362,-0.01321884600614439,0.020167290706605223,0.015037462397593446,0.0625,-0.875,90.38823084677418,0.7044704242911544,0.011840819999999981,-0.7096524940562592,-0.0006713900000000007
301.0,0.0038623271889400923,-0.26521553379416274,-0.059362679211469524,-0.1500000000000002,-9.8,-0.07069364439324115,0.0014550931259600611,0.005547355030721966,0.01900121607782898,0.0625,-0.875,90.38060735887096,0.7045045394036414,0.011840819999999981,-0.709618689931355,-0.0006713900000000007
302.0,0.0026940924219150024,-0.26334765424987183,-0.05999111943164362,-0.1500000000000002,-9.8,-0.07018553187403992,0.029537390392985148,4.5502912186380466e-05,0.0060843894009216595,0.0625,-0.875,90.37679561491935,0.704521596959885,0.011840819999999981,-0.7096017878689029,-0.0006713900000000007
303.0,0.004621467386815983,-0.2642015488991294,-0.0587669404390268,-0.1500000000000002,-9.8,-0.06996927803379413,0.050134789271674675,-0.0035720350618568615,0.01575071772335365,0.0625,-0.875,90.375,0.7045293412647204,0.011840819999999981,-0.7095941674500761,-0.0006713900000000007
304.0,0.00726977107180021,-0.2663608870967741,-0.059928785119667,-0.1500000000000002,-9.8,-0.06999999999999998,0.07867882576742975,-0.0075543867065556705,0.012339644575962538,0.0625,-0.875,90.375,0.7045288099999996,0.011840819999999981,-0.7095947299999994,-0.0006713900000000007
305.0,0.00625273307814281,-0.26503576228878634,-0.059380835212163245,-0.1500000000000002,-9.8,-0.06999999999999998,0.0804517940761112,-0.012001219690963447,0.011817933767115932,0.0625,-0.875,90.375,0.7045288099999996,0.011840819999999981,-0.7095947299999994,-0.0006713900000000007
306.0,0.0050346086665675645,-0.2657218061955964,-0.05722005950316303,-0.1500000000000002,-9.8,-0.06999999999999998,0.038406280582602446,-0.012499525776101281,0.011179054169144243,0.0625,-0.875,90.375,0.7045288099999996,0.011840819999999981,-0.7095947299999994,-0.0006713900000000007
307.0,0.004911457559090234,-0.2670292498719917,-0.05707273136448473,-0.1500000000000002,-9.8,-0.06999999999999998,0.05005936508968832,-0.0061710078477280605,0.02283688091521728,0.0625,-0.875,90.375,0.7045288099999996,0.011840819999999981,-0.7095947299999994,-0.0006713900000000007
308.0,0.004851670506912444,-0.26472430235535066,-0.0570457309267793,-0.1500000000000002,-9.8,-0.06999999999999998,0.07627838181643624,-0.0004515288978494624,0.010995703725038402,0.0625,-0.875,90.375,0.7045288099999996,0.011840819999999981,-0.7095947299999994,-0.0006713900000000007
309.0,0.0042357910906298014,-0.26411034306195585,-0.054001856118791595,-0.1500000000000002,-9.8,-0.06999999999999998,0.05242135496671787,-0.007252464157706092,-0.00285218253968254,0.0625,-0.875,90.375,0.7045288099999996,0.011840819999999981,-0.7095947299999994,-0.0006713900000000007
310.0,0.00416346646185356,-0.26469726062467985,-0.05382376472094212,-0.1500000000000002,-9.8,-0.06999999999999998,0.045395905337941626,0.0022621447772657446,0.004542290706605221,0.0625,-0.875,90.375,0.7045288099999996,0.011840819999999981,-0.7095947299999994,-0.0006713900000000007
311.0,0.004641897081413212,-0.26314740143369164,-0.05592365911418329,-0.1500000000000002,-9.8,-0.06999999999999998,0.05551605302739375,-0.006341405849974398,0.01131172395033282,0.0625,-0.875,90.375,0.7045288099999996,0.011840819999999981,-0.7095947299999994,-0.0006713900000000007
312.0,0.005309859831029188,-0.2624910394265232,-0.05542906746031745,-0.1500000000000002,-9.8,-0.06999999999999998,0.05499151945724526,-0.02081183195724526,0.0020961341525857656,0.0625,-0.875,90.375,0.7045288099999996,0.011840819999999981,-0.7095947299999994,-0.0006713900000000007
313.0,0.004379160266257042,-0.26538338453661026,-0.05440348182283665,-0.1500000000000002,-9.8,-0.06999999999999998,0.04019457245263697,-0.009460605478750638,-0.007144457245263696,0.0625,-0.875,90.375,0.7045288099999996,0.011840819999999981,-0.7095947299999994,-0.0006713900000000007
314.0,0.004628136200716847,-0.2661811955965181,-0.05435867895545314,-0.1500000000000002,-9.8,-0.06999999999999998,-0.009632616487455198,3.000192012288759e-05,0.0072684651817716325,0.0625,-0.875,90.375,0.7045288099999996,0.011840819999999981,-0.7095947299999994,-0.0006713900000000007
315.0,0.004213709677419355,-0.2654638696876599,-0.05179019457245264,-0.1500000000000002,-9.8,-0.06999999999999998,-0.00494431643625192,0.002399153545826933,0.004978318612391192,0.0625,-0.875,90.375,0.7045288099999996,0.011840819999999981,-0.7095947299999994,-0.0006713900000000007
316.0,0.004202348950332822,-0.26488119239631325,-0.04915418586789555,-0.1500000000000002,-9.8,-0.06999999999999998,0.030273937532002047,-0.008641053027393753,-0.00535934299795187,0.0625,-0.875,90.375,0.7045288099999996,0.011840819999999981,-0.7095947299999994,-0.0006713900000000007
317.0,0.005150569636456734,-0.2654723502304146,-0.04852870583717357,-0.1500000000000002,-9.8,-0.06999999999999998,0.025343621991807473,0.005303339413722477,-0.01518597190220174,0.0625,-0.875,90.375,0.7045288099999996,0.011840819999999981,-0.7095947299999994,-0.0006713900000000007
318.0,0.00453509024577573,-0.26679915514592917,-0.04864351318484383,-0.1500000000000002,-9.8,-0.06999999999999998,0.00012700812852022535,0.005643861207117255,-0.011369227630568357,0.0625,-0.875,90.375,0.7045288099999996,0.011840819999999981,-0.7095947299999994,-0.0006713900000000007
319.0,0.004044258832565284,-0.26578869047619036,-0.04844726062467998,-0.1500000000000002,-9.8,-0.06999999999999998,-0.0035592277905785964,0.00822452636968766,-0.0211363527265745,0.0625,-0.875,90.375,0.7045288099999996,0.011840819999999981,-0.7095947299999994,-0.0006713900000000007
320.0,0.005912298387096774,-0.26467237903225793,-0.05012096774193549,-0.1500000000000002,-9.8,-0.06999999999999998,0.020885836693548387,-0.006048387096774193,-0.02120085685483871,0.0625,-0.875,90.375,0.7045288099999996,0.011840819999999981,-0.7095947299999994,-0.0006713900000000007
321.0,0.0031300403225806447,-0.2650100806451612,-0.05003024193548386,-0.1500000000000002,-9.8,-0.06999999999999998,0.013923891129032258,0.01644405241935484,0.007780997983870965,0.0625,-0.875,90.375,0.7045288099999996,0.011840819999999981,-0.7095947299999994,-0.0006413622580645164
322.0,0.004006416410650282,-0.26380200332821285,-0.04988151241679467,-0.1500000000000002,-9.8,-0.06999999999999998,0.009687620007680491,0.01715509792626728,0.022205421146953404,0.0625,-0.875,90.375,0.7045288099999996,0.011840819999999981,-0.7095947299999994,-0.0006248716129032259
323.0,0.003472462237583206,-0.26426995327700964,-0.05189388120839733,-0.1500000000000002,-9.8,-0.06999999999999998,-0.018467681931643623,0.01705159130184332,0.023829525089605733,0.0625,-0.875,90.375,0.7045288099999996,0.011840819999999981,-0.7095947299999994,-0.0006166262903225808
324.0,0.005549235151049668,-0.2644762064772144,-0.05339149705581156,-0.1500000000000002,-9.8,-0.06999999999999998,-0.02925337221582181,0.009360599078341015,0.01793164762544803,0.0625,-0.875,90.375,0.7045288099999996,0.011840819999999981,-0.7095947299999994,-0.0006125036290322581
325.0,0.004102742575524834,-0.2662930427547362,-0.051748671915002556,-0.1500000000000002,-9.8,-0.06999999999999998,-0.008279029857910906,0.0065074164746543785,0.0037522401433691763,0.0625,-0.875,90.375,0.7045288099999996,0.011840819999999981,-0.7095947299999994,-0.0006104422983870968
326.0,0.0061567140296979,-0.2658027713773681,-0.05813492063492063,-0.1500000000000002,-9.8,-0.06225806451612903,0.05368243567588325,-0.01599402361751152,-0.02641269041218638,0.0625,-0.875,90.34677419354838,0.7047635973387092,0.011840819999999981,-0.7093564937903223,-0.0006270867741935485
327.0,0.005660282258064517,-0.26439012096774184,-0.06649193548387097,-0.1500000000000002,-9.8,-0.05064516129032259,0.049930695564516125,-0.015845514112903226,-0.02737525201612903,0.0625,-0.875,90.29637096774194,0.7051502346370964,0.011840819999999981,-0.708971575766129,-0.0006502229032258069
328.0,0.0043703473945409434,-0.2644990694789081,-0.07128722084367245,-0.1500000000000002,-9.8,-0.044838709677419375,0.009328473945409428,-0.0037240229528535977,-0.014577679125310172,0.0625,-0.875,90.2711693548387,0.70534355328629,0.011840819999999981,-0.7087791167540323,-0.0006617909677419361
329.0,0.003334677419354839,-0.26447665942928034,-0.07359033808933002,-0.1500000000000002,-9.8,-0.041935483870967766,-0.006120114764267992,-0.005367458901985112,-0.0015067656637717114,0.0625,-0.875,90.25856854838709,0.7054402126108867,0.011840819999999981,-0.708682887247984,-0.0006675750000000005
330.0,0.0031542338709677426,-0.26348076923076913,-0.074373294044665,-0.1500000000000002,-9.8,-0.04048387096774196,-0.03251444246277915,0.006341598169975185,-0.0051164120657568235,0.0625,-0.875,90.25226814516128,0.7054885422731851,0.011840819999999981,-0.7086347724949599,-0.0006704670161290329
331.0,0.0033840725806451605,-0.2633482475186103,-0.07704047766749379,-0.1500000000000002,-9.8,-0.04000000000000002,-0.03117342586848635,0.002745521867245657,-0.0001798038151364762,0.0625,-0.875,90.25,0.7055053699999996,0.011840819999999981,-0.7086181600000001,-0.0006713900000000007
332.0,0.0043880272952853605,-0.26273790322580637,-0.07631327543424316,-0.1500000000000002,-9.8,-0.04000000000000002,-0.03665865384615384,-0.015264423076923078,-0.01653807382133995,0.0625,-0.875,90.25,0.7055053699999996,0.011840819999999981,-0.7086181600000001,-0.0006713900000000007
333.0,0.004725031017369728,-0.26161709057071947,-0.07565043424317616,-0.1500000000000002,-9.8,-0.04000000000000002,-0.009248991935483869,-0.01684437034739454,-0.022366431451612906,0.0625,-0.875,90.25,0.7055053699999996,0.011840819999999981,-0.7086181600000001,-0.0006713900000000007
334.0,0.005629264888337471,-0.26283335918114137,-0.07499891439205955,-0.1500000000000002,-9.8,-0.04000000000000002,-0.018884731699751862,-0.009825721153846154,-0.025482223169975185,0.0625,-0.875,90.25,0.7055053699999996,0.011840819999999981,-0.7086181600000001,-0.0006713900000000007
335.0,0.0052667493796526065,-0.2633093207196028,-0.07267082816377171,-0.1500000000000002,-9.8,-0.04000000000000002,0.01062441842431762,-0.0026762174317617863,-0.012095320254342432,0.0625,-0.875,90.25,0.7055053699999996,0.011840819999999981,-0.7086181600000001,-0.0006713900000000007
336.0,0.0055902605459057075,-0.2642220843672455,-0.07071029776674936,-0.1500000000000002,-9.8,-0.04000000000000002,-0.04589116780397022,0.006633839950372209,-0.02396091811414392,0.0625,-0.875,90.25,0.7055053699999996,0.011840819999999981,-0.7086181600000001,-0.0006713900000000007
337.0,0.006176023573200993,-0.2636085607940445,-0.06986259305210918,-0.1500000000000002,-9.8,-0.04000000000000002,-0.034406502016129034,0.00838050558312655,0.00013957816377171278,0.0625,-0.875,90.25,0.7055053699999996,0.011840819999999981,-0.7086181600000001,-0.0006713900000000007
338.0,0.005507366625310174,-0.2634071029776674,-0.07251194168734491,-0.1500000000000002,-9.8,-0.04000000000000002,-0.03914440524193548,0.021106835452853596,-0.002513376240694789,0.0625,-0.875,90.25,0.7055053699999996,0.011840819999999981,-0.7086181600000001,-0.0006713900000000007
339.0,0.00539229218362283,-0.26373480148883366,-0.08118540632754342,-0.1500000000000002,-9.8,-0.037500000000000006,0.0801789314516129,0.013624864299007444,-0.008376143765508685,0.0625,-0.875,90.23336693548387,0.7055826493548389,0.011840819999999981,-0.7085403908064523,-0.0006713900000000007
340.0,0.005239628874709521,-0.26270809454882027,-0.08664505051400212,-0.1500000000000002,-9.8,-0.033588709677419365,0.07686931963645674,-0.0029949455226672955,0.011157160212099726,0.0625,-0.875,90.20942540322581,0.7057015219354843,0.011840819999999981,-0.7084217683064522,-0.0006713900000000007
341.0,0.0038363255248335896,-0.2621733390937019,-0.0935755088325653,-0.1500000000000002,-9.8,-0.031059587813620088,0.052848382296466975,0.01361537138376856,0.014841449852790577,0.0625,-0.875,90.1928463421659,0.7057879594751668,0.011840819999999981,-0.7083354549878397,-0.0006713900000000007
342.0,0.004057454515798689,-0.2644518978246865,-0.09911565178881124,-0.1500000000000002,-9.8,-0.025207213261648757,0.016396388078514443,0.016551462519407693,-0.0163546596014403,0.0625,-0.875,90.15690704205069,0.70602468796339,0.011840819999999981,-0.7080987842681139,-0.0006713900000000007
343.0,0.003261406149348397,-0.2634863495779858,-0.1028259150521117,-0.1500000000000002,-9.8,-0.022281025985663096,0.03242899481050658,0.013388308464644963,0.00625409381039096,0.0625,-0.875,90.13893739199308,0.7061430522075018,0.011840819999999981,-0.7079804489082511,-0.0006713900000000007
344.0,0.0037094296615628555,-0.26409180252052245,-0.10566341278099861,-0.1500000000000002,-9.8,-0.020896057347670263,0.017794171085013955,0.014924309994549327,0.003363312026163222,0.0625,-0.875,90.1304723502304,0.706199819349719,0.011840819999999981,-0.7079237115156181,-0.0006713900000000007
345.0,0.003738995424739441,-0.2634104685925704,-0.10682044166955715,-0.1500000000000002,-9.8,-0.02028673835125449,0.013361371256792692,0.01391056769568736,0.011954313463158416,0.0625,-0.875,90.12672811059907,0.7062256956426016,0.011840819999999981,-0.7078978346287774,-0.0006713900000000007
346.0,0.0034934674528847268,-0.26242629205688506,-0.10758023223163699,-0.1500000000000002,-9.8,-0.02000000000000001,0.005760368663594469,0.010637584031184446,-0.006261562030292519,0.0625,-0.875,90.125,0.7062377900000005,0.011840819999999981,-0.7078857400000012,-0.0006713900000000007
347.0,0.0033414267545380976,-0.2618557058619492,-0.10589729613663013,-0.1500000000000002,-9.8,-0.02000000000000001,0.019334398691838856,0.009692491287184316,-0.010203491733148341,0.0625,-0.875,90.125,0.7062377900000005,0.011840819999999981,-0.7078857400000012,-0.0006713900000000007
348.0,0.0037450336747516942,-0.2626637279614027,-0.10573582710351104,-0.1500000000000002,-9.8,-0.02000000000000001,-0.004289366005410597,-0.011194387514306996,-0.009251519648817545,0.0625,-0.875,90.125,0.7062377900000005,0.011840819999999981,-0.7078857400000012,-0.0006713900000000007
349.0,0.0038860444128180948,-0.26333758718569605,-0.10440537452990326,-0.1500000000000002,-9.8,-0.02000000000000001,-0.038711410370031,-0.0016950085334282118,-0.018673626629819803,0.0625,-0.875,90.125,0.7062377900000005,0.011840819999999981,-0.7078857400000012,-0.0006713900000000007
350.0,0.0034632640180140228,-0.2652881220040598,-0.10433001825284453,-0.1500000000000002,-9.8,-0.019833506763787728,0.02625392350864025,-0.005722138823970931,-0.00030759028334555877,0.0625,-0.875,90.12343912591051,0.7062438872320504,0.011840819999999981,-0.7078796429344443,-0.0006713900000000007
351.0,0.004093754797768717,-0.26686622541410054,-0.10286740246669279,-0.1500000000000002,-9.8,-0.02491155046826224,-0.18768924532164238,0.0006508972893672915,0.0023013297282543795,0.0625,-0.875,90.14555150884496,0.7060442068574402,0.011840819999999981,-0.7080737371279923,-0.0006713900000000007
352.0,0.006037859015256195,-0.2662484092731272,-0.08639832142065128,-0.1500000000000002,-9.8,-0.04198265695456123,-0.15563897749953087,0.016308148956858462,-0.014734480817454496,0.0625,-0.875,90.23366285119667,0.7054390287943113,0.011840819999999981,-0.7086591340048565,-0.0006650890967741943
353.0,0.0042847728061047525,-0.2653995837669094,-0.07379604578563995,-0.1500000000000002,-9.8,-0.0550496011099549,-0.08833246618106139,-0.0038371488033298647,-0.0015283558792924031,0.0625,-0.875,90.30836368366285,0.7049771870870623,0.011840819999999981,-0.7091077493853629,-0.0006367350322580647
354.0,0.00415851543531044,-0.26521540062434956,-0.0692809573361082,-0.1500000000000002,-9.8,-0.05816996184530006,-0.06644120707596253,-0.012974765868886575,0.007479188345473465,0.0625,-0.875,90.34571409989593,0.7047884382209506,0.011840819999999981,-0.7093158001765527,-0.000622558
355.0,0.005442941380506418,-0.26390842872008313,-0.0769115504682622,-0.1500000000000002,-9.8,-0.050661463753035055,0.1417273673257024,-0.013104838709677418,-0.0007154006243496351,0.0625,-0.875,90.30616545265349,0.7050876474013181,0.011840819999999981,-0.7090257291543535,-0.0006454495879292406
356.0,0.004394207422823448,-0.26365296566077,-0.08393444328824137,-0.1500000000000002,-9.8,-0.04483125216788069,0.08858610822060353,0.014145421436004163,-0.003544484911550468,0.0625,-0.875,90.27318873569197,0.7053106564087757,0.011840819999999981,-0.7088074642129729,-0.0006584197939646207
357.0,0.0049843912591051,-0.2647346514047866,-0.08719042663891777,-0.1500000000000002,-9.8,-0.042127991675338206,0.09667663891779396,-0.0027965660770031212,-0.012194328824141518,0.0625,-0.875,90.23348074921957,0.7054658979448494,0.011840819999999981,-0.7086551255879291,-0.0006651018002081172
358.0,0.005242745773698846,-0.26576354889885867,-0.08886823834462051,-0.1500000000000002,-9.8,-0.039450197028368675,0.06877494839733202,-0.006296271813855102,-0.004689552378840347,0.0625,-0.875,90.2016491530339,0.7056024698295839,0.011840819999999981,-0.7085201004083863,-0.0006692304162330912
359.0,0.005636461336381161,-0.2653817744494293,-0.09598198597772131,-0.1500000000000002,-9.8,-0.029829156786817017,0.09859468023404581,-0.023098057863223075,0.003654833592057454,0.0625,-0.875,90.15929231845243,0.7058735757264463,0.011840819999999981,-0.7082494743977416,-0.0006712947242455782
360.0,0.004293256682758739,-0.265227307620136,-0.10139369850394908,-0.1500000000000002,-9.8,-0.024552975896009972,0.04482608621483768,0.0027102062400846134,0.011322734173760257,0.0625,-0.875,90.13993492093277,0.7060059688725883,0.011840819999999981,-0.7081173370531892,-0.0006713900000000007
361.0,0.005255369236280515,-0.2648873270670919,-0.10200278057351458,-0.1500000000000002,-9.8,-0.021974718957370236,0.03922495777963528,0.011110566179355522,0.012002418075433717,0.0625,-0.875,90.13064644069532,0.7060700695351494,0.011840819999999981,-0.7080533642784156,-0.0006713900000000007
362.0,0.005244195766022416,-0.26488835059108495,-0.10463434605346206,-0.1500000000000002,-9.8,-0.017534160113269998,0.03231350539908906,0.028587238361679264,0.002640905136384572,0.0625,-0.875,90.10655737704919,0.7062386172815205,0.011840819999999981,-0.7078843673083024,-0.0006713900000000007
363.0,0.005448474096313608,-0.26466667235291097,-0.1102256870404804,-0.1500000000000002,-9.8,-0.013320226539977147,-0.005803167806758668,0.016019749748383685,-0.013297282543798297,0.0625,-0.875,90.0826943416182,0.7064043498782009,0.011840819999999981,-0.7077189287096772,-0.0006713900000000007
364.0,0.005335545282407329,-0.26479103051807357,-0.1140504256153938,-0.1500000000000002,-9.8,-0.01147540983606558,-0.004885194725439688,0.01075926289213763,-0.011074316371266268,0.0625,-0.875,90.07158910629298,0.7064808368693816,0.011840819999999981,-0.7076425725806449,-0.0006713900000000007
365.0,0.005241295781375275,-0.26519165486770935,-0.11454137595742139,-0.1500000000000002,-9.8,-0.010576414595452149,0.0017554502652633018,0.016574691663397076,0.002631309598949182,0.0625,-0.875,90.06603648863036,0.7065187945637232,0.011840819999999981,-0.7076046803225803,-0.0006713900000000007
366.0,0.006160079152522134,-0.2647228808788658,-0.11501850872554203,-0.1500000000000002,-9.8,-0.01012691697514543,-0.002302928984493611,0.010606267378584465,-0.0015235581105747082,0.0625,-0.875,90.06326017979904,0.7065377734108942,0.011840819999999981,-0.7075857341935481,-0.0006713900000000007
367.0,0.005364545128878731,-0.2637205097149484,-0.1136620835536753,-0.1500000000000002,-9.8,-0.010000000000000005,-0.022750486173896724,0.009880738131386362,0.004642107777076474,0.0625,-0.875,90.0625,0.7065429700000003,0.011840819999999981,-0.7075805699999996,-0.0006713900000000007
368.0,0.004922126882857679,-0.2651172787908769,-0.11449753501304993,-0.1500000000000002,-9.8,-0.010000000000000005,0.024150901554050593,0.013216253561010558,0.020466215178860818,0.0625,-0.875,90.0625,0.7065429700000003,0.011840819999999981,-0.7075805699999996,-0.0006713900000000007
369.0,0.005129140296708233,-0.2659201765010262,-0.11471042800361647,-0.1500000000000002,-9.8,-0.010000000000000005,0.04917222497057368,-0.0020601263483507057,0.015204022449292913,0.0625,-0.875,90.0625,0.7065429700000003,0.011840819999999981,-0.7075805699999996,-0.0006713900000000007
370.0,0.004767108487857026,-0.2662546413969964,-0.11515531976595418,-0.1500000000000002,-9.8,-0.010000000000000005,0.042433812115112324,-0.00668183472362009,0.007866421589532761,0.0625,-0.875,90.0625,0.7065429700000003,0.011840819999999981,-0.7075805699999996,-0.0006713900000000007
371.0,0.00559972251127298,-0.2653062326924934,-0.11307841899660533,-0.1500000000000002,-9.8,-0.010000000000000005,-0.0005527029562784648,-0.0034235456008370148,-0.007950862318964193,0.0625,-0.875,90.0625,0.7065429700000003,0.011840819999999981,-0.7075805699999996,-0.0006713900000000007
372.0,0.005010331906085989,-0.267007955055924,-0.11311245116937618,-0.1500000000000002,-9.8,-0.010000000000000005,-0.031873390082052505,0.011872309695615335,-0.008900074205489501,0.0625,-0.875,90.0625,0.7065429700000003,0.011840819999999981,-0.7075805699999996,-0.0006713900000000007
373.0,0.0057621898864457,-0.26456537190881524,-0.11346829634431346,-0.1500000000000002,-9.8,-0.010000000000000005,-0.01598547235632282,-0.009932731728675162,0.003842106497671482,0.0625,-0.875,90.0625,0.7065429700000003,0.011840819999999981,-0.7075805699999996,-0.0006713900000000007
374.0,0.005461740104513173,-0.26475580423397743,-0.11561049225817827,-0.1500000000000002,-9.8,-0.010000000000000005,0.0440737960799031,-0.00899862392885371,0.004995650023029289,0.0625,-0.875,90.0625,0.7065429700000003,0.011840819999999981,-0.7075805699999996,-0.0006713900000000007
375.0,0.004436316905773244,-0.26379514167277923,-0.1151690747911727,-0.1500000000000002,-9.8,-0.010000000000000005,0.028349695501612048,-0.010151083513871593,-0.004922190853107248,0.0625,-0.875,90.0625,0.7065429700000003,0.011840819999999981,-0.7075805699999996,-0.0006713900000000007
376.0,0.0034678812484718225,-0.2653810068064344,-0.11721994961987456,-0.1500000000000002,-9.8,-0.010000000000000005,0.02226122038177445,-0.006133183216481011,0.01800805172207912,0.0625,-0.875,90.0625,0.7065429700000003,0.011840819999999981,-0.7075805699999996,-0.0006713900000000007
377.0,0.004116278011861506,-0.26526057214991206,-0.11812874794584421,-0.1500000000000002,-9.8,-0.010000000000000005,0.02747447587042186,0.0033784110358631428,0.014969784718786783,0.0625,-0.875,90.0625,0.7065429700000003,0.011840819999999981,-0.7075805699999996,-0.0006713900000000007
378.0,0.004492420236206593,-0.2655552617662611,-0.11814789353075975,-0.1500000000000002,-9.8,-0.010000000000000005,0.017935285563194077,-0.0004671249779658027,0.004035563194077208,0.0625,-0.875,90.0625,0.7065429700000003,0.011840819999999981,-0.7075805699999996,-0.0006713900000000007
379.0,0.003685880486515071,-0.26574299312533034,-0.11809624537281864,-0.1500000000000002,-9.8,-0.010000000000000005,0.03268773135906927,0.005189053410893706,-0.020293495505023795,0.0625,-0.875,90.0625,0.7065429700000003,0.011840819999999981,-0.7075805699999996,-0.0006713900000000007
380.0,0.003951826137391037,-0.26598727418501883,-0.11488715647975985,-0.1500000000000002,-9.8,-0.010000000000000005,-0.007284079084287201,-0.003987478889817642,0.004132478122174649,0.0625,-0.875,90.0625,0.7065429700000003,0.011840819999999981,-0.7075805699999996,-0.0006713900000000007
381.0,0.004725780863513076,-0.2655055355589292,-0.11399037887446484,-0.1500000000000002,-9.8,-0.010000000000000005,0.001943629416079561,-0.01147946128520496,-0.0006770184746080748,0.0625,-0.875,90.0625,0.7065429700000003,0.011840819999999981,-0.7075805699999996,-0.0006713900000000007
382.0,0.004147660394739088,-0.2661372204500092,-0.11481380392692042,-0.1500000000000002,-9.8,-0.010000000000000005,0.017414834274406783,-0.024463289606113846,-0.0015779328227085855,0.0625,-0.875,90.0625,0.7065429700000003,0.011840819999999981,-0.7075805699999996,-0.0006713900000000007
383.0,0.003517510789648761,-0.26585285136725734,-0.11557718223844701,-0.1500000000000002,-9.8,-0.010000000000000005,0.02972804114566452,-0.010562554374712131,-0.019198538066563173,0.0625,-0.875,90.0625,0.7065429700000003,0.011840819999999981,-0.7075805699999996,-0.0006713900000000007
384.0,0.005374012725814983,-0.265495129731666,-0.11449045563876428,-0.1500000000000002,-9.8,-0.010000000000000005,0.015111372204500092,-0.008047990481226864,-0.009425483188618413,0.0625,-0.875,90.0625,0.7065429700000003,0.011840819999999981,-0.7075805699999996,-0.0006713900000000007
385.0,0.003951314375394484,-0.26522935466812225,-0.1125495982668327,-0.1500000000000002,-9.8,-0.010000000000000005,0.007246763105371795,-0.0006908786953480827,-0.007753194247795159,0.0625,-0.875,90.0625,0.7065429700000003,0.011840819999999981,-0.7075805699999996,-0.0006713900000000007
386.0,0.004727111444704117,-0.26442518323922587,-0.1119961106088262,-0.1500000000000002,-9.8,-0.010000000000000005,-0.012687432831237952,0.0015649255386295015,-0.0059610321670846055,0.0625,-0.875,90.0625,0.7065429700000003,0.011840819999999981,-0.7075805699999996,-0.0006713900000000007
387.0,0.0038283891438221805,-0.2648117455064452,-0.11225929274492077,-0.1500000000000002,-9.8,-0.010000000000000005,-0.06715810033946878,0.025157793282270857,0.029839420457970126,0.0625,-0.875,90.0625,0.7065429700000003,0.011840819999999981,-0.7075805699999996,-0.0006713900000000007
388.0,0.004488208489129661,-0.2652652819849216,-0.1144673865452085,-0.1500000000000002,-9.8,-0.010000000000000005,-0.07008236998876019,0.013041352467816535,0.07182171261287533,0.0625,-0.875,90.0625,0.7065429700000003,0.011844820573476689,-0.7075805699999995,-0.0006673894265232982
389.0,0.0037681450089802047,-0.2655806283733305,-0.11479806900555437,-0.1500000000000002,-9.8,-0.010000000000000005,-0.08986120960498742,0.008650102839791689,0.09020258904184886,0.0625,-0.875,90.0625,0.7065429700000003,0.01187432480286738,-0.7075805699999995,-0.0006378851971326168
390.0,0.005447159896921928,-0.26516742632184187,-0.11525601218805871,-0.1500000000000002,-9.8,-0.010000000000000005,-0.04745825044278243,-0.0019168964518647223,0.0308456724836947,0.0625,-0.875,90.0625,0.7065429700000003,0.011889076917562726,-0.7075805699999995,-0.0006231330824372761
391.0,0.00517455281072415,-0.2652281064020884,-0.1194855329757498,-0.1500000000000002,-9.8,-0.010000000000000005,-0.03141761728488328,0.005647574559525907,0.02880289256545206,0.0625,-0.875,90.0625,0.7065429700000003,0.011896452974910397,-0.7075805699999995,-0.0006157570250896058
392.0,0.008602150537634412,-0.2649871991807474,-0.12526881720430105,-0.1500000000000002,-9.8,-0.010000000000000005,-0.0015360983102918595,0.0025921658986175116,0.01491295442908346,0.0625,-0.875,90.0625,0.7065429700000003,0.011900141003584237,-0.7075805699999995,-0.0006120689964157706
393.0,0.008151561699948798,-0.2642037890424986,-0.12653865847414236,-0.1500000000000002,-9.8,-0.010000000000000005,0.012128776241679465,0.012032770097286226,-0.006592421915002559,0.0625,-0.875,90.0625,0.7065154682693292,0.011901860000000007,-0.7075945697132617,-0.00061035
394.0,0.010496671786994368,-0.26528417818740396,-0.13416282642089095,-0.1500000000000002,-9.8,-0.001397849462365593,0.18647593445980543,-0.0032642089093702,-0.04134664618535586,0.0625,-0.875,89.9862071172555,0.7069677475115204,0.011901860000000007,-0.7071415397491043,-0.0006323531541218639
395.0,0.01103430619559652,-0.26657962109575006,-0.14386584741423453,-0.1500000000000002,-9.8,0.009457245263696882,0.20596518177163337,-0.01731310803891449,-0.016641065028161803,0.07786098310291859,-0.875,89.9004416282642,0.7075119068356372,0.01186385709165386,-0.7066005046646187,-0.0006913579262672815
396.0,0.009206349206349208,-0.2665642601126471,-0.13400921658986176,-0.14573988735279064,-9.8,0.004889912954429086,0.14624935995903737,-0.017569124423963134,0.011744751664106504,0.10243855606758832,-0.875,89.9451164874552,0.7072669512903229,0.011788350158730155,-0.7068510199539175,-0.000804365647721454
397.0,0.008346134152585765,-0.26517153097798246,-0.13027649769585253,-0.14270865335381466,-9.8,0.002606246799795188,0.012320788530465941,0.02140937019969278,-0.0039042498719918063,0.1147273425499232,-0.875,89.97155017921148,0.7071254716129038,0.011750596692268304,-0.706995278847927,-0.0008648700819252427
398.0,0.008392217101894521,-0.2699027137736814,-0.1390271377368152,-0.14119303635432667,-9.8,0.0014644137224782393,0.06160394265232974,-0.01062467997951869,0.010208653353814644,0.12087173579109063,-0.875,89.97862263184844,0.7070910944086025,0.011731719959037377,-0.7070314685816697,-0.0008951222990271372
399.0,0.006251920122887864,-0.26509088581669227,-0.12990143369175627,-0.14140296979006653,-9.8,0.0012698412698412703,0.11695148489503329,-0.04282674091141833,-0.0033362135176651306,0.12394393241167434,-0.8543346774193548,89.96548579109063,0.7071508341602666,0.01171194417306708,-0.7069690035381466,-0.000921865083205325
400.0,0.007086300795978215,-0.2694581180468277,-0.10988298887492437,-0.1405401945724526,-9.799999999999999,0.030664711632453556,1.1981617732625796,-0.02678244134897361,-0.004223906693664759,0.12353372434017595,-0.8324092741935483,89.79205869175627,0.7082193712331843,0.011605231964809384,-0.7058785750775032,-0.0009247712214890842
401.0,-0.003690941674812645,-0.26556250872783127,-0.07960611297304845,-0.14133675464320627,-9.799999999999997,0.12520527859237537,0.22676905867430053,0.2899110997649304,0.01582083071498394,0.41996578690127073,-0.8282891923264907,89.2216705505516,0.7116823019097076,0.013303436456500485,-0.7023353647100034,-0.002790826088098729
402.0,0.0008902020918149936,-0.2697868079501144,-0.06920421446832735,-0.14066837732160312,-9.799999999999997,0.08888551770809835,-0.4182261091283269,0.10877575745267279,-0.03744313342347617,0.5414655237235882,-0.8193865316471163,89.43763428271997,0.7103624328680052,0.014115272285322198,-0.7036606730746049,-0.0035727033641486192
403.0,-0.007745328596135047,-0.26951147407699827,-0.04317702693811564,-0.14033418866080155,-9.799999999999997,0.015117245657568255,-0.2592442629615009,0.6254251523845779,-0.022999658691442968,1.0424214226633581,-0.8149352013074291,89.89154092295473,0.7075282772178781,0.01703947988166403,-0.7064109201361946,-0.006617168021272748
404.0,-0.004609201759045671,-0.27024245334963326,-0.03145136791754898,-0.14013685239491686,-9.799999999999999,-0.02342928039702235,-0.1210424049588982,0.023571321151966362,-0.030451340629540424,1.3563433856292857,-0.8133553274682306,90.10784833446124,0.7060929123929205,0.018943673822855944,-0.7077759704095385,-0.008579675053576671
405.0,0.0032829996919487036,-0.26895091311740627,-0.02250281005848124,-0.1400684261974584,-9.8,-0.0480772238514174,-0.15679230369006644,0.12958681103842395,-0.010682800550126253,1.2603204915965063,-0.8129276637341153,90.2525283855929,0.7052037285005808,0.018309841659115773,-0.7087088995523891,-0.007962640928660654
406.0,-0.001549226354637384,-0.2669435295886908,-0.015329622164169516,-0.13999999999999996,-9.8,-0.06876246334310852,-0.080330985351797,0.32691580012079496,-0.010084131962383783,1.5174467095512882,-0.8124999999999999,90.37314835701932,0.7044364506796728,0.019894590835391447,-0.7094280460928473,-0.009551532323347132
407.0,-0.0015299161469817038,-0.26599805951939137,-0.012675937312773947,-0.13999999999999996,-9.8,-0.07649289420257166,-0.08540832866405187,0.08911676902701879,0.04008920753197548,1.6624534436254,-0.8124999999999999,90.41779316113994,0.7041903562629133,0.020793812995939562,-0.7096476341630491,-0.01046908298813638
408.0,-0.0003467541823421118,-0.26759257184023044,-0.011739854318418319,-0.13999999999999996,-9.8,-0.07862034739454099,-0.062003722084367247,0.05951232690306573,0.03733640838869767,1.710274253582006,-0.8124999999999999,90.42931141439206,0.7041352187937244,0.021104770478908214,-0.7096922255908111,-0.010784980252621458
