time,linaccel_x,linaccel_y,linaccel_z,gravity_x,gravity_y,gravity_z,gyro_x,gyro_y,gyro_z,euler_x,euler_y,euler_z,quaternion_w,quaternion_y,quaternion_x,quaternion_z
0.0,0.06645161290322579,-0.06951612903225807,-0.05661290322580643,0.19999999999999982,-0.2100000000000003,-9.8,-0.02620967741935484,0.02217741935483871,-0.018145161290322582,117.4375,1.125,178.6875,0.01495360999999998,-0.5190429700000003,-0.8546142599999987,-0.003051759999999996
1.0,0.06739643927375286,-0.07016657852987836,-0.05340648686761853,0.1999999999999998,-0.21000000000000027,-9.8,-0.008736559139784945,0.008075533227569189,-0.016977348845408073,117.43749999999999,1.125,178.6875,0.014953609999999978,-0.5190429700000003,-0.8546142599999986,-0.003051759999999996
2.0,0.06752364404249271,-0.07079701438128573,-0.054906634961405666,0.1999999999999998,-0.2100000000000003,-9.799999999999999,-0.019050362080315995,-0.005609351972765131,-0.015212514584539968,117.43749999999999,1.125,178.6875,0.014953609999999978,-0.5190429700000003,-0.8546142599999986,-0.0030517599999999954
3.0,0.06767770055316326,-0.06870527337793333,-0.0560397629819893,0.1999999999999998,-0.2100000000000003,-9.799999999999997,-0.014098502304147466,0.0025906357460429384,0.001234159860548015,117.4375,1.125,178.6875,0.014953609999999978,-0.5190429700000003,-0.8546142599999987,-0.0030517599999999954
4.0,0.0670698551063693,-0.06868534733340859,-0.05670741219558621,0.1999999999999998,-0.2100000000000003,-9.8,-0.007897124770824042,-0.001434638617506105,0.00919932466370603,117.4375,1.125,178.6875,0.014953609999999978,-0.5190429700000003,-0.8546142599999987,-0.0030517599999999954
5.0,0.06662595376595903,-0.06885892657785833,-0.0542301492869314,0.1999999999999998,-0.2100000000000003,-9.8,0.0005704365079365076,-0.009779576712581735,0.019229243786356424,117.4375,1.125,178.6875,0.014953609999999978,-0.5190429700000003,-0.8546142599999987,-0.0030517599999999954
6.0,0.06810157450076802,-0.06876612903225804,-0.05552684971838197,0.1999999999999998,-0.2100000000000003,-9.8,0.00079725102406554,0.016599062339989756,0.01448732718894009,117.4375,1.125,178.6875,0.014953609999999978,-0.5190429700000003,-0.8546142599999987,-0.0030517599999999954
7.0,0.08226203515830982,-0.06682045513599436,-0.05567047180571794,0.21116995666827146,-0.2116947520462208,-9.799999999999999,-0.11086891352091309,0.06103508534994,1.1658692186150659,117.89103875782378,1.209256138661531,178.6860556090515,0.015258757424169466,-0.5155974953346174,-0.8566633008088584,-0.00363431060182956
8.0,0.08846231501748508,-0.06322343914294971,-0.05408805255371285,0.19936106941572962,-0.2210181540117253,-9.799999999999997,-0.14825607381453623,-0.24051283268081747,0.8312594432733773,119.03476273754566,1.15337095358124,178.63886509105328,0.015289637450225152,-0.5069695045458668,-0.8617589713721714,-0.003080826268656716
9.0,0.08865733616879218,-0.05686647556816633,-0.0539902628359962,0.18935795406270345,-0.2309929479736047,-9.799999999999997,-0.11131527842918706,-0.15590442088962297,0.3429043287500055,119.59097007845025,1.1069274122744908,178.59866641649438,0.015436643079951295,-0.5027831063548196,-0.8642427564702042,-0.0025525684693159505
10.0,0.0858001016109805,-0.0522935519409634,-0.054794794467400994,0.18435639638619036,-0.2359803449545444,-9.8,-0.014162338354048128,-0.07820048439886067,0.17620704933280132,119.86907374890255,1.0837056416211164,178.5785670792149,0.01553758531208803,-0.5007063852741843,-0.8654768953318757,-0.0022945763054176005
11.0,0.08467663663813108,-0.05169078980376047,-0.05406670800401603,0.185578515485533,-0.2390663226623595,-9.8,0.01669976263867771,-0.00698539996428138,0.0726237142864052,119.98327100982938,1.091132302566243,178.55635453379043,0.015682495720560144,-0.49985961724576455,-0.8659788017378569,-0.002279134519710388
12.0,0.07091800055305687,-0.045749102171981346,-0.05401939155617266,0.19945030733352254,-0.24512536162005794,-9.799999999999999,-0.0050107349541324946,0.0030521965031746704,0.11999625772095897,120.018793063894,1.1608014666418118,178.50642112823368,0.01631611295898011,-0.4995469644750732,-0.8661290154741285,-0.0026735716820988136
13.0,0.05562313689891933,-0.04041042176180443,-0.05434913527596985,0.21540352178820354,-0.24789000528820732,-9.799999999999999,-0.0030737151635353765,0.005028096135107988,0.10384300552082104,120.03469826709514,1.2401048367364655,178.46942557834834,0.016889211130818333,-0.4994801091191235,-0.8661604334616302,-0.00318587922814618
14.0,0.051131155672272686,-0.03478333526547822,-0.05620631366973096,0.22350821250700514,-0.2491062929666843,-9.8,0.032396391069222895,-0.012754375265385469,0.0715948849337927,120.04859913354757,1.2803346764327488,178.45144666014193,0.017171648791215622,-0.499437363368495,-0.866183475557118,-0.003449892864693436
15.0,0.04867171727422166,-0.03451445639444567,-0.05575664278699867,0.22756055786640594,-0.24971443680592278,-9.8,0.024474080029928826,-0.012913347882432587,0.02454614173848844,120.05554956677378,1.3004495962808904,178.44245720103868,0.017312010139624464,-0.4994154755552155,-0.8661952389075915,-0.0035817079099741884
16.0,0.04808710950152932,-0.03436974497711138,-0.05433148008039678,0.2294703899855564,-0.25,-9.8,-0.0014098399427299266,0.015347520013955982,-0.018016916113630127,120.05980148883376,1.3099121328839671,178.4383425613866,0.017379239585941265,-0.4993985443825789,-0.866204719427355,-0.0036440668608570034
17.0,0.04366420798821943,-0.03284641907404656,-0.054348401136382396,0.23000000000000032,-0.25,-9.8,0.0013825549847597193,0.05528478785421423,0.007536516083927632,120.062158808933,1.3125,178.4375,0.017395020000000008,-0.49938998316625355,-0.8662106067791567,-0.003662109999999998
18.0,0.0429288781876581,-0.033264400604020805,-0.05387395242923338,0.23000000000000032,-0.25,-9.8,-0.007768710100672249,0.019732964646710094,0.0051795483645444606,120.0625,1.3125,178.4375,0.017395020000000008,-0.49938965000000046,-0.8662109400000004,-0.003662109999999998
19.0,0.04411558722884815,-0.0324288051308733,-0.05474693328263827,0.23000000000000032,-0.25,-9.8,-0.007389810168694468,0.010378515093452332,0.01643779891739374,120.0625,1.3125,178.4375,0.017395020000000008,-0.49938965000000046,-0.8662109400000004,-0.003662109999999998
20.0,0.04431517808703032,-0.032039975402098214,-0.05613826758857975,0.23000000000000032,-0.25,-9.8,-0.014234829639518765,0.004369955111370304,0.002421028394948792,120.0625,1.3125,178.4375,0.017395020000000008,-0.49938965000000046,-0.8662109400000004,-0.003662109999999998
21.0,0.0443495365341099,-0.03369020302162864,-0.05452042651821527,0.23000000000000032,-0.25,-9.8,0.010455425971083489,0.015519444857374097,-0.003551152335784229,120.0625,1.3125,178.4375,0.017395020000000008,-0.49938965000000046,-0.8662109400000004,-0.003662109999999998
22.0,0.04459672456258043,-0.035044893394269055,-0.053238361021854766,0.23000000000000032,-0.25,-9.8,0.00769909696056776,-0.00734498620814958,-0.01601855223448941,120.0625,1.3125,178.4375,0.017395020000000008,-0.49938965000000046,-0.8662109400000004,-0.003662109999999998
23.0,0.04432759615225795,-0.03516171468720897,-0.054263488823582465,0.23000000000000032,-0.25,-9.8,0.002132203954849636,0.03231153295051578,-0.02497723129714545,120.0625,1.3125,178.4375,0.017395020000000008,-0.49938965000000046,-0.8662109400000004,-0.003662109999999998
24.0,0.04510818343986918,-0.03607882890609219,-0.05425191456421945,0.23000000000000032,-0.25,-9.8,0.021624956205633886,0.005403078303214881,-0.013962433049809481,120.0625,1.3125,178.4375,0.017395020000000008,-0.49938965000000046,-0.8662109400000004,-0.003662109999999998
25.0,0.04602823406504468,-0.03631770426359398,-0.05450562958113686,0.23000000000000032,-0.25,-9.8,0.01466072439057936,0.015838379909415938,0.0007712796348494843,120.0625,1.3125,178.4375,0.017395020000000004,-0.49938965000000046,-0.8662109400000004,-0.003662109999999998
26.0,0.04548221916971915,-0.03712263184843831,-0.05403229129741226,0.23000000000000032,-0.25,-9.8,-0.012064749067017214,0.011450417442100909,0.006519824961105203,120.0625,1.3125,178.4375,0.017395020000000004,-0.49938965000000046,-0.8662109400000004,-0.003662109999999998
27.0,0.04659791642049706,-0.03640981822836663,-0.05362188841624324,0.23000000000000032,-0.25,-9.8,0.00771375521879554,0.016391141340738116,-0.008091564013943045,120.0625,1.3125,178.4375,0.017395020000000004,-0.49938965000000046,-0.8662109400000004,-0.003662109999999998
28.0,0.04561027413446768,-0.03606985062428612,-0.053283156583559796,0.23000000000000032,-0.25,-9.8,-0.01451426737465044,0.02295196123321123,-0.015295240433849304,120.0625,1.3125,178.4375,0.017395020000000004,-0.49938965000000046,-0.8662109400000004,-0.003662109999999998
29.0,0.04604539859781794,-0.03498935439560441,-0.05435161019536018,0.23000000000000032,-0.25,-9.8,-0.021296678372031197,0.020248726687738784,0.0013173843125960068,120.0625,1.3125,178.4375,0.017395020000000004,-0.49938965000000046,-0.8662109400000004,-0.003662109999999998
30.0,0.047024715427941226,-0.03497199574618931,-0.05451703493638976,0.23000000000000032,-0.25,-9.8,-0.021847305919886567,0.0011462887470952005,0.001430491551459294,120.0625,1.3125,178.4375,0.017395020000000004,-0.49938965000000046,-0.8662109400000004,-0.003662109999999998
31.0,0.04676281797171494,-0.034607105693474076,-0.055281570377824274,0.23000000000000032,-0.25,-9.8,-0.02074015019839682,0.02230131214750101,0.011455260183798164,120.0625,1.3125,178.4375,0.017395020000000008,-0.49938965000000046,-0.8662109400000004,-0.003662109999999998
32.0,0.04651410424758498,-0.03499054327566296,-0.05528933377294458,0.23000000000000032,-0.25,-9.8,-0.019238827314724816,0.007356690183010421,0.023961658608185662,120.0625,1.3125,178.4375,0.017395020000000008,-0.49938965000000046,-0.8662109400000004,-0.003662109999999998
33.0,0.04604136816617304,-0.03502345313375491,-0.05545458456735771,0.23000000000000032,-0.25,-9.8,-0.020457768850556314,0.011122759995597534,0.01979302159209157,120.0625,1.3125,178.4375,0.017395020000000008,-0.49938965000000046,-0.8662109400000004,-0.003662109999999998
34.0,0.0466031016655041,-0.035068818220743314,-0.054197023269538874,0.23000000000000032,-0.25,-9.8,-0.0036657566927955866,0.006833830665410725,0.0004007646067512097,120.0625,1.3125,178.4375,0.017395020000000008,-0.49938965000000046,-0.8662109400000004,-0.003662109999999998
35.0,0.04619039233399273,-0.0349153024106198,-0.05464325419060069,0.23000000000000032,-0.25,-9.8,0.007942924228043895,0.004677238301067645,0.007613049021737888,120.0625,1.3125,178.4375,0.017395020000000004,-0.49938965000000046,-0.8662109400000004,-0.003662109999999998
36.0,0.04662017015242821,-0.03448418606483124,-0.054160857064082864,0.23000000000000032,-0.25,-9.8,0.01538535389341841,-0.0033845858442632633,0.01909008330379298,120.0625,1.3125,178.4375,0.017395020000000004,-0.49938965000000046,-0.8662109400000004,-0.003662109999999998
37.0,0.04615765685926976,-0.035186478396155824,-0.05543692150143763,0.23000000000000032,-0.25,-9.8,0.018709012761432116,0.00046439895230217807,0.02127551547914451,120.0625,1.3125,178.4375,0.017395020000000004,-0.49938965000000046,-0.8662109400000004,-0.003662109999999998
38.0,0.04602073240379691,-0.03562451258419001,-0.05623384142738981,0.23000000000000032,-0.25,-9.8,0.01636763214384182,0.012784879770766866,0.008356996386230256,120.0625,1.3125,178.4375,0.017395020000000004,-0.49938965000000046,-0.8662109400000004,-0.003662109999999998
39.0,0.04702419108669108,-0.03638293650793651,-0.05632386072708653,0.23000000000000032,-0.25,-9.8,0.0005476350486431124,0.023217885944700464,0.004466516626294851,120.0625,1.3125,178.4375,0.017395020000000004,-0.49938965000000046,-0.8662109400000004,-0.003662109999999998
40.0,0.046276363533419976,-0.03502025237307496,-0.05562098743550356,0.23000000000000032,-0.25,-9.8,-0.010938961632005986,0.004133756868131868,0.011429908437216906,120.0625,1.3125,178.4375,0.017395020000000004,-0.49938965000000046,-0.8662109400000004,-0.003662109999999998
41.0,0.046711410453345925,-0.035885462208042854,-0.05635472054826893,0.23000000000000032,-0.25,-9.8,-0.018104789475757214,0.01246504391665682,0.013419197290165032,120.0625,1.3125,178.4375,0.017395020000000004,-0.49938965000000046,-0.8662109400000004,-0.003662109999999998
42.0,0.04600058722639366,-0.03464663651760426,-0.05471206213141695,0.23000000000000032,-0.25,-9.799999999999999,-0.010365933349804315,0.013499896161186483,0.015611986579728516,120.0625,1.3125,178.4375,0.017395020000000004,-0.49938965000000046,-0.8662109400000004,-0.003662109999999998
43.0,0.04585487630648919,-0.03370068641036384,-0.05445536542310735,0.23000000000000032,-0.25,-9.799999999999999,-0.01870383201028362,0.008910086329441168,0.0022376369150562715,120.0625,1.3125,178.4375,0.017395020000000004,-0.49938965000000046,-0.8662109400000004,-0.003662109999999998
44.0,0.04662775032806249,-0.03423359782777058,-0.05429035780960858,0.23000000000000032,-0.25,-9.8,-0.020565695721783128,0.019536488774261927,0.019329016168246137,120.0625,1.3125,178.4375,0.017395020000000008,-0.49938965000000046,-0.8662109400000004,-0.003662109999999998
45.0,0.04616251039976325,-0.03380414382703666,-0.055162548631851424,0.23000000000000032,-0.25,-9.8,-0.0005123763968717145,0.000571594263061484,0.023761902625066,120.0625,1.3125,178.4375,0.017395020000000008,-0.49938965000000046,-0.8662109400000004,-0.003662109999999998
46.0,0.04669805775216804,-0.0364794085553711,-0.056756468297571305,0.23000000000000032,-0.25,-9.8,-0.014264223174212769,0.01634294786610083,-0.00772990378219306,120.0625,1.3125,178.4375,0.017395020000000008,-0.49938965000000046,-0.8662109400000004,-0.003662109999999998
47.0,0.04670435634431471,-0.03580510482695707,-0.05766895239111679,0.23000000000000032,-0.25,-9.8,-0.006077498637332144,0.029959777475386216,-0.0026190539718115146,120.0625,1.3125,178.4375,0.017395020000000008,-0.49938965000000046,-0.8662109400000004,-0.003662109999999998
48.0,0.045959764134582026,-0.03619145705722189,-0.05678272149864239,0.23000000000000032,-0.25,-9.8,0.002340056463365516,0.008448270714139599,0.01673248924159434,120.0625,1.3125,178.4375,0.017395020000000004,-0.49938965000000046,-0.8662109400000004,-0.003662109999999998
49.0,0.04563937138130685,-0.03659088581669227,-0.05538823900114222,0.23000000000000032,-0.25,-9.8,0.0064905077001851195,-0.007678029855449211,0.013256233014297531,120.0625,1.3125,178.4375,0.017395020000000004,-0.49938965000000046,-0.8662109400000004,-0.003662109999999998
50.0,0.04627626137303556,-0.03654730395052977,-0.054371538855409816,0.23000000000000032,-0.25,-9.8,0.002446556579621096,-0.0055604789475757225,0.01172271948481626,120.0625,1.3125,178.4375,0.017395020000000004,-0.49938965000000046,-0.8662109400000004,-0.003662109999999998
51.0,0.04705376344086021,-0.03715950805466935,-0.05422919374532277,0.23000000000000032,-0.25,-9.8,0.0026810946669817634,-0.00581218736460672,0.014530714581117807,120.0625,1.3125,178.4375,0.017395020000000004,-0.49938965000000046,-0.8662109400000004,-0.003662109999999998
52.0,0.047173020527859225,-0.03912832731784345,-0.05541976840363936,0.23000000000000032,-0.25,-9.799999999999999,-0.017264279739078126,0.0017822063688999173,-0.005490368166779456,120.0625,1.3125,178.4375,0.017395020000000004,-0.49938965000000046,-0.8662109400000004,-0.003662109999999998
53.0,0.04576020753440106,-0.03615349368373563,-0.05374462365591397,0.23000000000000032,-0.2531451612903225,-9.799999999999999,0.0658095474753741,-0.024612929073614558,0.03903521293894278,120.05745967741936,1.3125,178.4375,0.0174137227419355,-0.49939063370967757,-0.8662050329032264,-0.0036429119354838726
54.0,0.04325546023547949,-0.03496797309274742,-0.05535136815920396,0.22984593163216205,-0.25711904188733736,-9.799999999999997,0.1097838708081659,-0.01098683748595731,0.42425794016081614,120.23523260712565,1.3125,178.42353755416468,0.017511571987241212,-0.49797396059340404,-0.8670068204622053,-0.0035833937409725557
55.0,0.0398493492244395,-0.026028302613371235,-0.05563761025826203,0.22992296581608118,-0.2638821015888298,-9.797459057071961,0.13977120998534845,-0.02825919882982729,0.14495819038127655,120.45407722167697,1.3348325062034738,178.39826071256618,0.017778979606523835,-0.4962042934356595,-0.8680119307124918,-0.003573800922595461
56.0,0.03713737622512298,-0.022888143242169492,-0.055331405935582625,0.22996148290804075,-0.267263631439576,-9.7935682382134,0.04969281265396455,-0.058909715342333004,0.05710611131967054,120.54861119148364,1.3559243176178661,178.38562229176696,0.017933523674229658,-0.49540281945976494,-0.8684660211626971,-0.003586450945168701
57.0,0.03714058216832651,-0.022663407840420972,-0.055097858625753414,0.22998074145402053,-0.2689543963649491,-9.791622828784119,0.014674118936952951,-0.032183032274341106,0.03663066353583024,120.59587817638698,1.366470223325062,178.37930308136737,0.018010795708082568,-0.49500208247181765,-0.8686930663877999,-0.0035927759564553206
58.0,0.03753198463255035,-0.0201497482750492,-0.05638461479674767,0.2299903707270104,-0.2697014925373131,-9.79065012406948,-3.4412305717072475e-05,0.0018488820483133165,0.017496279348560278,120.61966917891931,1.37174317617866,178.37614347616756,0.018048847264323542,-0.4948016832369166,-0.8688067735971254,-0.0035965384016147595
59.0,0.03746122582614518,-0.020012283863090327,-0.054533183662215906,0.23000000000000032,-0.2699999999999997,-9.790163771712159,-0.009985008271298595,-0.009186295615227068,0.0006309634585844248,120.62593052109182,1.3743796526054592,178.375,0.018065107483870965,-0.49474577002481335,-0.868838479042183,-0.0035999795980148934
60.0,0.0375981636595234,-0.018520359073472516,-0.0554721403809188,0.23000000000000032,-0.2699999999999997,-9.79,0.008748953375638992,-0.0075814934122996995,-0.030377731060033747,120.625,1.375,178.375,0.018070024849286083,-0.494759242718138,-0.8688308019619243,-0.0036000372342675875
61.0,0.039204827797503616,-0.020142235988349168,-0.05652639277110456,0.23290322580645184,-0.2699999999999997,-9.79,-0.017676934602503084,-0.0074292295690530745,-0.01068407722356526,120.59274193548387,1.380040322580645,178.375,0.018199145731094667,-0.49509326490745637,-0.8686327923519294,-0.0036428868429402446
62.0,0.03718183805882112,-0.02018128381401783,-0.05659822336574055,0.23661290322580666,-0.2699999999999997,-9.79,-0.04919723487776105,-0.04879589998677948,-0.017492723947951837,120.57661290322581,1.3775201612903225,178.375,0.018258785607482824,-0.4953001456795349,-0.868513605046932,-0.0036534829375991533
63.0,0.03545778947686114,-0.02020413046059893,-0.05609177557464966,0.2384677419354841,-0.2699999999999997,-9.790000000000001,-0.04213101370578999,0.004202832069565513,-0.011883861161020663,120.56854838709677,1.3762600806451615,178.375,0.018288605545676906,-0.4954035860655741,-0.8684540113944332,-0.003658780984928608
64.0,0.035022078921573135,-0.02092949108878022,-0.05649688284455688,0.2393951612903228,-0.2699999999999997,-9.790000000000003,-0.03071477763203131,-0.0022661860723972643,-0.004002524200437492,120.56451612903226,1.3756300403225807,178.375,0.018303515514773945,-0.4954553062585938,-0.868424214568184,-0.003661430008593335
65.0,0.03641902465380614,-0.021641371668134173,-0.055806611702553424,0.2398588709677421,-0.2699999999999997,-9.790000000000001,-0.023430167768950613,0.017127747788761704,-0.010049252581445609,120.5625,1.3753150201612905,178.375,0.018310857535282273,-0.49548090814516177,-0.8684094614062492,-0.0036627867943548366
66.0,0.034758571466688024,-0.021366440762382505,-0.05638704881082612,0.2400000000000002,-0.2699999999999997,-9.79,-0.024831173314198807,0.0240823670779446,-0.014367224216990085,120.5625,1.375,178.375,0.018310550000000016,-0.49548340000000046,-0.8684081999999991,-0.003662109999999998
67.0,0.034588825297722295,-0.0200228556563104,-0.05488918000429446,0.2400000000000002,-0.2699999999999997,-9.79,-0.04084177516393307,-0.008564935252630362,-0.013467829683035197,120.5625,1.375,178.375,0.018310550000000016,-0.49548340000000046,-0.8684081999999991,-0.003662109999999998
68.0,0.03374066254880512,-0.019373590639329464,-0.05584733553964823,0.2400000000000002,-0.2699999999999997,-9.79,-0.02731224674309677,-0.02702920579969227,-0.01854703018611057,120.5625,1.375,178.375,0.018310550000000016,-0.49548340000000046,-0.8684081999999991,-0.003662109999999998
69.0,0.03326954340462406,-0.02113543512938676,-0.05551793960967347,0.2400000000000002,-0.2699999999999997,-9.79,0.014302569210583323,-0.009784041563275435,-0.010362617053645279,120.5625,1.375,178.375,0.018310550000000016,-0.49548340000000046,-0.8684081999999991,-0.003662109999999998
70.0,0.03175850349211433,-0.02194762781443324,-0.054923463171121845,0.2400000000000002,-0.2699999999999997,-9.79,-0.0035385689001713972,-0.015344592972064357,-0.009580412650131691,120.5625,1.375,178.375,0.018310550000000016,-0.49548340000000046,-0.8684081999999991,-0.003662109999999998
71.0,0.03332288684838114,-0.022953811594810566,-0.053930770120156166,0.2400000000000002,-0.2699999999999997,-9.790000000000001,0.003865656831317602,-0.0206393199239193,-0.0029413138023960082,120.5625,1.375,178.375,0.018310550000000016,-0.49548340000000046,-0.8684081999999991,-0.003662109999999998
72.0,0.031105887868635027,-0.02206190323724144,-0.054731642100528666,0.2400000000000002,-0.2699999999999997,-9.790000000000001,-0.003691531543378577,-0.025760648185205938,0.01133816286326692,120.5625,1.375,178.375,0.018310550000000016,-0.49548340000000046,-0.8684081999999991,-0.003662109999999998
73.0,0.03255392861272156,-0.021624279437755,-0.05348551855705862,0.2400000000000002,-0.2699999999999997,-9.79,-0.027214774003600745,0.001626942834018796,-0.003175299993393126,120.5625,1.375,178.375,0.018310550000000016,-0.49548340000000046,-0.8684081999999991,-0.003662109999999998
74.0,0.03348894587318106,-0.02133057289860101,-0.052867951290818095,0.2400000000000002,-0.2699999999999997,-9.79,-0.02404805520456535,-0.00887514865467519,0.0024766101159506464,120.5625,1.375,178.375,0.018310550000000016,-0.49548340000000046,-0.8684081999999991,-0.003662109999999998
75.0,0.03435827634904119,-0.02184994033166511,-0.0539853440942801,0.2400000000000002,-0.2699999999999997,-9.79,-0.011682586395206713,-0.00720084795104306,0.0095771613254216,120.5625,1.375,178.375,0.018310550000000016,-0.49548340000000046,-0.8684081999999991,-0.003662109999999998
76.0,0.034047154755609293,-0.02086253520225296,-0.05465080650407528,0.2400000000000002,-0.2699999999999997,-9.79,-0.016051478114271447,-0.015373082237918964,-0.0026636868694022648,120.5625,1.375,178.375,0.018310550000000016,-0.49548340000000046,-0.8684081999999992,-0.003662109999999998
77.0,0.03320415099903254,-0.020829859562624925,-0.054318363059529834,0.2400000000000002,-0.2699999999999997,-9.790000000000001,-0.01042243276811387,-0.012905713855692051,-0.00328649272580415,120.5625,1.375,178.375,0.018310550000000016,-0.49548340000000046,-0.8684081999999992,-0.003662109999999998
78.0,0.03145866693675288,-0.021270457765872712,-0.054026486268037396,0.2400000000000002,-0.2699999999999997,-9.790000000000001,-0.06644590463487422,0.010484842469530789,-0.0018515058453551058,120.5625,1.375,178.375,0.018310550000000016,-0.49548340000000046,-0.8684081999999991,-0.003662109999999998
79.0,0.03199071484194565,-0.021533300553071642,-0.054556085875954174,0.2400000000000002,-0.2699999999999997,-9.790000000000001,-0.028241060895740962,0.0034605249353377144,-0.006774965981990769,120.5625,1.375,178.375,0.018310550000000016,-0.49548340000000046,-0.8684081999999991,-0.003662109999999998
80.0,0.03149615850450024,-0.021727207236052204,-0.056108708745750066,0.2400000000000002,-0.2699999999999997,-9.790000000000003,-0.026607523163791398,0.03148287631237427,-0.01196816118665797,120.5625,1.375,178.375,0.018310550000000016,-0.49548340000000046,-0.8684081999999991,-0.003662109999999998
81.0,0.032571545462284295,-0.021846706536612893,-0.05591905181187179,0.2400000000000002,-0.2699999999999997,-9.790000000000001,0.009539667610687377,0.015609495285613912,-0.00012036105298332198,120.5625,1.375,178.375,0.018310550000000016,-0.49548340000000046,-0.8684081999999991,-0.003662109999999998
82.0,0.032560156227169776,-0.021975374146029725,-0.05535224678200744,0.2400000000000002,-0.2699999999999997,-9.79,-0.02894303349558293,-0.009937549154510653,0.003060793409388622,120.5625,1.375,178.375,0.018310550000000016,-0.49548340000000046,-0.8684081999999991,-0.003662109999999998
83.0,0.0334824537390171,-0.02104500310441868,-0.05430879637640012,0.2400000000000002,-0.2699999999999997,-9.790000000000001,-0.041618071277344404,-0.004982757817706044,0.023227555310234724,120.5625,1.375,178.375,0.018310550000000016,-0.49548340000000046,-0.8684081999999992,-0.003662109999999998
84.0,0.031054442270132904,-0.02226807907562246,-0.0548156885107807,0.2400000000000002,-0.2699999999999997,-9.790000000000001,-0.035068270810368354,0.007150270414768206,0.03548214394023703,120.5625,1.375,178.375,0.018310550000000016,-0.49548340000000046,-0.8684081999999992,-0.003662109999999998
85.0,0.031082487639864705,-0.020611270596728036,-0.05449755735186723,0.2400000000000002,-0.2699999999999997,-9.79,0.023306671954873962,-0.01936904289743396,0.01134479164043548,120.5625,1.375,178.375,0.018310550000000016,-0.49548340000000046,-0.8684081999999991,-0.003662109999999998
86.0,0.03211676865352171,-0.020102870321405498,-0.05336091385258492,0.2400000000000002,-0.2699999999999997,-9.790000000000001,0.01901380704758547,-0.0010663698870170303,0.01893724477055056,120.5625,1.375,178.375,0.018310550000000016,-0.49548340000000046,-0.8684081999999992,-0.003662109999999998
87.0,0.03249207608303327,-0.019280825841706338,-0.053651783091167006,0.2400000000000002,-0.2699999999999997,-9.790000000000001,0.007490774491534671,-0.0015092474115064667,0.010396681781076613,120.5625,1.375,178.375,0.018310550000000016,-0.49548340000000046,-0.8684081999999992,-0.003662109999999998
88.0,0.031499871991807496,-0.020363575268817217,-0.05491817076292882,0.2400000000000002,-0.2699999999999997,-9.79,0.0792510720686124,-0.025468729998719918,0.030226434491807473,120.5625,1.375,178.375,0.018310550000000016,-0.49548340000000046,-0.8684081999999991,-0.003662109999999998
89.0,0.029237839221710207,-0.020368279569892483,-0.05600243215565795,0.2400000000000002,-0.2699999999999997,-9.79,0.045610919098822325,-0.038739279313876086,0.020925339221710186,120.5625,1.375,178.375,0.018310550000000016,-0.49548340000000046,-0.8684081999999991,-0.003662109999999998
90.0,0.028863671274961616,-0.020445276497695862,-0.05481637224782385,0.2400000000000002,-0.2699999999999997,-9.79,0.007204461085509475,-0.011001104070660524,-0.006738431259600613,120.5625,1.375,178.375,0.018310550000000016,-0.49548340000000046,-0.8684081999999991,-0.003662109999999998
91.0,0.03009540056717478,-0.020863250324943888,-0.05546732590885815,0.2400000000000002,-0.2699999999999997,-9.79,-0.013026956802158412,0.01656313696384261,0.002166092476072315,120.5625,1.375,178.375,0.018310550000000016,-0.49548340000000046,-0.8684081999999991,-0.003662109999999998
92.0,0.02869081344282959,-0.022093171501437643,-0.05430816372247822,0.2400000000000002,-0.2699999999999997,-9.79,-0.01665812765863169,0.007305506013923352,-0.0009970868904840679,120.5625,1.375,178.375,0.018310550000000016,-0.49548340000000046,-0.8684081999999991,-0.003662109999999998
93.0,0.030012216610362453,-0.022800741951141887,-0.055863304825279306,0.2400000000000002,-0.2699999999999997,-9.79,-0.031813042213768516,-0.028362332843778676,0.02619683309164321,120.5625,1.375,178.375,0.018310550000000016,-0.49548340000000046,-0.8684081999999992,-0.003662109999999998
94.0,0.028661262235032743,-0.02294939011279573,-0.05404712380280862,0.2400000000000002,-0.2699999999999997,-9.79,0.004913561378394802,-0.033859175814490466,0.010845522360593749,120.5625,1.375,178.375,0.018310550000000016,-0.49548340000000046,-0.8684081999999992,-0.003662109999999998
95.0,0.02911173710829979,-0.021870240371298026,-0.05599693619735924,0.2400000000000002,-0.2699999999999997,-9.79,-0.03086535192729005,-0.010617183913389625,0.015543408901751047,120.5625,1.375,178.375,0.018310550000000016,-0.49548340000000046,-0.8684081999999991,-0.003662109999999998
96.0,0.029117302957415735,-0.021997475104403523,-0.05598181877505839,0.2400000000000002,-0.2699999999999997,-9.790000000000001,-0.018562928905292347,-0.0044456086860632585,-0.010624597478204762,120.5625,1.375,178.375,0.018310550000000016,-0.49548340000000046,-0.8684081999999991,-0.003662109999999998
97.0,0.029100134391678825,-0.021280520747616598,-0.056352817452871184,0.2400000000000002,-0.2699999999999997,-9.790000000000003,-0.02613105895572663,0.003532402699896538,0.009840154888897553,120.5625,1.375,178.375,0.018310550000000016,-0.49548340000000046,-0.8684081999999991,-0.003662109999999998
98.0,0.02985661533951078,-0.02017510798110435,-0.05608865806121269,0.2400000000000002,-0.2699999999999997,-9.790000000000001,-0.004211979244090976,0.007399086444758271,0.006108874838957435,120.5625,1.375,178.375,0.018310550000000016,-0.49548340000000046,-0.8684081999999991,-0.003662109999999998
99.0,0.031886502671654875,-0.02087137705845433,-0.0560860514427762,0.2400000000000002,-0.2699999999999997,-9.790000000000001,-0.01524902432465355,0.036597648701129776,-0.02757874891089804,120.5625,1.375,178.375,0.018310550000000016,-0.49548340000000046,-0.8684081999999991,-0.003662109999999998
100.0,0.030459260360405017,-0.0198496110202666,-0.055784401169416756,0.2400000000000002,-0.2699999999999997,-9.790000000000001,0.033369361445584125,0.024750487256990895,-0.01664880745916126,120.5625,1.375,178.375,0.018310550000000016,-0.49548340000000046,-0.8684081999999991,-0.003662109999999998
101.0,0.029839411657829988,-0.01924582528120511,-0.05577981765026509,0.2400000000000002,-0.2699999999999997,-9.79,0.01075010736170986,0.00022969211965049446,-0.009771464083378756,120.5625,1.375,178.375,0.018310550000000016,-0.49548340000000046,-0.8684081999999991,-0.003662109999999998
102.0,0.030181090299456603,-0.020677534975141652,-0.05565063260822885,0.2400000000000002,-0.2699999999999997,-9.79,-0.007401247873412284,0.012224782386072707,0.008467638703070544,120.5625,1.375,178.375,0.018310550000000016,-0.49548340000000046,-0.8684081999999991,-0.003662109999999998
103.0,0.0302495271278536,-0.021282292791223054,-0.05552276369484579,0.2400000000000002,-0.2699999999999997,-9.790000000000001,-0.027753573161522105,0.009141306355082134,-6.075058290774555e-05,120.5625,1.375,178.375,0.018310550000000016,-0.49548340000000046,-0.8684081999999992,-0.003662109999999998
104.0,0.03127460747651786,-0.021179647956485623,-0.05476190213878605,0.2400000000000002,-0.2699999999999997,-9.79,0.036412625489998574,0.015155330596895906,-0.011671894542234308,120.5625,1.375,178.375,0.018310550000000016,-0.49548340000000046,-0.8684081999999992,-0.003662109999999998
105.0,0.03210427762458766,-0.020446454802615574,-0.053339732431400194,0.2400000000000002,-0.2699999999999997,-9.79,0.0048614586743387644,0.03509142617914432,-0.005251909892724938,120.5625,1.375,178.375,0.018310550000000016,-0.49548340000000046,-0.8684081999999991,-0.003662109999999998
106.0,0.03396796542519706,-0.02080790482066263,-0.054560491215700085,0.2400000000000002,-0.2699999999999997,-9.79,0.006147967240395189,-0.002237553039460098,0.00852575876331495,120.5625,1.375,178.375,0.018310550000000016,-0.49548340000000046,-0.8684081999999991,-0.003662109999999998
107.0,0.032702108672659984,-0.020048089635113706,-0.05485193019566366,0.2400000000000002,-0.2699999999999997,-9.79,0.026171461858804868,-0.007551188194077208,0.0008066581835007936,120.5625,1.375,178.375,0.018310550000000016,-0.49548340000000046,-0.8684081999999991,-0.003662109999999998
108.0,0.032716733870967754,-0.02104334677419356,-0.05419354838709678,0.2400000000000002,-0.2699999999999997,-9.79,0.0400390625,-0.03109248991935484,-0.006520917338709678,120.5625,1.375,178.375,0.018310550000000016,-0.49548340000000046,-0.8684081999999991,-0.003662109999999998
109.0,0.03218077956989249,-0.021278225806451626,-0.054955981182795696,0.2400000000000002,-0.2699999999999997,-9.79,0.04534190188172043,-0.029349378360215055,0.005197832661290322,120.5625,1.375,178.375,0.018310550000000016,-0.49548340000000046,-0.8684081999999992,-0.003662109999999998
110.0,0.03391241039426525,-0.02072607846902203,-0.0542475838453661,0.2400000000000002,-0.2699999999999997,-9.79,0.016904581893241167,-0.012468798003072197,-0.013801883320532515,120.5625,1.375,178.375,0.018310550000000016,-0.49548340000000046,-0.8684081999999992,-0.003662109999999998
111.0,0.03331709229390682,-0.022442172299027154,-0.055095062083973356,0.2400000000000002,-0.2699999999999997,-9.79,0.002293646793394777,-0.0010680683563748091,-0.01279181867639529,120.5625,1.375,178.375,0.018310550000000016,-0.49548340000000046,-0.8684081999999991,-0.003662109999999998
112.0,0.03346729029367558,-0.021397660030887153,-0.05412929808152882,0.2400000000000002,-0.2699999999999997,-9.790000000000001,0.0014786107601209057,0.013182553360834449,0.011388503057744082,120.5625,1.375,178.375,0.018310550000000016,-0.49548340000000046,-0.8684081999999991,-0.003662109999999998
113.0,0.03210042862098014,-0.021485320350825045,-0.053727115438613866,0.2400000000000002,-0.2699999999999997,-9.790000000000001,0.01272107221313777,-0.02020793846935236,-0.0027897914498785986,120.5625,1.375,178.375,0.018310550000000016,-0.49548340000000046,-0.8684081999999991,-0.003662109999999998
114.0,0.03320075194489868,-0.021444273078638335,-0.05435280503113489,0.2400000000000002,-0.2699999999999997,-9.79,0.009552740407644153,-0.05303071654650413,0.010953894597641345,120.5625,1.375,178.375,0.018310550000000016,-0.49548340000000046,-0.8684081999999991,-0.003662109999999998
115.0,0.03475738834382176,-0.021635289174636217,-0.053285531564342695,0.2400000000000002,-0.2699999999999997,-9.790000000000001,0.02317858020332656,-0.028692529870298793,0.0023469405267743586,120.5625,1.375,178.375,0.018310550000000016,-0.49548340000000046,-0.8684081999999991,-0.003662109999999998
116.0,0.03421761186264309,-0.02288217671737444,-0.054414383165683894,0.2400000000000002,-0.2699999999999997,-9.790000000000001,0.009730171118048329,-0.00936769630675718,-0.00838189127975158,120.5625,1.375,178.375,0.018310550000000016,-0.49548340000000046,-0.8684081999999991,-0.003662109999999998
117.0,0.033798472144400876,-0.023659210507090335,-0.05453729644156283,0.2400000000000002,-0.2699999999999997,-9.79,0.007313956926990226,-0.018009810692400444,-0.01913581476658675,120.5625,1.375,178.375,0.018310550000000016,-0.49548340000000046,-0.8684081999999991,-0.003662109999999998
118.0,0.03554928644961815,-0.023219196122844676,-0.054379296850680825,0.2400000000000002,-0.2699999999999997,-9.790000000000001,0.006898992404000208,-0.027911921846869168,-0.011897346789996047,120.5625,1.375,178.375,0.018310550000000016,-0.49548340000000046,-0.8684081999999991,-0.003662109999999998
119.0,0.03320607857860721,-0.02241938279087084,-0.05577185446072023,0.2400000000000002,-0.2699999999999997,-9.790000000000003,0.0022829054111572324,0.006649406207158551,0.001461921850839644,120.5625,1.375,178.375,0.018310550000000016,-0.49548340000000046,-0.8684081999999991,-0.003662109999999998
120.0,0.03261324500450412,-0.022769164700486254,-0.056025685494988306,0.2400000000000002,-0.2699999999999997,-9.790000000000001,-0.04707029587362574,0.03515152612447098,-0.028435622361220693,120.5625,1.375,178.375,0.01832363434739454,-0.49548340000000046,-0.8684081999999991,-0.0036887654441687327
121.0,0.03084451292723927,-0.02228576002561436,-0.05631033378692067,0.2400000000000002,-0.2699999999999997,-9.79,-0.03657598255022813,0.026992365724805893,-0.0028250820459457277,120.5625,1.375,178.375,0.018348591528535962,-0.49548340000000046,-0.8684081999999991,-0.0037384415930521078
122.0,0.02948056911870649,-0.02204114304010247,-0.055500080044825095,0.2400000000000002,-0.2699999999999997,-9.79,0.027501400784439287,0.01742763447530617,0.0045815656767789975,120.5625,1.375,178.375,0.018361070119106676,-0.49548340000000046,-0.8684081999999991,-0.003763279667493795
123.0,0.02752904626590892,-0.02202473385095655,-0.0551824021452013,0.2400000000000002,-0.2699999999999997,-9.79,0.034302209237172816,-0.004277207736332346,-0.002164211958696869,120.5625,1.375,178.375,0.018367309414392026,-0.49548340000000046,-0.8684081999999991,-0.0037756987047146387
124.0,0.02735618525739495,-0.02155982905982907,-0.05542604572846507,0.2400000000000002,-0.2699999999999997,-9.79,0.031008507621410848,0.009548595725511047,-0.008494451337193272,120.5625,1.375,178.375,0.018370429062034704,-0.49548340000000046,-0.8684081999999991,-0.0037819082233250603
125.0,0.02752507360471072,-0.022192652329749117,-0.056484735023041466,0.2400000000000002,-0.2699999999999997,-9.79,0.01054147465437788,-0.0058956773233486935,0.00204413082437276,120.5625,1.375,178.375,0.018371579999999964,-0.49548340000000046,-0.8684081999999992,-0.0037841799999999985
126.0,0.027484815028161816,-0.022759632616487467,-0.057007488479262666,0.2400000000000002,-0.2699999999999997,-9.79,-0.015993123559907833,0.03657144057219662,-0.028558327732974908,120.5625,1.375,178.375,0.018371579999999964,-0.49548340000000046,-0.8684081999999992,-0.0037841799999999985
127.0,0.027479806707629305,-0.020946348566308254,-0.0575410426267281,0.2400000000000002,-0.2699999999999997,-9.79,-0.003885548675115206,0.04287304387480799,-0.011932263664874551,120.5625,1.375,178.375,0.018371579999999964,-0.49548340000000046,-0.8684081999999991,-0.0037841799999999985
128.0,0.02847244107493849,-0.022188591166608873,-0.05843745354541399,0.2400000000000002,-0.2699999999999997,-9.790000000000001,-0.007791479299836479,0.018740050976165698,-0.006864955486183373,120.5625,1.375,178.375,0.018371579999999964,-0.49548340000000046,-0.8684081999999991,-0.0037841799999999985
129.0,0.026330434567167153,-0.020666748220273208,-0.05715779487306541,0.2400000000000002,-0.2699999999999997,-9.790000000000001,-0.01559248824182812,0.0018175421291478809,-0.003208463406174124,120.5625,1.375,178.375,0.018371579999999964,-0.49548340000000046,-0.8684081999999991,-0.0037841799999999985
130.0,0.027716292552400792,-0.01988444937895381,-0.05474825227524238,0.2400000000000002,-0.2699999999999997,-9.79,-0.01717124412091406,-0.0033250999031679954,0.00024388657648283046,120.5625,1.375,178.375,0.018371579999999964,-0.49548340000000046,-0.8684081999999991,-0.0037841799999999985
131.0,0.02781626282146575,-0.021138000573972235,-0.054750556938869877,0.2400000000000002,-0.2699999999999997,-9.790000000000001,0.014984491265505509,-0.027880865020522602,0.0072789981139438084,120.5625,1.375,178.375,0.018371579999999964,-0.49548340000000046,-0.8684081999999991,-0.0037841799999999985
132.0,0.027391874370282294,-0.02279358266025801,-0.05601531143154451,0.2400000000000002,-0.2699999999999997,-9.790000000000001,-0.017258588420626657,0.01600973430041458,-0.03791391036123086,120.5625,1.375,178.375,0.018371579999999964,-0.49548340000000046,-0.8684081999999991,-0.0037841799999999985
133.0,0.026528923657565713,-0.021906676866029116,-0.05487550170952875,0.2400000000000002,-0.2699999999999997,-9.79,-0.0019142838044860656,0.046912905651768165,-0.028501049873643526,120.5625,1.375,178.375,0.018371579999999964,-0.49548340000000046,-0.8684081999999991,-0.0037841799999999985
134.0,0.027848959826818676,-0.019527746867285506,-0.05505058692873212,0.2400000000000002,-0.2699999999999997,-9.790000000000001,0.022134172007420957,0.018392259865075575,0.0005564554968112354,120.5625,1.375,178.375,0.018371579999999964,-0.49548340000000046,-0.8684081999999992,-0.0037841799999999985
135.0,0.026317993098253174,-0.02092342764511229,-0.05502465342340343,0.2400000000000002,-0.2699999999999997,-9.790000000000001,0.022119043328979293,-0.00039073362673000545,0.020696534520039,120.5625,1.375,178.375,0.018371579999999964,-0.49548340000000046,-0.8684081999999992,-0.0037841799999999985
136.0,0.025969490425697475,-0.02193137683384247,-0.05497522593526691,0.2400000000000002,-0.2699999999999997,-9.79,0.0043887860525469585,0.010014350628402387,0.007671768420669466,120.5625,1.375,178.375,0.018371579999999964,-0.49548340000000046,-0.8684081999999991,-0.0037841799999999985
137.0,0.026420485100201535,-0.022348176896183916,-0.05567629704341429,0.2400000000000002,-0.2699999999999997,-9.79,-0.0010698158830967199,0.014127759031559104,-0.020573678001646833,120.5625,1.375,178.375,0.018376010322580613,-0.4955006270967744,-0.8684018016935477,-0.0037886095967741913
138.0,0.026394006310981474,-0.021484148291921967,-0.0562979299477184,0.2400000000000002,-0.2699999999999997,-9.79,0.008476918815364082,-0.012582127828690493,-0.008963504307403036,120.5625,1.375,178.375,0.018405299677419343,-0.4955865167741934,-0.8683735014919352,-0.0038178941532258028
139.0,0.026841900035448438,-0.02102895939186263,-0.05588693430225687,0.2400000000000002,-0.2699999999999997,-9.79,-0.002520530544724093,-0.023262904210484853,0.008664400675489386,120.5625,1.375,178.375,0.018419944354838708,-0.4956294616129029,-0.8683593513911287,-0.0038325364314516085
140.0,0.027587162461772258,-0.022143569764147303,-0.05569448708737208,0.2400000000000002,-0.2699999999999997,-9.79,-0.0005557040514116477,0.003761016883740609,0.016179152091044,120.5625,1.375,178.375,0.01842726669354839,-0.49565093403225763,-0.8683522763407256,-0.0038398575705645113
141.0,0.028693837505547493,-0.021447695063906633,-0.05623690306449309,0.2400000000000002,-0.2699999999999997,-9.790000000000001,-0.000620568537116148,0.0037011263485537847,0.006580657280521796,120.5625,1.375,178.375,0.01843092786290323,-0.49566167024193497,-0.868348738815524,-0.0038435181401209628
142.0,0.027332805849547948,-0.021154911427734957,-0.05801760630892148,0.2400000000000002,-0.2699999999999997,-9.790000000000001,-0.00415449952910398,0.011461101325641657,0.00012340672648918603,120.5625,1.375,178.375,0.018432620000000007,-0.4956664999999995,-0.8683471699999998,-0.0038452099999999947
143.0,0.026951093144948073,-0.020647860219755863,-0.0577696838508253,0.2400000000000002,-0.2699999999999997,-9.79,0.01023553825388119,0.013867071400148017,0.011622443250597383,120.5625,1.375,178.375,0.018432620000000007,-0.4956664999999995,-0.8683471699999998,-0.0038452099999999947
144.0,0.025688004298800787,-0.02189805537002362,-0.05737624085881533,0.2400000000000002,-0.2699999999999997,-9.790000000000001,0.01883435666596245,-0.009180253646960328,0.015791771670824187,120.5625,1.375,178.375,0.018432620000000007,-0.4956664999999995,-0.8683471699999998,-0.0038452099999999947
145.0,0.026316038553278638,-0.02212587719692897,-0.056630904896645816,0.2400000000000002,-0.2699999999999997,-9.790000000000001,0.050859314500663694,-0.02810311552572485,0.02286665041595815,120.5625,1.375,178.375,0.018432620000000007,-0.4956664999999995,-0.8683471699999998,-0.0038452099999999947
146.0,0.02533292246832831,-0.02213192411559999,-0.05570444274190371,0.2400000000000002,-0.2699999999999997,-9.790000000000001,0.0535419165089593,-0.019320573985717716,0.01668581578302897,120.5625,1.375,178.375,0.018432620000000007,-0.4956664999999995,-0.8683471699999998,-0.0038452099999999947
147.0,0.026815264564028884,-0.021633800047073992,-0.056858224732834486,0.2400000000000002,-0.2699999999999997,-9.790000000000003,0.01700949183328378,-0.022977744769213618,0.02511630099165056,120.5625,1.375,178.375,0.018432620000000007,-0.4956664999999995,-0.8683471699999998,-0.0038452099999999947
148.0,0.026850172604595095,-0.02178212179773055,-0.0562920155922237,0.2400000000000002,-0.2699999999999997,-9.790000000000001,4.64545859967299e-05,0.0033958302363609333,0.01219587731034141,120.5625,1.375,178.375,0.018432620000000007,-0.4956664999999995,-0.8683471699999998,-0.0038452099999999947
149.0,0.02613770378078392,-0.02207051186759825,-0.05663885585451661,0.2400000000000002,-0.2699999999999997,-9.79,0.0031847199511091293,0.014506992963678706,0.008332920403680028,120.5625,1.375,178.375,0.018432620000000007,-0.4956664999999995,-0.8683471699999998,-0.0038452099999999947
150.0,0.026171434717988017,-0.021335298743096306,-0.05728604506944393,0.2400000000000002,-0.2699999999999997,-9.790000000000001,-0.006049571731025476,0.0032141559968351984,0.014262844075325949,120.5625,1.375,178.375,0.018432620000000007,-0.4956664999999995,-0.8683471699999998,-0.0038452099999999947
151.0,0.0267357745057503,-0.022072222817924033,-0.0566955975505013,0.2400000000000002,-0.2699999999999997,-9.790000000000003,-0.015008012866075676,0.013932545834176115,-0.002021121419459899,120.5625,1.375,178.375,0.018432620000000007,-0.4956664999999995,-0.8683471699999998,-0.0038452099999999947
152.0,0.026219083923010433,-0.020372739920928723,-0.05612095174091141,0.2400000000000002,-0.2699999999999997,-9.790000000000001,-0.018787825371643457,0.025013879576817506,-0.014131658524506223,120.5625,1.375,178.375,0.018432620000000007,-0.4956664999999995,-0.8683471699999998,-0.0038452099999999947
153.0,0.02670833228408587,-0.021930321573367596,-0.05587045570916538,0.2400000000000002,-0.2699999999999997,-9.79,-0.018718509460015277,0.014554570836795849,0.002510783640972695,120.5625,1.375,178.375,0.018432620000000007,-0.4956664999999995,-0.8683471699999998,-0.0038452099999999947
154.0,0.027117607002258,-0.022565263193237824,-0.056345366103430605,0.2400000000000002,-0.2699999999999997,-9.79,-0.02278411392099586,-0.0033473945611207654,0.009879943791812512,120.5625,1.375,178.375,0.018432620000000007,-0.4956664999999995,-0.8683471699999998,-0.0038452099999999947
155.0,0.025916084858939183,-0.02200938237096356,-0.056077000075545794,0.2400000000000002,-0.2699999999999997,-9.79,0.004679266686182669,-0.018422047863522282,0.011777917721160384,120.5625,1.375,178.375,0.018432620000000007,-0.4956664999999995,-0.8683471699999998,-0.0038452099999999947
156.0,0.026692188300051222,-0.022598246287762427,-0.05556227598566306,0.2400000000000002,-0.2699999999999997,-9.79,-0.002433655753968254,-0.007030949980798771,0.011802255344342037,120.5625,1.375,178.375,0.018432620000000007,-0.4956664999999995,-0.8683471699999998,-0.0038452099999999947
157.0,0.02587723309207045,-0.02289391538007586,-0.05662698955106007,0.2400000000000002,-0.2699999999999997,-9.790000000000001,-0.0014013015477058327,0.004134442570426201,0.0019209280241393074,120.5625,1.375,178.375,0.018432620000000007,-0.4956664999999995,-0.8683471699999998,-0.0038452099999999947
158.0,0.024543119234207274,-0.0219649908441598,-0.05690940491377886,0.2400000000000002,-0.2699999999999997,-9.790000000000001,-0.043924167078896445,0.0470473500134517,-0.04081345951903634,120.5625,1.375,178.375,0.018432620000000007,-0.4956664999999995,-0.8683471699999998,-0.0038452099999999947
159.0,0.024409296432259815,-0.02068935666119921,-0.05753816379841528,0.2400000000000002,-0.2699999999999997,-9.79,-0.016505734333099018,0.015779179359004396,-0.019166650394438805,120.5625,1.375,178.375,0.018432620000000007,-0.4956664999999995,-0.8683471699999998,-0.0038452099999999947
160.0,0.024920016753814687,-0.02159080660739949,-0.05807414430844773,0.2400000000000002,-0.2699999999999997,-9.790000000000001,0.0018275156828708866,0.010004085662982845,-0.005576773695956109,120.5625,1.375,178.375,0.018432620000000007,-0.4956664999999995,-0.8683471699999998,-0.0038452099999999947
161.0,0.02492032583722481,-0.021243679735326856,-0.05611955898176792,0.2400000000000002,-0.2699999999999997,-9.790000000000003,-0.010372641907503328,0.00023941544269337912,0.002238515518934719,120.5625,1.375,178.375,0.018432620000000007,-0.4956664999999995,-0.8683471699999998,-0.0038452099999999947
162.0,0.02565516061880421,-0.021064184109898333,-0.05670532263615372,0.2400000000000002,-0.2699999999999997,-9.790000000000001,-0.00926549727527353,0.0019115512128894704,0.0027920427838106117,120.5625,1.375,178.375,0.018432620000000007,-0.4956664999999995,-0.8683471699999998,-0.0038452099999999947
163.0,0.02651991468331817,-0.020930403998526463,-0.055818099106095295,0.2400000000000002,-0.2699999999999997,-9.790000000000001,-0.01732052839747688,0.016197009109905083,-0.023842755180117886,120.5625,1.375,178.375,0.018432620000000007,-0.4956664999999995,-0.8683471699999998,-0.0038452099999999947
164.0,0.026384477310937127,-0.021373940158505432,-0.05695618856994472,0.2400000000000002,-0.2699999999999997,-9.790000000000001,-0.014962167520551035,-0.001890134717960925,-0.010432532303960634,120.5625,1.375,178.375,0.018432620000000007,-0.4956664999999995,-0.8683471699999998,-0.0038452099999999947
165.0,0.02605429199081646,-0.022040037659184393,-0.055716432948482886,0.2400000000000002,-0.2699999999999997,-9.79,-0.01549208826784269,0.0031016178583816454,0.006940315147911399,120.5625,1.375,178.375,0.018432620000000007,-0.4956664999999995,-0.8683471699999998,-0.0038452099999999947
166.0,0.026246342187898987,-0.02176591193956986,-0.05668269916815658,0.2400000000000002,-0.2699999999999997,-9.790000000000001,-0.02113768279583431,0.01650412130871352,-0.004624744423621959,120.5625,1.375,178.375,0.018432620000000007,-0.4956664999999995,-0.8683471699999998,-0.0038452099999999947
167.0,0.027235818303370903,-0.021813831545821803,-0.056062291724375254,0.2400000000000002,-0.2699999999999997,-9.790000000000003,-0.014741908474210037,-0.004177534839754863,-0.010424891413039858,120.5625,1.375,178.375,0.018432620000000007,-0.4956664999999995,-0.8683471699999998,-0.0038452099999999947
168.0,0.026807295207876926,-0.02355519881141247,-0.05698275876541342,0.2400000000000002,-0.2699999999999997,-9.790000000000001,-0.011972280980081084,-0.027810671686266608,0.016282091234166855,120.5625,1.375,178.375,0.018432620000000007,-0.4956664999999995,-0.8683471699999998,-0.0038452099999999947
169.0,0.02669089798796305,-0.023523631151737986,-0.05698984328439641,0.2400000000000002,-0.2699999999999997,-9.79,0.009830871798745939,-0.027194186329564433,0.002044655448112614,120.5625,1.375,178.375,0.018432620000000007,-0.4956664999999995,-0.8683471699999998,-0.0038452099999999947
170.0,0.025167955311805226,-0.0231334852982151,-0.05833222735879631,0.2400000000000002,-0.2699999999999997,-9.790000000000001,-0.0010880450976043848,-0.01424539272046991,-0.0004022795798434007,120.5625,1.375,178.375,0.018432620000000007,-0.4956664999999995,-0.8683471699999998,-0.0038452099999999947
171.0,0.025180609474639147,-0.024480910976813694,-0.0566648323060914,0.2400000000000002,-0.2699999999999997,-9.790000000000001,0.010307480522425893,-0.03636953360548574,0.018409027805571118,120.5625,1.375,178.375,0.018432620000000007,-0.4956664999999995,-0.8683471699999998,-0.0038452099999999947
172.0,0.02528116495237334,-0.023420563015288574,-0.05695338389498118,0.2400000000000002,-0.2699999999999997,-9.79,-0.00025620597534619337,-0.023846729168334267,0.03264201390278556,120.5625,1.375,178.375,0.018432620000000007,-0.4956664999999995,-0.8683471699999998,-0.0038452099999999947
173.0,0.026090931167355374,-0.023234731203572376,-0.05622746865293746,0.2400000000000002,-0.2699999999999997,-9.790000000000001,-0.013719931881115718,-0.011664634910713935,0.014617574161202405,120.5625,1.375,178.375,0.018432620000000007,-0.4956664999999995,-0.8683471699999998,-0.0038452099999999947
174.0,0.02471381235787124,-0.024303857537270067,-0.05614548835872678,0.2400000000000002,-0.2699999999999997,-9.790000000000001,0.0022283657126679476,-0.005911072495679548,0.021106670145117332,120.5625,1.375,178.375,0.018432620000000007,-0.4956664999999995,-0.8683471699999998,-0.0038452099999999947
175.0,0.026248685575397647,-0.023962542712443573,-0.057596677582068906,0.2400000000000002,-0.2699999999999997,-9.79,0.029031066311068623,-0.040237664239515115,0.03225924037953057,120.5625,1.375,178.375,0.018432620000000007,-0.4956664999999995,-0.8683471699999998,-0.0038452099999999947
176.0,0.025964706724836962,-0.02498623413537812,-0.05879172175215933,0.2400000000000002,-0.2699999999999997,-9.790000000000001,-0.01161660083950291,-0.03749889829014631,0.0015773042261589976,120.5625,1.375,178.375,0.018432620000000007,-0.4956664999999995,-0.8683471699999998,-0.0038452099999999947
177.0,0.025925381716233133,-0.023766118539783283,-0.05780271891499415,0.2400000000000002,-0.2699999999999997,-9.790000000000001,-0.01741179304327936,-0.025728895829660967,-0.0024960581083746745,120.5625,1.375,178.375,0.018432620000000007,-0.4956664999999995,-0.8683471699999998,-0.0038452099999999947
178.0,0.025964797747055828,-0.024864055299539185,-0.057743871607782896,0.2400000000000002,-0.2699999999999997,-9.79,-0.013396557379672299,-0.011823856726830517,-0.023232386872759855,120.5625,1.375,178.375,0.018432620000000007,-0.4956664999999995,-0.8683471699999998,-0.0038452099999999947
179.0,0.026142185362158277,-0.023615511917352887,-0.056396600333240995,0.2400000000000002,-0.2699999999999997,-9.790000000000001,-0.005411085653744135,0.0020361335912383637,-0.028434913277072683,120.5625,1.375,178.375,0.018432620000000007,-0.4956664999999995,-0.8683471699999998,-0.0038452099999999947
180.0,0.02745349315470946,-0.02314252138366365,-0.057639944431853454,0.2400000000000002,-0.2699999999999997,-9.790000000000001,-0.004595913810615027,0.006791936323268952,0.000978265887705337,120.5625,1.375,178.375,0.018432620000000007,-0.4956664999999995,-0.8683471699999998,-0.0038452099999999947
181.0,0.025974058405311726,-0.02284545424021893,-0.059225886194421345,0.2400000000000002,-0.2699999999999997,-9.79,0.008589139868886035,-0.009137633988903156,0.001429993158906432,120.5625,1.375,178.375,0.018432620000000007,-0.4956664999999995,-0.8683471699999998,-0.0038452099999999947
182.0,0.02534603132633277,-0.02366627005111935,-0.05907186715687506,0.2400000000000002,-0.2699999999999997,-9.790000000000001,0.004133772758177835,-0.00540244411707923,0.0023814638890987377,120.5625,1.375,178.375,0.018432620000000007,-0.4956664999999995,-0.8683471699999998,-0.0038452099999999947
183.0,0.026214016057683445,-0.0247844163665819,-0.05788210970092248,0.2400000000000002,-0.2699999999999997,-9.790000000000003,0.001169255160199105,-0.020184308189166732,-0.014514666643583224,120.5625,1.375,178.375,0.018432620000000007,-0.4956664999999995,-0.8683471699999998,-0.0038452099999999947
184.0,0.027280725638572034,-0.02380415953178382,-0.05756876505670132,0.2400000000000002,-0.2699999999999997,-9.790000000000001,0.0030552119270059516,-0.01638842590843847,0.003335606921465924,120.5625,1.375,178.375,0.018432620000000007,-0.4956664999999995,-0.8683471699999998,-0.0038452099999999947
185.0,0.02694041402256303,-0.023005510385451566,-0.058556527945657355,0.2400000000000002,-0.2699999999999997,-9.79,0.0066799357126069185,-0.043156450537424555,0.0006597389446039298,120.5625,1.375,178.375,0.018432620000000007,-0.4956664999999995,-0.8683471699999998,-0.0038452099999999947
186.0,0.024606799753217008,-0.022911525354016117,-0.057168888972828666,0.2400000000000002,-0.2699999999999997,-9.79,0.03981930253372282,-0.05090660228484131,0.0144270216900439,120.5625,1.375,178.375,0.018432620000000007,-0.4956664999999995,-0.8683471699999998,-0.0038452099999999947
187.0,0.02400091441917858,-0.02348114607203715,-0.05747392095389185,0.2400000000000002,-0.2699999999999997,-9.79,-0.004267371472429973,0.0038136211209320696,-0.03618284029194262,120.53326612903226,1.375,178.375,0.018432620000000007,-0.4956664999999995,-0.8683186190322585,-0.0038452099999999947
188.0,0.024051172823447813,-0.02314382443057002,-0.057124910187800394,0.2400000000000002,-0.2699999999999997,-9.79,-0.0005397603511140834,0.014418858290801579,-0.01549795961135061,120.515625,1.375,178.375,0.018432620000000007,-0.4956664999999995,-0.8683013900000006,-0.0038452099999999947
189.0,0.02413967655220258,-0.023357974910394277,-0.056443405926366375,0.2400000000000002,-0.2699999999999997,-9.790000000000001,-0.018038541563434252,0.008439023968501725,-0.012226330872272598,120.50680443548387,1.375,178.375,0.018432620000000007,-0.4956664999999995,-0.8682927754838716,-0.0038528320603537945
190.0,0.02394742305691188,-0.02362825682382135,-0.05711772092371727,0.2400000000000002,-0.2699999999999997,-9.790000000000001,-0.020097395166293122,0.004811303705074842,0.0077986172256463634,120.50239415322582,1.375,178.375,0.018432620000000007,-0.4956664999999995,-0.8682884682258072,-0.0038805255463059294
191.0,0.0222584897542624,-0.02313973325062036,-0.05838244917153605,0.2400000000000002,-0.2699999999999997,-9.79,-0.0006138437525014025,-0.011281974155527095,0.03319618361282318,120.50018901209677,1.375,178.375,0.018432620000000007,-0.4956664999999995,-0.868286314596775,-0.003894372289281997
192.0,0.02310447293107092,-0.02319656876703414,-0.05854961630972359,0.2400000000000002,-0.2699999999999997,-9.790000000000001,-0.006425542976197817,-0.020303884519593265,0.02271206506791344,120.5,1.375,178.375,0.018432620000000007,-0.4956664999999995,-0.8682861300000008,-0.0039012956607700306
193.0,0.01997591372480065,-0.02329835642385967,-0.05948564622418059,0.2400000000000002,-0.2699999999999997,-9.790000000000001,0.014108178243750925,-0.010029623761437553,0.0405713931358938,120.5,1.375,178.375,0.018432620000000007,-0.495697035146402,-0.8682861300000008,-0.0039047573465140475
194.0,0.018986993043973485,-0.02396106303136315,-0.058710513871374506,0.2400000000000002,-0.2699999999999997,-9.790000000000001,0.028230907156368223,-0.029373083660456413,0.019358127949192533,120.5,1.375,178.375,0.018432620000000007,-0.4957132720893303,-0.8682861300000008,-0.00390625
195.0,0.017849776038516004,-0.025331608118579207,-0.057142337700915764,0.2400000000000002,-0.2699999999999997,-9.790000000000003,0.01445664464518163,-0.011028993603221082,0.018610065335358292,120.5,1.375,178.375,0.018432620000000007,-0.49572139056079445,-0.8682861300000008,-0.00390625
196.0,0.018423255914803323,-0.025654195316330064,-0.05841487884789771,0.2400000000000002,-0.2699999999999997,-9.790000000000001,-0.0002709076281260303,-0.015298372969685298,0.019128411363915705,120.5,1.375,178.375,0.018432620000000007,-0.4957254497965265,-0.8682861300000008,-0.00390625
197.0,0.02100300817950637,-0.026483893004542618,-0.05914794709184943,0.239193548387097,-0.2699999999999997,-9.79,0.007639863478374849,-0.027380809964483048,0.015967894206548018,120.50655241935485,1.375,178.375,0.018384874435483884,-0.495718619253102,-0.868292038225806,-0.0038146970967741925
198.0,0.022663933410828733,-0.02682564255238725,-0.05804600706502328,0.23959677419354858,-0.2699999999999997,-9.790000000000001,0.033419909366002705,-0.03697402577709976,0.029279405346775613,120.50327620967741,1.375,178.375,0.018345743346774208,-0.4957861137903229,-0.8682575847580636,-0.0037344658064516114
199.0,0.02369976152297122,-0.0255968508901545,-0.058008989783172656,0.23979838709677437,-0.2699999999999997,-9.790000000000001,0.024129970547623246,-0.013190542766921113,0.012656624936740529,120.50163810483872,1.375,178.375,0.01832617780241937,-0.49581983076612934,-0.8682255902822571,-0.0037100998387096795
200.0,0.02689930844098614,-0.025433701199499732,-0.057623121322387574,0.2398991935483873,-0.2699999999999997,-9.79,-0.004568079242317408,0.0008513987518151984,-0.01614177077824784,120.50081905241936,1.375,178.375,0.01831639503024195,-0.49583668925403257,-0.8681928562701606,-0.0037136665322580692
201.0,0.026987800661865326,-0.025161807076964415,-0.056850475151721175,0.23994959677419375,-0.2699999999999997,-9.79,0.002036236876537148,-0.0043746078437544595,-0.0007264153430409717,120.50040952620968,1.375,178.375,0.01831150364415324,-0.4958451184979842,-0.8681764892641123,-0.0037154498790322637
202.0,0.02756496887931977,-0.023973660982650948,-0.05652205054112114,0.2400000000000002,-0.2699999999999997,-9.79,-0.005669759585924974,-0.0035423752618276017,0.006379920042499365,120.5,1.375,178.375,0.018310550000000016,-0.4958496100000003,-0.8681681211290317,-0.003719202580645168
203.0,0.026170110034583215,-0.022803858518824157,-0.057208672018313075,0.2400000000000002,-0.2699999999999997,-9.79,-0.012766794124004263,0.0021288652511591765,0.0014382413538779216,120.5,1.375,178.375,0.018310550000000016,-0.4958496100000003,-0.8681651060483867,-0.0037221556451612968
204.0,0.025888755109835244,-0.02522348531440944,-0.05728331703771286,0.23695399259651007,-0.2699999999999997,-9.790000000000001,-0.012981261948305674,-0.03133539096313009,0.02510787827873695,120.5,1.375,178.375,0.018291440703331566,-0.4958496100000003,-0.8681640599999996,-0.0036844081544156588
205.0,0.02593328884524021,-0.025832508786236986,-0.057880569809179,0.23331570597567453,-0.2699999999999997,-9.790000000000001,-0.007482944482217353,-0.03959347673156505,0.02786391897807815,120.5,1.375,178.375,0.018269490835536743,-0.4958496100000003,-0.8681640599999996,-0.00364077020624009
206.0,0.02729204124801694,-0.0252562441524631,-0.05827592238538826,0.23149656266525676,-0.2699999999999997,-9.79,-0.014454157852987835,-0.01056414747996583,0.002099202192572102,120.5,1.375,178.375,0.018258515901639336,-0.4958496100000003,-0.8681640599999996,-0.0036189512321523052
207.0,0.02659711323587112,-0.025328114071749046,-0.057699075416659536,0.23058699101004787,-0.2699999999999997,-9.790000000000001,-0.013268962381228568,-0.009902661268999163,0.013319472224117637,120.5,1.375,178.375,0.018253028434690628,-0.4958496100000003,-0.8681640599999996,-0.0036080417451084127
208.0,0.027496071160505637,-0.025941423508640264,-0.05823874976544239,0.23013220518244346,-0.2699999999999997,-9.790000000000001,-0.010385803242438716,0.00603822515608741,0.010725045472185734,120.5,1.375,178.375,0.018250284701216278,-0.4958496100000003,-0.8681640599999996,-0.003602587001586467
209.0,0.028236700052029155,-0.02559622138397504,-0.05724700832466179,0.23000000000000032,-0.2699999999999997,-9.790000000000001,-0.0003119715790842869,-0.010020689711238293,0.012406713384495317,120.5,1.375,178.375,0.01824950999999999,-0.4958496100000003,-0.8681640599999996,-0.003601070000000005
210.0,0.02844402686933256,-0.02539831710519798,-0.05815715431594072,0.23000000000000032,-0.2699999999999997,-9.790000000000001,-0.013933617557975323,-0.010926473487851609,0.011890970699544125,120.5,1.375,178.375,0.01824950999999999,-0.4958496100000003,-0.8681640599999996,-0.003601070000000005
211.0,0.02884767255377299,-0.025640923440936464,-0.05806900054506713,0.23000000000000032,-0.2699999999999997,-9.79,-0.017554151753553418,-0.00525047697345434,0.011270537691583477,120.5,1.375,178.375,0.01824950999999999,-0.4958496100000003,-0.8681640599999996,-0.003601070000000005
212.0,0.027823940335159135,-0.025897985133579583,-0.05708340766067092,0.23000000000000032,-0.2699999999999997,-9.790000000000001,-0.02158925069467473,-0.008202111535634559,-0.010883981934645306,120.5,1.375,178.375,0.01824950999999999,-0.4958496100000003,-0.8681640599999996,-0.003601070000000005
213.0,0.027358006197756475,-0.02567605096949531,-0.057895892175808907,0.23000000000000032,-0.2699999999999997,-9.790000000000003,-0.009628034556494493,0.009600288860174395,-0.01545353493194284,120.5,1.375,178.375,0.01824950999999999,-0.4958496100000003,-0.8681640599999996,-0.003601070000000005
214.0,0.02821334232884703,-0.02525217740982571,-0.05755616669144242,0.23000000000000032,-0.2699999999999997,-9.790000000000001,-0.0014321234176853316,0.009271398332272422,0.019751120151094134,120.5,1.375,178.375,0.01824950999999999,-0.4958496100000003,-0.8681640599999996,-0.003601070000000005
215.0,0.029129712639077904,-0.025736687783253873,-0.05674531324843497,0.23000000000000032,-0.2699999999999997,-9.79,0.005348326411997067,0.0012594830883072305,0.017876072108317168,120.5,1.375,178.375,0.01824950999999999,-0.4958496100000003,-0.8681640599999996,-0.003601070000000005
216.0,0.028932101977107196,-0.026645018829592207,-0.05598555985002394,0.23000000000000032,-0.2699999999999997,-9.79,0.01360003169235089,-0.012994638108451844,0.023399884689394315,120.5,1.375,178.375,0.01824950999999999,-0.4958496100000003,-0.8681640599999996,-0.003601070000000005
217.0,0.029840660770031235,-0.025643008894504746,-0.05539392456601093,0.23000000000000032,-0.2699999999999997,-9.79,0.002670203151066184,-0.0027902430916869002,0.009683813312439093,120.5,1.375,178.375,0.01824950999999999,-0.4958496100000003,-0.8681640599999996,-0.003601070000000005
218.0,0.03138495057232052,-0.024730973750061953,-0.05530362201245395,0.23000000000000032,-0.2699999999999997,-9.79,-0.005981495718951819,0.0007673394323043125,0.021800153274325683,120.5,1.375,178.375,0.01824950999999999,-0.4958496100000003,-0.8681640599999996,-0.003601070000000005
219.0,0.03138448678801114,-0.024825701377939498,-0.05558189099036235,0.23000000000000032,-0.2699999999999997,-9.790000000000001,-0.0036298256457001294,0.007661151868452527,0.0021014602470253493,120.5,1.375,178.375,0.01824950999999999,-0.4958496100000003,-0.8681640599999996,-0.003601070000000005
220.0,0.0314986950069088,-0.025296875266542722,-0.056322691526927204,0.23000000000000032,-0.2699999999999997,-9.790000000000001,-0.006527214410151651,-0.00966628786505689,0.00029068148039951497,120.5,1.375,178.375,0.01824950999999999,-0.4958496100000003,-0.8681640599999996,-0.003601070000000005
221.0,0.029398541051841504,-0.02462424408488427,-0.056704692537657135,0.23000000000000032,-0.2699999999999997,-9.79,-0.004602442890559696,-0.0023917376825284458,0.0062409808611674986,120.5,1.375,178.375,0.01824950999999999,-0.4958496100000003,-0.8681640599999996,-0.003601070000000005
222.0,0.029689189880759474,-0.02440092927449209,-0.057353305556029396,0.23000000000000032,-0.2699999999999997,-9.790000000000001,0.00252315989577114,-0.02159748906108732,-0.009287747245014584,120.5,1.375,178.375,0.01824950999999999,-0.4958760302289286,-0.8681584719042662,-0.003601070000000005
223.0,0.02765644957897736,-0.026267061931730964,-0.05668757889664112,0.23293796526054616,-0.2699999999999997,-9.790000000000001,-0.005458683399589015,0.010459910316170495,-0.047347787814454784,120.5,1.375,178.375,0.018267928024813904,-0.4959340622782361,-0.8681530276593289,-0.003619488024813897
224.0,0.027987819528142124,-0.02543003990965101,-0.05611598522950628,0.23663027295285383,-0.2699999999999997,-9.79,0.019816625832291476,0.015239251490755456,-0.02803430412102206,120.5,1.375,178.375,0.018290223528535994,-0.4959548400100859,-0.8681585438296642,-0.0036417835285359797
225.0,0.02855247506063715,-0.026284625183753713,-0.05460951771881142,0.23847642679900766,-0.2699999999999997,-9.790000000000001,0.015252985620360097,0.023133352494857436,-0.017123149231426743,120.5,1.375,178.375,0.018301371280397036,-0.4959652288760108,-0.8681613019148319,-0.0036529312803970206
226.0,0.029477889205256548,-0.025300113460363215,-0.05560574366089454,0.23939950372208457,-0.2699999999999997,-9.790000000000001,0.013613329813902134,0.007533448890108619,-0.0028110027329590302,120.5,1.375,178.375,0.018306945156327557,-0.49597042330897323,-0.8681626809574157,-0.0036585051563275415
227.0,0.028529267183273442,-0.025888870465873605,-0.057997981091633524,0.23986104218362303,-0.2699999999999997,-9.79,-0.003420312200228954,0.022041958576167732,0.0035210074784736587,120.5,1.375,178.375,0.01830973209429282,-0.49597219489330047,-0.8681635451066994,-0.003661292094292802
228.0,0.027267114981214893,-0.0263422846953024,-0.05828931312646192,0.2400000000000002,-0.2699999999999997,-9.790000000000001,-0.0052564753722402005,0.004977761752930846,0.005766913995647086,120.5,1.375,178.375,0.018310550000000016,-0.4959716800000002,-0.8681640599999996,-0.003662109999999998
229.0,0.026239804290402638,-0.02761302662824517,-0.05808730889298006,0.2400000000000002,-0.2699999999999997,-9.790000000000001,0.01884513660983484,-0.03412146218549054,0.05040649847247792,120.5,1.375,178.375,0.018310550000000016,-0.4959716800000002,-0.8681640599999996,-0.003662109999999998
230.0,0.02682210553783136,-0.026477507483555887,-0.059152915632754335,0.2400000000000002,-0.2699999999999997,-9.79,0.004651682323053291,-0.03698949040430895,0.015572181234983655,120.5,1.375,178.375,0.018310550000000016,-0.4959716800000002,-0.8681640599999996,-0.003662109999999998
231.0,0.029131896441372266,-0.02583056515617001,-0.05753427419354837,0.2400000000000002,-0.2699999999999997,-9.79,-0.008444940476190476,-0.024923095078084996,0.014152405753968254,120.5,1.375,178.375,0.018310550000000016,-0.4959716800000002,-0.8681640599999996,-0.003662109999999998
232.0,0.03009530209933438,-0.02551548899129546,-0.057123591909882226,0.2400000000000002,-0.2699999999999997,-9.79,-0.01261200716845878,-0.023253488223246285,-0.002794178827444956,120.5,1.375,178.375,0.018310550000000016,-0.4959716800000002,-0.8681640599999996,-0.003662109999999998
233.0,0.0295476510496672,-0.025631400409626234,-0.055682763696876594,0.2400000000000002,-0.2699999999999997,-9.79,-0.010724686379928315,-0.011962765616999486,0.0045672923067076295,120.5,1.375,178.375,0.018310550000000016,-0.4959716800000002,-0.8681640599999996,-0.003662109999999998
234.0,0.029849430363543285,-0.025212910675463572,-0.05601521513770323,0.2400000000000002,-0.2699999999999997,-9.79,-0.007113029004348081,0.015247877503504488,0.002918334314379727,120.5,1.375,178.375,0.018310550000000016,-0.4959716800000002,-0.8681640599999996,-0.003662109999999998
235.0,0.029965677803379435,-0.024649466090419965,-0.05743413086634265,0.2400000000000002,-0.2699999999999997,-9.79,-0.008532832986557042,0.007207912126048198,0.00944367816589442,120.5,1.375,178.375,0.018310550000000016,-0.4959716800000002,-0.8681640599999996,-0.003662109999999998
236.0,0.02955693164362521,-0.024418987077468056,-0.05660517027188099,0.2400000000000002,-0.2699999999999997,-9.79,-0.012504193711020455,-0.004255796961169449,0.003004979203914952,120.5,1.375,178.375,0.018310550000000016,-0.4959716800000002,-0.8681640599999996,-0.003662109999999998
237.0,0.031073908730158747,-0.023026185807039207,-0.05843571365616579,0.2400000000000002,-0.2699999999999997,-9.79,-0.0013717845155204684,-0.00027177968898206193,0.016143426621926752,120.5,1.375,178.375,0.018310550000000016,-0.4959716800000002,-0.8681640599999996,-0.003662109999999998
238.0,0.02872316989577657,-0.02216906649873293,-0.05714417056377488,0.2400000000000002,-0.2699999999999997,-9.790000000000001,0.0036181977201273823,-0.0032418870154067437,-0.01448982740183579,120.5,1.375,178.375,0.018310550000000016,-0.4959716800000002,-0.8681640599999996,-0.003662109999999998
239.0,0.02710352043175926,-0.02261811336570703,-0.057259287820226934,0.2400000000000002,-0.2699999999999997,-9.79,0.011418763058900286,0.011359952843433593,-0.007815048550203986,120.5,1.375,178.375,0.018310550000000016,-0.4959716800000002,-0.8681640599999996,-0.003662109999999998
240.0,0.028879461188741903,-0.022799072043836622,-0.05446937765307302,0.2400000000000002,-0.2699999999999997,-9.79,0.009453621160786548,0.0016157163090695873,-0.007731769026766099,120.5,1.375,178.375,0.018310550000000016,-0.4959716800000002,-0.8681640599999996,-0.003662109999999998
241.0,0.02797767702294239,-0.024035024693193283,-0.05427149918239928,0.2400000000000002,-0.2699999999999997,-9.79,0.02086759359050592,-0.023517698681102685,-0.009450991960259648,120.5,1.375,178.375,0.018310550000000016,-0.4959716800000002,-0.8681640599999996,-0.003662109999999998
242.0,0.028630258023858456,-0.024768506871784723,-0.05594212242983054,0.2400000000000002,-0.2699999999999997,-9.79,-0.006583661552850551,0.012510765453257,0.008722256983752171,120.5,1.375,178.375,0.018310550000000016,-0.4959716800000002,-0.8681640599999996,-0.003662109999999998
243.0,0.028373401644603537,-0.025524211812583318,-0.05712298629295898,0.2400000000000002,-0.2699999999999997,-9.79,0.003862175467071082,-0.008215220811352768,0.003499395921636752,120.5,1.375,178.375,0.018310550000000016,-0.4959716800000002,-0.8681640599999996,-0.003662109999999998
244.0,0.030076517770586467,-0.026316413381970112,-0.05524540091657677,0.2400000000000002,-0.2699999999999997,-9.79,0.0016318185803097345,0.0031476039280409727,0.06884174185162739,120.51638504864312,1.375,178.375,0.018333050440348178,-0.49581417003584277,-0.8682415661955971,-0.003701611894521247
245.0,0.028519333366367722,-0.025015270773855597,-0.055926966085134644,0.2400000000000002,-0.2699999999999997,-9.79,0.0007039021216960859,0.01559759179426193,0.0667909426104015,120.5404505888377,1.375,178.375,0.018353299575012784,-0.49557790566308296,-0.8683603253558636,-0.003744864818228365
246.0,0.02720897543894424,-0.024277988689539173,-0.057493692976003055,0.2400000000000002,-0.2699999999999997,-9.79,0.0008639838309453292,-0.0025218646251424608,0.050204547086050724,120.55248335893498,1.375,178.375,0.018363424142345083,-0.4954597734767031,-0.868419704935997,-0.0037664912800819236
247.0,0.02675957456810736,-0.02479408119340483,-0.05821955120264171,0.2400000000000002,-0.2699999999999997,-9.79,-0.0035770031217481784,0.002011400193632243,0.02113980456039509,120.55849974398362,1.375,178.375,0.018368486426011237,-0.49540070738351316,-0.8684493947260636,-0.003777304511008703
248.0,0.0270611288353224,-0.026109599629760935,-0.05762970676277125,0.2400000000000002,-0.2699999999999997,-9.79,-0.037748138957816375,0.03520785330261137,0.05329858033991098,120.56150793650795,1.375,178.375,0.01837101756784431,-0.4953711743369182,-0.8684642396210969,-0.0037827111264720926
249.0,0.027743460928283788,-0.024211322356913326,-0.057819872981328534,0.2400000000000002,-0.2699999999999997,-9.79,-0.026806380425497295,0.039045561210999474,0.024024335287597117,120.5625,1.375,178.375,0.018371579999999964,-0.4953613300000006,-0.868469240000001,-0.0037841799999999985
250.0,0.02617694138225605,-0.02309449492535493,-0.05670894393483299,0.2400000000000002,-0.2699999999999997,-9.79,-0.02096367408371639,0.03370547291319204,0.001931522482508238,120.5625,1.375,178.375,0.018371579999999964,-0.4953613300000006,-0.8684692400000011,-0.0037841799999999985
251.0,0.02585126535614044,-0.022918564150022386,-0.058292708629947496,0.2400000000000002,-0.2699999999999997,-9.79,-0.01696495196121303,0.021665759874710165,0.0029273675532888585,120.5625,1.375,178.375,0.018371579999999964,-0.4953613300000006,-0.8684692400000011,-0.0037841799999999985
252.0,0.0257837021518936,-0.02264276634259449,-0.05857171622666068,0.2400000000000002,-0.2699999999999997,-9.790000000000001,-0.018917131503478013,0.01705272063011024,0.02219794929422772,120.5625,1.375,178.375,0.018371579999999964,-0.4953613300000006,-0.868469240000001,-0.0037841799999999985
253.0,0.02607919598909817,-0.023218405503803455,-0.0578007464507993,0.2400000000000002,-0.2699999999999997,-9.790000000000001,-0.010862101731887888,-0.012689520578245128,0.023374098716592767,120.5625,1.375,178.375,0.018371579999999964,-0.4953613300000006,-0.8684692400000011,-0.0037841799999999985
254.0,0.026015263846999714,-0.025256177141869254,-0.05868897084318816,0.2400000000000002,-0.2699999999999997,-9.79,0.0009612270923043988,-0.031599884813813456,0.016311869936977353,120.5625,1.375,178.375,0.018371579999999964,-0.49536133000000065,-0.8684692400000011,-0.0037841799999999985
255.0,0.026454812543059515,-0.02431575658168732,-0.05875964799199858,0.2400000000000002,-0.2699999999999997,-9.79,0.01300566514945481,-0.03212973751379357,0.017656042975401118,120.5625,1.375,178.375,0.018371579999999964,-0.49536133000000065,-0.8684692400000011,-0.0037841799999999985
256.0,0.027573560117683617,-0.0245325681171464,-0.06075327312751293,0.2400000000000002,-0.2699999999999997,-9.79,0.0056963809618241785,-0.022252834017442692,0.005222252256931329,120.5625,1.375,178.375,0.018371579999999964,-0.49536133000000065,-0.8684692400000011,-0.0037841799999999985
257.0,0.027968429979518705,-0.023033074116743484,-0.058459661418330755,0.24008064516129052,-0.2699999999999997,-9.79,0.042493219566052225,0.060751888120839724,0.0004545290898617508,120.5625,1.377016129032258,178.375,0.018377978951612868,-0.4953603454838716,-0.8684692400000011,-0.003795008790322579
258.0,0.06221105915484475,-0.021605335682660168,-0.05905000978886175,0.22675759013282745,-0.2712144212523716,-9.792504743833012,-0.08446211145748621,-0.2730737120116864,2.494583771008404,121.29067836812145,1.313389468690702,178.36029411764707,0.018113498792694475,-0.48979517140417483,-0.8715559735863383,-0.0033254027443073994
259.0,0.08487921109303938,-0.0062358475648323876,-0.05975388354266434,0.17181197478991594,-0.29154730279208435,-9.794570344266734,0.06633269235113401,-0.5408379312746603,-0.09524843707644326,121.92290254811601,0.9948859785849824,178.2353889943074,0.01762915145164677,-0.4849984149048524,-0.874229375604229,-0.00048289467169286993
260.0,0.09620048624288423,0.013960929264178792,-0.058965523440558984,0.13895258237703684,-0.3113112858046444,-9.795009186470285,0.38134862984172163,-0.5620376292318001,-2.2517652835663835,121.61546113068883,0.8068067885756454,178.11881456883827,0.01766303325270511,-0.48737575445959463,-0.8728329645763079,0.0015005711229349266
261.0,0.10411404191760854,0.032885896492771946,-0.059439918978344,0.1172930279814123,-0.3404733147115787,-9.79250459323514,0.27485728958776123,-0.4977535986855588,-0.637226335170873,120.59622694215602,0.6771586537548633,177.95658470377396,0.018332783540798547,-0.49511180244485103,-0.8684920723115294,0.00334974480877929
262.0,0.12260771438500173,0.04204977253768606,-0.05852922146375654,0.09129306518816459,-0.3518446729960629,-9.791252296617568,0.19680612677090897,-0.4573853029779211,-0.039973539194673946,120.00360589532042,0.5269938399517229,177.8754697712418,0.018257954354481014,-0.4996812454343025,-0.8659213551977976,0.004933700901838936
263.0,0.13083184580730162,0.046594146230892364,-0.05822333938462969,0.07315839217662501,-0.3624972890597013,-9.790547875064002,0.08910811556761766,-0.3275570964604976,-0.1680091842083427,119.9508215672048,0.43682471883734153,177.83537186379925,0.01816837816632969,-0.5001331747095614,-0.8657063482227123,0.005846196236023836
264.0,0.13648810693326477,0.049228326420575744,-0.057666364864937036,0.06559993341550147,-0.36720716987547275,-9.790170250896058,0.027406101298200314,-0.16063891122790686,-0.03729532074359115,119.90294534581437,0.4006992257781178,177.81899641577058,0.018131640359662537,-0.5005357867395737,-0.8655069258924618,0.006227351991283809
265.0,0.13714107579913856,0.049581043552168205,-0.05822706856425787,0.06198903480810918,-0.369262187088274,-9.79,-0.011085428121233452,-0.1044414917319573,0.209031680336779,119.91288534177954,0.3835373369033958,177.8125,0.018098343819616208,-0.5004550578461449,-0.8655658061757594,0.006406660622434024
266.0,0.1422089203212617,0.05044503323003455,-0.057581276217612797,0.06034701857282507,-0.3696871945259042,-9.79,-0.01371680241966301,-0.033345103042229235,0.006083453539123498,119.98343396354988,0.37606915933528834,177.8125,0.01803609164332845,-0.4997635363961904,-0.8659642085004564,0.006494719397238521
267.0,0.14330797291565242,0.0504893630187003,-0.058996232029280636,0.06000000000000005,-0.37,-9.790000000000001,-0.0004276787931569558,-0.02271404081572566,0.015147369565891331,120.00115711673537,0.375,177.8125,0.018017762566532265,-0.4995336621381196,-0.866099623695488,0.006518154070564523
268.0,0.14153297994417857,0.04811840204284891,-0.05881623791290333,0.06000000000000005,-0.37,-9.790000000000001,0.017053384936548073,-0.03774722861195712,0.1194404942587521,120.06867089320019,0.375,177.8125,0.018013882277915647,-0.49913251399031455,-0.8663208501944794,0.00652903414888338
269.0,0.1406699801889058,0.05090610742015528,-0.05945306871848233,0.06000000000000005,-0.37,-9.79,0.02710152060153686,-0.02361647522612663,-0.0936542901524854,120.03786367240654,0.375,177.7928427419355,0.018086413961538463,-0.499360509414512,-0.8661792633230458,0.00658945586476427
270.0,0.1398043729488514,0.05304362442968061,-0.06049560503882172,0.06000000000000005,-0.37,-9.790000000000001,0.025431413466541264,-0.00868799027455375,-0.14492207823881376,119.97266392617365,0.375,177.7704133064516,0.01817670311916674,-0.4998771330335987,-0.86588258978031,0.006646257330925323
271.0,0.14012151805010808,0.05412199831905866,-0.06077211238293442,0.06000000000000005,-0.37,-9.790000000000001,0.0575539802289282,-0.027550803449931965,-0.15720703594012647,119.91124448441127,0.3591191066997519,177.75919858870967,0.018243215934273187,-0.5003738763583009,-0.8655994904657209,0.006715487127001118
272.0,0.1410753271832227,0.05638201893060112,-0.059465140478668035,0.06000000000000005,-0.37,-9.790000000000001,0.043605293964620186,-0.003499647302489396,-0.1552164211958697,119.85883178955214,0.3348014888337469,177.75359122983872,0.018281805225201116,-0.50083652473222,-0.8653229030164196,0.00683703390689286
273.0,0.14220755873289048,0.05841929730649161,-0.06150308172576642,0.06000000000000005,-0.37,-9.790000000000003,0.03272176168654447,0.004383611072200431,-0.07062980268950612,119.83053252008625,0.32264267990074436,177.75078755040323,0.018287782274571257,-0.5010111759793334,-0.8652177959408514,0.0069175164645326305
274.0,0.14538049307612264,0.05737749139518128,-0.05994508924997999,0.06000000000000005,-0.37,-9.790000000000001,0.015289812294885137,0.006885605939326022,-0.0627846594092692,119.8058125050028,0.3165632754342431,177.75,0.018286890267829994,-0.5011108940229327,-0.8651611441044982,0.006974323265028407
275.0,0.14093887148231576,0.05611501297869663,-0.06002286423254165,0.06132718894009218,-0.3702949308755761,-9.789999999999997,-0.004694360985008748,-0.012290436215709369,-0.022491166481801238,119.9412359314073,0.3361042183622829,177.7532258064516,0.018331930373397674,-0.5001086919176653,-0.865736965272704,0.00680117847821065
276.0,0.12269859936690597,0.047358922341048784,-0.05665688533477907,0.0795630252100841,-0.35716833830306305,-9.789999999999997,-0.021769527595117133,-0.050498232266371686,0.06453897375807763,120.16174882251286,0.45756641366223905,177.83652751423148,0.01821392797782421,-0.4984387208481918,-0.8667082620853376,0.0055182004790702965
277.0,0.10461141342366923,0.03896961786116972,-0.05738464167506571,0.09700918908938055,-0.3481002981837895,-9.789999999999996,-0.03052411328254552,-0.005455187330157596,-0.17854041449181582,120.06660080209326,0.5673613975744576,177.89003795066412,0.018243062326920523,-0.4991440955039116,-0.8663079912722003,0.004479675298199885
278.0,0.09711319890746416,0.03616535003360255,-0.057056004500384054,0.10947233648017421,-0.34356627812415275,-9.79,-0.018741505132427803,-0.030985918326889413,-0.03444450485256765,119.83237038023498,0.6334790858840029,177.91679316888042,0.01827721902506277,-0.5008563916333293,-0.8653080377484831,0.003947202383751345
279.0,0.09329346982655068,0.03384384635471774,-0.05694558884458652,0.11570391017557102,-0.3412992680943344,-9.79,-0.0067108979092863515,-0.02092292553375142,0.05464778987937456,119.7339870827173,0.6665379300387757,177.93017077798862,0.018294346004466874,-0.5015652400560303,-0.8648911982002843,0.0036875082886498644
280.0,0.0908955828395426,0.03176293700224367,-0.05661565156515039,0.11877822236889155,-0.34015654648956345,-9.79,-0.014069734668928892,-0.017532315301437923,-0.15028267188058922,119.63398662891626,0.6823617069548717,177.93675877609104,0.01830143548840856,-0.5023429389128075,-0.8644565689526771,0.003539812817135994
281.0,0.09003507794728553,0.03121828064533437,-0.05712186752830574,0.11976624590930351,-0.33999999999999986,-9.79,0.011169591868571607,-0.02147073544958044,-0.028533176547505243,119.5530286560141,0.6867987377279103,177.9375,0.018309351458625542,-0.5029334813942594,-0.8641245014402855,0.0034959282444313768
282.0,0.08210514281440229,0.03312670784163723,-0.05938536646095584,0.13032258064516136,-0.33587096774193537,-9.790158808933,0.04836741362047993,-0.032703532215745734,-0.17088003093207604,119.44951146002415,0.7500310173697271,177.96777295285358,0.01843510305210918,-0.5037593906249176,-0.8636439673075127,0.00287759412174818
283.0,0.06493119049271255,0.03043309744778196,-0.06042522286443763,0.14588235294117652,-0.3346717267552179,-9.7900794044665,-0.012720636092373727,0.14391901494127937,-0.3528181295628734,119.24109134854669,0.8477977667493797,177.98157385783094,0.01880736732301854,-0.5053551809655779,-0.8626955928679634,0.0021745683273244787
284.0,0.046148999508819254,0.026001343868813045,-0.05919782123974485,0.15874762808349144,-0.33217457305502807,-9.79003970223325,0.06984993645928182,0.10182266461433621,-0.3880449045571496,118.92742144547024,0.928939205955335,177.99179499343163,0.019062989629251223,-0.5077437990451937,-0.8612857376269338,0.0015452192891102683
285.0,0.035816435238280604,0.02049311145053556,-0.05868913239406596,0.1651802656546489,-0.33092599620493324,-9.790019851116625,0.057448909761898974,0.09600646839587779,-0.24240954905276832,118.800593283219,0.9695099255583126,177.99690556123193,0.019190800782367564,-0.5086724189227985,-0.8607391104188094,0.0012355569631035215
286.0,0.03194551600623709,0.019747563789783915,-0.05817521135832329,0.16839658444022765,-0.33030170777988577,-9.790009925558312,0.04379816959869143,0.06306119790761631,-0.2845269771473519,118.54747406096433,0.9897952853598014,177.9994608451321,0.019254706358925733,-0.5105245400133145,-0.85964179200376,0.0010381346105840183
287.0,0.02817198957279757,0.017635168271262727,-0.060144997818759816,0.16968216318785573,-0.3301185958254266,-9.79,0.016418515680639238,0.01398727469222167,-0.14860754124317088,118.43225580099366,0.9979838709677419,177.99979245730552,0.01928276686432641,-0.51139454311888,-0.8591258215778024,0.0009545083375500731
288.0,0.027695439604908924,0.018855993880382546,-0.059218685479741656,0.16999999999999993,-0.3299999999999996,-9.790000000000001,-0.015088126930446128,0.006695234946649488,0.09008534610731214,118.4229088080992,1.0,178.0,0.01928711000000003,-0.5115209479447922,-0.8590431734852348,0.0009351766646433113
289.0,0.026519250780437063,0.018913404006243507,-0.058432947450572315,0.16999999999999993,-0.3299999999999996,-9.790000000000001,-0.0013596676638917803,0.027117138722684703,-0.07341290810353798,118.49488854383455,1.0,178.0,0.01928711000000003,-0.5109790105532974,-0.8593640666901341,0.0009555245330385019
290.0,0.030675780024115105,0.0176455060865831,-0.05900093993112332,0.16999999999999993,-0.3299999999999996,-9.79,-0.009565402508341179,-0.0016681551490263114,0.01669421359096014,118.5264576287721,1.0,178.0,0.01928711000000003,-0.5107878264838059,-0.8594803899756112,0.0009655653915192513
291.0,0.029109011363824072,0.0167847026080637,-0.0588009451959764,0.16999999999999993,-0.3299999999999996,-9.79,-0.016535703446310883,-0.021772167612275573,0.10147281684092298,118.55843670769121,1.0,178.0,0.01928711000000003,-0.5105076967346865,-0.8596518987607672,0.0009719240062434971
292.0,0.028329219521662306,0.016196721751482426,-0.05815697624002773,0.16999999999999993,-0.3299999999999996,-9.79,0.0004307695047321737,-0.023421853837355268,0.012787657119733079,118.56389902502147,1.0,178.0,0.01928711000000003,-0.5103838176025153,-0.8597129563913102,0.0009752263579604586
293.0,0.02753349633731399,0.017593678253472744,-0.05910450268817202,0.16999999999999993,-0.3299999999999996,-9.79,0.007743350413136119,-0.00405288841711676,-0.04114779474918653,118.56528067796339,1.0,178.0,0.01928711000000003,-0.5103303251436095,-0.8597382295458116,0.0009765600000000008
294.0,0.026639938610222312,0.017204345075969588,-0.05849010664551382,0.16999999999999993,-0.3299999999999996,-9.790000000000001,0.008363294637424749,-0.00279824360371967,-0.01561000591504805,118.56378008192524,1.0,178.0,0.01928711000000003,-0.5103209405632365,-0.8597404580465956,0.0009765600000000008
295.0,0.029132821327640605,0.018015895016223405,-0.05739789510463095,0.16999999999999993,-0.3299999999999996,-9.790000000000001,-0.007659110489787369,-0.0004630618940257337,-0.024038041872014554,118.56314004096262,1.0,178.0,0.01928711000000003,-0.510314002539683,-0.859742802894266,0.0009765600000000008
296.0,0.031103252247488118,0.01915519822248001,-0.058139262700226874,0.16999999999999993,-0.3299999999999996,-9.790000000000001,-0.015964525431372716,-0.02144372723725286,0.002398417909111071,118.5625,1.0,178.0,0.01928711000000003,-0.5103149400000004,-0.8597412407661298,0.0009765600000000008
297.0,0.03231237881191611,0.016293324917691622,-0.05996764882323171,0.16999999999999993,-0.3299999999999997,-9.790000000000003,-0.021153255659234746,-0.02214029439819632,0.016912414599716825,118.5625,1.0,178.0,0.01928711000000003,-0.5103149400000004,-0.8597412100000007,0.0009765600000000008
298.0,0.0319455457312145,0.014229859525393556,-0.058591095276951236,0.16999999999999993,-0.3299999999999996,-9.790000000000001,-0.0015714063341513412,-0.01950655809713757,-0.03322129877020749,118.5625,1.0,178.0,0.01928711000000003,-0.5103149400000004,-0.8597412100000008,0.0009765600000000008
299.0,0.03112216472176802,0.014907103215896146,-0.058765404856878575,0.16999999999999993,-0.3299999999999996,-9.79,0.03535588858332094,-0.04856376291953653,-0.05293402326135969,118.5625,1.0,178.0,0.01928711000000003,-0.5104261812096776,-0.8596855895161292,0.0009765600000000008
300.0,0.030364137953163235,0.014343094178016824,-0.058763775604007765,0.16999999999999993,-0.3299999999999996,-9.790000000000001,0.002720167321803253,-0.06290154574123309,-0.014376176341811523,118.5625,1.0,178.0,0.01928711000000003,-0.5104965683467744,-0.8596503958870967,0.0009765600000000008
301.0,0.029328791140993696,0.01442701014832163,-0.057867839935198465,0.16999999999999993,-0.3299999999999996,-9.790000000000001,0.0037664312155322194,-0.021191277553238817,0.017981006522122332,118.5625,1.0,178.0,0.01928711000000003,-0.5105317619153227,-0.8596327990725803,0.0009765600000000008
302.0,0.02844517947615069,0.01565341142171545,-0.058574051774744555,0.16999999999999993,-0.3299999999999996,-9.790000000000001,-0.00968025993853982,0.00017981214256200008,-0.00030807894497421155,118.5625,1.0,178.0,0.01928711000000003,-0.5105493586995968,-0.8596240006653222,0.0009765600000000008
303.0,0.028522657729312038,0.014649752221900007,-0.05856904682195799,0.16999999999999993,-0.3299999999999996,-9.790000000000003,0.002804162544139472,-0.012345775058212927,0.1291646631539892,118.58153754627182,1.0,178.0,0.01928711000000003,-0.5104063278373712,-0.8597120420328195,0.0009786258699101013
304.0,0.030307195800139897,0.014250279336756459,-0.05906022905614028,0.16999999999999993,-0.3299999999999996,-9.790000000000001,0.019925266755940703,-0.007480221198461302,0.06420430738344621,118.6687929666843,1.0,178.0,0.01928711000000003,-0.5096956144050768,-0.8601378918984661,0.0010090974510840829
305.0,0.03040082159123865,0.014561681180805522,-0.0601157834862933,0.16999999999999993,-0.3299999999999996,-9.79,0.0054015545836816154,-0.0020297060513723747,0.028210363633552827,118.71242067689053,1.0,178.0,0.01928711000000003,-0.5093397962347966,-0.8603510475621363,0.0010243332416710734
306.0,0.03006176192209143,0.015400320237100152,-0.05961422334836938,0.16999999999999993,-0.3299999999999996,-9.79,0.007246068190458319,-0.018723236362219724,0.01995830641675081,118.73423453199365,1.0,178.0,0.01928711000000003,-0.5090928847943057,-0.8605036281384677,0.001031951136964569
307.0,0.03173479515299321,0.01449660612831555,-0.05807061923842065,0.16999999999999993,-0.3299999999999996,-9.79,0.004989549343768341,-0.019612358595742056,0.021173672138976543,118.74514145954521,1.0,178.0,0.01928711000000003,-0.5089439282036045,-0.8605969195531054,0.0010357600846113168
308.0,0.03088855040568752,0.013937031046910086,-0.060091364616566216,0.16999999999999993,-0.3299999999999996,-9.79,-0.008671224189117335,-0.002461672931683012,0.012046686372543226,118.75,1.0,178.0,0.01928711000000003,-0.5088741945724526,-0.8606406764925765,0.0010375999999999999
309.0,0.02880389808756085,0.014190017043814646,-0.05988402015862683,0.16999999999999993,-0.3299999999999996,-9.79,-0.010766929436573473,-0.01119967529119846,-0.07378133398519851,118.70399259650978,1.0,178.0,0.01928711000000003,-0.5092521951815199,-0.8603971103695036,0.0010133260285563198
310.0,0.027396469725362117,0.013848309120242392,-0.05950813585975044,0.16999999999999993,-0.3299999999999996,-9.790000000000001,0.015585699888893283,-0.009257628195807346,-0.049267402652068554,118.66248016922263,1.0,178.0,0.01928711000000003,-0.5095837298488245,-0.8601823701847522,0.000993958498149128
311.0,0.02628400035167236,0.013356566234468358,-0.05920491278394588,0.16999999999999993,-0.3299999999999996,-9.790000000000001,0.014705292340760005,0.004483769107421467,-0.006192521090499201,118.64172395557907,1.0,178.0,0.01928711000000003,-0.5097516535060814,-0.8600735625066109,0.0009842747329455322
312.0,0.027074555193531344,0.014410903220557617,-0.05982626959621977,0.16999999999999993,-0.3299999999999996,-9.790000000000001,0.004677525151789921,0.017359038684614202,-0.004495093071792335,118.63134584875726,1.0,178.0,0.01928711000000003,-0.5098364122369117,-0.8600186273823379,0.0009794328503437344
313.0,0.026539358762218333,0.014148779874106555,-0.05838243760768324,0.16999999999999993,-0.3299999999999996,-9.790000000000003,-0.00408383407823135,0.020429099106975317,-0.04248057703297453,118.62615679534639,1.0,178.0,0.01928711000000003,-0.5098787916023269,-0.8599911598202015,0.0009770119090428352
314.0,0.027091038702204084,0.015443859353587743,-0.05862303030863038,0.16999999999999993,-0.3299999999999996,-9.790000000000001,0.0022361272475219483,0.008480405781401,-0.05049094744390452,118.625,1.0,178.0,0.01928711000000003,-0.5098876999999999,-0.8599853500000005,0.0009765600000000008
315.0,0.025900392178245905,0.014779980545936332,-0.057209239519303845,0.16999999999999993,-0.3299999999999996,-9.790000000000001,0.002054161609124581,0.022333921438661128,-0.017451764982763233,118.625,1.0,178.0,0.01928711000000003,-0.5098876999999999,-0.8599853500000005,0.0009765600000000008
316.0,0.028107726171048206,0.013161359640607698,-0.05624642883543276,0.16999999999999993,-0.3299999999999996,-9.790000000000001,-0.005337826549508369,0.02574814391505509,-0.010332735329963287,118.625,1.0,178.0,0.01928711000000003,-0.5098876999999999,-0.8599853500000005,0.0009765600000000008
317.0,0.027529012708214718,0.012640377804909293,-0.056643271832538464,0.16999999999999993,-0.3299999999999996,-9.79,-0.008218645506797363,0.000634600106738931,-0.00718144744976,118.625,1.0,178.0,0.01928711000000003,-0.5098876999999999,-0.8599853500000005,0.0009765600000000008
318.0,0.027192532715536434,0.013150227057154615,-0.05750824708519049,0.16999999999999993,-0.3299999999999997,-9.790000000000001,-0.009811932881737217,0.0010186094533000934,-0.006102213492483191,118.625,1.0,178.0,0.01928711000000003,-0.5098876999999999,-0.8599853500000005,0.0009765600000000008
319.0,0.026832313464783077,0.013843418700108289,-0.05664198836594393,0.16999999999999993,-0.3299999999999996,-9.790000000000001,-0.001449745242711927,-0.023492231371660243,0.03583138173302108,118.625,1.0,178.0,0.01928711000000003,-0.5098876999999999,-0.8599853500000005,0.0009765600000000008
320.0,0.027786127850643997,0.014158336287368553,-0.056004962779156314,0.16999999999999993,-0.3299999999999996,-9.79,0.02056550080743629,0.006054295167198392,0.08666696207018787,118.7158188585608,1.0,178.0,0.01928711000000003,-0.5092242179553351,-0.8603943916277912,0.0010012789280397024
321.0,0.02848727795501991,0.014795501989050382,-0.05622188743156483,0.16999999999999993,-0.3299999999999996,-9.79,0.0502933110796014,0.004075214659892079,-0.08717887175548467,118.7439981389578,1.0,178.0,0.01928711000000003,-0.5090819509937966,-0.8604886479106699,0.0010086097866004965
322.0,0.027921314348733718,0.01260384418448935,-0.0571892847296073,0.16999999999999993,-0.3299999999999996,-9.79,0.03842750551419906,-0.01775565943912718,-0.05511817371696405,118.6844990694789,1.0,178.0,0.01928711000000003,-0.5095694852549632,-0.8602050056488837,0.0009925848933002488
323.0,0.028520180983890676,0.01107893182086731,-0.05649146776162905,0.16999999999999993,-0.3299999999999996,-9.79,0.022470761205640233,0.00952174785340108,-0.0458746590551026,118.65474953473947,1.0,178.0,0.01928711000000003,-0.5097600919823205,-0.8600951778244421,0.0009700727436291306
324.0,0.026735768935365722,0.010379199653393206,-0.0564198250226476,0.16999999999999993,-0.3299999999999997,-9.79,-0.011994906135531135,0.03615808334810351,0.013513003293749264,118.63987476736972,1.0,178.0,0.01928711000000003,-0.5098417445933111,-0.8600523396971672,0.0009418170169758552
325.0,0.026819389484405272,0.01101525523720475,-0.05753634110843963,0.1739644693782141,-0.33029920523609124,-9.79,-0.04874006284228277,-0.016155368726207174,1.7792618510193348,118.98303547948808,1.0168302945301542,178.0,0.019395312412342228,-0.5072456762508037,-0.8615542272346015,0.0007611873556846767
326.0,0.034763309373539046,0.014034845360537864,-0.058236272512745144,0.16571495358311622,-0.3354583583784143,-9.789999999999996,0.20065292004775262,-0.10029083600480866,-4.526566061097475,118.72383790823483,0.9669404928871969,177.96866359447006,0.019416365786816284,-0.5091161325431006,-0.8601128611233492,0.0013349400879805865
327.0,0.042393565038073115,0.02028206723395873,-0.06006751208491874,0.1786042730796712,-0.34474862240617554,-9.789999999999996,-0.18245160352561549,0.12326411856410029,3.6168848104670595,118.16491829128046,1.0426836799389585,177.91716432043432,0.02013885679751773,-0.5132329045206596,-0.8575338289760099,0.0011216599335174696
328.0,0.06456183962182158,0.026515952916162343,-0.05957671113941165,0.17131008417891935,-0.33647669549481285,-9.790972417017294,-0.02587066251215657,-0.09181915289987733,0.003034337378056584,119.74091519987118,1.0003039718067863,177.97213989747758,0.019596105829801407,-0.5014750178026393,-0.8645500259910436,0.0009655593424126898
329.0,0.05598829308280019,0.029541770620907595,-0.059036435446817956,0.1643877609834689,-0.3503443385308165,-9.790486208508643,0.25645070945052695,-0.16207461101215065,-3.5991980770867014,117.7050774156038,0.9577556725393379,177.8860699487388,0.019981191914900713,-0.516733955860613,-0.8554273234567353,0.0020206124315750094
330.0,0.05628306659750107,0.04180922098132804,-0.05991559967759317,0.1536805565085648,-0.3603591725379656,-9.79024310425432,0.03931114247654914,-0.1272037384186513,-0.19914321806649227,116.2956488059786,0.893265400552044,177.8256904208397,0.020102843610559282,-0.5272720108311948,-0.8491085840448707,0.0030118258160680093
331.0,0.06170425731308745,0.04938617731094051,-0.06022200874816678,0.14139096949852198,-0.3668877275900271,-9.790121552127161,0.031529931197311956,-0.06942624196918228,-0.033618588039902586,116.15553849669129,0.8188965251608146,177.78479221502812,0.02006265276124483,-0.5283707732041276,-0.8486123250513651,0.003800227393697088
332.0,0.06578873425156734,0.05786138125549066,-0.06111453950444132,0.13471448607493486,-0.37387470780738646,-9.79006077606358,0.062306103978614504,-0.026712976520129394,-0.16382865225782473,116.10643928301711,0.7785655847191612,177.7341973244147,0.02017612578087395,-0.5287045171888956,-0.8484865958473113,0.004336769385009257
333.0,0.06757035379426005,0.0603807954400634,-0.05940817988508346,0.13180558338342344,-0.3780215958617985,-9.79,0.06344693366449464,0.009110767316101432,-0.045768686019726605,115.99015175102612,0.7609079676751486,177.7053846603373,0.020289095996048594,-0.5296166865522662,-0.8479725936455789,0.004630707665781257
334.0,0.07009147741839616,0.06326726559039507,-0.060406326098770474,0.1304534829359513,-0.3844439776544017,-9.790000000000001,0.0101072112607432,0.03724075421029065,0.09224535971734076,116.03117898611214,0.7527466105656848,177.69452700758802,0.02036978035286302,-0.5293583159825241,-0.8481458837275264,0.004786995102475881
335.0,0.0702771552589877,0.06468847510109171,-0.060350284277852884,0.1291265508684863,-0.3875585947178041,-9.790000000000001,0.000925373530540622,0.0012373890086228648,0.07377983453195408,116.06507096354912,0.7445409429280397,177.68964019851114,0.02040108534103035,-0.5291347236105666,-0.8482897291126212,0.004862442015401636
336.0,0.07012042721413592,0.0657258318830309,-0.06093780348656611,0.12440198511166253,-0.3890634755463062,-9.79,0.026832613246535263,-0.02462686150978093,0.14700705431498698,116.2549279835514,0.7150124069478908,177.6760069071516,0.02040192186643268,-0.5276938089348047,-0.849177987238942,0.0050649277261057245
337.0,0.08533208759563199,0.07153278324111625,-0.06163346462313344,0.11949645772647173,-0.3838585259919467,-9.789999999999997,0.06880613652221394,-0.08192337609239542,0.05973316357997703,116.57595290643746,0.6904304671485597,177.69528017346647,0.020156342935445996,-0.5253105760630077,-0.8506540614183705,0.005060482615884883
338.0,0.08044187587571991,0.062268635862408196,-0.06108425525874549,0.11727591302308182,-0.384771723430533,-9.789999999999996,0.05355144060334997,-0.06943938929023766,-0.008497868720207642,116.389861587252,0.6783278960682615,177.68416813199082,0.020167075707903485,-0.5266543182422219,-0.8498154407507309,0.005210484764734959
339.0,0.08089238240773691,0.06105235071808933,-0.06183055592680678,0.1218661702814013,-0.3822245713926858,-9.789999999999996,-0.016624330607186315,0.021665569015425615,0.17043974216735935,116.46691261837323,0.7069419932917138,177.71472188496506,0.020173395104794302,-0.5260974153896887,-0.850165641922837,0.00486845082964721
340.0,0.07950753440852207,0.06051897526141622,-0.062094873618937695,0.1259603804260604,-0.3809509953737622,-9.79,-0.01602735466209293,0.023584991317296668,-0.008218684015372513,116.52325311999084,0.7286415921793556,177.73336900699866,0.020215927505250746,-0.5257039300695748,-0.8504089008156674,0.004614989318740946
341.0,0.07027799615438708,0.05188272816428312,-0.06178237690972656,0.1406651997006962,-0.3809973193187597,-9.789999999999997,-0.0743211343533354,-0.013026778464096576,1.234011604493206,116.64267583213567,0.8171789554824671,177.72360395038257,0.020646357121171636,-0.5248209287627321,-0.8509022455150304,0.003983328293854598
342.0,0.05569629532989545,0.044738080524679306,-0.062068209052723734,0.1433153020476366,-0.374751196578776,-9.789999999999997,-0.035133266073898405,0.1213604110594568,-0.19996216656785137,117.23611134647786,0.8337658245773032,177.75873360899487,0.020462360155201226,-0.5203890528590769,-0.8536325992582163,0.003581266333215559
343.0,0.046212585078494434,0.03543691899463823,-0.05955222819373926,0.1523750318615651,-0.3721252371916509,-9.79,-0.05967320845479087,0.10917190601348474,0.0451188299761946,117.28510182687933,0.8899660851341018,177.7878586196154,0.020584824165227014,-0.5199984596169422,-0.8538842260470563,0.0030265444363344173
344.0,0.04077678622466628,0.028740792003522593,-0.05949697628715887,0.15672675521821638,-0.37090132827324485,-9.79,-0.047326002768190226,0.0607359567103089,-0.009701195730024252,117.34369739875503,0.9169829222011385,177.80129269449714,0.020645982722960178,-0.5196050371565692,-0.8541264977173546,0.0027631723120526224
345.0,0.037319847872978804,0.02781885276856815,-0.061022274583944394,0.15884724857685018,-0.37028937381404176,-9.79,-0.024439182207208775,0.03254805230611682,-0.012248841844430085,117.37243701243938,0.9302656546489564,177.8079044117647,0.020675342490512366,-0.5194099881208547,-0.8542464692817344,0.0026340512829432883
346.0,0.035448612530206466,0.026390187505937045,-0.061060894829395765,0.15951612903225815,-0.3699620493358634,-9.79,-0.00044519048314115017,0.0047857614923554215,-0.03007112998218312,117.38376950242463,0.9345054554079697,177.81181807400378,0.020677253600569295,-0.5193353313920213,-0.854293962582044,0.0025850993701243977
347.0,0.03648580093741384,0.02852920556146364,-0.06009547441805506,0.1600000000000001,-0.37,-9.79,0.028442928039702234,0.00044950569144117623,0.01199584465713498,117.3725358422939,0.9375,177.8125,0.020690920000000036,-0.5194243295883256,-0.8542390844765064,0.0025634174910394306
348.0,0.03843747292134389,0.02842614911969752,-0.05928736854543305,0.1600000000000001,-0.37,-9.79,0.019045772775611484,-0.015880277876245616,0.02267098940486037,117.375,0.9375,177.8125,0.020690920000000036,-0.5194093011612904,-0.8542479894143928,0.0025634800000000043
349.0,0.03614022692155956,0.026699304881615843,-0.060243407658796336,0.1600000000000001,-0.37,-9.79,0.002179905466030533,-0.0071306364363939705,0.007413577117106994,117.375,0.9375,177.8125,0.020690920000000036,-0.5194091800000001,-0.8542480500000008,0.0025634800000000043
350.0,0.03661466031177824,0.027415192635380385,-0.06088719282069362,0.1600000000000001,-0.37,-9.79,0.0006179225230818308,-0.020782420112718233,-0.001013513540780859,117.375,0.9375,177.8125,0.020690920000000036,-0.51940918,-0.8542480500000008,0.0025634800000000043
351.0,0.043714628950284676,0.029248489116647517,-0.060738480737489185,0.1530400782013685,-0.37000000000000005,-9.79,-0.009770229261197994,-0.11313524021974411,-0.04838036613593528,117.36424731182797,0.8940004887585533,177.8125,0.020499520664711647,-0.5194836396676444,-0.8542122514467254,0.00289425036168133
352.0,0.04745284797390164,0.027386031158820046,-0.06101688304864532,0.14270366192946832,-0.3669032258064514,-9.79,0.007614885369401004,-0.14248573425379263,0.01248785663426561,117.33736559139786,0.8323755545529739,177.8125,0.02011784266486201,-0.5197013356501996,-0.8541007480434623,0.0033695656870441387
353.0,0.04309577271617858,0.023794051136594777,-0.06069004587427379,0.14102925031957286,-0.36329032258064486,-9.789999999999997,0.006629736947896983,-0.058567124061158285,0.027087762322509146,117.32392473118279,0.8204216482442288,177.8125,0.01998244475374087,-0.5197757739541322,-0.8540798906346345,0.0033679318757801335
354.0,0.03753281496729078,0.021656412136250858,-0.060326514211594844,0.1401920445146251,-0.3614838709677417,-9.79,-0.040288053260583497,-0.028308548810060903,0.0726643861850515,117.31720430107526,0.8144446950898563,177.8125,0.019929123667193013,-0.5198129931060986,-0.8540694619302207,0.0033732598088578093
355.0,0.04835485750808331,0.026718663057372735,-0.061232874652229485,0.15220745920745912,-0.36058064516129007,-9.789999999999997,0.0023546178284081544,0.20534509173622076,0.1083372105045492,117.30211388074292,0.8881913113767952,177.8125,0.020236993876607268,-0.5198869679215735,-0.8540050629054818,0.0028428382524249944
356.0,0.05137367968843301,0.023031575792960994,-0.062200590048787384,0.1609512081846048,-0.3538292220113849,-9.789999999999997,-0.10525345987424971,-0.08385802310434663,0.265801957273435,117.61640719337588,0.9379241805000818,177.85898956356735,0.02010673733261678,-0.5175397440601197,-0.8554211090854245,0.0022263124954839592
357.0,0.046709963518111554,0.02090036731892808,-0.0632496818694327,0.1609073658789029,-0.34308665401644484,-9.789999999999996,-0.0011520562937976375,0.03555529995212417,-0.25861599550648384,117.42939048308344,0.9370449920373607,177.924103828067,0.019630760575360076,-0.5189189372252268,-0.8545884313988993,0.0019813256706211102
358.0,0.045319366135782364,0.008250238910430936,-0.06057273502286291,0.15733540336955898,-0.3303745565547394,-9.792244039270681,-0.03479576761733955,0.02066836462606846,0.2024182762065524,117.53878067866188,0.9168482323440661,178.00668433572588,0.018973296044193275,-0.5181395154218701,-0.8550781692712124,0.001768151500574697
359.0,0.040400151592205086,-0.0010455744542693679,-0.06352180323603424,0.1613783420314333,-0.31907268992878995,-9.795512968118729,-0.022768037199979357,0.02137634423527785,-0.8187849094262135,117.10305969416964,0.9402639091426638,178.07473419963952,0.018537275006930528,-0.52139481873886,-0.8530937812316579,0.001363176408237517
360.0,0.03378778915800946,-0.006830065969897299,-0.05847110539273702,0.17142219605519327,-0.3122212084879681,-9.794979809121397,-0.026478668573671912,0.029652003984696598,-0.45282875631473096,116.38233996438689,0.9960683501649856,178.1138404248818,0.018464373909999582,-0.5267504850543311,-0.8497869141566967,0.0008709799813952455
361.0,0.027650819159140104,-0.010820014717651361,-0.05895463989793184,0.17881629075466338,-0.30749668852844425,-9.793414314767727,-0.020014563336086855,0.051569466831341185,-0.34323679772461463,116.00769626621451,1.043558598742183,178.14178481849035,0.01847608135278081,-0.5295353821658554,-0.8480684599378179,0.0005004079870300027
362.0,0.021979602277942274,-0.013223556595937332,-0.061129961370190784,0.18536122455621723,-0.30485293859462304,-9.791707157383861,-0.02873550003686488,0.07818815047546915,-0.3099569916626813,115.7555242561894,1.087894518887433,178.15864316363337,0.0185908344479064,-0.5313909723114119,-0.8469128223245124,0.00016006064998148954
363.0,0.016696376004031274,-0.01445167799621339,-0.06161432404860423,0.19280768950195995,-0.3021202514384992,-9.79078345246472,0.001361509618611206,0.06049718416714084,-0.16780973600304366,115.60452484644227,1.1253242304157085,178.17479551823556,0.018671288552951453,-0.5325031254854692,-0.846219308072877,-0.0001559641932633247
364.0,0.017293782609622766,-0.01457417794851594,-0.06280282885145666,0.19318405659498572,-0.302198787250304,-9.790657734898705,-0.0011247338762986328,0.02587028202098014,-0.08394248234913858,115.55931887483403,1.1283442890162316,178.1739709415925,0.01866320105668757,-0.5328551897721038,-0.8460005062295053,-0.00014189786095520588
365.0,0.011499248624910637,-0.01565433463182621,-0.06061605462423948,0.1977061722180884,-0.3046142819626211,-9.790259388541164,-0.005656969915816811,0.029769818429844906,-0.09159127839541295,115.36796588902992,1.1485626531929793,178.15878292737193,0.018851184497326423,-0.5342407057768708,-0.8451178649447774,-0.00027000247514261523
366.0,0.008748778103616814,-0.011437561094819162,-0.06047165200391006,0.2012738269794722,-0.30740102639296185,-9.79010080645161,-0.020107832355816226,0.05937652737047898,-0.26815661656891493,115.21025782013685,1.1701299792277615,178.14130467986314,0.01906410010935973,-0.5354038248570381,-0.8443781615493651,-0.00038797457783479956
367.0,0.010723180286252028,-0.00525307389008039,-0.06079833603244772,0.21696071967873254,-0.309041586422725,-9.790050403225804,-0.02011153679914212,0.23163673248493602,-0.48421271688660805,114.94206433010899,1.2717673374786624,178.13243447580646,0.019563713843361096,-0.5373715854525485,-0.8431108216447092,-0.0010026687207611137
368.0,0.01829902904830686,-0.003239928929399921,-0.06028919734173705,0.2287540646292002,-0.30968208353394305,-9.790025201612899,-0.018822874948935673,0.0716468119902686,-0.26940046890273706,114.68744528822165,1.3538241623854699,178.1277091733871,0.019890067982286614,-0.5392428428729019,-0.8419123178164896,-0.0015200195974284553
369.0,0.015554109492858296,-0.0070861190747144075,-0.05915466427029077,0.22997935086298738,-0.305108855922003,-9.789999999999996,0.012317430785041071,0.04172697785358398,-0.5276396922781619,114.13671678379546,1.3361705237330574,178.1559307482246,0.019820019561715356,-0.5433241927006688,-0.8392697839773795,-0.0014760270416953908
370.0,0.01466644405444164,-0.009269678944225052,-0.06027102685418805,0.23044834478633253,-0.3024410207029372,-9.79,0.015176929655007528,0.030718030907801355,-0.2767971524931392,113.82330420842999,1.3267136640842705,178.1724241694752,0.019778372444668173,-0.5456610172827937,-0.837752078609153,-0.0014565616937307602
371.0,0.014847186557314386,-0.009840234435572009,-0.060130625841561286,0.23063961716344988,-0.3010592200288882,-9.79,0.005578154349451351,-0.0014224221944724516,-0.1426068455758067,113.6685405450752,1.3216076873696037,178.18097014925374,0.019753794340613667,-0.5468146989248764,-0.8370025697200207,-0.001445012063874178
372.0,0.013316270654242611,-0.010166830863633017,-0.059889651637752964,0.23272238514174023,-0.29997009089450144,-9.789999999999997,-0.08339018049586565,0.15812483229285146,-0.0875851920938662,113.5927505981821,1.334280303030303,178.1867094148028,0.019777810126201847,-0.5473553275097383,-0.8366523794673983,-0.0015486846730424129
373.0,0.023811372075928594,0.011736918382980471,-0.0563266629674445,0.27889628105805286,-0.2947394989860083,-9.789999999999997,-0.041916900916000116,0.3471526376926535,-0.6649883037255488,113.51826279161378,1.620049495922149,178.20111229045386,0.02081779150683533,-0.5477673982292347,-0.8363549621460143,-0.003666819845348037
374.0,0.03370763454967517,-0.025528351819866638,0.04602030441647318,0.2891350475498993,-0.2838496837873766,-9.791897533206825,0.048098836635942,-0.04719246531635132,-6.80548085496963,110.8658623284303,1.684491066746653,178.2726395729649,0.02066631950557717,-0.5666973815974121,-0.8229588574890767,-0.004007790894097736
375.0,-0.1524156634894629,0.028638650252427747,-0.12680073319193547,0.2950981455608307,-0.2810038507763436,-9.79094876660341,0.001332620824418089,-0.01036367749975072,-0.26904534084499243,106.731245212836,1.7205619195350845,178.2945859155147,0.02084366156672033,-0.595818615366261,-0.8017257625033043,-0.0035951608584560675
376.0,0.06947112370841761,-0.08217785869355056,-0.09288423756370967,0.2253140497389407,-0.27044662584900114,-9.795414475467602,-0.059161518568845745,-0.19917185411085844,3.1538477852866693,109.36069749121063,1.3133051533159292,178.35855447849468,0.018329483852484587,-0.5773527794527158,-0.815359799749348,-0.001391063825541398
377.0,0.06713480776958373,-0.08612335191345591,-0.07644700636738758,0.18046605992044096,-0.2673922139159822,-9.79786852805638,-0.2784902167624287,-0.20935673420526862,5.4856133214940535,114.53731224581477,1.0519687859862707,178.3803546900224,0.01690616274770578,-0.5395265931650536,-0.8399836773991817,-0.0003476014636015883
378.0,0.04283932385483413,-0.07183019893324323,-0.0669746399728662,0.16223752362094918,-0.26930301863615935,-9.799095554350767,-0.15804726694324292,-0.09643664560260756,2.0368873326562977,116.03696845907601,0.9430673251067607,178.37043867278095,0.01642535802875044,-0.5288802159828372,-0.847527149672415,0.00021160983579135244
379.0,0.03452212872058596,-0.06041225316681137,-0.06577621941717313,0.15374447338542724,-0.2747511298114383,-9.799649769585251,-0.1038842833767448,-0.021667682383846473,0.9091131397626839,117.31875403504085,0.8951579509784278,178.3410394265233,0.016356241260580155,-0.5195600548984394,-0.8537849150188447,0.0005465732267192059
380.0,0.03515099300781481,-0.0587389556210286,-0.057197308890064025,0.14947158218125978,-0.27739426523297483,-9.799986175115206,-0.07979719882400342,0.01201059162868391,0.39630437987375455,117.9403664391898,0.8710829493087557,178.32676971326165,0.016313774646185365,-0.5150327864089757,-0.8569213165967468,0.0006702450939580138
381.0,0.026622626792973184,-0.05583065641685418,-0.05838017937171822,0.1496090629800309,-0.27900128008192515,-9.799999999999997,-0.009189724953127257,-0.013332960015849358,-0.08104022383214943,118.02135798568902,0.8723358294930876,178.31797875064004,0.016422086031862414,-0.5145828700724532,-0.8572631083865588,0.0006863556377484528
382.0,0.02769482594128947,-0.05452131899183723,-0.05910816444264354,0.14998655913978515,-0.2797356630824372,-9.799999999999999,0.015556827231577693,-0.00032527417075109985,-0.5487126362376313,117.84379471225056,0.8747479838709677,178.31390008960574,0.016464682624226144,-0.5159544206081671,-0.8564507209766895,0.0006756598421717179
383.0,0.024479367445581882,-0.05765392167962374,-0.05805596126695382,0.1500000000000002,-0.27584015406836765,-9.799999999999999,-0.06674187807093881,0.021466657637247893,0.05211469542903646,117.59198609255067,0.875,178.33657318247472,0.016292510415955423,-0.5177704115338555,-0.855357379184548,0.0005341107018259752
384.0,0.024916775056636316,-0.059489883266847204,-0.057911269163942854,0.1500000000000002,-0.27275878671160303,-9.799999999999999,-0.05519158555684677,0.019335629365858968,0.0926428591872525,117.6301664333721,0.875,178.3567946557535,0.01613496907894546,-0.5174087169816454,-0.8555848202802784,0.00044443826925976164
385.0,0.023994611748307585,-0.05926900297662825,-0.058254947115022715,0.1500000000000002,-0.2712181030332207,-9.8,-0.025645766337386897,0.002594837422220865,0.02551563900663524,117.65260304746343,0.875,178.36690539239288,0.016056198410440477,-0.517204513477602,-0.8557125070412501,0.00040040187656536455
386.0,0.023309859085770487,-0.06034690649572433,-0.05913480493581047,0.1500000000000002,-0.2704477611940295,-9.8,-0.022568984925070958,1.0485907528304857e-05,0.0011020119480563695,117.66641638199172,0.875,178.37196076071257,0.01601530664901301,-0.5170779854362593,-0.8557909934913,0.0003778616396512061
387.0,0.022544586480929284,-0.06091078043680225,-0.05836028521240088,0.1500000000000002,-0.2700625902744339,-9.8,-0.00965238800785038,0.013518107777112848,0.008079487796864846,117.67636615310545,0.875,178.3744884448724,0.015995382840635543,-0.5169927533991332,-0.8558435749253739,0.00036723857968223373
388.0,0.021855185232119274,-0.061305975999174665,-0.06017452553028966,0.1500000000000002,-0.2699999999999997,-9.8,-0.01215647806747839,0.027034691827892005,0.0026103986889957362,117.6875,0.875,178.375,0.015991210000000013,-0.5169067399999998,-0.8558960000000007,0.00036620999999999973
389.0,0.02183950646241678,-0.06171983305186422,-0.0592073922598841,0.1500000000000002,-0.2699999999999997,-9.8,-0.01734089532761297,0.02623661155985057,-0.005153536595247437,117.6875,0.875,178.375,0.015991210000000013,-0.5169067399999997,-0.8558960000000007,0.00036620999999999973
390.0,0.02183725719736387,-0.06023326396115156,-0.057288783385362446,0.1500000000000002,-0.2699999999999997,-9.8,-0.0011430150884495296,0.015332742585848075,0.00962742260665973,117.6875,0.875,178.375,0.015991210000000013,-0.5169067399999998,-0.8558960000000007,0.00036620999999999973
391.0,0.022508812434963592,-0.05897754075615677,-0.05692396158515434,0.1500000000000002,-0.2699999999999997,-9.8,-0.0019080059833506754,0.006118504487513008,0.009651337040409297,117.6875,0.875,178.375,0.015991210000000013,-0.5169067399999998,-0.8558960000000007,0.00036620999999999973
392.0,0.019665064499611855,-0.05832165568273788,-0.057762456022991904,0.1500000000000002,-0.2699999999999997,-9.8,0.006151451757428604,-0.020919532398460595,0.09815739175049137,117.68954813108039,0.875,178.375,0.015991210000000013,-0.5168952392524317,-0.8559025003584235,0.00036620999999999973
393.0,0.01909907484699369,-0.05984858631945,-0.057581186655002975,0.1500000000000002,-0.2699999999999997,-9.8,-0.011013914319796866,0.026602113453375164,0.10490608421271466,117.83343721690497,0.875,178.375,0.01599121000000001,-0.5158512449512782,-0.8565176570874009,0.00039529109181141446
394.0,0.02070287837639769,-0.06293648162460959,-0.05771926223454846,0.1500000000000002,-0.2699999999999997,-9.8,-0.013065308689213864,0.004962268152627092,0.06000286426906353,117.88950086651698,0.875,178.375,0.015991210000000013,-0.5154024298949942,-0.8567738633824105,0.0004122550620347397
395.0,0.02116731042035115,-0.06267296053731801,-0.05673282155883954,0.1500000000000002,-0.2699999999999997,-9.8,-0.007826560925119888,0.025157421424277588,0.02170684800245879,117.917532691323,0.875,178.375,0.015991210000000013,-0.5151780223668522,-0.8569019665299151,0.00042073704714640225
396.0,0.019968063812326117,-0.06193594263425039,-0.056968561317054175,0.1500000000000002,-0.2699999999999997,-9.8,-0.007391103043205106,0.018677501034719438,0.01575933797972402,117.93154860372601,0.875,178.375,0.015991210000000013,-0.5150658186027812,-0.8569660181036676,0.0004249780397022336
397.0,0.01880379637108882,-0.061904991286403234,-0.056868817268870143,0.1500000000000002,-0.2699999999999997,-9.8,-0.0156963195707577,0.0013702405327207044,0.02032846571285228,117.93849255583126,0.875,178.375,0.01599121000000001,-0.5150100761191072,-0.8569978407543432,0.00042709853598014926
398.0,0.01789197262723176,-0.062462421201514254,-0.05823217538381471,0.1500000000000002,-0.2699999999999997,-9.8,0.00016207594663107672,0.017147589248990625,0.013452074047493136,117.94556451612902,0.875,178.375,0.01599121000000001,-0.514999391209678,-0.857010380887097,0.00042725000000000033
399.0,0.01689283983027374,-0.06194247448230127,-0.058263364265149026,0.1500000000000002,-0.2699999999999997,-9.8,0.011417632367815803,-0.006299288400359263,-0.008626289787464431,117.97379032258064,0.875,178.375,0.01599121000000001,-0.5149440167338715,-0.8570655093145159,0.00042725000000000033
400.0,0.01799692229483016,-0.06034194057272123,-0.0564928666910092,0.1500000000000002,-0.2699999999999997,-9.8,-0.00694983003502388,0.00037031878236928406,-0.0030076187171060916,117.98790322580643,0.875,178.375,0.015991210000000013,-0.5149163294959682,-0.8570930735282253,0.00042725000000000033
401.0,0.018932855658341203,-0.059487356212479234,-0.05795880977630584,0.1500000000000002,-0.2699999999999997,-9.8,-0.0111690284085109,-0.027059003590084868,0.15962900314144696,118.01264958376692,0.875,178.375,0.01598257308012488,-0.5147531049821155,-0.8571942482677545,0.00043791963579604607
402.0,0.021013515150451478,-0.06146241456691155,-0.05950703496417008,0.1500000000000002,-0.2699999999999997,-9.8,0.022575072624686218,0.0031196868299526413,0.0669275229579384,118.1363651144641,0.875,178.375,0.015955392185223734,-0.5138758103942838,-0.8577244778435547,0.0004955886888657647
