time,linaccel_x,linaccel_y,linaccel_z,gravity_x,gravity_y,gravity_z,gyro_x,gyro_y,gyro_z,euler_x,euler_y,euler_z,quaternion_w,quaternion_y,quaternion_x,quaternion_z
0.0,-0.05853658536585365,-0.04170731707317075,0.028292682926829273,3.0319512195121954,-0.3819512195121951,9.31048780487804,-0.20579268292682926,-0.8384146341463414,0.018292682926829267,139.1265243902439,18.00609756097561,2.3521341463414633,0.3445538782926831,-0.03597352634146342,-0.15391875463414637,-0.9253480487804876
1.0,-0.05551219512195122,-0.04406910569105693,0.029930894308943093,3.0866504065040647,-0.4248170731707317,9.291829268292677,0.060569105691056904,-0.015929878048780433,0.2269308943089431,139.05571646341463,18.347865853658536,2.6205030487804875,0.34492738376422766,-0.03499024044715447,-0.15742706004471546,-0.9246602877601624
2.0,-0.04821951219512195,-0.04302961672473869,0.028113240418118468,2.9604216027874557,-0.4029216027874566,9.33292682926829,0.006315331010452962,0.7512086236933798,-0.19024390243902442,139.03994991289198,17.565156794425086,2.470394163763066,0.34539159061324043,-0.033760639477351924,-0.15069715101916376,-0.9256365307543555
3.0,-0.045702439024390244,-0.044480487804878066,0.023652845528455285,2.9844634146341456,-0.41309674796747964,9.324832520325202,0.06461382113821139,-0.329435975609756,0.08038617886178859,139.08780995934958,17.715406504065044,2.5320172764227644,0.3449775021528454,-0.03367407335609756,-0.15210268087560977,-0.9255729263520327
4.0,-0.04250747442958301,-0.04380448465774982,0.02478874901652243,3.012120377655389,-0.42282808811959083,9.315540519276162,0.015529110936270654,-0.5032282651455546,0.1647816679779701,138.95987657356412,17.88668371361133,2.604398603461841,0.3458468290039338,-0.03383130920062942,-0.15364315790597954,-0.9249950877942565
5.0,-0.03669669551534227,-0.050132769472856026,0.024583202202989783,2.9619319433516917,-0.3750599921321794,9.332504327301338,0.9489870180959874,1.3909409421715184,0.25064417781274584,138.73112337726198,17.577920928402833,2.311035847757671,0.34787815904563335,-0.03549575049803304,-0.15019823542663258,-0.9246958111103463
6.0,-0.03696125098347759,-0.04459461054287963,0.022763375295043277,2.8593853265145555,-0.32110660896931553,9.366857002360346,0.15282012195121952,0.031836398505114105,0.09578579858379227,138.56684697088906,16.953980625491738,1.9691519964594808,0.3495360912566876,-0.03643287825708103,-0.14413261118509046,-0.9250022655672698
7.0,-0.03683872841032558,-0.026654256116293892,0.01869217151848938,2.7901682776966013,-0.17164662245700799,9.390034683975873,0.21982163931662357,0.2518184968716046,-0.09837006153759695,138.58404512522947,16.527266330411,1.051001449458619,0.34961489519766026,-0.0424758733422502,-0.137921981948728,-0.9256297985186582
8.0,-0.030306264283840995,-0.05488662845153795,0.019350118017309202,2.6705422427035326,-0.2848390468697315,9.422150406504064,-0.4647314403731596,0.714530412873253,-0.5822317213667528,139.0959890506163,15.803475071185042,1.7300548405829679,0.345754934331816,-0.03418964754130606,-0.13424641774875426,-0.9279471932591323
9.0,-0.02717328874901652,-0.05230768798471394,0.02117818740399386,2.5743809336480457,-0.2900455022292159,9.44981298003072,0.5561444517814993,0.9847531705443782,-0.16908970954628905,139.31324896500695,15.213571346614962,1.7543381898392716,0.34424122258721107,-0.03190251277687236,-0.1296337107042074,-0.9292715419390336
10.0,-0.027173682140047208,-0.05281946161627514,0.020138857667378517,2.4407327563598216,-0.23652196433254657,9.487173110786404,0.4257887138923232,0.450123929882732,-0.05519358116968266,139.21311666385674,14.408131193567119,1.4243157806002023,0.34540260922584387,-0.032146912687216665,-0.12210953702283542,-0.9298624969178841
11.0,-0.01777059683039227,-0.05146023004008843,0.018697501030309843,2.409761155445656,-0.19373890075306285,9.496714435577537,0.18214238882020153,-0.3519409632460381,-0.15817714772769847,139.1120426829268,14.224520905923345,1.1661421452924206,0.34631417348619387,-0.03374558094844704,-0.11984864508860665,-0.9297816200140495
12.0,-0.026741673223183847,-0.05137911655614252,0.022526169869993635,2.349566445618373,-0.13503765314150837,9.51281420703608,0.3938649732119441,0.5151825521711438,-0.14361910381776627,139.42594741673224,13.857776966018509,0.8136778314787756,0.34390179690285116,-0.03512062365164287,-0.11589287637226031,-0.9311223645208495
13.0,-0.05013873590348809,-0.04436776441497134,0.026295342999512944,2.34347480424113,-0.1388933348319658,9.51456839384062,-0.5819424150462702,-0.2617733973998726,0.39468828444044807,139.49292551796486,13.827014958225618,0.8428932037016222,0.34338506703600463,-0.03476637699419279,-0.11576471967629537,-0.9313517408025176
14.0,-0.05293188715297292,-0.043965756247424236,0.027871941853059086,2.3160000749316243,-0.28100273500430856,9.51741092503091,-0.4035000093664531,0.3740336162002173,0.28453692255816565,138.99470584654,13.661400144243377,1.701179704769398,0.34743237541969196,-0.027922727136113296,-0.11685596678745645,-0.9299244900034092
15.0,-0.04434792626728112,-0.0390568356374808,0.02627035330261137,2.289385560675883,-0.3508955453149002,9.521559907834103,-0.1532498079877112,0.28997215821812594,0.09844470046082947,138.72808659754224,13.502184139784946,2.1115015360983103,0.3496496986705069,-0.024400027483870965,-0.11673314388940093,-0.929224129801075
16.0,-0.03299193548387097,-0.03291935483870968,0.015822580645161288,2.3444516129032262,-0.36817741935483866,9.506862903225809,0.12706653225806452,-1.4855342741935484,0.05413306451612903,138.56335685483873,13.835534274193549,2.2141129032258062,0.3508426784758064,-0.024773185774193546,-0.11976894193548387,-0.9283631355564516
17.0,-0.019661290322580644,-0.02945967741935484,0.013040322580645159,2.4451451612903226,-0.310233870967742,9.482766129032264,0.5482862903225806,-0.14364919354838712,0.16875,138.3453125,14.437550403225806,1.8723286290322578,0.35241157770967735,-0.02962936942741935,-0.12348278360483869,-0.9271305701129033
18.0,-0.035357002360346175,-0.03172875688434305,0.02013945712037766,2.53676435877262,-0.325777537372148,9.458548977183321,-0.32959652832415426,-0.40233330055074745,0.35670117033831633,138.07666945318647,14.990843823760818,1.9669539240755312,0.3543628215157356,-0.030886893943548384,-0.12819089473013373,-0.9257084755680567
19.0,-0.03731771008954329,-0.031134155707916535,0.019797647146978386,2.542088016559889,-0.3914569330485933,9.45550048705556,-0.2065981393540894,-0.06547396594357649,0.17319865544565588,137.91076896238434,15.021365172249073,2.368073976246675,0.3556325162336743,-0.027990165579493086,-0.12962735026714062,-0.9251360598320315
20.0,-0.03589272601251359,-0.035264658499119556,0.023439146154134352,2.4240641695702667,-0.3432526600726836,9.48740346933423,0.765980164193923,0.6721017267056311,-0.16771014808362367,137.96617077151473,14.308187626447117,2.071486584897531,0.35549715350393396,-0.02805362058410138,-0.12297621665373161,-0.926061697234564
21.0,-0.023797169457869694,-0.03460813570117269,0.01536876662545427,2.430237729946424,-0.28139649132666444,9.489177541118728,0.4194064127421228,0.02549138754636393,-0.16775124339665054,138.1505501034993,14.3481714341913,1.6982684940616688,0.354035680268096,-0.030926411852534565,-0.12217585605670454,-0.9266526653874432
22.0,-0.016942939567644526,-0.037001648495747635,0.014220673635307782,2.4786954778764376,-0.2658796972762354,9.476899254430332,0.06360945637106138,0.21350174216027873,0.1819257895919973,138.11839501142708,14.645960717095651,1.608055617998576,0.35417991189614484,-0.03260677547465438,-0.12425842884286839,-0.926270929544528
23.0,-0.021701996927803377,-0.024530721966205843,0.017379416282642092,2.458387864823349,-0.24972427035330264,9.483274961597541,0.03532066052227342,-0.7864631336405529,0.11104550691244239,138.14044258832564,14.519095622119815,1.5084485407066053,0.35406931487096777,-0.03296432847926267,-0.12297690497926268,-0.9264836369178187
24.0,-0.018983870967741935,-0.017701612903225812,0.019209677419354837,2.5189435483870968,-0.2994435483870967,9.463209677419353,0.015020161290322579,-1.9931451612903226,0.6846270161290322,137.79652217741938,14.897379032258065,1.8153225806451612,0.35665937869354836,-0.03211778201612903,-0.1268638362016129,-0.9249317289274193
25.0,-0.026741935483870966,-0.025120967741935486,0.02220161290322581,2.5388145161290323,-0.3344516129032257,9.457548387096775,-0.09551411290322581,1.012752016129032,0.11804435483870965,137.26381048387097,15.00453629032258,2.029485887096774,0.36091579345161284,-0.031366163814516124,-0.12822172094354836,-0.923127155419355
26.0,-0.032941384736428,-0.035682533438237615,0.02143233674272227,2.4732446892210853,-0.34387234461054283,9.475016915814319,-0.049879523996852866,0.5593909815106215,0.10098224822974035,137.09695736624704,14.608628786388671,2.077865607789142,0.3624152413145161,-0.02986049003107789,-0.12516195336723052,-0.9230374488174666
27.0,-0.025857789142407543,-0.04779287962234462,0.02353874901652242,2.4998562155782844,-0.3646740755310779,9.467693941778126,0.11059451219512194,-0.020732936664044077,0.019467938630999212,136.99704219118803,14.771325481904011,2.2063975216365064,0.3631482287177419,-0.029500419878442166,-0.12684216044571203,-0.9225575483603461
28.0,-0.02590873328088119,-0.04072305271439812,0.011563729346970888,2.414512785208497,-0.3205830055074745,9.491653422501965,0.15741419158143194,0.42191679779701025,0.27737509834775764,136.69927714398113,14.252976249016521,1.9350031963021244,0.3657732448629032,-0.03028328839083399,-0.12174930277124311,-0.9221671749543665
29.0,-0.029067269866247046,-0.044692171518489386,0.0151205743509048,2.360768489378442,-0.31331569630212425,9.506157356412272,0.06834923288749016,-0.2109670043273013,-0.2680664830841857,136.67363050747446,13.936694777734068,1.8869824449252555,0.3661009206774193,-0.029643277425255698,-0.11902759433320219,-0.9224277340094413
30.0,-0.01423524783634933,-0.05872108575924469,0.014249803304484658,2.474726986624705,-0.32363768686073946,9.476207710464202,0.23493066483084185,-0.07541797797010227,0.3030635326514555,136.64775275373722,14.61973347757671,1.9567220692368212,0.3660083618064516,-0.03135763739811173,-0.12474950152950431,-0.9216376137305273
31.0,-0.021983870967741938,-0.07468548387096774,0.017895161290322585,2.4781290322580647,-0.3143790322580645,9.476225806451616,0.055393145161290326,-0.2623991935483871,0.12772177419354835,136.48074596774194,14.635383064516128,1.9001008064516127,0.3673841413225805,-0.03202992127419355,-0.12467611932258063,-0.9210973436370968
32.0,-0.01985483870967742,-0.0672258064516129,0.01976612903225807,2.480120967741936,-0.3114274193548387,9.475588709677425,0.07600806451612903,0.16910282258064518,0.0766633064516129,136.3890120967742,14.646975806451612,1.882157258064516,0.36810317413709676,-0.032299067008064515,-0.12468232177419353,-0.9208091987580644
33.0,-0.02937903225806452,-0.06327419354838709,0.026911290322580654,2.414435483870968,-0.3076612903225807,9.492717741935484,0.11708669354838708,0.5614415322580645,0.04042338709677419,136.38230846774195,14.25,1.8571068548387095,0.36831586199999994,-0.031208555701612902,-0.12140148519354839,-0.9211931783951612
34.0,-0.04174626278520851,-0.05252321007081039,0.026622934697088915,2.328769472856019,-0.2985483870967741,9.514443745082609,0.2831038552321007,0.46226150668764754,0.0441101986624705,136.3549579563336,13.735327743902438,1.8003921616837135,0.3687556679228954,-0.030034356008457906,-0.11707016781254917,-0.921615109405586
35.0,-0.03735601888276948,-0.054187844217151844,0.02240519276160504,2.2858294649881987,-0.3303068450039339,9.523694531864672,-0.21083177616050355,-0.32568720495672704,0.08808762785208497,136.24605133752948,13.477770948072383,1.986212873721479,0.36972907925904797,-0.027814234572580643,-0.11560982252399685,-0.921482389848151
36.0,-0.029807041699449248,-0.04462214791502754,0.02143646734854445,2.38770102281668,-0.36175826121164445,9.496738394964593,-0.14057213808025176,-0.5260240460267506,0.35362042682926825,136.04908413650668,14.09231289339103,2.1809844610542877,0.37106124253678197,-0.028490139290322576,-0.12110171506038551,-0.9202046961660111
37.0,-0.031004327301337533,-0.03915381589299764,0.020690007867820617,2.4916005114083397,-0.38489929189614486,9.468845003933907,0.02726937450826121,-1.2382388375295044,0.15546444728560188,135.82103904405977,14.720072777340675,2.319070859559402,0.37258004401435874,-0.029703182830645162,-0.12655228208261213,-0.9188029346313928
38.0,-0.030494099134539737,-0.03398819826907947,0.020651455546813538,2.6383768686073954,-0.40407867820613697,9.427616050354047,0.012677025963808031,-0.6553845397324941,0.07579169944925254,135.6786142800944,15.606810582218724,2.4494295830055073,0.3733725467128246,-0.03184262196774194,-0.13397589415420927,-0.917349328888277
39.0,-0.038303697875688436,-0.03683674272226594,0.021108575924468923,2.710006687647522,-0.41350668764752163,9.40759244689221,0.08273013375295044,-0.27940352084972464,0.33020997246262784,135.51362854051928,16.042341168371358,2.5151848937844217,0.3744903921132965,-0.032989281314319434,-0.13758838360739573,-0.9163391489760033
40.0,-0.04199134539732496,-0.0320902832415421,0.021876081825334386,2.73684756097561,-0.4134433516915814,9.4004051927616,0.1255704169944925,-0.11594094217151849,0.12068622147915026,135.27129106018884,16.20608895554681,2.515371754523997,0.3763345502895358,-0.03383893894118804,-0.13881671479661684,-0.9153828018491348
41.0,-0.04445410942322824,-0.03874437652565113,0.021724021061550573,2.757025620851742,-0.41759450462990977,9.394706318465165,-0.10148148918679015,-0.4450795229881579,0.039938204825596645,135.15887947860557,16.3348547290141,2.5438663466581937,0.37712316676635604,-0.03414177282532933,-0.13989086362246062,-0.914888884563215
42.0,-0.045714957937420586,-0.047460897940244925,0.024603946014646258,2.8125773265549037,-0.4350391877988258,9.377320901168071,0.08244977960015329,-0.23589661633278863,0.0867533766063467,135.10176836833506,16.662966679023178,2.656787003974258,0.37736256865737156,-0.03446145149734208,-0.1428546331942948,-0.9143233732170912
43.0,-0.057982478968710296,-0.04828286832496119,0.026543908491194104,2.8693289858580977,-0.4267534648671549,9.360817708648547,0.09359384141297987,-0.47293822752123305,0.1281045108838185,135.07406966803848,17.01195208951159,2.611357211664548,0.3775364366069117,-0.03602128432528394,-0.14547758008101835,-0.9137769621730614
44.0,-0.06566315136476429,-0.05640343258891648,0.03305086848635237,2.9101987179487185,-0.4213318858560794,9.34866377171216,0.07644876964433414,-0.04943134822167081,0.10571236559139785,135.0599449441687,17.25958049007444,2.578987024400331,0.37759422328535996,-0.037116826108354005,-0.14736418502398674,-0.9134092061408187
45.0,-0.07716861344792107,-0.062364481833403956,0.036052381528778085,2.8398288042930058,-0.40141269745203656,9.370343884282516,0.33726856755230084,1.360605923056749,-0.17950760555992656,135.09738924529444,16.825222606366882,2.4505115344267585,0.3774944002146705,-0.036608016492808,-0.1434988797704513,-0.914063803052805
46.0,-0.06213571990558614,-0.053617230527144004,0.06878815892997642,2.6146050354051926,-0.30746813532651457,9.435914240755313,0.5963058123524784,0.8060582218725413,-0.9525177025963809,135.68325137686858,15.459521292289537,1.8668002557041699,0.37338787256058226,-0.035976893917387884,-0.13091970172639655,-0.9175468230863492
47.0,-0.0636774193548387,-0.04957985837922897,0.051326711250983495,2.4608668371361127,-0.28040165224232877,9.478735051140834,0.0019976888276947435,0.7301177714398112,-0.09516251966955153,136.0558025177026,14.529720692368215,1.694558910306845,0.3708261320847758,-0.033846545146931556,-0.12303185234677422,-0.9197876997008262
48.0,-0.06103184449958643,-0.03393322943775344,0.03539795033186065,2.3468565988823658,-0.2915980552361354,9.508133344428977,-0.16771949202122294,0.01471704845770544,0.26656330695596037,135.9007558907785,13.848847629062519,1.7537892256248866,0.3723453856549809,-0.031236416102932284,-0.11774166581658396,-0.9199863194644538
49.0,-0.044185277088502894,-0.03451903407371544,0.025586071940123876,2.351085557505699,-0.33250870503742264,9.50757876898868,-2.3284161976235143,0.5159774758417559,24.473629435736047,135.60753520345378,13.870038733886098,2.002751467651153,0.37468006850087743,-0.029636703636143562,-0.1186357200413565,-0.919014007691904
50.0,-0.03730113579051424,-0.03657108273315985,0.026648268070770045,2.3281784986584357,-0.3487877907563194,9.513458936028567,-1.0799978313058562,-0.2007297907966673,12.324368809134743,135.35512971817062,13.731291986927314,2.0960108636446164,0.3767473469805725,-0.02867256337590026,-0.11778257671225967,-0.9183294746642054
51.0,-0.05131067804474571,-0.04930363735399142,0.02798503096693498,2.3924566765518778,-0.3332971211846114,9.497857713490287,-0.3088472634105992,-0.34826025338417155,5.956091760979644,135.27463409590672,14.116998275131635,2.0097284845367063,0.3772681944383586,-0.030749461187556736,-0.12056530149775062,-0.9176793098930782
52.0,-0.04177414311363957,-0.04004127579737336,0.02519157134499385,2.4422220440194478,-0.2699467509935645,9.486790383102342,-0.47272123202001237,-0.8681800873529827,3.1201042990578793,135.3931933264742,14.422946423167705,1.6329130227561581,0.3762262744465593,-0.03462290890770441,-0.12180805715878876,-0.9177980987655792
53.0,-0.035915430294855936,-0.03359679292645461,0.02137104267356038,2.646132881870294,-0.2815520119141284,9.429476368438799,0.4447438977557979,-1.0226409417031959,1.6684320089168634,135.17185661833577,15.65751037334682,1.710798056929302,0.37744093530906486,-0.03840766479888352,-0.13183085018875276,-0.9157090025843729
54.0,-0.0429133603087183,-0.0395725900116144,0.025129069723876962,2.644522086096438,-0.2515058446667416,9.430903506800046,-0.08251716402532688,-0.011270067625791524,-0.0627598019931812,134.94953718013562,15.648866073770186,1.5310290687872317,0.3792087293440486,-0.04003089785105466,-0.1310585919653441,-0.9150272399131542
55.0,-0.046872887864823354,-0.030632872503840246,0.02333794162826421,2.5955552995391704,-0.30166244239631335,9.444171658986175,0.002589765745007702,0.27266945084485406,-0.0750168010752688,134.876322484639,15.349757584485408,1.8333597350230415,0.37992991786635943,-0.03672899726305683,-0.1296396493233487,-0.9150934034900153
56.0,-0.04781144393241167,-0.03058256528417819,0.027160906298003076,2.466180875576037,-0.35156105990783415,9.4764930875576,-0.14343798003072195,0.8931643625192013,0.07542002688172043,134.94015216973887,14.565327380952382,2.119830069124424,0.3797426780218893,-0.03171278913556068,-0.12437327866973885,-0.9160820253014594
57.0,-0.047498463901689714,-0.03981950844854071,0.0334715821812596,2.3928525345622127,-0.388163594470046,9.49429493087557,0.048190284178187395,0.45746927803379417,0.11273521505376344,134.8500912058372,14.123036674347158,2.3451468894009215,0.3806392548778802,-0.028595711321812593,-0.12157926068970813,-0.916207589953149
58.0,-0.05099193548387097,-0.04425000000000001,0.03322580645161291,2.2875322580645165,-0.36844354838709664,9.52106451612903,0.06910282258064515,0.21038306451612904,-0.11748991935483871,134.99400201612906,13.491683467741936,2.2186995967741936,0.37974449904032254,-0.02730850716935483,-0.11614256820967742,-0.9173354609274195
59.0,-0.052830645161290324,-0.04810483870967741,0.0304758064516129,2.3445,-0.36212096774193536,9.507459677419352,0.27610887096774195,0.20841733870967744,0.16648185483870964,134.82691532258065,13.834727822580646,2.178225806451613,0.3809572773951613,-0.02893543934677419,-0.11866464902419355,-0.9164526167661291
60.0,-0.050120967741935495,-0.04846774193548388,0.030500000000000006,2.4459999999999997,-0.36363709677419354,9.481419354838707,-0.030342741935483863,-1.2145665322580645,0.5272681451612903,134.46809475806452,14.44304435483871,2.196572580645161,0.3835359633064517,-0.0312968099516129,-0.12352856066129032,-0.9146409065967742
61.0,-0.05291129032258064,-0.04798387096774194,0.03887903225806452,2.5469274193548386,-0.3733225806451613,9.454193548387094,0.06975806451612902,0.294304435483871,0.015171370967741932,133.86774193548388,15.053729838709678,2.259727822580645,0.38803262997580645,-0.03355043458064516,-0.1284036943064516,-0.9119546709274193
62.0,-0.031618214004720695,-0.05027498033044846,0.03429032258064516,2.428477576711251,-0.34583595594020455,9.486990165224231,0.220279307631786,0.023955055074744283,0.09793100904799369,133.9463967840283,14.340313975216365,2.085128589693155,0.3877438046567663,-0.03233702174901652,-0.12217462675078677,-0.912994921725413
63.0,-0.0414859503203327,-0.046114448690569854,0.029032642089093702,2.4024319527181452,-0.3672597598441422,9.493301150200441,-0.009438399179498708,-0.034482245888127094,0.19560408939342852,133.83357545614626,14.17581054943614,2.211735521805103,0.3887197050501574,-0.0308978408345697,-0.12132370145815066,-0.9127745279391274
64.0,-0.03622900977857705,-0.041860627177700366,0.024894861563823013,2.3657011258476643,-0.3782397343673899,9.503199748979053,0.08801966252669438,0.049839423869469116,0.09404393100670638,133.76605503727848,13.957654733805402,2.27397296841632,0.38933378258162865,-0.029697383589000037,-0.11975062857860327,-0.912774713173832
65.0,-0.0481902326626953,-0.05351567944250871,0.026688087744932757,2.2826628170544376,-0.38377181446929687,9.522585122325875,0.45599289086208833,1.0375481786931924,0.2558456033869094,133.61733859259675,13.458351363755572,2.302717208047657,0.3907349049307632,-0.027871095921565323,-0.11583373975330635,-0.9127219605333164
66.0,-0.06621070772919711,0.0027559851635382653,0.012712899479225211,2.43125210745195,-0.35000149863249785,9.484288336892586,-0.14088316286388675,-1.9824823910681504,-0.0018967067550859917,133.54310910044586,14.357646303997601,2.1123225057135366,0.39090032500992844,-0.032621538926604465,-0.12240930410437975,-0.9115747492031023
67.0,-0.06816829642950809,-0.002056311116106554,0.02198587538870781,2.546857367652017,-0.3831911505751002,9.453056835637483,0.10697777340676631,0.16132076355325764,0.07089468360121388,133.29712496721743,15.048684481660484,2.3200774605672327,0.39255256327601057,-0.03365385388895133,-0.12845156401521113,-0.9100118958131955
68.0,-0.04294781012326253,0.00833764190176464,0.02231238994417594,2.533566745344873,-0.44152373459218464,9.455238469896221,-0.027024558840058457,0.23085028661346518,0.6824866059720506,133.0189951669102,14.968423344947734,2.6716262035892244,0.39479325270802884,-0.03093640038627252,-0.12891926124236636,-0.9091005052474617
69.0,-0.05338598720974803,-0.0028932541363697935,0.027625157428461913,2.459021969376021,-0.4421291533014585,9.475301153082427,0.14630976157333353,-0.03980670522763363,0.504916667387163,132.4220626442794,14.52042823423626,2.6696255652294205,0.39975782347792255,-0.030005553247161955,-0.1252085878739016,-0.9074805770908372
70.0,-0.04650337912808408,-0.006468656965903229,0.029610375724459122,2.3734708588028806,-0.4206043091448285,9.49785592665923,0.17737891697864158,-0.03897790021413153,-0.07224170564552154,132.29830020490917,14.003369113184219,2.5303330422527903,0.4009523572495829,-0.029365126721928737,-0.12062660388187607,-0.9076011631850724
71.0,-0.04526244225221409,-0.01613294599447235,0.029123928261615126,2.47670854768101,-0.40271613306703796,9.471549315096128,0.3743317395953115,-0.22690542476144365,-0.09392135205471161,132.1835971070629,14.628009441384737,2.4283193629082693,0.40158685892279455,-0.032548777171256225,-0.1251664414854849,-0.9065814455664225
72.0,-0.03922557877475266,-0.025137021122072264,0.022660574149165814,2.607570301715069,-0.3739834833406823,9.437708268128409,0.17298857220670752,-1.2599487222716963,0.22566516227019767,132.03286717216693,15.42372101082762,2.266623526945124,0.40243759837882276,-0.036828413732681434,-0.13082652375836568,-0.9052395789371581
73.0,-0.043438910551813786,-0.029227047146401994,0.018448304383788253,2.7180495096301547,-0.35150236322816963,9.407841545551221,0.01896379829847572,-0.6918793572019378,-0.1494608885737918,132.0128389755406,16.09476766513057,2.1349000797589506,0.402291961107586,-0.04026033648003072,-0.1356493981396077,-0.9044605925897437
74.0,-0.05064170506912443,-0.030631720430107538,0.02198924731182796,2.7946566820276493,-0.3620572196620584,9.385470814132102,-0.15528753840245774,-0.20164170506912443,0.029022657450076803,132.1510224654378,16.556053187403997,2.205239535330261,0.4009836644512289,-0.0412064909281874,-0.13957588216244238,-0.9044200750268818
75.0,-0.053187788018433185,-0.0325456989247312,0.02493817204301076,2.7618847926267276,-0.3595003840245775,9.396203149001536,0.2775729646697389,0.1714069700460829,0.1784730222734255,132.11396889400922,16.354286674347158,2.188280049923195,0.4013428285683565,-0.04065843746006144,-0.137905316609447,-0.9045566920456991
76.0,-0.058509216589861746,-0.029833333333333344,0.026989247311827964,2.7096520737327183,-0.3488026113671274,9.412081413210446,0.23666954685099847,0.43250288018433175,0.13795122887864825,132.0874279953917,16.035157450076806,2.1197196620583716,0.4017744759132105,-0.04009373117357911,-0.13513130676036866,-0.9048142582365593
77.0,-0.06934677419354839,-0.01141129032258065,0.02961290322580646,2.55083064516129,-0.31073387096774185,9.455903225806452,0.587953629032258,0.5146673387096774,-0.5073588709677419,132.2780745967742,15.074798387096774,1.8797379032258066,0.40072154333064525,-0.03832141475806451,-0.12677951962903225,-0.9065198347258064
78.0,-0.06979032258064514,-0.010225806451612906,0.030959677419354844,2.5921451612903224,-0.3143629032258065,9.445040322580645,-0.23366935483870976,-0.043296370967741915,0.37484879032258067,132.28230846774193,15.330846774193548,1.9078629032258063,0.4005722043064517,-0.038994426104838706,-0.12889222184677418,-0.9062783029032259
79.0,-0.05602419354838709,-0.030540322580645162,0.03041935483870968,2.5272983870967733,-0.3153951612903227,9.462403225806451,0.4679939516129032,0.6167338709677419,-0.4740423387096773,132.27459677419353,14.93679435483871,1.9097782258064515,0.4007647111129032,-0.03760858316935484,-0.12577047026612903,-0.9066809381935483
80.0,-0.03782120377655389,0.0011357199055861567,0.03313729346970888,2.6194457120377646,-0.2350035405192762,9.438081825334383,-0.03056156569630214,-0.6804816581431944,0.3451047403619198,132.38382425255702,15.495612460660896,1.4280192761605033,0.39965518836900077,-0.043236427018882764,-0.12862416385424863,-0.9064728373396931
81.0,-0.04253560188827695,-0.014222462627852086,0.029778324154209276,2.532706726986625,-0.30673564122738006,9.459355428796226,-0.31457513768686074,1.052425501573564,0.14125196695515344,132.25461373918174,14.96391006097561,1.8517616542092838,0.40088057338611327,-0.03813538515460267,-0.12582845622147917,-0.9065439089642011
82.0,-0.03432022029897719,-0.014171715184893787,0.02250609756097561,2.4718573957513765,-0.28983556254917386,9.476504327301338,-0.07598716561762393,-0.7054152734067662,0.2690130802517703,132.260346184107,14.60566974822974,1.7491923190401257,0.40102280300354054,-0.0376748998595594,-0.1226460625139654,-0.9069499873208104
83.0,-0.044684303697875696,-0.017509244689221087,0.020547403619197484,2.3489730527143977,-0.32236132966168374,9.506760228166794,0.20356387686860736,0.33658167781274595,0.2965529110936271,131.89342914044062,13.86377237411487,1.944127409520063,0.40425253723564136,-0.03386654448623132,-0.11731880001907946,-0.906385607583792
84.0,-0.03688473642800945,-0.0012722265932336805,0.019487018095987414,2.3404248623131387,-0.2969130605822188,9.510560975609755,0.4306328678206136,-0.714894767899292,0.33563876868607395,131.73154750196696,13.809421715184893,1.7891915814319432,0.40557693261054295,-0.03504154603422502,-0.11629897007317073,-0.9059030838339888
85.0,-0.0397602281667978,-0.012713217938631005,0.028807238394964595,2.431652242328875,-0.33821262785208495,9.486279701022815,-0.4463181058221873,-0.3283856215578285,0.5082501475216364,131.33796592250198,14.359372541306058,2.0447236428009443,0.40844027863414634,-0.03546940737588513,-0.12141576175963809,-0.9039264571884343
86.0,-0.051755114083398904,-0.012461447678992921,0.029589103068450043,2.423624508261212,-0.4240538945712037,9.485220495672696,-0.164716512588513,0.5169563827694728,0.14215430763178594,130.9403791306058,14.309978609362705,2.556736821400472,0.4115260968009441,-0.03173606996616837,-0.12275376001691582,-0.9024904936426044
87.0,-0.04229858379228953,-0.014069630212431157,0.024359559402045636,2.359270653029111,-0.464051730920535,9.499760621557826,-0.2387797501966955,-0.1761469807238395,0.43521956136900075,130.78366443745082,13.922079071597167,2.7938987509834776,0.41292004253874903,-0.028651047179779704,-0.12051118115204562,-0.9022659866872542
88.0,-0.06257671125098346,-0.02696223446105429,0.03948623131392604,2.2442966168371363,-0.4507073170731707,9.526561762391816,0.17035306845003934,0.7777783241542093,-0.41064122738001574,130.75070318646735,13.234426632572777,2.7060975609756097,0.4134891049992132,-0.0268532355656963,-0.11479114250747444,-0.902776365512982
89.0,-0.049263965381589295,-0.042334775767112504,0.03440794649881982,2.240594413847365,-0.4317903225806451,9.529713611329658,0.40578530684500397,0.4965061959087333,-0.012952399685287191,130.71984411880408,13.209438926042486,2.589447285601888,0.4137722491699449,-0.027704253840283247,-0.11413539870928405,-0.9027317244905585
90.0,-0.024729543666404404,-0.03977321007081038,0.026783831628638864,2.1017039732494105,-0.34614221085759245,9.56413926042486,0.2560742033831629,0.7386248524783634,0.1524734461054288,130.59633531667978,12.373346528324154,2.0719954760031474,0.4150897247037766,-0.028773613935877265,-0.1057055252901259,-0.9030971624726593
91.0,-0.03469944925255704,-0.04522934697088907,0.014968528717545239,2.0749689221085763,-0.36001062155782854,9.570263178599527,-0.4476937450826121,-0.8057631785995278,0.41121656176239185,130.3942614083399,12.216234756097561,2.1554533831628637,0.4167826316502754,-0.027709132669551537,-0.10470200456845005,-0.9024927557081039
92.0,-0.058887096774193556,-0.04623387096774193,0.01711290322580645,2.2029919354838716,-0.34025000000000005,9.541620967741935,0.6736895161290322,-1.0131048387096775,-0.17449596774193551,130.3482862903226,12.985433467741935,2.038407258064516,0.4168592884112904,-0.03150984246774193,-0.11030928078225806,-0.9016478513709676
93.0,-0.07108870967741937,-0.058741935483870966,0.01814516129032258,2.264258064516129,-0.2889193548387097,9.52950806451613,0.18886088709677415,-0.3350806451612902,0.3943044354838709,130.12666330645163,13.351310483870968,1.7320564516129031,0.41843660433064517,-0.035440900387096776,-0.11202284275806451,-0.9005632959758064
94.0,-0.048129032258064516,-0.051314516129032255,0.027185483870967735,2.3064516129032255,-0.2865161290322581,9.519524193548389,0.4897177419354838,-0.20877016129032255,0.031300403225806434,129.67676411290324,13.607862903225806,1.7176915322580644,0.42184576208064506,-0.03691169965322581,-0.11379133652419354,-0.898687005798387
95.0,-0.06649193548387097,-0.06170967741935483,0.028499999999999998,2.252895161290322,-0.18687096774193546,9.53508064516129,0.39304435483870964,0.7665826612903226,-0.19369959677419357,129.74501008064516,13.278225806451612,1.1172883064516128,0.4214859009274192,-0.040288076088709684,-0.10909605953225807,-0.8992962253629031
96.0,-0.05303225806451613,-0.06760483870967741,0.025927419354838707,2.152709677419354,-0.12746774193548382,9.559322580645158,0.583820564516129,0.43704637096774196,-0.27494959677419356,129.89259072580643,12.67898185483871,0.7632560483870967,0.42059311410483863,-0.04070094927419354,-0.10315502529032258,-0.9003960883629032
97.0,-0.034517112509834774,-0.06477950432730133,0.0223463808025177,2.032133752950432,-0.07735857592446892,9.586099921321795,0.29469659716758456,0.7408081726986625,-0.3470434205350118,130.02226839103068,11.95330448465775,0.46103707710464203,0.4198676929470889,-0.040250463214988194,-0.09643032360857594,-0.9015031670241935
98.0,-0.03823839496459481,-0.06596636506687648,0.019491738788355625,2.139687844217152,-0.07100590086546027,9.562106412273799,0.009747492132179375,-1.4688852281667977,0.0023603461841070206,129.9719204858379,12.60356756490952,0.42628466758457906,0.42001454119531867,-0.042957670885719904,-0.10139575794944926,-0.9007517314435485
99.0,-0.07006274586939418,-0.058204956726986626,0.01832651455546814,2.3284044059795437,-0.052922305271439825,9.516823367427227,0.2728424960660897,-1.0743619689221084,-0.0035073269079464887,130.07348544453185,13.736562008261211,0.31110100314712824,0.4187050511500787,-0.047911439229150275,-0.10991822332553108,-0.9000801407258064
100.0,-0.04918863099921322,-0.052837383243559494,0.021656847021323814,2.4301461649417977,-0.06969636768948337,9.492221443845953,-0.036148411809800496,-0.7046625032782585,0.051768746595654544,129.9815150030765,14.350743912525974,0.41384247841392807,0.41917130639214023,-0.04945264937501766,-0.11504573192672338,-0.8991711759125309
101.0,-0.044211250983477585,-0.05143885291210233,0.02517116544614578,2.4706093727934793,-0.10056189352216105,9.48212281869717,0.00264151990155137,-0.054498590348806664,0.29564243781395627,129.81986536444148,14.589384053037179,0.6026117634005124,0.4203202854218766,-0.049053141159283026,-0.117547988749652,-0.8983618328635236
102.0,-0.03402537372147916,-0.04361085053158224,0.014926259355645666,2.4573227823841512,-0.12308189089955414,9.485514595815932,0.15221080715769936,1.0522402799632835,-0.07422343097500456,129.64304145484073,14.508082073725515,0.7423709879158344,0.4217821393749823,-0.04786699568585709,-0.11731907448890941,-0.8977800469038311
103.0,0.006007474429582996,-0.04033365107224274,0.009128452258467994,2.2006371976436885,-0.06389175190138997,9.545571814037002,0.4369925003530432,0.8930808254655127,-0.12209155419717971,129.81632919516233,12.967473496540176,0.38368549395791723,0.4210696172116848,-0.044903675943735,-0.10396974815977728,-0.8998085036857864
104.0,-0.03857002360346184,-0.06807388690512216,0.028321995602090023,2.0845114587746374,-0.06109113558877523,9.57408301559443,0.13970248542435798,0.5901668633621819,-0.3982728620710525,129.88455253031128,12.271172822227602,0.37123151566503254,0.42081930391465433,-0.04233725522599811,-0.09850768468059673,-0.9007097794427159
105.0,-0.05596243115656964,-0.07313040912667189,0.02575570416994493,2.084557631785995,-0.05198642800944139,9.575585759244689,0.14445318646734856,-0.41103215971675844,0.3598741148701809,129.7303759343037,12.276705104248624,0.3119443351691581,0.4220346582071204,-0.042920461373131394,-0.09827969855369788,-0.9001741223367425
106.0,-0.05238040912667192,-0.054456333595594,0.025966561762391822,2.263557041699449,-0.028287568843430373,9.53251062155783,0.17686369000786784,-1.9269374508261212,0.574090283241542,129.4164732494099,13.359446302124312,0.1691778127458694,0.4240366934382377,-0.04839027065027539,-0.10606229407120377,-0.8980162712651455
107.0,-0.07677635719905589,-0.0614767899291896,0.031352281667977974,2.471975216365067,-0.10604386309992135,9.478566876475217,-0.5171198859166011,-0.17672600314712827,0.28936123131392605,128.7640784815106,14.60344463021243,0.6465037372147915,0.42853220324626273,-0.05000511183418569,-0.11729210485936273,-0.8943426486742723
108.0,-0.07805350118017311,-0.06548033044846577,0.0344543666404406,2.412479543666404,-0.22813886703383163,9.493162470495669,-0.2519571203776554,0.5350240952006293,0.23505359952793076,128.5991763375295,14.239071105428796,1.379098642800944,0.42999208021990554,-0.04307984039693155,-0.11713338455468136,-0.8940672438532653
109.0,-0.092863523573201,-0.06800847808105871,0.0346064929693962,2.278733870967742,-0.242698717948718,9.526356699751858,-0.09235938792390405,0.3171202956989247,0.33981984077750205,128.50455309139784,13.43492168114144,1.4596683726220017,0.4310998001325475,-0.039462122318238216,-0.111136509818445,-0.8944850699472706
110.0,-0.0895285359801489,-0.07043569065343258,0.03125082712985939,2.2432016129032255,-0.2770227460711332,9.53495657568238,-0.01689541976840364,0.3388272849462366,-0.02179874896608769,128.25572916666667,13.223685638957816,1.6586900330851944,0.4331446624574028,-0.03732683195347394,-0.11017941178019024,-0.8937412821792805
111.0,-0.0855303970223325,-0.07308478081058725,0.034427832919768406,2.115209677419355,-0.27940653432588913,9.56397828784119,-0.010136217948717951,0.31404569892473116,-0.04847497932175352,128.37753696236558,12.456978908188585,1.6704740488006617,0.4325333696157982,-0.03421079315012407,-0.10426981641832092,-0.8948715669243177
112.0,-0.07868622526175632,-0.06705084831245334,0.030484667836752813,2.1164984264358777,-0.3051940224737234,9.563508911819888,0.02157491325223426,-0.39420280946761077,0.1789034918497448,128.2767534585628,12.466176314833868,1.8306183678307006,0.43331740890860715,-0.03312054343560491,-0.10491239602869232,-0.8944791137941809
113.0,-0.07038343521152333,-0.04867864996267829,0.005363301660311889,2.0990798583792287,-0.2704760434949262,9.568484294619624,1.013458827593859,-0.44672338054025695,-0.452004907300934,128.15881523734592,12.358894609029837,1.6218112000443825,0.4342746075309165,-0.03445324477425407,-0.10326100022805584,-0.8941484461349937
114.0,-0.05888650668764752,-0.059834775767112505,0.022244099134539733,2.144701219512195,-0.2215118017309205,9.559842643587725,0.1404246164437451,-0.09197728166797797,0.29399341070023605,128.07766030684502,12.631044699055863,1.3285958398898505,0.4347893776703383,-0.03779676210424862,-0.10425617277242327,-0.8936445523975218
115.0,-0.08382730133752953,-0.06121833202202989,0.027165420928402833,2.195822580645161,-0.26712765538945704,9.546827498033041,-0.5798657553107789,0.008080497639653808,0.5615669256490952,127.74681353265146,12.934452448859165,1.601308025177026,0.4372007029468923,-0.037166213989378444,-0.10757016709500394,-0.8920985622789143
116.0,-0.08487332808811959,-0.05727852084972462,0.032594807238394974,2.128467741935484,-0.26593076317859954,9.56196616837136,-0.03353166797797008,-0.36977527537372146,0.3815647128245476,127.69245918568056,12.532926829268293,1.5920854642014164,0.43781114230409135,-0.0357349455350118,-0.10437146447088905,-0.8922303998410701
117.0,-0.08973013375295041,-0.07171164437450828,0.034495672698662466,2.170315696302124,-0.2912265932336743,9.551939024390244,0.3102896341463415,0.21233895554681353,-0.063397423288749,127.52632892407553,12.788985051140834,1.7486391129032257,0.4390003617185288,-0.03568138243705743,-0.106866604934107,-0.8913619587678993
118.0,-0.07017958300550749,-0.07650904799370575,0.031860739575137687,2.1518392997639655,-0.23621007081038553,9.55823564122738,0.11653594610542879,0.24077129228953578,0.1633617722265932,127.49695982494099,12.67029897718332,1.4189516129032258,0.4392787952342644,-0.03778835833143194,-0.10472781380173093,-0.8914010122871754
119.0,-0.08590833988985051,-0.06467820613690009,0.0355688434303698,2.1281388670338317,-0.21347285601888277,9.56366089693155,0.2821154602675059,-0.17566876475216364,0.18245476003147126,127.46427517702597,12.530804976396539,1.2818400865460269,0.4396197948347758,-0.038328440214791495,-0.10308051529740363,-0.8913955631184107
120.0,-0.0843082218725413,-0.049904799370574356,0.02720456333595594,2.1842370180959865,-0.15756805664830842,9.551666797797012,0.4806967938630999,0.007095790715971689,0.38650668764752166,127.079137981904,12.864109215184893,0.9470176042486231,0.44248175444413856,-0.04258631506726987,-0.1042442064913454,-0.8896326880595987
121.0,-0.07284477913903564,-0.05664671612153911,0.031791221760143866,2.251162863886703,-0.21460200067438465,9.534783091678843,-0.21851057004233637,-0.9510651998801094,0.1809117539620097,126.79534616069085,13.268823760818254,1.291272338990671,0.44446092074319066,-0.0417724796738039,-0.10863442644882171,-0.8881593666213892
122.0,-0.08368202764976959,-0.050043263646922194,0.03582952118691694,2.3129079464988194,-0.2593521411711813,9.518771561575063,-0.07754796794799745,0.19966409557528758,-0.10986375323142632,126.61887193951144,13.637952399685286,1.560845650219175,0.4456772863094396,-0.04133597503438424,-0.11246619892936757,-0.8871031345648254
123.0,-0.0810184331797235,-0.0473482447266869,0.0280478251095875,2.3832281667977977,-0.2699502641339778,9.501631748529467,0.15661412086471094,-0.5323756135026788,0.14030501854557714,126.44272730040088,14.061818941778128,1.6247776638192648,0.44682248177971984,-0.04267810158574051,-0.11593990450097413,-0.886023988383219
124.0,-0.07347695852534564,-0.050812596006144385,0.028229262672811062,2.440209677419355,-0.2742292626728111,9.487194316436252,-0.15010560675883255,-0.5143241167434716,0.27536002304147467,126.26733630952381,14.409828629032258,1.6560699884792627,0.448012466499616,-0.043967438750384016,-0.1186477289074501,-0.8850082540956221
125.0,-0.06726267281105991,-0.04959984639016897,0.02838479262672811,2.516612903225807,-0.31085253456221207,9.465863287250382,0.1157738095238095,-0.3658314132104455,0.16514976958525346,126.05113287250384,14.868649193548388,1.8828485023041472,0.4494056193102919,-0.044306244980030725,-0.12295776458678957,-0.8836935296566821
126.0,-0.06309323367427223,-0.04455330448465776,0.028081628638867033,2.4660523210070817,-0.25465184893784426,9.480850511408338,0.4582857985837923,0.4633285798583793,0.19065204563335955,125.97896833202202,14.55760351101495,1.5374151750590086,0.4501640664913453,-0.045781642612903226,-0.11918843127301339,-0.8837400573491345
127.0,-0.07798465774980332,-0.043458890637293475,0.032911880409126675,2.438805271439811,-0.3118717545239968,9.48595476003147,-0.10576317859952794,0.1574781176239182,0.23872811762391816,125.61365927419354,14.393263178599527,1.8823404307631784,0.453051622104052,-0.04286537208103856,-0.11916167476081826,-0.8824165922936664
128.0,-0.08600039339103069,-0.04253992918961448,0.03483497246262786,2.4212816679779694,-0.3681052321007081,9.488412863886706,-0.09769005704169945,-0.4637256589299764,0.16712111526357198,125.48336693548387,14.295421911880409,2.225520013768686,0.45408069820121943,-0.04002296112116444,-0.11970179490460266,-0.8819531017798976
129.0,-0.07675826121164436,-0.036653029110936264,0.030115066876475218,2.412753737214792,-0.36063729346970885,9.490726593233672,0.15727896341463415,-0.06979125688434304,0.1988075334382376,125.33951612903225,14.243124262391817,2.1745291601101493,0.4552286242578678,-0.040316252883162866,-0.11904973218214004,-0.8814417276601101
130.0,-0.06796380802517703,-0.04090715971675846,0.02518253343823761,2.3932478363493317,-0.3701896144767899,9.495435877261997,0.17881589299763964,0.49340578284815095,0.024857395751376868,125.0203629032258,14.122998623131393,2.23058615263572,0.45773752481038543,-0.03975511220771047,-0.11822212948623129,-0.880282129313926
131.0,-0.024513768686073963,-0.03722383949645948,0.02904209284028324,2.3184917387883552,-0.36598623131392605,9.513773013375292,0.7394325334382374,1.138741640440598,0.1308344807238395,124.87265194728559,13.675577793076318,2.2014899685287173,0.45906828041856795,-0.03832068023288749,-0.11463493373760818,-0.8801085224744296
132.0,-0.04366129032258065,-0.02683064516129032,0.020104838709677417,2.308241935483871,-0.275008064516129,9.51747580645161,0.12691532258064508,-0.47494959677419346,0.0643649193548387,124.73492943548388,13.61648185483871,1.6593749999999998,0.4601897702258064,-0.04236814435483872,-0.11202077520161288,-0.8796105172741935
133.0,-0.03464516129032258,-0.009645161290322586,0.02185483870967742,2.4305564516129037,-0.30299193548387093,9.4863064516129,-0.19420362903225807,-1.3691028225806452,0.2546875,124.6258064516129,14.358165322580646,1.835483870967742,0.4606471894596774,-0.04414293835483872,-0.1183468229516129,-0.8784596111048386
134.0,-0.03486487018095988,-0.001419158143194339,0.019076317859952792,2.4577185287175456,-0.35480802517702603,9.478671518489378,-0.004192073170731711,-0.19998647718332024,0.012602035798583794,124.5071498819827,14.518006245082614,2.1425710562549174,0.46144900236191966,-0.042567453325137686,-0.1207230199557435,-0.8778295705422894
135.0,-0.02808969315499607,-0.0037216758457907177,0.020949449252557043,2.36375845790716,-0.3736217545239968,9.501618017309205,-0.5812291011014948,-0.20994787568843432,0.1577879130605822,124.49490558615264,13.950258162863886,2.2450002458693943,0.46180463628579854,-0.03946021805369788,-0.11679569803835561,-0.8783107144284028
136.0,-0.007214201416207716,0.0016512588512981922,0.029559402045633364,2.214250196695515,-0.3522826514555468,9.537212234461055,0.9451465381589301,1.335903078284815,-0.2805566483084186,124.58515440597954,13.055623033044846,2.1097229051927613,0.4615775539775767,-0.03676566084539733,-0.10937756165224233,-0.8794711702383949
137.0,-0.013417584579071598,-0.006767112509834777,0.02155389457120378,2.095294453186467,-0.22095180959874114,9.567698859166011,0.5595188335955941,-0.2146845495672699,0.2555886113296617,124.50598446105428,12.34590627458694,1.324997541306058,0.46254042198072387,-0.039927477930763185,-0.10078346622934697,-0.8798450597159715
138.0,-0.029357985837922904,-0.011996459480723842,0.020712431156569636,2.2208690007867826,-0.26535090479937057,9.539071203776555,-0.25569925255704173,-0.7359461054287962,0.2530463217938631,124.12164142407553,13.094374508261211,1.5959161093627063,0.46507546785326515,-0.04128592830409127,-0.10747619155822186,-0.8776666465515343
139.0,-0.037709677419354846,-0.018088709677419358,0.023766129032258068,2.3352983870967745,-0.30704838709677407,9.51070161290323,-0.25352822580645157,-0.023588709677419384,0.3662802419354839,123.91300403225806,13.784072580645162,1.8537802419354839,0.46634255754032256,-0.04237749752419355,-0.11366508181451612,-0.8761769935967745
140.0,-0.0023629032258064564,-0.01705645161290323,0.03461290322580646,2.1865967741935486,-0.3527499999999999,9.544193548387096,-0.035383064516129034,0.964516129032258,-0.19732862903225806,123.88165322580645,12.890372983870968,2.118094758064516,0.4669968637983871,-0.03669684682258065,-0.1079196556451613,-0.8768013736048388
141.0,-0.023854838709677424,-0.03094354838709677,0.027145161290322583,2.0511290322580646,-0.33708870967741933,9.575395161290322,0.13014112903225805,1.266179435483871,-0.16496975806451614,123.98230846774193,12.075100806451612,2.020665322580645,0.46662149776612893,-0.03400431028225807,-0.10133726066935483,-0.8778971512338709
142.0,-0.04117171518489379,-0.046948859166011,0.029216365066876478,1.9892755704169947,-0.3372450826121164,9.58902498033045,-0.2395235051140834,-0.8253245476003146,0.09554238788355626,123.94404750196696,11.711204268292683,2.0138989968528715,0.4670777551496852,-0.03256140031766326,-0.09856496347128244,-0.8780483599077498
143.0,-0.04421478645927898,-0.054176042486231306,0.023152433980915495,2.0617356967056026,-0.33287833121507393,9.574280376848435,0.533286996409046,0.06219814803607099,-0.17306989373398696,123.96262031839456,12.137087349200105,1.9866835244810264,0.46678298292378817,-0.03449015860930723,-0.10171137442257258,-0.8777859019587342
144.0,-0.027304973874800784,-0.06142269866247049,0.02831008795819969,2.1923718806108656,-0.19510852044624666,9.546849865843573,0.74466769175291,-1.1019150388851902,-0.13424160009279992,124.10588173177791,12.926129360083923,1.163956681595352,0.4653502133449585,-0.043875579373201995,-0.10446141259838308,-0.8777481032616252
145.0,-0.04370490629223911,-0.09032828481510619,0.031626818172648244,2.342939972563497,-0.20829216344892973,9.511102352276627,-0.2646369202525772,-0.32250489847485314,-0.03521555811091609,124.11712937395347,13.823699760687122,1.2532485020879984,0.4648497398216728,-0.04684431702127842,-0.11171323155322381,-0.8769815973082319
146.0,-0.06307058847263412,-0.08160267505900864,0.03222951844903065,2.554184187697956,-0.1971469668542839,9.454880247735481,0.04436820391777119,-1.391748244870786,-0.21581784986584357,124.1946134428776,15.100342578022556,1.1935302305876656,0.4635826677788537,-0.05243461558685871,-0.1212878324625875,-0.8760170122858035
147.0,-0.0701387560773871,-0.07946380802517702,0.031732383142689995,2.5993658940063344,-0.20390786580322384,9.444316599084107,-0.11314241259658255,0.1562600239060703,0.26930389961467854,124.17566529736328,15.370121131654864,1.233886476426799,0.463598703795013,-0.05320519480365753,-0.12348438754128588,-0.8757102203128467
148.0,-0.056541669188404045,-0.06589402146502854,0.03133765559119612,2.500154411023018,-0.19367022735984185,9.472150028243458,0.6133781319978212,-0.41662288300147265,0.15796667271883635,124.06260518797029,14.77374439543868,1.1685096153846153,0.4648000516369606,-0.05140101968470718,-0.11858813740174301,-0.8758767863723043
149.0,-0.052085350723234294,-0.05302362363574009,0.02455189231172709,2.5659643022857024,-0.17550446851863066,9.455974207670117,0.1442898724505235,-0.3926108366620267,0.16088857829490205,123.76706368269483,15.170113125138695,1.0584987593052109,0.4668496216007383,-0.05412283449154713,-0.12103578087022634,-0.8743014654563135
150.0,-0.054280578587423606,-0.049931166656579734,0.024739655833282907,2.6302160221105924,-0.16847804071092826,9.43807581351248,0.22020441203171337,-0.6181048134923036,0.20562070043777358,123.59691389779903,15.563483981924186,1.0312655086848634,0.4679337936874658,-0.05618404710867679,-0.12378427547140348,-0.873217636728157
151.0,-0.05963674877443565,-0.05528895075551254,0.026814359781314946,2.697897940244911,-0.1637512154774154,9.418955294639794,0.08020448768383465,-0.547216254110432,0.21875743912525972,123.45705746030785,15.96854863927051,1.0025918416752404,0.46878714655577064,-0.058210069122395056,-0.1267342312030503,-0.8722095398038896
152.0,-0.06690570719602978,-0.06795368072787428,0.027871381306865187,2.733623242349049,-0.17248221670802322,9.40910628618693,-0.09811569478908187,-0.17378515301902397,0.2361145574855252,123.35353856492969,16.184175971877583,1.0521712158808934,0.46944566501116614,-0.05882400737551696,-0.1285229276377171,-0.8715641547398678
153.0,-0.07443548387096774,-0.0723548387096774,0.029701612903225816,2.7184112903225808,-0.1776612903225807,9.41323387096774,0.05761088709677421,0.12247983870967744,0.09576612903225805,123.16628024193548,16.092439516129033,1.0828629032258064,0.4708863285080645,-0.0584187165,-0.12785619893548383,-0.8709207837338713
154.0,-0.06399462365591398,-0.06701323407775021,0.02752584780810588,2.645348014888337,-0.17434532671629452,9.434256410256408,0.17568367452440034,0.27984000206782467,-0.021634615384615398,123.07845972911497,15.650493693134822,1.0590829197684037,0.47178103127564097,-0.05684499003742762,-0.12435881149669148,-0.8710350142646817
155.0,-0.057279569892473126,-0.0658775847808106,0.026775020678246494,2.5887425558312653,-0.17034201819685696,9.450321753515299,0.10883478081058728,0.2689774607113317,0.0392834987593052,123.03764216294458,15.301607733664184,1.0325152502067825,0.47231664215798175,-0.05565118878081059,-0.1216101496757651,-0.8712077657694379
156.0,-0.05338978494623657,-0.06769685690653432,0.022339123242349053,2.5641011166253103,-0.1739452026468155,9.457289909015712,0.04791537427626138,0.103591552936311,0.04040787841191067,122.98983922663359,15.155340157154672,1.0625529880066171,0.47278601159511974,-0.05491363593879241,-0.12056048660401159,-0.8711517420500416
157.0,-0.057723905061631255,-0.06666491153745285,0.023416217797413708,2.4397866912788233,-0.14080727874276255,9.489439407694325,0.5508416613710182,1.0297935390566684,0.10634919884403557,122.91018195596038,14.399366823266558,0.8580190933345438,0.4738081447784803,-0.05338015216314128,-0.11394058629010573,-0.8715512292443366
158.0,-0.055128376606346716,-0.05728367528092154,0.024543868143396083,2.41780306239787,-0.07878168815186909,9.495506485908535,0.13608725967842805,-0.7940879128084086,0.14590854415057797,122.81567934344045,14.276146949202122,0.479490836006375,0.474609104993292,-0.05584708910232203,-0.1113781692553007,-0.8712873963045051
159.0,-0.058187844217151855,-0.04804464988198269,0.026834382376081833,2.4450653029110936,-0.11612450826121161,9.488416601101497,0.11924296813532652,0.38343577891424063,4.7944531864671514e-05,122.70773628048781,14.436171075924468,0.7013252360346184,0.47533939095653016,-0.05489644908300552,-0.11348299656726987,-0.8706910743375296
160.0,-0.05988827694728561,-0.04505055074744296,0.02267525570416995,2.4594197482297404,-0.14221951219512194,9.484837332808812,-0.10809524980330448,-0.18045952989771846,0.1588193351691581,122.55611108379229,14.520782110542878,0.8610456825334383,0.47644279522423283,-0.05420640629150275,-0.11474849913847364,-0.8699682712090872
161.0,-0.0480204563335956,-0.0317309205350118,0.02375767112509835,2.370950432730134,-0.1539826907946499,9.506119590873327,0.2506638473642801,0.5648210070810384,0.04010129819040125,122.45541896144768,13.9837922895358,0.9235788749016522,0.47749453293155,-0.05154709443351691,-0.11090889421243116,-0.8700291359291897
162.0,-0.04150826121164437,-0.03720692368214005,0.0233147128245476,2.288547600314713,-0.13551612903225813,9.5268166797797,0.32537126278520845,0.6506245082612117,-0.029983772619984268,122.41314417781274,13.492732100708103,0.8137268882769473,0.47806700281510617,-0.05035032974232887,-0.106677613140834,-0.8703221765837923
163.0,-0.0385526538764147,-0.01728731666969275,0.010578658032237892,2.194646109463576,-0.1266926809094394,9.549156085456637,-0.12258086581331076,-0.08062189826302735,0.06732581729508362,122.33706128073996,12.93241037745365,0.7678343886804253,0.4789060542508622,-0.04844784086109766,-0.10219598604044866,-0.8705114818694344
164.0,-0.039567042909883186,-0.024875168956404205,0.018543066230910454,2.23102270067986,-0.14142895257116345,9.540754085214548,0.12737191465432024,0.29071776841372626,-0.03086981656882326,122.29476490472877,13.148643967247674,0.8496964773850593,0.47909320704694963,-0.0487829464033065,-0.10415359422400089,-0.8701635429589105
165.0,-0.033505295648489974,-0.03407064899433114,0.01980782343803587,2.101128285823801,-0.12490399241461396,9.570493978091147,0.09309623958522464,-0.13667236579313682,0.19809835784462065,122.27764958946116,12.36839960459158,0.7430690048215618,0.4796053052371845,-0.046307671871008094,-0.09780832281361332,-0.8707424235802617
166.0,-0.03513030321370211,-0.03864822772297203,0.015313038390929814,2.0021329863422705,-0.11293429361092619,9.592386249470437,0.11767813552825354,0.7846191672214489,0.09541522927636226,122.09651067199258,11.778603814884303,0.6692872561479957,0.48127414055014217,-0.044501392660130326,-0.09293851031160602,-0.870452572082027
167.0,-0.02834170550142226,-0.041978716536545016,0.016964150981460185,1.9394858480098454,-0.12709893280074241,9.604925618834356,-0.20518040509189212,0.23629561822913508,0.012892508422602846,122.04929290483972,11.40745690350824,0.7515348554540136,0.48176610276523624,-0.042335172108192626,-0.09046995086862755,-0.8705604934698098
168.0,-0.04151163025277896,-0.04495958159333455,0.01591383727733059,1.9383202606467753,-0.12588197260384515,9.604811858217838,-0.010830483770098251,-0.8075138947729428,0.27425539399624765,121.95072172123704,11.40399726895842,0.7465542350057495,0.48252065443472736,-0.042472036107859754,-0.09037862660883816,-0.8701499547828783
169.0,-0.04715628719562631,-0.05921464524198592,0.019235439488389926,1.9799744497569043,-0.15760660392584075,9.59597005184692,-0.046770473985757226,0.22399678982832005,0.1927187670217273,121.75788938146826,11.646309216697937,0.934965748502088,0.4838735840781033,-0.042213839383591564,-0.09292730512581954,-0.8691440430523361
170.0,-0.0454410468236196,-0.04645812907260586,0.014311268131291733,1.981680773265549,-0.10425088260808164,9.596751154955719,0.7548909726845406,0.06552662072061162,-0.062083156811717,121.729499126218,11.655689890607032,0.616701624251044,0.48410612836163236,-0.04470515415550545,-0.0916509811475872,-0.8690239060060065
171.0,-0.03812778147632592,-0.07093067743952874,-0.007864527224676713,1.9790460317940648,0.002051978050797869,9.597286867800438,0.44589306698743164,-1.0267881009300168,-0.2550839171155359,122.01507718407674,11.648636275948677,-0.016775195938994125,0.48192378833000976,-0.04943291596888176,-0.08896824001330972,-0.8702305878860678
172.0,-0.04322518106074361,-0.07783227420363534,0.006991123484435844,2.089406080413162,0.023421150315721527,9.573365208093763,0.17130842865500612,-0.8661662278843631,0.049398565635780434,122.06295693881256,12.306601404103372,-0.14435029958240025,0.4812968789109726,-0.05321753810540861,-0.09338735748649357,-0.8698948730801305
173.0,-0.04390283241542092,-0.07152714398111723,0.018747836349331245,2.126447678992919,0.036879228953579875,9.565601888276944,0.23255802517702595,0.05418715578284816,0.060306845003933914,122.02892899291896,12.52751770259638,-0.22337726199842642,0.4814509987812745,-0.0548351372317073,-0.09465402076789929,-0.8695921193276946
174.0,-0.042912077104642,-0.05717977970102282,0.012104838709677422,2.1000381589299764,0.030121754523996864,9.572327301337529,0.606095102281668,-0.14609682336742721,-0.2158733280881196,121.95983723446105,12.368823760818252,-0.17971085759244687,0.4820533349122738,-0.05388482744826907,-0.09359217258221872,-0.8694360317480329
175.0,-0.07159716758457907,-0.08275118017309205,0.0438306451612903,2.13725295043273,-0.036088316286388644,9.563752360346182,-0.4721036585365853,-0.16889014555468135,0.26615607789142404,121.67558393981116,12.591417928796222,0.2148320712037765,0.4841084308754917,-0.05190490651848938,-0.09689999359756096,-0.8680411191683713
176.0,-0.0542663257277734,-0.05083123524783635,0.030895161290322572,2.2296829268292684,-0.023169158143194327,9.542678599527932,-0.02859215184893782,0.13732912077104642,-0.013948170731707343,121.61538773603462,13.140391424075531,0.13904405979543666,0.48429206877242337,-0.054837439170535004,-0.10073888891974823,-0.8673172305519276
177.0,-0.04623800157356412,-0.057359166011014956,0.03148387096774193,2.17487372147915,-0.04485877261998426,9.555347364280093,0.10289142407553109,-0.025816286388670326,0.07624164044059795,121.57530979543665,12.812836841070023,0.26528815892997637,0.4847532495031472,-0.05243934355704169,-0.09884782331471283,-0.8674364304614475
178.0,-0.05865322580645162,-0.05305645161290322,0.030483870967741935,2.0705887096774194,-0.011282258064516125,9.57768548387097,0.13790322580645162,0.8703629032258065,-0.03744959677419355,121.51038306451613,12.188558467741935,0.06360887096774191,0.48550346116935483,-0.05150840443548387,-0.09314319240322581,-0.8676881355887096
179.0,-0.08825806451612904,-0.0722741935483871,0.026370967741935487,1.99258064516129,-0.010169354838709677,9.594080645161291,-0.1422883064516129,0.1770665322580645,0.12278225806451613,121.42646169354839,11.720866935483869,0.06159274193548386,0.4863463372016129,-0.04960578126612902,-0.089592226,-0.8677007363387097
180.0,-0.08963709677419354,-0.06513709677419353,0.021806451612903226,2.0232499999999995,-0.03881451612903226,9.588451612903226,0.004737903225806452,-0.04954637096774192,0.21033266129032258,121.265625,11.906754032258064,0.23160282258064516,0.4874749464274193,-0.049162883362903226,-0.09169867726612903,-0.8668846376048388
181.0,-0.07859244689221087,-0.057276947285601884,0.02737981904012589,2.028131195908733,-0.06675708103855232,9.587394964594807,-0.049816827301337525,-0.5893108280881195,0.05647865853658536,121.25015981510622,11.938182287568843,0.3975757277734067,0.48758069560621553,-0.047984283204366644,-0.09266183663709676,-0.8667973612025965
182.0,-0.07106235247836351,-0.046049763965381595,0.032145554681353265,2.0425454366640436,-0.027455153422501963,9.585060385523214,0.5174554976396538,0.44654922305271444,-0.24630704169944928,121.29438434303698,12.02072924862313,0.16375762195121948,0.4871998799885916,-0.05019554291266719,-0.09219625408870968,-0.8669342744803303
183.0,-0.058351792450927004,-0.044199096209324384,0.029228070971776716,2.056393582682725,-0.003114259920514834,9.582360114184269,0.18888244795134057,-0.858538224495148,0.391158410498497,121.15710222114627,12.102837742591134,0.020483158576933155,0.48819319007886974,-0.05182090747763219,-0.09210951852253929,-0.8662920165050534
184.0,-0.05982912203191511,-0.05135761262079122,0.027940648389114166,2.119430662309105,-0.022714388024773557,9.568188121608262,0.15701682881437995,0.22007564581694206,0.18010541492666785,120.68807732025056,12.4758896374246,0.13597242606266013,0.4915514045555639,-0.052785537033170946,-0.0952992278217535,-0.863974865962204
185.0,-0.03058283402933285,-0.043224242974439664,0.02839243277048155,1.982879178518832,0.08630153926849442,9.595588159938671,0.7149505613387399,0.37093905717282977,-0.2981252773911114,120.86816275040852,11.661754196170994,-0.5121555306744134,0.490562406195465,-0.05418641138293087,-0.08639466785009783,-0.8653422768333836
186.0,-0.03241100788799451,-0.06237766043293186,0.01625365147572071,1.968960438984042,0.118440305432831,9.598949076035424,0.5645464844459238,0.22631335234723313,-0.28045524294417884,121.11641320053864,11.57891997770784,-0.7044206056204483,0.48873298123856646,-0.05512959148926245,-0.08503115663472632,-0.8664836355771952
187.0,-0.04783856846012628,-0.04106383021646594,0.005985696705602294,1.9066253807823437,0.17958305594222201,9.610341473501586,-0.03801405616413489,-0.3760318318908995,0.22391048336662028,121.03731446317255,11.215014424337792,-1.065012722165063,0.4894766394176704,-0.05636558807124413,-0.08069838458752446,-0.8664000774498879
188.0,-0.030912667191188042,-0.05623249409913454,0.011212037765538946,1.8650033438237603,0.16867407553107794,9.619166601101494,0.3653447088906373,0.3650754819040126,0.0007941581431943345,120.98908216955152,10.9588512981904,-1.0030967250196696,0.48996610259303697,-0.05488008156746656,-0.0790054275700236,-0.8663882002708495
189.0,-0.05359047993705743,-0.07046105428796223,0.007570416994492528,1.8146321793863098,0.25041542092840285,9.62666207710464,0.37839053894571206,-1.0987091856805662,0.36424321400472065,120.83976445712037,10.666365066876473,-1.4889825924468922,0.49119974615420936,-0.05739119156726985,-0.07462865335837923,-0.8659004738646734
190.0,-0.05821223446105428,-0.09968450039339104,0.0353249409913454,1.859752753737215,0.2483839496459481,9.61840027537372,0.2789326809598741,0.388597806845004,-0.20429165027537372,120.69326440794649,10.93177616050354,-1.482212578678206,0.49219545666876474,-0.058554738151848924,-0.07658036057297402,-0.8650997635279306
191.0,-0.059505310778914244,-0.07860837922895358,0.023001180173092058,1.9020416994492528,0.2784016522423288,9.609559008654603,0.39271734854445317,-0.7040125885129819,-0.021374655782848154,120.62387514752163,11.183428402832416,-1.6612423780487804,0.49259374381018883,-0.06103403472915027,-0.07769991614535798,-0.8646028884091266
192.0,-0.08718410700236034,-0.04646144767899293,0.025484461054287963,2.0231014948859167,0.2848540519276161,9.584319826907947,-0.35142358379228955,-0.6882462136113296,0.22739230920535008,120.46241640440599,11.908800894964596,-1.700253245476003,0.493502249570417,-0.06450744629602674,-0.08289221311703382,-0.8633390766239181
193.0,-0.09109205350118019,-0.06531943351691581,0.03079464988198269,2.180986231313926,0.22704799370574352,9.54953894571204,-0.6441089693154995,-0.15795879228953577,0.3190892997639654,120.26840578284815,12.853619197482297,-1.363584284028324,0.4945076644142407,-0.06614319832140048,-0.0913990995786782,-0.8617398122474429
194.0,-0.11683870967741937,-0.07117741935483872,0.028096774193548387,2.1098306451612907,0.17880645161290326,9.567161290322584,-0.10403225806451616,0.6209173387096775,-0.015524193548387077,120.29909274193548,12.427620967741934,-1.0736391129032257,0.49450412871774196,-0.06213083523387096,-0.08940498597580646,-0.8622763361370968
195.0,-0.09420967741935483,-0.062330645161290325,0.02930645161290323,2.036475806451613,0.2219758064516129,9.582250000000005,0.5227822580645162,0.43654233870967746,-0.13240927419354837,120.41789314516129,11.986592741935484,-1.3269153225806452,0.4938197475725806,-0.06208604383064516,-0.08505421296774193,-0.8631226575645161
196.0,-0.12936290322580646,-0.10738709677419356,0.03254838709677419,1.9486774193548384,0.27164516129032257,9.599241935483874,0.691179435483871,0.37373991935483875,-0.03150201612903225,120.30524193548388,11.462852822580645,-1.6237903225806452,0.4948869772016128,-0.06213172116129033,-0.07978648529032256,-0.8630136305725806
197.0,-0.16479032258064513,-0.09294354838709676,0.020096774193548387,1.921322580645161,0.37425,9.602056451612901,0.3444556451612903,-0.7271673387096775,0.0643649193548387,120.22081653225806,11.303528225806453,-2.235635080645161,0.49554645162096767,-0.06608310795967742,-0.07594038452419355,-0.8626811861612902
198.0,-0.1584516129032258,-0.08705645161290324,0.01773387096774194,1.9700322580645153,0.3965322580645162,9.59189516129032,-0.08125000000000004,-0.3102318548387097,0.4927923387096774,120.14102822580645,11.591229838709676,-2.3650201612903228,0.49603286241129024,-0.06833491167741937,-0.07751395916129031,-0.8621002200241934
199.0,-0.1305867427222659,-0.08634205350118018,0.00657946498819827,1.9992527537372147,0.3651282454760032,9.587105625491738,0.11287249213217937,-0.28275840873328084,0.14923042879622345,119.8879941974823,11.765686467348544,-2.175598691974823,0.49786641582356406,-0.06787610116168372,-0.07947276403560188,-0.8609037259461054
200.0,-0.11536998426435877,-0.0768524783634933,0.017104248623131396,2.061670731707317,0.33029799370574353,9.575008457907156,0.03675378638867033,-0.7801140833988984,0.10954464988198268,119.73371484067664,12.141159765932336,-1.9736612411487018,0.4988478569238788,-0.06809172450019668,-0.08307968577989772,-0.8599768572149882
201.0,-0.10721321793863098,-0.0615633359559402,0.022310188827694727,2.092004720692368,0.3148143194335169,9.569056648308418,0.04582144964594806,-0.5521034126671911,0.11974208300550745,119.62726568646735,12.320504278127459,-1.8801017899291894,0.4996033915304877,-0.06823886406058222,-0.08476060903107789,-0.8593765601518488
202.0,-0.09390499606608968,-0.06503166797797011,0.02560267505900865,2.1479781667977966,0.27252006294256487,9.55802025963808,-0.4660257671125098,0.14156422108575928,0.3909950334382376,119.45892014162078,12.650751130999213,-1.6317847659323368,0.5007112671644374,-0.06796300780448467,-0.08824133316070022,-0.8584040908985051
203.0,-0.06710975609756098,-0.05714083398898506,0.027123918174665612,2.1376624704956724,0.19208261211644373,9.561659323367426,-0.07867820613690008,-0.6181795830055075,0.0696154602675059,119.29780684500395,12.593344315499607,-1.1522079071597167,0.5019567482757671,-0.06427499918450039,-0.08977922097954365,-0.8577837014653815
204.0,-0.050588709677419366,-0.05080645161290323,0.023169354838709674,2.2777903225806453,0.24249999999999997,9.52691935483871,0.40483870967741936,-1.3388104838709678,-0.04586693548387098,119.23266129032257,13.440372983870969,-1.461592741935484,0.5019710913951613,-0.07028503425,-0.09473744037096773,-0.8567397579435485
205.0,-0.05014516129032258,-0.048322580645161296,0.009072580645161287,2.319943548387097,0.24411290322580648,9.517072580645163,0.7565020161290323,-0.2560483870967742,-0.20292338709677418,119.24601814516129,13.683316532258065,-1.4716733870967742,0.5017414214435485,-0.07142506262096773,-0.09654378571774193,-0.8565874161612903
206.0,-0.05518548387096775,-0.05936290322580646,0.019572580645161285,2.2929677419354837,0.2919274193548388,9.52258870967742,-0.11819556451612895,0.34062499999999996,-0.0817540322580645,119.3078125,13.520665322580644,-1.7569556451612902,0.5013357836129033,-0.07274662166935485,-0.09410907377419353,-0.8569909370887097
207.0,-0.06816935483870969,-0.07037903225806451,0.028040322580645156,2.2336693548387094,0.2767096774193548,9.537475806451615,-0.21557459677419352,-0.17086693548387094,0.13497983870967745,119.33830645161291,13.168800403225806,-1.6578629032258063,0.5013328793306452,-0.07047527685483869,-0.09192032369354838,-0.8574353126612902
208.0,-0.05583064516129033,-0.05928225806451613,0.024661290322580645,2.2598629032258066,0.24066129032258066,9.533032258064514,-0.19621975806451614,-0.5752520161290322,0.3056451612903226,119.22696572580645,13.326058467741936,-1.4421875,0.5021255492016129,-0.06965976841129032,-0.09396706859677419,-0.8568249612580644
209.0,-0.051248819826907946,-0.06352163650668766,0.028397324940991342,2.2801140833988987,0.21151317859952798,9.529059402045629,0.08061442761605034,-0.05471331628638865,0.031131982690794674,118.98543592643588,13.443998328088119,-1.2707243312352476,0.5038817658025176,-0.06911439408123524,-0.09543982645849725,-0.8556831900704169
210.0,-0.05757199055861527,-0.0508817859952793,0.021488985051140837,2.283242525570417,0.18563965381589304,9.52870712037765,-0.11490952006294257,0.0296997934697089,0.01874139457120378,118.92222905192762,13.464237067269867,-1.1153520849724625,0.5043588594819041,-0.06808850926239181,-0.09620181167682926,-0.8554014784142406
211.0,-0.03243922108575925,-0.04960621557828481,0.02432513768686074,2.162826907946499,0.17213434303697878,9.555946302124308,-0.0024648406766325792,0.28987509834775765,-0.1534065204563336,119.08490484854445,12.742930025570416,-1.027282897324941,0.5034957462328875,-0.06417738484087332,-0.09125244131018884,-0.856731102578088
212.0,-0.04892070648994331,-0.044935862131574175,0.024414946841776107,2.1668621719219674,0.22598063305695093,9.554392609292098,0.5020676985616009,-0.0201317229518449,-0.0022932364481833556,119.00840763002077,12.768490576267425,-1.3529165468841413,0.5040105651267829,-0.0667622202253374,-0.0900217462695485,-0.8563729779613973
213.0,-0.048661966148197455,-0.05175422138836774,0.029667150840242892,2.1767052795093704,0.257861284270411,9.55174872400089,0.23429997831305854,-0.056184813088825676,0.06974551887268252,118.91279756501038,12.828549723617584,-1.540797991184006,0.5047130288133912,-0.0684918052376687,-0.08960187841300005,-0.8558744236500533
214.0,-0.07868031430934658,-0.05744044665012407,0.0358705541770058,2.166938792390405,0.2767717121588089,9.553742969396197,0.065158447063689,0.12208953680727873,0.2548865281224152,118.77079197684036,12.766172973531845,-1.6555534015715465,0.5058098599582299,-0.06916820696029777,-0.08858150478163772,-0.8552826712396608
215.0,-0.0823159636062862,-0.05803473945409429,0.03706430934656741,2.1564935897435897,0.2828616625310173,9.556230355665843,0.1804370864350703,-0.057251602564102576,0.14929306244830437,118.56649477874275,12.701685277088503,-1.693477305624483,0.5073483881645988,-0.06932147572208436,-0.08781041843920594,-0.8544395102287015
216.0,-0.09146443341604632,-0.06125930521091812,0.03383457402812241,2.152420181968569,0.27813647642679906,9.556994210090986,0.08575785773366419,0.4841010132340777,0.43374431348221665,118.35902863937137,12.67402812241522,-1.66813482216708,0.5089273027435897,-0.06916255810297768,-0.08760967867121587,-0.8535328473966088
217.0,-0.07112096774193549,-0.05228225806451614,0.032903225806451615,2.1546129032258063,0.29030645161290336,9.55603225806452,0.253125,-0.39117943548387096,0.14742943548387094,118.11265120967741,12.690322580645162,-1.7433467741935482,0.5107564620806453,-0.06998916147580647,-0.08725078910483872,-0.8524071964435482
218.0,-0.07710483870967741,-0.055782258064516144,0.031766129032258075,2.1659919354838717,0.26787903225806464,9.554201612903228,0.006199596774193544,-0.3871975806451613,0.2599798387096774,117.81557459677418,12.752318548387095,-1.606149193548387,0.5129282300564517,-0.06950496562096774,-0.08817340468548387,-0.8510463584435484
219.0,-0.07425000000000001,-0.05487096774193549,0.03314516129032259,2.120129032258065,0.2738709677419355,9.564411290322578,0.1472782258064516,0.3878024193548387,-0.027570564516129034,117.7491935483871,12.476461693548387,-1.6393649193548387,0.5135374495725806,-0.06857954442741934,-0.08592824579838709,-0.850979958516129
220.0,-0.062059992132179394,-0.05709008654602675,0.026793863099921322,2.0943955546813537,0.2808831628638866,9.570172698662468,0.09196990558615263,-0.3351212136113296,0.03667510818253344,117.7481203284815,12.32350757277734,-1.6819876081825336,0.5136178558446105,-0.06819751216129032,-0.08459775497875688,-0.8510985650940204
221.0,-0.051483280881195914,-0.04954268292682927,0.02322757671125098,2.0871524390243907,0.31068941778127457,9.570775373721478,0.5866050354051928,0.5588562155782848,-0.023410454366640437,117.71842545239969,12.281441778127459,-1.8620414535798582,0.5138551250963806,-0.06934407815912666,-0.083441071456727,-0.8509771858870966
222.0,-0.09175373721479149,-0.025880212431156575,-0.054188630999213214,1.987362509834776,0.4307358379228954,9.5852102675059,0.8120525177025963,-1.076418666404406,-0.15638768686073956,117.75276111329661,11.692182582612116,-2.5743422993705742,0.513772532419158,-0.0719559796964988,-0.07593268513158931,-0.8514538835000001
223.0,-0.0840381589299764,-0.0705651062155783,-0.0021709284028324193,2.1306852871754525,0.5319042092840284,9.548343036978753,0.4210968233674272,-0.4773222364280094,-0.37118779504327304,118.1294551534225,12.545814073564122,-3.1875491738788355,0.5104751334232887,-0.07996009582002361,-0.07989719971498821,-0.8523373099435483
224.0,-0.09620456333595595,-0.07221400472069238,0.016160503540519275,2.2144232887490167,0.5228512981904014,9.530590873328084,-0.06004130605822186,-0.4085955940204563,0.21428009441384735,118.21775177025964,13.050049173878836,-3.1361132966168372,0.5096013344051927,-0.08173680692210858,-0.08392659605507476,-0.8523372815806451
225.0,-0.11024783634933122,-0.07463493312352479,0.023483870967741936,2.2907081038552324,0.4978158929976398,9.514337922895358,0.24265342250196695,-0.5094266325727773,0.011993509047993706,118.0013473642801,13.509121754523996,-2.9910552714398113,0.5109913034559402,-0.0828504485578285,-0.08782714099291897,-0.8510123261538158
226.0,-0.08643548387096772,-0.08140322580645161,0.029483870967741934,2.3159032258064522,0.48564516129032265,9.509120967741936,-0.07620967741935483,-0.42066532258064515,0.1279233870967742,117.81592741935484,13.660181451612903,-2.9184475806451613,0.5123031128790323,-0.08312323791935483,-0.08914696493548388,-0.8500716173467742
227.0,-0.0806989247311828,-0.07796526054590572,0.0317367659222498,2.3046745244003315,0.5380512820512819,9.509328163771713,0.16382599255583125,0.7863420181968569,0.1520885028949545,117.81539366211746,13.588994003308521,-3.2340855045492143,0.5123166528378826,-0.08511388256513647,-0.08721601868610424,-0.8500819810587261
228.0,-0.09188978494623655,-0.08553908188585607,0.03778370554177006,2.24138564929694,0.5424933829611249,9.524200372208439,0.0702698511166253,0.01968310587262201,0.14549989660876758,117.73791356492968,13.211734904880066,-3.2569117038875106,0.5130762676528124,-0.08367305250434243,-0.08424100782692309,-0.8500694898116211
229.0,-0.09469499082087596,-0.07456999334261333,0.03205688030825718,2.293493277048155,0.5755242288527104,9.510225776190767,0.11662218952369424,-0.4850271528071981,0.26653805806048136,117.74079490205571,13.522463636547034,-3.4598226399059895,0.5128734093729246,-0.08653730611477939,-0.08568959391788719,-0.8497584438600787
230.0,-0.08073459218463153,-0.06843822247775827,0.032697794992838265,2.3071700256208514,0.5625524370070003,9.507814500998606,0.060251618955395506,-0.07520006833908291,0.2369988677399181,117.63677849941496,13.603772140854161,-3.3821542635013815,0.5136315190896882,-0.08639547915416387,-0.0865363211323307,-0.849236088958265
231.0,-0.08736729609231576,-0.0556586273679114,0.030235994270612684,2.35479469022978,0.514352831406726,9.498391121467044,0.09302903528414935,-0.30733289707276723,0.028428869353830016,117.29769872551392,13.894426393007727,-3.0939753172345617,0.5160245374279087,-0.08584858996014645,-0.08968273875164923,-0.8475071387734873
232.0,-0.08760837922895358,-0.05298564122738001,0.032586152635719914,2.332993705743509,0.49632199055861514,9.505835759244686,0.09130359952793077,-0.17056574547600314,0.3172489673485444,117.0631380310779,13.761827547206924,-2.9858575924468918,0.5178602990778916,-0.08465280996518489,-0.08902434997383951,-0.846582247611723
233.0,-0.10034854445318647,-0.05285169158143194,0.033389850511408345,2.341900078678206,0.4794311565696302,9.504107395751374,0.24116591266719117,-0.26156815499606606,-0.024717250196695545,116.92776357199055,13.819598249409914,-2.88577153815893,0.5188310364099136,-0.0842828320350118,-0.08979231173288749,-0.8459472756203776
234.0,-0.07517741935483871,-0.03726612903225806,0.02684677419354839,2.3148225806451608,0.4951129032258063,9.509588709677416,0.26587701612903225,0.08482862903225807,0.021522177419354825,116.81451612903226,13.654586693548387,-2.981703629032258,0.5197473345645162,-0.08431563833064515,-0.08808539568548385,-0.8455649099596776
235.0,-0.06861290322580646,-0.03878225806451613,0.026435483870967745,2.3750564516129025,0.49821774193548374,9.494774193548388,0.26486895161290325,-0.6850806451612903,0.04067540322580644,116.68724798387096,14.018548387096773,-3.004737903225806,0.5205068282661289,-0.0862341112016129,-0.0905875417016129,-0.8446320073629032
236.0,-0.05448387096774193,-0.0417741935483871,0.024895161290322584,2.4584919354838703,0.504814516129032,9.472524193548386,0.016129032258064502,-0.807358870967742,0.2060987903225806,116.58991935483871,14.521018145161289,-3.050655241935484,0.5209175358306452,-0.08889617901612903,-0.09404749676612903,-0.8437218450887095
237.0,-0.037789732494099136,-0.05078048780487805,0.016922501966955154,2.5948477576711246,0.44366148701809593,9.437834382376082,-0.1642800944138474,-1.1562463119590873,0.4255200137686861,116.2425464693155,15.34762121361133,-2.687862657356412,0.5229491980830054,-0.09030498785759244,-0.10151868352340676,-0.8414116990511407
238.0,-0.07359874114870182,-0.047933910306845004,0.025276947285601883,2.6190267505900855,0.40302852084972457,9.433612903225804,-0.29044182730133755,0.2483625098347757,-0.11280487804878042,116.20245623524784,15.487477871754525,-2.4435127360346183,0.5231705802728166,-0.08917118187726199,-0.10360435716207708,-0.8411555980769079
239.0,-0.06089398111723054,-0.0495283241542093,0.030812942564909514,2.609360149488591,0.4282555074744297,9.435982494099132,0.34111919748229735,0.18166060188827693,0.11464275177025966,116.09567761605035,15.428436024783634,-2.597481068056648,0.5240305457985838,-0.0900869289470889,-0.10236923789162075,-0.840688741472266
240.0,-0.05864830841856806,-0.04751750590086547,0.021780881195908732,2.6754976396538153,0.41738001573564143,9.418199449252555,-0.12861673878835567,-0.608854986231314,0.3355957415420928,115.86522054484658,15.831921223446104,-2.5353756884343035,0.5254628912000392,-0.09167244458162864,-0.10546299321262786,-0.8392380181941383
241.0,-0.0480330448465775,-0.04833988985051142,0.018442171518489377,2.6665774980330443,0.3970967741935484,9.421487018095982,0.3350216365066876,0.5663847364280093,0.13453973249409915,115.65612706530291,15.770849724626277,-2.410651062155783,0.52704049490952,-0.09071058343823762,-0.10541535009441386,-0.8383604664752163
242.0,-0.05133752950432729,-0.049142407553107795,0.021274586939417785,2.5984028324154202,0.42118804091266715,9.438835562549173,0.2924370574350904,-0.6516030684500393,0.3236132966168371,115.46813532651456,15.364624311565695,-2.553845397324941,0.528663665436664,-0.09006287166797797,-0.10161623551534224,-0.8378690636585368
243.0,-0.04366640440597955,-0.04196695515342251,0.01764752163650669,2.694579071597167,0.42222659323367434,9.411479150275369,0.16984657749803303,-0.38606412273800156,0.29961644374508256,115.21498819826908,15.948072383949643,-2.5676632572777343,0.5302130273878833,-0.09301104780487805,-0.10565425693154995,-0.8360664377734068
244.0,-0.058860739575137676,-0.037721479150275385,0.026180959874114878,2.7342895357985832,0.42415578284815103,9.400437450826116,0.1413552321007081,-0.2587332808811959,0.04119787568843429,115.14520062942564,16.18756884343037,-2.5836349331235247,0.5305418005932336,-0.094278667140834,-0.10727930975924467,-0.8355239208654601
245.0,-0.05721951219512195,-0.03625649095200631,0.026221872541306063,2.7069362706530287,0.40046892210857576,9.409864673485448,-0.16400472069236818,0.1276652242328875,-0.06838119590873329,115.25542879622344,16.02090873328088,-2.437322974036192,0.5298050470904798,-0.09237524454602675,-0.10677083011959086,-0.8362733031943351
246.0,-0.05045554681353265,-0.03398269079464989,0.027185680566483086,2.6696309992132172,0.4033800157356412,9.420519276160505,0.11853363493312354,0.1395013768686074,0.05699252557041698,115.34496951219512,15.797752753737214,-2.4491296223446106,0.5292907763524783,-0.09137089670023604,-0.10514653142092838,-0.8369141199881982
247.0,-0.056878442171518495,-0.038245476003147136,0.02585641227380016,2.623846184107002,0.40744138473642805,9.433249409913453,0.21601347364280093,0.4448588709677419,0.09596774193548387,115.28538306451614,15.516716660110148,-2.475597462627852,0.5298823081801729,-0.09033677589378444,-0.10294732862549175,-0.8369269029665618
248.0,-0.04756353265145555,-0.03391109362706531,0.02262765538945712,2.5602802911093625,0.41834225019669546,9.449889063729344,0.21553034028324153,0.09286609952793076,0.19319433516915815,115.14349798387097,15.12930148505114,-2.5302161191974823,0.5311307800373721,-0.08910023981864673,-0.09974292160385523,-0.8366510926099529
249.0,-0.04693211194784759,-0.03139947922520701,0.018863942902101832,2.6118350380277997,0.42004132479112816,9.435535161664982,-0.0327266213330336,-0.5529585112959424,0.08062174515754375,114.99863191244239,15.448494108500991,-2.547213714360646,0.5320238970605449,-0.09079400123151998,-0.10189227883072945,-0.835645453562081
250.0,-0.06514976958525345,-0.02584293394777266,0.02411175115207373,2.670801075268818,0.39566897081413216,9.420174347158216,-0.12487039170506913,-0.3991287442396313,0.0718509984639017,115.09810627880185,15.802241743471582,-2.402683371735791,0.5310952629039938,-0.09128870999577571,-0.10524505516359448,-0.8357545913805684
251.0,-0.05830914915139934,-0.028640487430219935,0.02218264583567495,2.6932789798059273,0.360735547562849,9.415503774680605,-0.03683035714285715,0.07654265482746991,-0.07389944175939454,115.01763164549848,15.937823025551683,-2.190835686654678,0.531613797501171,-0.09043053973205387,-0.10713393515752499,-0.8352843747564722
252.0,-0.04775134876924806,-0.02446943726349706,0.029792935821063283,2.6330790060319957,0.3849403544265858,9.430876887340304,0.43221486175115204,0.7468398758008318,-0.298189640234536,115.1140073550073,15.5724901418081,-2.333195061069274,0.531104376585263,-0.08968585324102692,-0.10385154380456894,-0.8360796528540424
253.0,-0.038239069349218835,-0.03265181147203177,0.026419186242553676,2.509798452661946,0.4305232850024355,9.461361339028139,0.08605850286613465,0.5561021271215016,0.03585735828556444,115.1419509385186,14.826893428496497,-2.5985568637368397,0.531353809482541,-0.08821691456888088,-0.0971910393685512,-0.8368691634497395
254.0,-0.03654657000487055,-0.0368712206361695,0.019592081600539508,2.4341311771758267,0.44894827844591817,9.481106936795177,0.2516506031995804,0.490392653422502,-0.19575699674047434,115.20147182102582,14.370027935446405,-2.7056724410850097,0.5312011401867389,-0.08686283416232063,-0.09336483058289312,-0.837558827523641
255.0,-0.03569952418418193,-0.038746094189052505,0.018262110823873218,2.411771233749204,0.46937126746843505,9.486416863362187,0.04684221741410963,-0.03916207710464201,0.08374768180285488,115.21783735622495,14.233785850099284,-2.830950156419767,0.5311729470031847,-0.08711172028552695,-0.09181851158924356,-0.8377353051156757
256.0,-0.03341073770184706,-0.037059121052040025,0.021445768236484208,2.456834476040613,0.44074542917088155,9.476313860477319,-0.34129663322842907,-0.30653520849724625,0.37747572917837474,114.98629377646023,14.505474750384023,-2.6591218130643286,0.5326779595267693,-0.08731693405543067,-0.09440558689532988,-0.8364467618694035
257.0,-0.05873455471881908,-0.05124768648608146,0.027453298864785876,2.4973934284964967,0.34784256865610125,9.469484695215616,-0.20024821100745568,-0.2909548162301899,0.4548920984601551,114.63106571503502,14.753225806451612,-2.099140159604361,0.5351443142941066,-0.08473646783762318,-0.09853255003042222,-0.8346603733569369
258.0,-0.05948922857892175,-0.055435015548312164,0.022420591210520396,2.5669343224307815,0.5159747855082237,9.440953991982315,1.5356203870218426,-1.5444496740474316,-1.0042858547825109,114.54694513131767,15.179032258064515,-3.1333377823985615,0.5353501225758495,-0.09416530405256454,-0.09689838007028587,-0.8336268326776816
259.0,-0.043677025963808035,-0.06921136338091491,0.016655764115244838,2.653444119740736,0.573298452661946,9.41299235697426,0.7107345406691394,0.47364689876737487,0.6558591847439211,114.64350424768648,15.692122695852534,-3.483023537896669,0.5343194703893073,-0.09893607214532989,-0.0991619744975085,-0.8334588706283952
260.0,-0.04501830183155545,-0.026518659935018597,0.015730494905956453,2.693083650267967,0.47637833543751806,9.407340871367667,-1.1319235691435925,-1.0377486235125852,0.6350536294787983,114.08355671371021,15.936478388161937,-2.891481235400313,0.5383093207738532,-0.09635816666641092,-0.10317251634990149,-0.8307112885085328
261.0,-0.03773898962545514,-0.016948846096541556,0.013018473259429841,2.7885337606178546,0.36293916771875906,9.384694629232222,-0.10540230876534462,-0.6416313682079055,0.6127889115135927,113.6206342036293,16.52038133117774,-2.2066781177001564,0.5413260256691848,-0.09467938166385062,-0.11016031931204749,-0.828062080734105
262.0,-0.05482725210919455,-0.02279623564427692,0.022096794233401558,2.783379015485578,0.27173148862128427,9.390312752404128,-0.412704994628448,-0.7591509375601739,0.3418783267245382,113.26346130304353,16.492328722424507,-1.6506220849637496,0.5439872838860517,-0.09092044237339997,-0.11223180164373497,-0.8264847155145179
263.0,-0.028909298753259743,0.0006506626656664159,0.01541031686493052,2.886193048262065,0.25758250276854927,9.360206730253992,0.062009029042975006,-0.7916771603615189,0.27779400207194654,113.0190732951095,17.11861715428857,-1.5652058103811666,0.5453550089713498,-0.09355603946758119,-0.11695487083681634,-0.8246533915330261
264.0,-0.028711177794448615,-0.0015832708177044266,0.015915603900975246,3.005929857464366,0.25289647411852956,9.323513503375846,0.11565313203300825,-0.434154632408102,0.21582192423105773,112.87153741560391,17.85470508252063,-1.5559804013503373,0.5458957836500375,-0.09703128737434359,-0.12220768152363087,-0.8231516547903224
265.0,-0.03637551695616212,0.009430727874276257,0.008908808933002487,3.0466164185277083,0.2792154673283704,9.309543217535154,1.238380117866005,0.5831666149710505,-0.10451173490488007,112.81479916253102,18.099978029363108,-1.7323032981803141,0.5460456131726632,-0.0994433511745244,-0.12313693664722909,-0.8226327539708436
266.0,-0.02995388751033913,-0.007151571546732839,0.013829404466501247,3.0104009511993386,0.3333093465674109,9.319848221670803,-0.09887949751861036,-0.17688947477253925,0.23012820512820512,112.68711228287842,17.879298490488008,-2.058868382961125,0.5470835785097188,-0.10082173524855251,-0.1199672751945823,-0.8222517604249377
267.0,-0.0338116211745244,-0.010579818031430935,0.014152605459057076,2.9290270885028953,0.3124772539288667,9.346407981803143,-0.31236817617866003,-0.1818923180314309,0.1467677315963606,112.66774968982631,17.37805650330852,-1.9220249172870143,0.5476018967830851,-0.09752292042266335,-0.1169397256980976,-0.8227373014826301
268.0,-0.03319426456051161,-0.0037484062619782548,0.014987789747624524,2.9561863412616756,0.29232950029252147,9.338159636062862,-0.17481852947406645,-0.12155382522342592,0.07753598519235813,112.63995150699026,17.544756393865118,-1.796550420877968,0.5477052949752366,-0.09746145129119008,-0.11865573781207002,-0.8224298583557919
269.0,-0.03575035808670742,-0.015579848292279453,0.017941475518973557,3.0343310738566442,0.28210023401722845,9.313563688999167,0.04951109816619259,-0.5841892109988098,0.16749783130585644,112.58066123736609,18.022957834029334,-1.7391270249551132,0.5478079124150376,-0.09941427033914343,-0.12231418136571243,-0.8215941053270895
270.0,-0.04258320220298978,-0.024374704956726986,0.021965774980330456,3.1038123524783634,0.28576062155782844,9.29054032258064,0.07560852675059009,-0.27230035405192765,0.12556549960660895,112.4575297501967,18.451387932730135,-1.765991345397325,0.5483830981388671,-0.10175736131431945,-0.125154426095594,-0.8205021674600705
271.0,-0.050743312352478365,-0.03245751376868608,0.025287175452399696,3.1347027930763174,0.29355173092053494,9.279911683713607,0.044069630212431155,-0.1402648013375295,0.07568966365066876,112.35474159126673,18.639855428796224,-1.8134699547600315,0.5489463875082612,-0.10311191308536587,-0.12620618372993705,-0.8198017001750589
272.0,-0.0602462627852085,-0.044067269866247066,0.02599724626278522,3.1612399685287187,0.29746892210857595,9.271268292682922,0.14232641620771047,-0.1737829464988198,0.10840873328088121,112.27376327694728,18.804836250983477,-1.8389432533438237,0.549401288693155,-0.10415339681864677,-0.12719028613965383,-0.8192216328705744
273.0,-0.06460778914240756,-0.05457100708103856,0.028104838709677435,3.1782006294256493,0.30938749016522427,9.26513453973249,0.07300722856018883,-0.058739427616050346,0.0917732100708104,112.15994418764751,18.91063016325728,-1.913029848544453,0.5501207304323368,-0.10528516454622347,-0.12751030937588514,-0.818547972056845
274.0,-0.06806579933310852,-0.05843623318721667,0.027481182795698937,3.1772397156344843,0.3235866022254692,9.265294612416167,0.13352622372709902,-0.16047930482185005,0.07861989996628077,112.05683581310178,18.90805485697426,-2.000083712674684,0.5508567666278428,-0.10599704051523923,-0.1269666793789948,-0.8180430708788449
275.0,-0.058676332846277775,-0.07110636544153462,0.028202764976958533,3.160098160428609,0.30482709527556096,9.27148102356599,-0.6525233224682478,1.2663257277734066,0.2939614476789929,112.02433404518376,18.798052246075454,-1.875821906260537,0.5511723911067401,-0.10462215429583005,-0.12670159133715486,-0.8180350550575101
276.0,-0.060128882394814745,-0.05580495298040539,0.02900303473080814,3.021079764714697,0.1986212581019819,9.318934846952153,-0.054330111273463044,-0.11447678992918964,-0.06535208497246259,111.78606552770596,17.946454329174628,-1.219210127009104,0.5535390007658011,-0.09625617356412272,-0.12352308041287324,-0.8179033479929565
277.0,-0.054761530103780306,-0.032438275073994986,0.04139372822299653,3.0791866172117937,0.26780000749316246,9.298306919935555,0.5075025289423402,-0.32769472856018883,-0.05930369787568842,111.85507052939192,18.302470870330822,-1.652755142182758,0.552783706858117,-0.10090940269866247,-0.12412225383350191,-0.8177679601333783
278.0,-0.0543595219362332,-0.0290515529579259,0.030917163088681587,3.087913528904873,0.2587819864373758,9.296631823461093,0.20413482072608746,-0.26381785995279305,-0.019817073170731704,111.75262377767785,18.356585553182722,-1.5859910644037314,0.5534726615761867,-0.10084488984657748,-0.12466828619291145,-0.8172541231980818
279.0,-0.06243014499269418,-0.023861413959761723,0.030512344985201008,3.070306994867183,0.21378269828781238,9.304022516953278,0.4021250140496797,-0.08294579633584355,0.1687780993593346,111.58241307931512,18.249375725900116,-1.311956745719531,0.5548060243195834,-0.09858826814064667,-0.12502955849660935,-0.8165748093578733
280.0,-0.060742722265932345,-0.03538001573564124,0.031178599527930773,3.0725759244689215,0.20279150275373717,9.303150275373724,-0.2902537372147915,-0.40536978756884345,0.42155782848151063,111.3492230527144,18.265922501966955,-1.242220692368214,0.5564645693564123,-0.09843806650196696,-0.12529331388040912,-0.8154288035798585
281.0,-0.05570259638080252,-0.038069236821400475,0.027367427222659328,3.070566483084185,0.179669551534225,9.303778127458692,0.3681648308418568,0.49247147915027534,0.3633605428796224,110.97348052714398,18.24993115656963,-1.1049223052714399,0.5591469276325729,-0.09781361134461054,-0.12551454356884342,-0.81363058068214
282.0,-0.04995594020456334,-0.03120220298977184,0.020005507474429585,2.979421715184893,0.17669158143194336,9.33397797010228,-0.008187450826121212,0.18948908339889847,0.2823637883556255,110.5145726789929,17.68621164437451,-1.0846208693941777,0.5628205994968529,-0.09541645931510623,-0.12124489466011015,-0.8120138147116444
283.0,-0.0469394177812746,-0.035684500393391036,0.01495869394177813,2.949654209284028,0.20028206136900079,9.34328088119591,0.06358428402832413,-0.4948994394177813,0.44083767702596377,110.25384908536584,17.501519472856018,-1.22483403815893,0.5648165790898899,-0.09578707231215579,-0.11905087881785995,-0.8109191335509442
284.0,-0.0472578678206137,-0.03224822974036192,0.012156766325727774,2.837708103855232,0.17664221085759246,9.376868607395753,0.16078997836349332,1.4057668666404406,-0.2352404602675059,110.26436860739575,16.81103093036979,-1.0798116640440598,0.5652261538082218,-0.09138868386428009,-0.114836930538749,-0.8117184619673488
285.0,-0.04729673788053018,-0.013761831991769044,0.011786302931267527,2.7899032661542496,0.3220699681252396,9.385523426940225,0.4951250088260808,-1.4318088485242795,-0.3649656602412798,111.04756633430168,16.532266007988863,-1.9665251971998627,0.5597553670193921,-0.09550975485314914,-0.10938007121922974,-0.8156794884297041
286.0,-0.06359998184349089,-0.05525591599588451,0.0188004095301499,2.7794838911416404,0.3363454679335875,9.389628648953982,0.21674093183239523,-0.47157478716536555,-0.20317335431418826,110.95720050586051,16.466939455607335,-2.0509037276321895,0.5604745334653412,-0.09585860372899394,-0.10837203054509872,-0.8153394636503362
287.0,-0.03740659989106094,-0.05046824123948435,0.01704693961952027,2.8662565010389556,0.27316014545381184,9.36511330166031,-0.24017890465815328,0.7807694514212511,0.49125852347233145,110.55417558731264,16.99442566800823,-1.6618061124392263,0.5629966069049759,-0.0960903330682735,-0.11358568864784441,-0.8128608028275284
288.0,-0.03410288688494825,-0.034537916843188285,0.02157608586011419,2.8088223889931205,0.217927535354758,9.384483971837234,0.3042798926748572,-0.38888909903367025,0.5328710988722791,110.16463389416772,16.6461451461599,-1.3320113125138695,0.5660435980200528,-0.09245095773683148,-0.11238576589709294,-0.811353938164256
289.0,-0.02647222198205676,-0.02786859874979466,0.022669763360164623,2.9225540141736044,0.24067895257116342,9.348498776597122,-0.06570502013066923,0.24693667449125753,-0.06742698849799555,110.05886803171913,17.34083488059934,-1.4788170908228935,0.5662632129832758,-0.09692187505776795,-0.11650515658816284,-0.8100843346783966
290.0,-0.03891849312502342,-0.03540328200517028,0.01849534487280357,2.735203392529316,0.16067859952793076,9.405744839084338,-0.8678917987336555,0.9090400907609306,0.5123886562886366,109.92363893728222,16.19594473558503,-0.9797104478101233,0.5680688623808025,-0.08793321641391291,-0.11071901913196397,-0.8106299279248059
291.0,-0.022968687947248143,-0.028883781049792067,0.010846511932861264,2.563640937019969,0.16642722265932336,9.453245747630287,0.6239428201453674,-0.2028664858941216,-0.24605537681240874,109.94481145329885,15.162972244857817,-1.0114775931025437,0.5686199033853263,-0.08305135111677156,-0.10321896255801583,-0.8117259213695627
292.0,-0.04753868345135064,-0.043454947360533513,0.017588962571653367,2.5590737327188937,0.1856490952006295,9.45644910269379,0.3168905248960323,0.12492764414971341,0.11564478663219807,109.81330434416095,15.12854473418006,-1.1289254804990445,0.5696152631306433,-0.08384761914229516,-0.10229502505780974,-0.8111336828591285
293.0,-0.047813401521111985,-0.048985538196395784,0.017445150050578846,2.5177154658873775,0.21794256490952008,9.467717076917312,0.40239687535124197,0.6373556395414184,0.09497325877636653,109.61352668034169,14.870502697538495,-1.3223059739237946,0.5712027611404593,-0.08410251176626951,-0.09938792802457758,-0.8103766325231914
294.0,-0.048639101195159413,-0.04642881495635233,0.02244536547900041,2.411232597130119,0.24161487018095984,9.494765492113444,0.11660414559214714,0.10185262588512978,0.09691164624779887,109.538259912049,14.234981946161628,-1.4566798031171557,0.5721238548188528,-0.08196954472590948,-0.0941472328640553,-0.8105830455037559
295.0,-0.05081001086508562,-0.043064328799970034,0.019427147727698477,2.505976546401409,0.20441384736428014,9.470950507661758,-0.027715334757034193,-0.718184500393391,0.3597092652954179,109.19874676857368,14.808004102506462,-1.2363343449102693,0.574180402031771,-0.08356493339590124,-0.09904999668989548,-0.8083708508849425
296.0,-0.05377164587314076,-0.03739290397512271,0.018553857105391335,2.6165342999512946,0.1746978756884343,9.441647559102318,-0.05012832040762804,-0.6315499606608969,0.28266246112921956,108.98011689333484,15.475731988310667,-1.068550728710052,0.5752883452534936,-0.08589594516687273,-0.10444550225132064,-0.8066560289877114
297.0,-0.051430369787568854,-0.03350904799370574,0.003856805664830842,2.636542879622345,0.13204248623131395,9.437082612116441,0.3420633359559402,0.38261211644374504,-0.1755802517702596,108.8755999213218,15.59561369000787,-0.8044846577498033,0.5759326226782062,-0.08478822376239181,-0.10648087676160503,-0.806052314516129
298.0,-0.04004484657749804,-0.032022029897718324,0.009387096774193549,2.5332856018882772,0.1508025177025964,9.464660896931552,-0.2862018095987412,-0.029106018882769452,0.3575334382376082,108.90029504327302,14.974965578284815,-0.9127261998426435,0.5761976909763965,-0.08239801772698663,-0.10158228473485442,-0.8067346074280095
299.0,-0.03693542767224908,-0.030798583792289533,0.01408397961859803,2.5061561200404636,0.09680866209583755,9.472866022254692,0.05560371473530401,0.07008226087445206,-0.022130821250608834,108.6812905099097,14.80740453242666,-0.5881444119740736,0.5778473956146454,-0.07944320970478813,-0.10192194447956238,-0.8058183339639017
300.0,-0.05335599078341014,-0.03720967741935484,0.02123003072196621,2.468315668202765,0.07890629800307221,9.48327880184332,0.04419642857142856,-0.2343677995391705,0.06497215821812596,108.65048003072197,14.578348214285713,-0.47630568356374803,0.5782319519804147,-0.07754645497119816,-0.10085735158832562,-0.8058683833045315
301.0,-0.05727073732718893,-0.04416129032258065,0.022852918586789554,2.4825933179723503,0.06290476190476192,9.480107142857147,-0.16570420506912442,-0.05884216589861751,0.02895785330261137,108.62201420890936,14.662031970046083,-0.37998751920122886,0.5783707858006911,-0.07730191571543779,-0.10192049301996928,-0.8056644074788788
302.0,-0.04747102956052601,-0.02574291896144768,0.03134768273950022,2.469304625154547,0.04593979243939905,9.484080617061938,-0.4460104178374733,-0.17895638979431266,0.40572044415720654,108.58213220280243,14.580569117399122,-0.27612180838110223,0.5787177461547712,-0.07620328862335618,-0.1018585594460586,-0.8055299175186486
303.0,-0.06752180510284365,-0.016238394964594807,0.022657712337492045,2.5408498932224344,0.023808605897118883,9.464947566595484,0.3910320894683601,-1.3347402916713498,-0.07481114888913867,108.37831408527218,15.021509357086659,-0.14715868644861566,0.5798637465773856,-0.07764341832780713,-0.10545592219480349,-0.8040838600133566
304.0,-0.0479175845790716,-0.024409520062942572,0.015924862313139266,2.73180743509048,0.06361782061369003,9.409471479150275,0.2095569433516916,-1.2585279799370572,0.02125417977970101,108.41989821007081,16.183954563335956,-0.3904332218725413,0.5787401203347757,-0.08522099115007867,-0.11240585390538946,-0.803136527078875
305.0,-0.04232572777340677,-0.021180566483084192,0.017962431156569633,2.8670045239968527,0.08419197482297407,9.369570416994492,0.2672784716758458,0.2097229051927616,0.06680148505114082,108.41836644374509,17.002763571990556,-0.5212750786782061,0.5781983378851296,-0.09026652378068449,-0.11748187995672699,-0.802268026438631
306.0,-0.05269512195121951,-0.030937057435090495,0.026267505900865466,2.7150546813532657,0.15690243902439027,9.412349724626278,0.2258015342250197,0.36300157356412277,0.08181304091266718,108.45837677025963,16.074970495672698,-0.9581677812745869,0.5785055332167585,-0.08862802209598741,-0.1088226731880409,-0.8034118797112508
307.0,-0.056575727773406775,-0.0320814319433517,0.03152478363493313,2.6346988591660114,0.14517427222659318,9.436253540519274,-0.3033315302911094,0.25708103855232106,0.21859633162863884,108.38002925845791,15.585872344610543,-0.8820884146341463,0.5793971155344217,-0.08572974990322581,-0.10571798806530291,-0.8035349007761605
308.0,-0.06277576711250984,-0.03411329661683714,0.03153658536585366,2.5880792682926828,0.07324842643587724,9.450525963808026,0.2166810090479937,0.06039535798583791,0.011893931943351699,108.21987854051926,15.302159962627853,-0.4458829169944925,0.5807219840938238,-0.08137741795161291,-0.1058190022987805,-0.8030258575574352
309.0,-0.0462830448465775,-0.038338906372934696,0.01858280881195909,2.5103501180173096,0.12117663257277735,9.471746852871755,0.4657749803304484,0.5655303402832415,0.021244345003933914,108.11296346380803,14.828322924862313,-0.7314344020456334,0.5817879893251378,-0.08108598391935483,-0.10094045241955155,-0.802920528004524
310.0,-0.05438158929976396,-0.04807238394964594,0.023945121951219513,2.4188082218725415,0.15647993705743507,9.49533654602675,-0.1947052025963808,0.45824891817466556,0.15355035405192763,108.03706358182532,14.276365804484659,-0.9367660798583792,0.5826773911412273,-0.07979751290952006,-0.09595000370889066,-0.8030310995383557
311.0,-0.055464988198269075,-0.05576199842643588,0.030645948072383952,2.352093627065303,0.19707867820613684,9.511543273013377,0.4354346970889064,0.5863321203776554,-0.0207046616837136,107.99673239575137,13.875506490952006,-1.1811098544453187,0.5832034232399685,-0.0795059209870181,-0.0918791401447679,-0.8031584787328874
312.0,-0.06642250196695515,-0.0642421321793863,0.023037372147915028,2.2893867033831627,0.18329937057435086,9.527423878835565,-0.205595987411487,0.3271206235247836,0.049811909913453974,107.97449227970102,13.495483379228954,-1.0979310090479937,0.5836119067498033,-0.07702683305448466,-0.08963005737372147,-0.8033670703538551
313.0,-0.08292899291896144,-0.06458477576711252,0.030115460267505903,2.2605723839496457,0.13756097560975608,9.534546616837137,0.24639555468135327,-0.2814749704956727,0.08788478560188828,107.7934709382376,13.32707636703383,-0.8310471577498033,0.5849868989394178,-0.0744077490957907,-0.089731390565893,-0.8025894394067664
314.0,-0.0768556254917388,-0.06709480723839498,0.027997246262785207,2.299842643587726,0.11963532651455543,9.525454760031469,-0.32992722265932334,-0.08673042879622345,0.4329292879622344,107.44156913847365,13.563613788355624,-0.7210931353265145,0.5873014986955154,-0.07517007987450827,-0.09168327790794649,-0.8006045797195122
315.0,-0.06749704956726987,-0.07598957513768687,0.02953048780487805,2.3245696302124315,0.0997366247049567,9.51986978756884,-0.03805074744295828,-0.21578850314712825,0.08210193745082608,107.32682312155782,13.71085390440598,-0.6004413355625491,0.5880160758583792,-0.07518802633221873,-0.09324302044177812,-0.7999098399502361
316.0,-0.06767191188040914,-0.06949881982690795,0.02590637293469709,2.3643815892997644,0.11507395751376864,9.509781667977968,0.20940204563335957,-0.26689122738001575,0.17550157356412271,107.29287224626279,13.952579169944926,-0.6869394177812745,0.5881056427033833,-0.07707384064594806,-0.09443347334185678,-0.7995319068017309
317.0,-0.05969354838709678,-0.061725806451612915,0.02456451612903226,2.336693548387097,0.10101612903225804,9.51700806451613,-0.04375000000000001,0.9380040322580645,0.10423387096774192,107.0938004032258,13.779889112903225,-0.6054435483870968,0.5896225952580646,-0.07577396508064516,-0.09352131495967742,-0.7986418694032258
318.0,-0.07483870967741936,-0.06866935483870969,0.015685483870967742,2.3203225806451604,0.10868548387096774,9.521032258064515,0.1539314516129032,-0.36617943548387094,0.17686491935483872,106.95131048387097,13.683215725806452,-0.6527721774193549,0.5906633439032258,-0.07574325025,-0.0925085741532258,-0.7979926813790321
319.0,-0.06907258064516128,-0.05619354838709678,0.02575806451612903,2.3466370967741934,0.14183064516129032,9.513749999999998,0.3948084677419355,-0.2006048387096774,0.060937500000000006,106.87293346774193,13.842086693548387,-0.8526209677419354,0.5911159888709678,-0.07798437329838712,-0.09252944463709675,-0.7974437591129031
320.0,-0.07088709677419355,-0.04467741935483871,0.033411290322580646,2.343943548387096,0.21615322580645158,9.512451612903224,0.5970766129032258,-0.04914314516129031,0.22888104838709677,106.6883064516129,13.828981854838709,-1.3005040322580645,0.5923764630564516,-0.0811240412983871,-0.09003069474193548,-0.7964731032580645
321.0,-0.06129425649095199,-0.03403697875688434,0.031444925255704165,2.2701186073957507,0.2787596380802517,9.528373524783632,0.38214373524783635,0.12795535011801729,0.3156827793076318,106.33764998033044,13.385336349331235,-1.6752151357199057,0.5950475790531077,-0.08167304191443747,-0.08476899707789143,-0.794980182540716
322.0,-0.07418745082612116,-0.035236231313926045,0.024770849724626277,2.3368214004720684,0.24709756097560978,9.51378756884343,-0.38208841463414633,-0.34131466365066876,0.2201649783634933,106.07562942564908,13.785510916601101,-1.4837517210857594,0.5966150305910698,-0.08265352745318646,-0.0883911505308812,-0.793312382879229
323.0,-0.08054130605822186,-0.045565696302124314,0.03535719905586153,2.377088119590873,0.19097619984264358,9.505579268292678,-0.23156840086546027,0.14136383752950432,-0.10516448662470494,106.06951834185682,14.029449006687647,-1.1467901750590088,0.5965492352511801,-0.08161218172659324,-0.09176512121302124,-0.7930937314234854
324.0,-0.07189162077104641,-0.05225865460267506,0.0309124704956727,2.4060279307631784,0.19695987411487015,9.497777537372148,0.41342446892210855,-0.2780327989771833,-0.22710341266719117,106.17258679189615,14.202703333988985,-1.1856682730133752,0.5957214280892997,-0.08269560175845792,-0.09284955620731707,-0.7934820395786784
325.0,-0.06612588512981904,-0.05162706530291111,0.02726160503540519,2.3586388670338314,0.2852446892210858,9.506134539732496,1.0831751573564121,0.14908290715971678,-0.5452743902439025,105.91336300157357,13.918619689221085,-1.7186860739575138,0.5976459638111723,-0.08505262214791504,-0.08797118804563336,-0.7922982349295831
326.0,-0.06921033307107265,-0.051099771458544094,0.027536613465212995,2.5342684800119897,0.3951627140234536,9.45420285864149,-0.30995882273050845,-2.0084219048555694,0.3161837089281031,106.41476428149939,14.983438998632497,-2.3914289929189616,0.5933676980443595,-0.09471021057865947,-0.0924391456658799,-0.7938245346955058
327.0,-0.058164306320482556,-0.05862438649732119,0.028097607807875312,2.6396607377018473,0.30354026638192655,9.429666713498934,-0.42876853386909447,0.005870892810310613,-0.2770535948447042,106.4640509675546,15.616519086489827,-1.8396133059832902,0.5926584684822412,-0.09416386327473679,-0.099625274474261,-0.7935865906878067
328.0,-0.0682139391555206,-0.044765969802555164,0.03082506275523585,2.7294591060657156,0.2655450151736541,9.405066145891876,0.002277687235397702,-1.1208561055224608,0.7107196128844928,106.27782111713685,16.162974703551757,-1.6149064759656813,0.5935560326378555,-0.09564261305987037,-0.10438200711537597,-0.7921082100121764
329.0,-0.06846052976658801,-0.05039301637256004,0.030590835862275678,2.790286988123337,0.1739518938968192,9.390247274362148,-0.7049169195609006,0.14993349818290802,0.4583895320520025,105.79745513468959,16.52958862537934,-1.0568754449065227,0.5966266670360796,-0.09415287859091079,-0.10941097441272338,-0.7893253144179686
330.0,-0.04055205874639392,-0.05711232250571353,0.02019313626315987,2.7262213854857444,0.08426941665730024,9.410524896032374,0.6417881963957888,0.8589950732456633,0.15201636319358586,105.46956253980741,16.132123187591326,-0.5112760387396501,0.5992066176683152,-0.08864015605391332,-0.10929207013319095,-0.7880221614379379
331.0,-0.03397456071334907,-0.0670297103892698,0.020221610280618932,2.5591232999887605,0.14283878460904428,9.456012513581356,0.2514283840995092,0.25526394664868307,0.27849275036529164,105.12328476827395,15.121117605185269,-0.8605627833352066,0.6023049309134166,-0.0860746213562624,-0.10017859966992618,-0.7871486347154472
332.0,-0.04265932336742722,-0.05930133752950434,0.02126671911880409,2.4905570416994496,0.17987254130605831,9.474843430369786,0.05177025963808024,-0.18421518489378444,0.18423485444531862,104.8206333595594,14.713227773406766,-1.0821007081038552,0.6046917451817466,-0.08572197964280096,-0.09593809352006294,-0.7859234107663257
333.0,-0.04419197482297404,-0.035461841070023606,0.0245381589299764,2.5743335955940205,0.16786152635719914,9.453419354838712,0.2272128245476003,-0.5556549960660897,0.28675255704169944,104.63868017309206,15.222216758457908,-1.010857592446892,0.605582224415421,-0.08807634279307631,-0.09963146505743509,-0.7845367833485444
334.0,-0.046041699449252564,-0.03873013375295044,0.024873328088119595,2.722933910306845,0.17683005507474434,9.41080881195909,0.12176927616050354,-0.7859166011014949,0.28745574350904796,104.23623623131391,16.125073760818253,-1.0721577498033044,0.607670217573564,-0.0936605450393391,-0.10518103026278519,-0.781525767166011
335.0,-0.040416601101494885,-0.03281904012588513,0.01881746656176239,2.919208890637293,0.18486664044059797,9.350105428796226,0.17686123131392603,-1.0361526357199056,-0.01552173485444533,104.14034470889064,17.32278963414634,-1.128722462627852,0.607372304711251,-0.10046072634736428,-0.11300926860110147,-0.7797868274579072
336.0,-0.029272635114688614,-0.016108525489721394,0.018209798462748894,3.027752884867559,0.1904074572817689,9.316424539530754,0.46612004856866185,-0.9407094151586677,-0.10565408193629083,104.18974368430874,17.984579418336054,-1.1700667882144082,0.6064934867100606,-0.10417224182182915,-0.11738938500250157,-0.7793746709261938
337.0,-0.027657068934212915,-0.014265120337307593,0.01478448223688192,3.162522488853921,0.18851342572979085,9.271897950331862,-0.17268409943714821,-0.23656487673747703,0.06106027708850289,104.09889733881056,18.814112461921766,-1.1580357052795094,0.6064359832553058,-0.10854597571235043,-0.1230137204333908,-0.777962724140713
338.0,-0.01848756279126066,-0.00353608101837842,0.01247957392725292,2.96899816417519,0.10530391978857756,9.333946418124231,-0.9110974096713672,1.8406438499868867,0.09443528213197765,104.20412203191512,17.62336843591761,-0.6478305493352701,0.6067151543783413,-0.09861217744921219,-0.11769606922249792,-0.7798001046553289
339.0,0.01889390546510924,-0.025599669148056243,0.0014435635175210305,2.7521363755573036,0.047124815913171546,9.398964554459441,-1.0640016946075168,1.0250327825858903,-0.09447689079868465,104.3709142811031,16.304081936290824,-0.2873938348564627,0.6065768380168652,-0.08896701614553451,-0.11074467167419152,-0.7820172490719601
340.0,-0.001873267566422563,-0.02667001553390224,0.00748496035828845,2.628891161814844,-0.10784199802295787,9.435387076600293,0.06257035647279541,-0.40283569367951755,-0.6720122455566987,104.71079152292764,15.557986090096632,0.6466158284411627,0.6048166990517057,-0.07831719197756665,-0.11083654310302811,-0.7845443625643042
341.0,-0.007688434303697879,-0.01821557828481511,0.007359559402045636,2.7654107002360346,-0.13815892997639656,9.394802517702598,-0.052807828481510666,-1.5679927222659322,-1.3315892997639653,105.46846479150275,16.4018243509048,0.8369738394964594,0.5989594198332022,-0.08059825378206137,-0.11819706232336744,-0.7876609292800942
342.0,-0.01020928402832416,-0.007250983477576715,0.01809362706530291,2.715451219512195,-0.1640007867820614,9.41125649095201,-0.21505950039339106,1.0854469905586153,0.19607592446892197,105.95568695908733,16.079501868607394,0.9956653225806451,0.5958727675719906,-0.0773451139169945,-0.11714872685011804,-0.7905538898131392
343.0,-0.03124547600314713,-0.010907159716758458,0.02234343036978757,2.6409789535798587,-0.15304681353265143,9.434377261998428,-0.15355650078678207,0.1680677124311566,0.005345200629425603,105.92082636703383,15.624772570810386,0.9339803796223447,0.5964675928615263,-0.07545168881530293,-0.11369196715440599,-0.7908652166178205
344.0,-0.03540230789404668,-0.01156917125622869,0.028645453811858217,2.5395778762936514,-0.12435012306078393,9.462921054489701,0.25490405419717965,0.7272248973652888,-0.13200094186890998,106.07365953897596,15.008048377009825,0.750116094484456,0.5958686918513587,-0.07333507974811879,-0.1085852718777613,-0.7922512401743982
345.0,-0.04426960398636244,-0.017925517964857068,0.027197038471625412,2.5917817587605154,-0.12979160362323225,9.449022978070971,-0.2476850450886643,-0.5214196372732958,0.535113932094656,105.8598695757429,15.327027729024188,0.7852438015695293,0.5971352018501482,-0.07498094109927575,-0.11084040401864068,-0.7908439872369827
346.0,-0.06433779176501442,-0.03776291633884081,0.02820512820512821,2.567499848695757,-0.13776755633561297,9.456376162520929,0.8241315136476426,0.6588908894672073,-0.07417690492041396,105.61177979180536,15.177012094252454,0.8382355907926324,0.5989488570659081,-0.07410524961730112,-0.10987904827210554,-0.7897101348812765
347.0,-0.06356936795174403,-0.01919066351953843,0.01932364986180879,2.525872662349452,-0.04872170106316446,9.468225060017348,-0.24212385765296862,-0.7033879541649014,0.5366723657931369,105.52899670156751,14.92683708567855,0.2976288103451754,0.5997020591073048,-0.07671625632399279,-0.10523246894486474,-0.7895177230039743
348.0,-0.04392866509310254,-0.028757408864411235,0.016919889447033428,2.5053399503722087,-0.0918942887691904,9.47375061026045,-0.11803773527809722,-0.02481061752304864,0.14134464080372816,105.15501270955637,14.799546591619762,0.5546218402630676,0.6023786968746594,-0.07455079945231899,-0.10550636679343944,-0.7876549595743711
349.0,-0.05322187254130605,-0.03065460267505901,0.021261998426435877,2.5276569630212435,-0.10613375295043273,9.468019669551534,0.042146931549960645,-0.2922305271439811,-0.03828186467348545,105.05622541306059,14.934436467348544,0.6405930369787569,0.6029507785011801,-0.07470383822108576,-0.10684170473092054,-0.7870350665255705
350.0,-0.05815617623918174,-0.03867584579071598,0.023512195121951223,2.604856805664831,-0.0962478363493312,9.446846970889064,0.4096307041699449,-0.16835169158143193,0.2626893194335169,105.00913650668764,15.405549272226592,0.5809180763178599,0.6029659669303697,-0.07761199999488592,-0.10972991872423288,-0.7863398178300552
351.0,-0.03742977970102281,-0.048884736428009445,0.029489378442171515,2.595289142407553,-0.022412667191188028,9.450322777340675,0.980907012195122,-0.2301140833988985,0.6825149980330449,104.47491148701809,15.34958816876475,0.13088980133752948,0.6066635187688828,-0.08100499614535799,-0.1064509371394571,-0.7835773720739576
352.0,-0.08417859952793076,-0.05772462627852084,0.02863178599527931,2.537475216365068,0.09560818253343822,9.464673485444532,1.2264162077104643,0.6081284421715185,-0.15896931549960658,104.10721380802518,14.988276947285602,-0.5804976396538158,0.6093929935578286,-0.08435327973800157,-0.09997985011408339,-0.7819351017466563
353.0,-0.06638456783185344,-0.05013053089056235,0.030665786220074185,2.4949751039676302,0.23492971413585104,9.4728518976434,0.3535829024764902,0.06527703626690651,-0.04009755160915662,104.03049283934659,14.733409201603536,-1.4177929826533289,0.6100523295716158,-0.08874585967642651,-0.0937666778591098,-0.7817004869928067
354.0,-0.053239188231123724,-0.04903296703296703,0.026429546260191422,2.440623685454331,0.28481844499586434,9.485564220725509,0.4727457018787664,1.0903799997045964,-0.2844983309701052,104.2167263012525,14.405206487061326,-1.7163904643743355,0.6089832909481272,-0.08890414605964198,-0.09004743578444406,-0.7829570832851827
355.0,-0.0475115099298813,-0.051091621203344255,0.019597247559678715,2.211346166094593,0.33164919102664964,9.538035454186517,-0.1664521883997198,1.5711679453676406,0.30628299423170585,104.06890787426906,13.033201689636092,-1.9863546539023527,0.6108257985696576,-0.08355332332869983,-0.0790786612377177,-0.7832294049323238
356.0,-0.046993854886262454,-0.06059734482669179,0.02219624376410372,2.287083488240058,0.2256455042466057,9.521270284134959,-0.1304324032085145,-1.1060693760573284,-0.17843120646400545,103.91587666038393,13.493474369601682,-1.353707913103812,0.611587713597968,-0.08185524058931057,-0.08545244864600283,-0.7820944886719053
357.0,-0.05024800926846561,-0.054057720407051646,0.018715254061438168,2.329411138297842,0.14458986463313764,9.514498635379834,-0.8121963107702682,-0.7115829521907413,0.1453419547931743,103.89124133963335,13.749956229844113,-0.8619167761821184,0.6116501025960925,-0.07986683636753097,-0.08980260371639248,-0.7818206063014326
358.0,-0.058099013496338434,-0.07001775303112834,0.024058383263733385,2.3671500332869333,0.12593637152252415,9.507027174241966,0.060244305917004526,-0.6745281829369162,-0.1451411164235712,103.98728918275535,13.9771618854526,-0.75510651818677,0.6108719881904012,-0.08031183773386594,-0.09198491794085012,-0.7821765632730133
359.0,-0.06703867336440113,-0.05715487502269563,0.03231455143335553,2.4636526861546533,0.1467994109221489,9.480899755895821,-0.431634438862999,-0.4361546531098065,0.5235303314571607,103.88535173192922,14.556479352014364,-0.8830178639875728,0.611177433434001,-0.084292386619258,-0.09524974995138091,-0.7810926151715789
360.0,-0.07142162584334102,-0.05881440877506967,0.029708285420323187,2.605711173169867,0.0038743973047670605,9.443727387220699,-0.5277142540124444,-1.7854197828135672,-0.08203752057017202,103.658467237588,15.415224052763392,-0.01635274638815154,0.6121039213996653,-0.08313096342521102,-0.10563017246473169,-0.7791274723042338
361.0,-0.06569114337013629,-0.06441113829784167,0.027289233190098655,2.868158497678561,-0.09915249450261254,9.364940011470303,-0.24821983353651328,-0.9845421101321967,0.6257790367251421,103.50171099880973,17.01531757319523,0.6137748463181193,0.6118866430916501,-0.08758514886838838,-0.11973828609467899,-0.7766897312583327
362.0,-0.06045469086381754,-0.059694797727842565,0.027647838654919703,3.031776974664465,-0.1353435470902033,9.314633281745794,-0.11682632866739867,-0.3674092102494935,0.3559529573494955,103.07792852963978,18.00954495609295,0.8340419415360406,0.6139563161239598,-0.09187206115331298,-0.12730341870036857,-0.7734114622802847
363.0,-0.0496950282866884,-0.054657749803304484,0.022442021655239595,3.0496714248248473,-0.15665617623918182,9.311234873178226,0.08471722678056275,-0.7848876962271927,-0.13860008991794986,103.20433854108126,18.12115038777116,0.9628011314675359,0.6130541844734179,-0.09142533089805552,-0.12883544601626015,-0.7740155508317412
364.0,-0.030311715559551908,-0.04197088906372934,0.023416132778839308,3.0079710389269794,-0.15097560975609758,9.325129631711063,0.32636235060507285,-0.47220387958487875,0.15623595032033266,103.11989645386086,17.864961503877712,0.9253915177400622,0.6138547590148364,-0.09038617388726539,-0.12684590741410962,-0.7738550308722041
365.0,-0.022510209433891572,-0.04078490877074668,0.021096998988423064,3.076910194447567,-0.16363231051665356,9.302573526656925,-0.09734320557491288,-0.8883589037503278,-0.08231707317073174,103.0000093664531,18.288306451612904,1.007544677981342,0.614304617339178,-0.09226226380727585,-0.13004681030647033,-0.7727546837844217
366.0,-0.01164699711513244,-0.03794237758045782,0.01321943726349706,3.10223127646023,-0.19029841519613355,9.293904686973137,0.06683666779064106,-0.10612542617361653,0.3760993874339665,102.9074371979319,18.43839917949871,1.175937113633809,0.6147914371445431,-0.0920945901805852,-0.13186825431587423,-0.7720827587817989
367.0,-0.0648035292795324,0.056879809673672795,0.02797070173466713,3.477796897830729,-0.27714843954891166,9.12334097635907,-0.8709403450601326,-3.475379341351017,1.41068314225769,102.09013852984151,20.84100258514106,1.763630999213218,0.617486245705144,-0.10245415367093777,-0.1499917113998726,-0.764213937056798
368.0,-0.03963141133715484,-0.0476453486193848,0.03615278558315539,2.9189161140459325,-0.4175289048743023,9.299189689408415,1.0547708028923606,4.738673616574875,2.4904462178262334,99.19580851223259,17.397805440035967,2.5747878498370236,0.639507546367165,-0.08079570834775768,-0.1298852547060807,-0.751491532074482
369.0,-0.0156369850972526,-0.04120874221503647,0.02535089903539944,2.716702403287769,-0.37597732741949896,9.382148759449311,0.7323515849479658,0.3578326423772924,0.31783275405423317,98.58826050195543,16.1283117256465,2.2980299827369066,0.6449253500634873,-0.07636312587867417,-0.11960874611607772,-0.7498829700682887
370.0,-0.012964047229979566,-0.03644622791318307,0.018033435355622615,2.7052748837839315,-0.33346466685687765,9.399992554390275,0.48084927791851473,0.15752568389517635,0.22404717954481923,98.38429055782271,16.03430731837006,2.026965424098587,0.6465747944377229,-0.07792858254594606,-0.1172810500564653,-0.7492159294204541
