time,linaccel_x,linaccel_y,linaccel_z,gravity_x,gravity_y,gravity_z,gyro_x,gyro_y,gyro_z,euler_x,euler_y,euler_z,quaternion_w,quaternion_y,quaternion_x,quaternion_z
0.0,0.035476190476190474,-0.0638095238095238,0.023333333333333327,2.655714285714286,2.96547619047619,8.953333333333337,0.5386904761904762,-1.1175595238095237,-0.4181547619047619,47.601190476190474,15.717261904761905,-18.31547619047619,0.8948248007142858,-0.18944731190476186,0.08565993571428573,-0.3950064519047619
1.0,0.04706349206349207,-0.07222222222222222,0.03158730158730158,2.6915873015873015,3.0448412698412683,8.916190476190476,0.4682539682539682,-0.269345238095238,0.15724206349206343,48.06349206349206,15.938492063492063,-18.842261904761905,0.8923485169047616,-0.19338262634920633,0.08796764571428572,-0.3981802804761905
2.0,0.037870416459266636,-0.06830429732868756,0.023572258171561306,2.7217604114816654,3.052109673137547,8.904708810353407,-0.03364028538244562,-0.41072984071677443,0.029061929649908745,48.28940600630496,16.116496598639454,-18.905394474863115,0.891284537767546,-0.19518550801725565,0.08731200663016425,-0.39983123699850676
3.0,0.02516492450638792,-0.06590708478513357,0.030174990321331783,2.754726287262873,3.0434924506387926,8.897879984514127,0.11287262872628726,-0.19246757646147888,0.044514614789005036,48.44775454897406,16.310714285714283,-18.870930120015487,0.8905646353391403,-0.19670180456678282,0.08596819763375921,-0.4009937572024777
4.0,0.014370124761155446,-0.05472923457345172,0.03640725338128957,2.771383687385261,3.0454318309542545,8.892264508635865,0.12800288486755834,-0.04312947248136073,0.003797394252744366,48.481978007568095,16.412442396313363,-18.89641780000749,0.8903028216157131,-0.19759449743554003,0.08564678362923833,-0.40121169683990854
5.0,-0.00190326327226406,-0.040787044322056126,0.04453696002397811,2.801567419729496,3.0459824285339634,8.88275591023191,0.20853869281780377,-0.10273313101794612,-0.03732461316548649,48.52645367352291,16.59787826420891,-18.911668961447678,0.889922854538271,-0.19912653852575773,0.08495630239987262,-0.40145031338923226
6.0,-0.0024493274886665936,-0.043547900041212395,0.03317631411337155,2.7920494548724286,3.0989182495972427,8.86651313176726,0.12389780263010003,-0.6675724026825521,-0.7935807013600089,49.10041001648496,16.544114823348693,-19.248485210370536,0.8875143981239744,-0.2003635986246301,0.08669815460777042,-0.4056991418113596
7.0,0.1442112135176651,0.29579646697388623,-0.07995314900153613,2.4004055299539173,2.3480145929339478,9.147706605222734,1.7637240783410137,8.514064900153608,28.98171082949309,139.24683659754223,14.16802515360983,-14.417746735791088,0.9313917404585252,-0.15566465264669743,0.0798582761858679,-0.22925463789938552
8.0,0.057024586939417775,0.2604616443745082,-0.01235818253343824,2.293937450826121,1.9740096380802519,9.284440204563333,-0.41549591856805645,4.028889653815892,13.191728953579858,108.23158561172305,13.529446547993707,-12.024580792682926,0.9608403265513372,-0.13543567149803307,0.07920526690676634,-0.13537407463119588
9.0,-0.0014917387883556371,-0.05163611329661685,-0.01460247836349331,2.2773719512195116,1.5865007867820613,9.370881392604245,-1.114880015735641,2.549172649488591,5.763354396144768,64.87201760424861,13.427500491738789,-9.62164019472856,0.9673551945780879,-0.13029983979740364,0.05919698619531864,-0.16040534635995277
10.0,0.06850531077891422,0.11914968528717546,0.05417722265932338,2.1609848544453185,1.6769624311565698,9.387350314712824,3.9169219610542876,3.8347278225806445,4.390588119590873,43.782127753737214,12.735485100314714,-10.128986772226593,0.969198387502557,-0.12573377492328874,0.06425161545908732,-0.17789206129858376
11.0,-0.12056589299763965,0.21169477887764623,-0.004598091596069741,1.9025063994657199,1.9049181060509028,9.402397869284394,-2.758799779975482,-5.133975290697673,-15.862484447331344,37.45064986711617,11.213019299032075,-11.430763664620423,0.9592740461628503,-0.11787516595245456,0.07282893011120158,-0.22121903287622363
12.0,0.18339005657337673,0.019520008486442184,-0.020304806166698473,2.473137416322722,2.3776374324417344,9.13507201451931,-2.1727730658709974,-8.233391495195228,-18.82854925131544,56.73183775037836,14.653701469792535,-14.623620359575956,0.8478661802828461,-0.16818829182376954,0.040237113046000174,-0.43550581524552345
13.0,0.10641422202240454,-0.0480418765405637,0.010103113757533469,2.7598190547201265,2.6714742930070496,8.98432762241083,-0.9945063111378891,-4.324619298607317,-9.12639434766139,65.02816574679385,16.377492805257063,-16.58116244272305,0.8114688415645619,-0.19484393808396522,0.03336561839666537,-0.5178039526336269
14.0,0.12564534861938473,6.39358445883205e-05,0.053381611953511036,2.8935809475016843,2.5349162377702434,8.982305628671977,-2.269921084365168,0.3653844645830451,9.204771576169303,62.900941154278115,17.17363035227448,-15.720573599410304,0.8270788816965218,-0.19808358348179378,0.030114248229017183,-0.5059243685181314
15.0,0.0460432355475628,-0.01222609659383487,0.01737024848546631,3.021406823831393,1.7269099940490347,9.10988272329406,-0.9008940497319451,-0.5431446602939933,5.186613617690137,50.95546289664751,17.953941501490355,-10.702997123409771,0.8781104569525658,-0.1841056562296759,0.010416994228591991,-0.41762477868583875
16.0,0.020558989921696393,0.011312802068112847,0.005509909707392002,3.1761397100146116,1.5046703008504738,9.110303098422687,1.9376966955153423,-1.211908976808662,-9.024171303060957,47.97592001985688,18.89120864710951,-9.370855344498144,0.891652585868832,-0.18562732486250047,0.003110533821887529,-0.39650714486512306
17.0,-0.0161567569592747,-0.002891986062717773,0.0018140946386422413,3.113311790491177,2.4422698662470497,8.892094713573861,2.009650959124799,-1.2731491888651605,-6.324657656138774,53.050003980742574,18.50863235734892,-15.325260621557826,0.8702953343898692,-0.20627553343355437,0.04027677609681166,-0.43431821927971975
18.0,-0.03924581319545916,-0.04079315124948483,0.018433929039751225,3.0131958338016562,2.908657974598179,8.80908883144131,0.16297160091416574,-1.2066590798396462,-3.799857629912705,55.15957860327451,17.891964988198268,-18.22433826008767,0.8618742359660558,-0.21284545997714585,0.061202133394027955,-0.45029219434416096
19.0,-0.01718762878873029,-0.061892585515716914,0.026147390506163132,2.996703945150051,3.1024884792626723,8.772403619197485,-0.1901916844629275,-0.8341493855606759,-2.6941876475216366,55.98759530366041,17.78900659398299,-19.441443276759955,0.858608806579746,-0.21640405804409724,0.0694611200322206,-0.45661159367876814
20.0,-0.004695964931999553,-0.05737102394065416,0.02964819602113072,2.9700685624367766,3.209216589861751,8.760391517740064,-0.08835141058783857,-0.18413978494623656,-1.9797263122400808,56.87703017871193,17.627894234011464,-20.096441684462924,0.8553041283282754,-0.21763089174478287,0.07368763118354502,-0.4634982555490615
21.0,-0.009921766155824671,-0.055664451827242535,0.028997427928410674,2.9313176508412817,3.263179187654057,8.76171507162505,-0.16071093666273709,-0.476634783695924,-0.8634725645697139,57.52367109634552,17.389608562854995,-20.407463473011106,0.8529331150918086,-0.2172628434930161,0.07599373842299861,-0.4684908563117565
22.0,0.01331868681456079,-0.05427999857107135,0.02425677848033437,3.1163846318722532,3.252814632229486,8.697869824599007,-0.08911602900725181,-0.5163511860107884,-0.15106231915121637,57.42283785232023,18.530057737648697,-20.491414148179903,0.8518495788323865,-0.2258474943809167,0.07114388170381881,-0.4669045055944343
23.0,0.012289143714500059,-0.058791304969099414,0.0254463615903976,3.2006155110206125,3.173058621798307,8.697959489872467,-0.4292066320151466,-0.08039621512520989,0.6807092398099523,56.34256331940128,19.052111242096238,-20.02472493123281,0.8561909981527525,-0.22710840664130322,0.06748814756081878,-0.4588371540376166
24.0,0.002096203493382058,-0.04599253907553544,0.02385446100201008,3.165949357548446,3.093424331692679,8.740444658202879,-0.03204938865378365,0.33746489213766856,0.6523060969946319,55.369167885394695,18.83553259830637,-19.47763399909211,0.8610517545107923,-0.22272273920409547,0.06649124913202603,-0.452044807957046
25.0,0.014876058735938343,-0.04577583943024085,0.02831970361928462,3.149606783228908,3.045133056783359,8.7637092722658,-0.09482653764486416,0.09998724637605391,0.33885466140054177,54.91659719154527,18.733895331411247,-19.152757091711955,0.8634091730103883,-0.22037638876794635,0.0655143543763049,-0.4489388177273708
26.0,0.013346671162564161,-0.051145929339477744,0.026938930725712795,3.110707916526169,3.0271490764677225,8.784914577947623,0.04373337454572702,0.3290776853621071,0.2395304128732531,54.60952942939567,18.493526375931964,-19.0109149619722,0.865099564637593,-0.2178144338043161,0.06617289272627477,-0.4468983564901652
27.0,-0.0009292270802892322,-0.056458843805027914,0.030915889251058416,3.0698793600839225,3.0439703645423535,8.793474392117195,0.18794443820014237,0.10323306545277434,0.08789175190138995,54.2417706342962,18.241057847214414,-19.08282028586415,0.8667567251442807,-0.21604631583709866,0.06861567291993557,-0.444206322330823
28.0,0.004034618410700236,-0.06642604248623132,0.03360464201416209,3.0687246262785193,3.0519583005507473,8.791913847364281,-0.0036708300550747364,0.05146292289535798,-0.022619984264358774,53.9928083202203,18.235803501180172,-19.125213906372935,0.8676834762879624,-0.2160386489661684,0.06942556162509836,-0.4422990900118016
29.0,0.023917387883556258,-0.07709185680566483,0.0356968922108576,3.0917383949645942,3.055212037765539,8.782278717545239,0.10135596970889063,-0.07954981313926043,0.09495476003147128,53.71338390047207,18.375105723839496,-19.16365927419355,0.8685341212163651,-0.21707702292918962,0.06960176788571991,-0.4400841158831627
30.0,0.02160001498632498,-0.07184796373309355,0.03513896069836275,3.0441814094638637,3.090943576486456,8.785831179049117,0.5369935090479937,1.093502023153872,-0.4615375969427897,53.593621913753694,18.081151652242326,-19.36267281105991,0.8690700089768463,-0.21559359788778995,0.07264828824566336,-0.4392168535594768
31.0,0.03704387246637444,-0.07003829006031995,0.026250121763890456,3.029741785620621,3.0990252332246815,8.786565696302127,-0.12831537315949193,-0.7503458562811435,0.40092938630999214,53.79019707017346,18.000912409613726,-19.408519725750253,0.8683262264222211,-0.21528301365746888,0.0729676089823349,-0.44071408006511553
32.0,0.009839009403918924,-0.05867296092315761,0.03218328275448653,3.195301262597879,3.2615999494211527,8.657979150275374,4.902404075812071,-2.0632826842381324,-0.13503884736428012,52.98569157206549,19.0232040411562,-20.666361554456557,0.8682800172425817,-0.2272986401308587,0.07885133156984564,-0.43308646684845087
33.0,-0.012849574763028733,-0.03478258589037503,0.025833576861114232,3.029863849237571,3.4728490502416545,8.62495830055075,-1.845109306507811,2.1711972200367167,-0.3116345397324941,52.69522826046233,18.002128058146937,-21.94434078903001,0.8686823720820501,-0.22426916343059455,0.09309932106275523,-0.43053265914255745
34.0,-0.002331160316211455,-0.04129294518751639,0.025605222734254994,2.8972041512120192,3.32582263684388,8.736012588512983,-0.8453024896032365,1.1602986493574614,0.5300845790715971,52.438477623543506,17.190309701772133,-20.848861975946946,0.8722762595705293,-0.21377728183724848,0.08941955409235322,-0.4298417985335132
35.0,-0.01532784459180997,-0.029527649769585253,0.02936615338503615,2.802563804278596,3.216193323592221,8.814001292570525,-0.6179453045970549,0.6455031658611518,0.2966909491963583,52.38532651455546,16.613914685661832,-20.044750688434306,0.8743011961997866,-0.20630811459111686,0.08634630968938967,-0.4303300307941441
36.0,-0.010425059008654603,-0.03470161290322581,0.025753737214791503,2.772364083398898,3.149124311565696,8.851325531077888,-0.3152082513768685,0.6331874508261212,0.11564098151062155,52.79266325727774,16.425827350511405,-19.57499631195909,0.8736226149616444,-0.20338730842151853,0.0830822993723446,-0.4339144717818647
37.0,-0.028726593233674276,-0.041254130605822184,0.032909126671911884,2.6745767112509835,3.118380802517702,8.894219905586151,-0.5057336742722265,-0.4338881785995279,0.027416896144767902,52.56401947285602,15.830814811172305,-19.30543617230527,0.8755070648312353,-0.19766672118135328,0.08416745424429582,-0.432675159218332
38.0,0.006218172792326995,-0.01931257727323817,0.00789849574763029,2.6216120977108393,3.097625641602038,8.918692883368923,0.24862828294181558,0.739798117811247,0.11200937347795135,52.100434018021055,15.504924939586378,-19.13888032248698,0.8778154688188997,-0.19419499542957366,0.0851819850988067,-0.42941884488304105
39.0,0.0018269266794050394,-0.010754243003259525,0.014234161327788394,2.5865749316248925,3.1026385485744257,8.926980292982652,0.1084186851373122,0.5352406944288336,0.2940953879584879,51.46914034693342,15.293667106889963,-19.15277083099172,0.8803854912752053,-0.19215744291000714,0.08725293932664568,-0.4246353095374097
40.0,0.00405587089281031,-0.015388923232550297,0.01509819789442134,2.589721769510322,3.0826245457270236,8.93328400959125,-0.017579603143381653,-0.2895590390955754,0.123975310029598,51.123781424450186,15.31630149207598,-19.02638541549586,0.8818062984322526,-0.19161404076892957,0.08678788146426698,-0.4220453672871942
41.0,0.004073530979903914,-0.021462348299484412,0.023075153537781393,2.6126775721000746,3.0600933936244705,8.935006562281151,-0.08678750111676939,-0.10855704746342043,0.1525480354945343,50.844862176244945,15.450816430487949,-18.89139395878184,0.8828719311095299,-0.19195038781436552,0.08570711251201356,-0.4199125643038535
42.0,0.008570990509621509,-0.03022763363046605,0.018193753008072442,2.6019170708651425,3.0429459887083796,8.944045373980856,0.006689845035635758,0.20292544951769967,0.12554624434050082,50.66176035641516,15.385223321459552,-18.780841550594694,0.8837525561920582,-0.1908793147254361,0.08542737812461418,-0.4186178574863092
43.0,0.004982942968387501,-0.028779479109927578,0.027087837156287195,2.604488016703988,3.03859694567169,8.944527708850291,0.010069045169359882,-0.4088173177792572,-0.21880182170308052,50.64815648389114,15.400540660493453,-18.75396650376243,0.8837999598462951,-0.19091070926807074,0.08516819436834513,-0.4185525929626984
44.0,0.0172734204557572,-0.029568826138456353,0.013455311931708472,2.6455548621978595,3.0419828982976105,8.931203009945733,-0.07212046411495664,-0.15127394119452536,-0.06451920915433895,50.81063504011723,15.650635153595422,-18.79950746416251,0.8828995721096522,-0.1931074817489805,0.08418395366575812,-0.41964231272952274
45.0,0.013836210995927753,-0.025890403852638317,0.020347855658634575,2.6925072698086074,3.02290849984005,8.923713640149517,0.014746219555424905,-0.08136493718712444,0.056771693425902714,50.87659968211699,15.935446225031196,-18.701497443678797,0.8824914116542882,-0.194933541980097,0.08213023647746431,-0.42005378423265693
46.0,0.011034258162503635,-0.01925324871823692,0.014593164506618482,2.711734551836834,3.0036981350671357,8.924316349792353,0.14807749947403762,-1.218729555914843,0.09008456466166931,50.80571166310742,16.05162879017128,-18.585679449713673,0.8827511935820774,-0.19537223541282994,0.0809170945001052,-0.4195398349368413
47.0,0.020190614525783687,-0.04587760783669516,0.019656928437416246,2.860568298735097,2.932285731577627,8.900112541536615,-0.04299508189162006,-0.012369301954274436,1.3330782776101422,49.793886516054094,16.960437723173758,-18.215710495903256,0.8858181175030764,-0.20026604642789414,0.07604778201401799,-0.41145228354631214
48.0,0.021924918511857933,-0.04148057397624668,0.014693642051627891,2.9273461841070025,2.8722694166573,8.89856247424225,-0.31400167659510697,-0.3073994979581132,0.438959527556105,49.026513150500165,17.368763113034355,-17.872552311640625,0.8885219388557566,-0.2016349122627477,0.07309417174811736,-0.4054791843935035
49.0,0.006501629762841406,-0.0365221610280619,0.02566172117942378,2.9227276235435165,2.834983402645086,8.91201779626091,-0.1626411992806564,0.5622180697613428,0.15733978681952715,48.84760757371399,17.335567232400432,-17.632152691918623,0.8895129773503053,-0.200404161024615,0.07174132163826757,-0.4042294643373047
50.0,-6.144393241167738e-05,-0.03565374096137275,0.03304207410737702,2.889603386909445,2.828524633771683,8.925122550672508,0.053280600202315384,0.3738825821437938,-0.08144669551534225,48.799689502079346,17.1351590892061,-17.57487378704432,0.8900080626556142,-0.1985876291346896,0.07222475792630474,-0.40397812857408866
51.0,0.004354838709677419,-0.03735759244689221,0.02114162077104642,2.878993705743509,2.8331947285601884,8.927638080251771,-0.1107444925255704,-0.316610936270653,-0.23548141227380015,49.0606166404406,17.074026357199052,-17.595837431156568,0.8891175375420928,-0.19833841784461054,0.0721747947588513,-0.4060644408623132
52.0,0.004170975235097973,-0.029446283391405346,0.028487711213517668,2.9267755235847295,2.847973670900303,8.906918774118617,0.24010071278708178,0.3965444812858266,0.4517923293432243,48.83401439155521,17.363754870555617,-17.721643004664493,0.8894298142399311,-0.20089408162602557,0.07227420546323667,-0.4040558652282792
53.0,0.0059725843917425355,-0.023420722340863967,0.022848694316436255,2.872710342437525,2.827676351579184,8.931354548349631,0.16304430800644412,0.15976417612678429,0.1889253985425799,48.503549534487284,17.031020580439098,-17.557318478138697,0.8911539988054495,-0.19755294088156117,0.07298503500984414,-0.40179466958188137
54.0,-0.008092484358023302,-0.02290961372747368,0.019789610730208684,2.828400509535049,2.832632235585028,8.943971825709038,0.33433121183170356,0.14478546139148027,0.3371081310179461,48.210718266456865,16.760368546513806,-17.562712150162973,0.8924861935957813,-0.19528373237557597,0.07465365913011876,-0.3996504819128919
55.0,0.0068782267430969254,-0.02915346933423251,0.028006528417818737,2.748771458544079,2.858794481285826,8.960278595781354,0.06928500009366453,0.4990990642913341,-0.15304310207560598,47.81046338185156,16.27736169261174,-17.683942621108237,0.8942602073997789,-0.1916911350784253,0.07821855939983513,-0.39671053699499825
56.0,0.011984058296804163,-0.013456258663969125,0.026190813382788204,2.7359655876512683,2.8728974373384277,8.959490202690048,0.12377322880371662,0.1893299707766663,-0.2546053679142782,48.13812286913192,16.200670052639467,-17.76589194391368,0.8931108682335243,-0.19163879776649428,0.07861579369952418,-0.39925897543278627
57.0,0.007370972785410233,-0.019192680909439368,0.023772176158486154,2.686413610320967,2.8838716183501774,8.971526679981443,0.1048752118259396,0.31412210756722947,-0.1265087869938873,48.32879313431782,15.896591525197199,-17.809298181575176,0.8927259618084791,-0.1895861559274395,0.07987628784881681,-0.40086502688069653
58.0,0.018520163812059953,-0.026854404970848712,0.021547378401823723,2.7097914825798384,2.8833591962718623,8.964182694829429,-0.07926602311928826,-0.5801365268615465,-0.29090056285178234,48.62120100264278,16.04620402872763,-17.82241622788436,0.891526683363917,-0.19095783020968748,0.07885312595666645,-0.4030457530734128
59.0,0.023029554762048862,-0.01615812302043616,0.017978252536867804,2.746701406120761,2.8852185438479694,8.952355706187333,0.27021651637111904,-0.5911845104803406,-0.17636098166192576,48.68086505678953,16.268042022231636,-17.8521109463576,0.8910379526017068,-0.19285968088926542,0.07807044630720812,-0.4033793011488228
60.0,0.014953014989206965,-0.015313522564506046,0.015830196292037364,2.817792087796809,2.887089995763481,8.928990598963061,-0.010667705622465634,-0.1194022473723497,0.031385795557707444,48.645064707781074,16.699323922209445,-17.905722074280295,0.8906411193968407,-0.19633944515352336,0.07675773478617684,-0.4028400837294076
61.0,0.02604377736085054,-0.021607980794448145,0.011400542677883357,2.8518708668724395,2.87597064697694,8.922337156287195,0.041204306118743574,0.17416000927999353,0.10693011257035648,48.64763070164821,16.907711725070104,-17.855418078839598,0.8904685571618347,-0.1977469616239686,0.0755119217353386,-0.4027877866971191
62.0,0.028976396538158936,-0.016209284028324153,0.010122934697088908,2.846976789929189,2.872600708103856,8.925482887490165,0.019780192761605038,0.07159716758457907,0.10848987018095987,48.531517997639654,16.87470987411487,-17.831699940991342,0.8909520038737213,-0.19732602446872544,0.07565835337883556,-0.4019149592716365
63.0,0.021633359559402043,-0.01994335169158143,0.013396144767899293,2.8384561369000787,2.8659697088906375,8.930664830841858,-0.29570466168371357,-0.4064393194335169,0.10575703186467349,48.44252311172305,16.821024291896144,-17.772755212431157,0.8913858588078284,-0.19667028770613693,0.0756124982055468,-0.4012737567204958
64.0,0.02686429882732007,-0.030397175077741558,0.018630100033719232,2.7764794125360606,2.9479806301749663,8.921675733393279,1.2792382029523062,0.8022646912817053,-0.1476195159417032,48.14904333389532,16.441001297253756,-18.26786042111573,0.8922073872512644,-0.19526001833885953,0.08141311645895619,-0.3988870192544492
65.0,0.042519482222471996,-0.04478946086695889,0.00958648982803192,2.794215316024128,3.0299147840095912,8.887800887939754,0.8456822407365779,0.35744135429545537,-0.11735322767974224,47.984238425405564,16.557759696620586,-18.807366481210895,0.8919604197743338,-0.19797000537320636,0.08529903103435615,-0.39724872678694134
66.0,0.03675505243906796,-0.0430845278828418,0.018235668019792404,2.718141791545448,3.1066691324399045,8.885584239918863,0.07546736286641353,-0.16609658185452295,0.08793933702284457,48.07248363974705,16.095573279480583,-19.25301979349367,0.8916093276209441,-0.19606797741437887,0.09042110279512255,-0.3978972310717339
67.0,0.04405264142690724,-0.04114575856507681,0.02088876334937393,2.7550493903963797,3.0835726614580476,8.883456290466341,-0.18425772601687004,0.1583711599175926,-0.3817323764194533,48.01719900113312,16.316681849033685,-19.12497619859015,0.8917254669846273,-0.19730337837193596,0.08863570245055667,-0.39747509928663494
68.0,0.02658961778772219,-0.03747010358861494,0.02193716111954818,2.758124470141926,3.0924164882684084,8.879136434805567,-0.036690003293506294,-0.4689137495610836,0.1805909338832966,48.30120136196941,16.33754197477941,-19.18745469250588,0.8906270037408133,-0.197914565887112,0.08852972823549965,-0.3996432218238313
69.0,0.006758710583569238,-0.03738712552702637,0.0341828662740598,2.8895307450556023,3.028224373166462,8.858258693593259,-0.43345156846702965,-0.9806406305409106,-0.34197219818892,48.859870074225874,17.14145723930983,-18.860672430738347,0.8881560237444466,-0.20332336803956214,0.08166994543111387,-0.4037663664994733
70.0,-0.007855892544564709,-0.04110992033722717,0.030224699031900833,2.9228167756224774,2.9864912656735605,8.86239524166756,0.10109670274711532,0.392580287929125,0.43011422498481766,48.988535080198616,17.342281999071197,-18.614383506590933,0.8878127590733397,-0.20405253404994103,0.07877335514521487,-0.40478952139499164
71.0,-0.009223198656807055,-0.03328957239309828,0.02796038295288108,2.914096381238167,2.9680818418890427,8.87161790447612,-0.4670620780195048,-0.9383216339799235,-0.6828492837495088,48.81631568606437,17.29383350301861,-18.488888963312256,0.8886368402943592,-0.20310232928553568,0.0783289015661058,-0.40355228879380556
72.0,-0.0019887114635801792,-0.04773157575108063,0.02048940806630229,2.9578008787911267,2.9505962204836917,8.863105419211944,-0.09372209123709496,-0.11264199978566064,-0.3120467616904226,49.16660638373879,17.552086682384882,-18.407150894866575,0.88721733609188,-0.2050374672157325,0.07597732236523413,-0.40615602182009775
73.0,0.007541680716346337,-0.03918717919898093,0.019318496871604664,3.0326952905473754,2.9158793226181103,8.849197669626466,-0.1718158742647334,-0.19766845565921096,-0.35178173354314185,49.6778279663557,18.013967723202576,-18.226674019332357,0.8850668147755798,-0.2082158879942677,0.07177741593121276,-0.4099777657686111
74.0,0.0059252182383575,-0.0396358323030235,0.01985894121614027,3.1142278296054844,2.910931212768349,8.82260574725563,0.1998543516541156,-0.7592844966468099,-0.5254732400434603,50.16396678655727,18.516488469896217,-18.252857939005658,0.8826835850644412,-0.2124549331484395,0.06890893861844816,-0.4134041591899891
75.0,-0.000743134389869237,-0.05534318684200666,0.024624779888351878,3.1857927765913594,2.943435615001311,8.786191225506725,0.08114392491851186,-0.7289898748641865,0.10010748004945486,50.366730592709146,18.956839384062043,-18.51341159004908,0.8810941737771157,-0.21688939223970624,0.06856250270128507,-0.41457216005114084
76.0,0.0015405942077854015,-0.06539620096661797,0.021968453785920345,3.183804091266719,2.957939942302649,8.78209677419355,0.23883167547113257,0.18899394927128976,0.11573306545277434,50.24087590386273,18.945353770934023,-18.604253306357947,0.881455663633247,-0.21708328967741936,0.06950734276816156,-0.4135789458652729
77.0,0.0009208347383013026,-0.057771833202203,0.019930463452099957,3.120627852084972,2.964890862088344,8.802411674347162,0.1378442171518489,0.905700891686336,0.3702657262747742,49.79432908096362,18.552179573639055,-18.60059055486868,0.8835453723273761,-0.2138006206144393,0.07202677715289796,-0.4103625980831741
78.0,0.007285751751526733,-0.05006766325727774,0.019992769098197895,3.0343650668764752,2.955609868494998,8.835712524821103,0.2921370967741935,0.8150750721216888,0.4521765295417931,49.1465400322206,18.02270170656776,-18.477999840770295,0.8866375403493685,-0.2088691339901465,0.07458912457802255,-0.4057019323452849
79.0,0.02233831628638868,-0.047425649095200646,0.026523210070810384,2.963134539732495,2.9621707317073165,8.857929976396537,0.20044256490952006,0.5162077104642013,0.6158831628638868,48.58703284815106,17.586359166011015,-18.478270062942563,0.8891192087096774,-0.2051593341526357,0.0774040647057435,-0.40162406805979545
80.0,0.013230527143981128,-0.03870889063729348,0.02453147128245476,2.9696994492525577,3.0716801730920533,8.815651848937843,0.14404012588512982,-0.027807828481510588,0.08311369000786784,48.003631490952,17.62562450826121,-19.19942220692368,0.8901324378166799,-0.20765618316758455,0.08371429818607395,-0.3966507713162864
81.0,0.01664270945785227,-0.04204844198854593,0.014231592959215413,3.023230874791869,2.9646345717526943,8.834055317182955,-0.5480631209631677,-1.381169892320641,0.20991905750827952,48.11548802787587,17.95766535002653,-18.540634977723087,0.8902026128516733,-0.2079539766437158,0.07720933125284521,-0.3977035923691197
82.0,0.011963958977549266,-0.042113717453753696,0.014886154465445632,3.246377239126855,2.8859833952390535,8.778753169999817,0.14697797925091027,-0.9216407093389201,0.2501773690373813,48.05561417031087,19.340743817814207,-18.18685896702834,0.8891011078902349,-0.2172238988391671,0.06890612111058861,-0.39665093064443396
83.0,0.006743308213813035,-0.04581722739047133,0.020023722394013142,3.3990966456770986,2.8303384718130755,8.740107767795607,-0.3289111639843759,-0.8391121653453433,0.11615531278289956,47.98206975796649,20.289450729951653,-17.932688796110178,0.8884219796786046,-0.22353939418072027,0.06319635453916528,-0.39568986160658726
84.0,0.007946791793767255,-0.06171663887226163,0.023457966625802795,3.451275309463255,2.817513846449417,8.725372530632658,0.11917935113133682,0.18432373636745425,-0.5225920918382905,48.1639548239085,20.60754991257614,-17.880831022760045,0.8874511278959507,-0.2259148272083774,0.06113489418539696,-0.3969363278528608
85.0,0.014487262930715256,-0.06232911015210248,0.023824675681115404,3.471989051269786,2.8645221671271477,8.702952689391857,0.25964499617935843,0.15491204029230302,0.39523916257810093,48.266003892088,20.733985543424183,-18.204278857170735,0.886560576947582,-0.2280769073966749,0.06274510160430352,-0.39747971565990803
86.0,0.013767262373084555,-0.07080521524109248,0.03416365066876475,3.4203853733468206,2.86391974822974,8.723827432467871,0.20466777190813384,0.5987097710838859,0.2237729946423888,47.85985866022254,20.40799052114945,-18.163317223033978,0.8884695135720655,-0.22522996626847996,0.06460873485916602,-0.3945405015943952
87.0,0.011049642201491135,-0.07840024727436212,0.03105507474429583,3.2783594844704202,2.8733013375295045,8.77404982953055,0.07027251695328013,0.8179671986812034,0.06376985688059644,47.46983393278633,19.525641602038142,-18.11937497658387,0.891024513922146,-0.21805299942062867,0.06871661619826908,-0.3920379965289049
88.0,0.012977970102281668,-0.07840519276160503,0.02531785995279307,3.2452911093627064,2.855037765538945,8.793175452399685,-0.1081481117230527,0.00432730133752951,0.11416699449252556,47.44494000786782,19.325368804091266,-17.980664830841853,0.891556302461841,-0.21603571251062154,0.06855316993784422,-0.3920463314618411
89.0,0.005037372147915026,-0.07577380015735641,0.030544846577498036,3.215861132966168,2.848651848937844,8.806332022029896,0.31764604642014166,0.5444974429583005,0.17808566089693154,47.22588267112509,19.137531963021242,-17.91776652242329,0.8926325402875688,-0.2142233551333595,0.06928628829386309,-0.3904892414484658
90.0,0.020063926042486233,-0.07364614476789927,0.02306549960660897,3.165448269079465,2.859278717545239,8.821285601888274,0.026643636900078677,0.07466807631785996,-0.017812008261211654,47.09287839299763,18.83027266915814,-17.95047452793076,0.8934464023664437,-0.2118948982708497,0.07106228398170733,-0.38960850672738
91.0,0.03272934697088907,-0.07282297403619196,0.016877655389457118,3.173349724626278,2.8634893784421713,8.817398111723051,-0.03719758064516128,-0.6204366640440597,-0.5299518095987411,47.31643636900078,18.882056451612904,-17.981240165224232,0.892568479422502,-0.21254015345554683,0.0706350188418568,-0.3913242292985838
92.0,0.026799276909819786,-0.07154411599415532,0.023969718257090402,3.2309197388632875,2.8945939642576155,8.786114102131805,0.09259037456445993,-0.3170078397212543,-0.29972193342325126,47.86919754083773,19.23916828237983,-18.223000613502677,0.8899115806353453,-0.21650100518755389,0.06993965199632834,-0.39527847369353897
93.0,0.0035984976209209076,-0.07933716421265594,0.02047826982878124,3.290632076355326,2.896834747667753,8.76269945861901,0.11803557378891762,0.01657721703945153,-0.03205387583829754,48.12701677297591,19.606725171874416,-18.278558725319396,0.888480436422708,-0.21965351247556297,0.06834207703986363,-0.39703785383132884
94.0,0.011658611516990745,-0.07675620995841294,0.041767262373084556,3.3108448540706603,2.900623805777229,8.75402232962422,-0.0063785545689558215,-0.32947201303810275,0.21520830991720058,48.12055561799857,19.73360636544153,-18.32258298677457,0.8882910309696153,-0.22076240622981533,0.06815165532126935,-0.3969097643381664
95.0,0.014173916301374996,-0.07335843542767224,0.038047281855307036,3.2917072421415456,2.8987076542654826,8.76243917425349,0.08542205237720579,0.16638614139597613,0.14901839571391107,48.046518957701096,19.61449692780338,-18.28949271289948,0.8887460266578996,-0.21971150517470311,0.06857384410280619,-0.39641671631778497
96.0,0.004608594657375148,-0.06912610992469369,0.03394102881120978,3.281943314225769,2.887540294481285,8.77008268704807,0.02928655726649432,0.1418329212093964,0.22451411524483908,47.893809242815934,19.550880446592487,-18.21059018021056,0.8894477119717505,-0.21887275335446404,0.06851160563126148,-0.395313472037728
97.0,0.022619197482297404,-0.0667128245476003,0.024729346970889066,3.2713579858379225,2.8674429583005496,8.780188040912666,0.02247738001573564,0.48998328088119586,-0.006776160503540518,47.78027635719906,19.482400668764754,-18.076224429583007,0.8900931298583792,-0.21778344512116443,0.06799589583713611,-0.3945496855342249
98.0,0.01922147915027537,-0.07221400472069235,0.03015381589299765,3.181576711250983,2.8912525570417005,8.804973642800942,0.3026971872541306,0.5923460857592446,0.0799468922108576,47.584409421715186,18.922656864673485,-18.170070318646736,0.8913640510322579,-0.213713307713218,0.07137211741424075,-0.39327478766011015
99.0,0.003626475216365067,-0.06407238394964593,0.03407376081825335,3.147194335169158,2.895845003933911,8.815590676632569,0.17076244099134538,0.16182508851298189,0.3237755704169945,47.34009515145554,18.714008408733278,-18.170509195515343,0.8924666397159715,-0.21196614650491738,0.07272852557572777,-0.39147480399527934
100.0,0.008048068637368396,-0.07170593083811022,0.03504859315874265,3.099627889550784,2.9170346371436064,8.825930706979879,0.4222127777153347,0.2858100576973512,0.03318194803491814,47.13718587257877,18.419361395226858,-18.277868125023414,0.8933942361782623,-0.20993718550149865,0.07510790895011427,-0.38999661084326176
101.0,0.009720519415568177,-0.07801341406780266,0.037937448647876265,3.0364647233236877,2.9661571553602686,8.831432134819416,-0.051742288250634094,-0.09610918354588646,-0.32367282668881503,47.21428141633623,18.03441641660415,-18.55172247302897,0.8932597632796054,-0.20799257441470187,0.07861564993038438,-0.3906543234989551
102.0,0.015643669846032934,-0.07729050119672776,0.03677517593684136,3.0313418086664523,2.9596955131640055,8.835674400743041,0.11048878291001321,0.15082213633765584,-0.33550072786053653,47.61830022237702,18.00123758618226,-18.510028623227235,0.8919699611321221,-0.20782083370255067,0.077702522149716,-0.39386904420473867
103.0,0.014096988532847497,-0.07880039652770336,0.034167157860893804,3.0494537384346088,2.962424945522095,8.82858451219948,0.1351647063551602,-0.2013470443503733,-0.8248500183081484,47.89148978092737,18.116085382952882,-18.540284568910085,0.8908432730702853,-0.20898551384321085,0.07696942207216982,-0.3959297622135445
104.0,0.005505483513735573,-0.06527846247276106,0.022848747901261034,2.966271032043725,3.065889508091308,8.820545136284073,0.43185126638802557,-0.02012556710606221,0.39568150966313004,48.300846416961384,17.601449469510232,-19.15362322723538,0.8892297266307647,-0.2075777113601615,0.0829542740017147,-0.39899860899367695
105.0,-0.004086735969706713,-0.05459007609045119,0.024239274104240347,3.0027092487407563,3.0896306219411995,8.799519879969994,-0.13723296895652484,-0.2579506483763798,-0.1545497981638267,48.44897831600757,17.827990479762796,-19.328731736505553,0.8882298872285928,-0.21004597657485802,0.08307730703925979,-0.3999177329300182
106.0,-0.0012365591397849444,-0.05298003072196621,0.024001536098310294,2.999669738863287,3.0367741935483874,8.819592933947774,0.07094854070660521,0.2740015360983103,0.09221390168970814,48.01219278033794,17.808899769585253,-18.983198924731184,0.8902331466513058,-0.2083054879109063,0.08134683095238093,-0.3967349381029186
107.0,0.004545957918050949,-0.042905547815525316,0.030040903082913586,3.063389418783267,2.9613390847711925,8.822981638266707,-0.47142365948630016,-0.7518442110527631,0.21369181581109561,47.83936274247133,18.20205832708177,-18.53606593612689,0.8909212491437144,-0.20962303232308074,0.07667785284964096,-0.3954191452982888
108.0,-0.00628692887507591,-0.03822312721037403,0.02679848533561962,3.1961186725252735,2.8562801414639374,8.80954381452506,-0.336806299789233,-0.826142919658486,0.2755287036044725,47.662408905797875,19.02501629871754,-17.94562033365484,0.8911974173905979,-0.2137484884272854,0.06920248763833814,-0.3939217553411567
109.0,-0.0071707212517415075,-0.0351986210838424,0.026162790697674423,3.253104168899367,2.8143962776408387,8.803244203908118,0.0625066981030972,0.22971367841960494,0.2510114135676776,47.33517642803558,19.374212972886077,-17.713304442181972,0.8921648871244598,-0.21541695597006394,0.06663312876094023,-0.391323527263423
110.0,-0.019844961240310082,-0.04059086200121459,0.029006894580788062,3.1792440967384694,2.8190683385132,8.828976172614585,-0.059424454327867665,0.37200929696709895,0.02220309541671131,47.07429424320365,18.919657369699564,-17.697018004501125,0.8936700971374987,-0.21167110795431004,0.06885749522148393,-0.3895593215925409
111.0,-0.02254171556826489,-0.04500525828321193,0.03148389013629714,3.1625709824668706,2.814484901713233,8.836761699135586,-0.0385371822049589,-0.14264253127741866,0.02894990951570645,47.01384045924373,18.815739268005153,-17.65718046454122,0.8940658293647106,-0.21070798120665185,0.06908198557550535,-0.3891770385985259
112.0,-0.017833569890730528,-0.04284217831461351,0.028678214849879716,3.2100351786552905,2.7934129220458424,8.826674530130791,-0.07268596330267235,-0.3502034861938481,0.029380466850162018,47.029789786296746,19.107471989948706,-17.548170797054663,0.893767099191161,-0.21261082049472732,0.06705370016941953,-0.3891834221206826
113.0,-0.02036296530578638,-0.04376766665533981,0.03321550770968003,3.250025738141852,2.778881070441826,8.816911971895413,-0.024616182355693444,-0.18988376231688586,-0.008824832514748897,47.04213956363655,19.357157560295995,-17.483327277812485,0.8934886182083149,-0.21430158938424498,0.06553039466724694,-0.3891571488917263
114.0,-0.02332584017084411,-0.03941946723614703,0.025787906035742384,3.270637668127833,2.779242628601401,8.808988797722078,-0.03524127983215316,0.32652509272788577,0.031189118054775016,47.031629341351014,19.483116968266458,-17.50313190775917,0.893350393074257,-0.21531599583455094,0.06516049952774344,-0.3889843722565659
115.0,-0.022699786444869058,-0.03629575512344986,0.034748791727548606,3.2016091566445617,2.7894638642238947,8.831053538645989,0.2681896519426024,0.5863376231688584,0.03145957438837061,46.90120733580608,19.053770465700048,-17.52309533175977,0.8943101029388183,-0.2120135125102094,0.06729129883069197,-0.3882103421497882
116.0,-0.021279082836911316,-0.03673560376156758,0.03634371136338091,3.152783335206624,2.822052939192986,8.83809954666367,0.40568215878011316,0.07016527106515305,0.2793755385710539,46.662297216290135,18.753478466524296,-17.701112968790977,0.8952726957770409,-0.2101840198585666,0.07030347960417369,-0.38644291557922145
117.0,-0.005401446180360419,-0.045118953954516525,0.034093514667865574,3.2082196245925587,2.8454542729759087,8.80992918961448,-0.18439970402008166,-1.2702409051740284,-0.45924656251170803,46.166498070510656,19.09575325015923,-17.891527106515305,0.8962686534760782,-0.21320285104679484,0.07126198048181034,-0.38223392972125436
118.0,0.012657450076804922,-0.050476377805252715,0.029102319133790418,3.281413585103592,2.826623393653291,8.788264583567496,-0.04561930987973474,0.5723944869056986,0.21413116780937397,44.784907599940055,19.549513412760852,-17.822283260275,0.9002322196112922,-0.2156135509834776,0.07150940157487543,-0.3711800913558878
119.0,0.008254093140009744,-0.04783653666029749,0.024448315911730547,3.235455584279344,2.8060850099284402,8.812244389494586,0.18852796822899104,0.4848275167659511,-0.24351373122026154,44.139143344198416,19.268063204825594,-17.652889784946236,0.9029159878361619,-0.2124345891469035,0.07255742460885692,-0.36635080980723833
120.0,-0.006995841294818476,-0.043505825933835375,0.030492975160166358,3.083604136225694,2.8749019519688277,8.843330336068336,0.46930238657225276,0.6160456708253719,-0.04149572889738115,44.23128442171518,18.335337285976546,-17.99500768049155,0.9033978011415833,-0.20631259739987265,0.07865753524221648,-0.3673817291025439
121.0,0.0024894908396088577,-0.0435546438874527,0.02344869056985501,3.045897268742272,2.849933273388033,8.865626615713161,-0.40404373196957766,-0.18587960361170436,-0.06048035854782512,44.17226593233674,18.100447950620058,-17.809167884305573,0.9041196673095802,-0.20383242041905514,0.07820408057547489,-0.3671617521004458
122.0,0.008136862612865762,-0.045090892060994356,0.02153617324191675,3.1211718182158776,2.7987258626503317,8.855875014049682,-0.12455017608931845,-0.18402855831553708,0.30867731632385453,44.21505282679555,18.56207429470608,-17.52356014199543,0.9037573701751527,-0.20653691813064332,0.07417801509197856,-0.36740364815964177
123.0,0.006621164437450827,-0.04216994492525572,0.023086939417781272,3.151452399685287,2.7734527930763178,8.853381195908732,0.06922698662470497,-0.15253737214791505,0.2648013375295043,44.11608969315499,18.748529701022814,-17.38198269079465,0.9040266351455548,-0.20744526902832416,0.07255782064516128,-0.3665972535558615
124.0,0.014215381589299764,-0.04377576711250985,0.029478166797797013,3.1298961447678995,2.7828082218725414,8.858728363493313,0.018582808811959093,0.1908929976396538,0.07172010228166796,43.91809598741148,18.614528422501966,-17.429435483870968,0.9047808701573565,-0.20642432108379233,0.07379754728166797,-0.3650814193428403
125.0,0.0007077291971076399,-0.039814918886516074,0.031104866809036756,3.108344385748005,2.7912472368963317,8.86393503428122,0.1654982016410026,0.14248950957251508,0.010298415196133521,43.838925105840914,18.48372110449215,-17.46927803379416,0.9051439853474954,-0.20547099689558274,0.07474292161702445,-0.3645382488958825
126.0,-0.0020890937019969256,-0.049293769435390225,0.028998538833314606,3.130529391929864,2.783876962271927,8.858391592671687,-0.3295001123974374,0.030258326776816162,-0.5556297066426885,43.99042046008017,18.61666385673073,-17.433744052302274,0.904527768051403,-0.20652280379004156,0.07368317710276873,-0.36568111351953836
127.0,0.015729646697388636,-0.04869094451313179,0.011029560526020013,3.170323704619535,2.766289385935335,8.849380690120263,-0.04719989884230638,-0.6148865722528193,-0.34132291783747326,44.68819311753025,18.8620298040538,-17.351092128432803,0.9020650612326252,-0.20859958176126786,0.07080395540032221,-0.37106152556779437
128.0,0.03177040950133004,-0.054155857779775954,0.014278745644599307,3.1724671237495787,2.7636930800644413,8.84945981791615,0.08353518039788693,-0.3559238132703908,0.1069054175564797,44.80294293956764,18.87749896969016,-17.331092877749054,0.9017037634424337,-0.20874926822052375,0.07041160901959462,-0.37196650396957776
129.0,0.03967198681203402,-0.06337847963733094,0.01560121389232326,3.154121052040013,2.769589262298153,8.854291671349895,0.18803037540744072,0.3513850642538684,0.46698044284590307,44.57539947922521,18.76218575549811,-17.359463630062564,0.9025709840965119,-0.20778687840373156,0.07148693582923082,-0.3702046317180697
130.0,0.024563335955940204,-0.045948072383949656,0.015141620771046421,3.0989614476789926,2.7978906372934693,8.864221872541307,0.13392014162077104,0.43836054287962234,-0.15611231313926044,44.39286487018096,18.425054091266716,-17.50821203776554,0.903392527284815,-0.2055150668009441,0.07425972663965383,-0.3688852140472069
131.0,0.01059008654602675,-0.058414634146341474,0.021241148701809605,3.032486231313926,2.826490558615263,8.877944925255704,0.561968922108576,1.0234682336742722,0.460348642800944,44.07689073564123,18.008898013375294,-17.646464398111725,0.9047603001530289,-0.20252329007631786,0.07750409126239183,-0.36649136593391035
132.0,0.013280094413847369,-0.04675491738788356,0.028009244689221093,2.9314405979543667,2.8575552714398116,8.901674272226597,0.2611182140047207,0.33074473839496454,0.3584591365066876,43.4311528815893,17.392268636900077,-17.786646833202205,0.907368368972659,-0.19767524144492526,0.0820408868333989,-0.3616383590322581
133.0,0.018982100708103855,-0.04609225019669551,0.020767899291896152,2.95131628638867,2.843258064516128,8.9001410306845,-0.07354814122738002,-0.812633998819827,-0.12618263178599531,43.183534126671915,17.519616689614477,-17.703046321793863,0.9081077515690399,-0.19823720336742723,0.08136956353737215,-0.35966951247069234
134.0,0.01603835562549174,-0.022014752163650664,-0.054980920535011794,3.018169944925255,2.8196243115656965,8.885621557828479,-0.08539535798583792,-0.04468430369787568,0.21516522423288745,43.19151012981904,17.927263227773405,-17.59148554287962,0.9077371953251374,-0.20108078449370576,0.07895833670200628,-0.35957517470318645
135.0,0.027202879988289755,-0.021106307064571023,-0.10851662305820359,3.0179615666111648,2.8122815856403127,8.888068843430368,0.08042216346769619,0.255213174482645,0.21880494895065228,43.288753705194594,17.923834750608385,-17.550024701297275,0.9074822265276288,-0.20099490579392715,0.07846019708553054,-0.3604018477003367
136.0,0.021029786627841628,-0.018755731180181805,-0.13727955464475877,3.058592262830516,2.8084861526792846,8.87464867371024,-0.5539451881698648,-1.1900988190754134,-0.8945852929369101,43.547425867246425,18.17759400787697,-17.55210130385384,0.9063209020347485,-0.20314526941826286,0.0770339730139353,-0.36232878060900087
137.0,0.018179527460262274,-0.030079871884347395,-0.14811007629956272,3.1756013045073113,2.790799232909273,8.838869281780376,-0.09786903389610468,-0.3857844360916013,-0.4355136584668815,44.291615913560264,18.89887334638538,-17.51320397608113,0.9030649506118864,-0.2091700658974674,0.07260274502024461,-0.3678627331889418
138.0,0.012583076082609501,-0.033057245147523825,-0.1456522057343604,3.2202160731820593,2.799121095604912,8.820260762054627,-0.03637059090556612,-0.19926023535500598,-0.13531682136562012,44.65923242570224,19.17283360474265,-17.596098447521285,0.9014499117968952,-0.21182418649712081,0.07149524686889491,-0.37058338122074946
139.0,-0.004775338433911614,-0.0383311402763583,-0.14446969059338008,3.2605824661740352,2.8130546469369957,8.801247611554459,0.008998024767515912,-0.1396822419890687,-0.026755578267389127,44.97099111450336,19.420376283095163,-17.712127705271264,0.8999922221982115,-0.21435211242637314,0.07083521226843645,-0.3728264967748122
140.0,0.002427784646510059,-0.052900003746581256,-0.14738788355625493,3.3090879322618116,2.7815340751564195,8.793236709003033,-0.12519903712862013,-0.22635368663594468,-0.027762635345247456,44.97644173129519,19.719448269079464,-17.54053028174291,0.8997951992851523,-0.2161036223369675,0.0683623778949084,-0.3727800044759282
141.0,-0.0017261998426435893,-0.05054523996852873,-0.13266168371361137,3.2953304484657746,2.780086546026751,8.799099921321794,-0.03643784421715184,0.03931451612903225,0.021016915814319432,44.80346184107002,19.633010424862313,-17.517668174665616,0.9005014585688433,-0.21526662162470495,0.06886996666404407,-0.37147859325255694
142.0,0.00030841856805664575,-0.055059402045633365,-0.13496105428796223,3.310785601888277,2.7723564122738003,8.7958269079465,-0.06976789929189614,-0.05846036585365854,-0.09159618410700236,44.858698859166005,19.736125590086544,-17.47919207317073,0.900239395889457,-0.21594178522619983,0.0680692444343037,-0.371876109541306
143.0,-0.006032258064516129,-0.06075000000000001,-0.13170161290322582,3.299395161290323,2.774822580645162,8.799645161290325,0.0721774193548387,0.16224798387096775,0.011592741935483875,44.87510080645161,19.662550403225808,-17.485131048387096,0.9002746589274195,-0.2154032553629032,0.06839235383870967,-0.3720507223387096
144.0,-0.0019032258064516168,-0.07369354838709677,-0.12883870967741934,3.287274193548387,2.7742177419354848,8.80393548387097,0.05705645161290322,-0.12121975806451611,-0.12237903225806451,44.682409274193546,19.587298387096773,-17.473739919354834,0.9010055544435485,-0.21466241674193548,0.06895220358064516,-0.3705880935403226
145.0,-0.019959677419354838,-0.07823387096774194,-0.1279274193548387,3.3152016129032256,2.793177419354839,8.788088709677421,0.1469758064516129,0.05529233870967743,-0.023739919354838712,44.87857862903226,19.760534274193546,-17.616330645161288,0.8999730760564515,-0.2166070754516129,0.06896441022580646,-0.3719621226129033
146.0,-0.022987214791502755,-0.08329583005507474,-0.11768154996066091,3.262043863099921,2.8155503540519278,8.80035562549174,0.23924690204563337,0.44664511211644375,-0.09067417387883556,44.7867353461841,19.43182164634146,-17.728947433123523,0.9005761919927222,-0.21434992613867035,0.07128150740007869,-0.37136437644197484
147.0,-0.029665420928402828,-0.08387490165224232,-0.1206945318646735,3.250284421715185,2.826341266719119,8.801297797010228,-0.05203211054287962,-0.2472905192761605,0.21747639653815892,44.748387096774195,19.35988517899292,-17.792432140047204,0.9007220440849724,-0.2139922737071204,0.07210160288631001,-0.3710760277405586
148.0,-0.05161243664574681,-0.08745264212394561,-0.10808310614238925,3.2752318582694455,2.816642220006221,8.794951036539622,-0.6010107805152508,-1.163351279893144,-1.0184080414158416,44.92992076144036,19.51337809681079,-17.750542542266665,0.8999628624421485,-0.21518514754045062,0.07080396885575815,-0.37243557092269863
149.0,-0.05025212705615429,-0.08452283955135126,-0.11947566007355498,3.3666852643038814,2.805824945565659,8.763743220866193,0.26293690419556104,0.21145722787404164,0.025043741880592107,45.694302434221356,20.08000115501436,-17.743717007758036,0.8966974384644848,-0.2199746191851545,0.06702635126924414,-0.3780902133548386
150.0,-0.04653428165403721,-0.0891068498832025,-0.1145744275790202,3.3052410576511724,2.831380022706025,8.778501602752605,0.436645583434186,0.8242169971935491,0.21950391779129452,45.449703780474735,19.696204974588593,-17.865956526152445,0.8978716748724115,-0.2172577395282531,0.069957669070874,-0.376345909938556
151.0,-0.053457092496120545,-0.08247313570552914,-0.1108479646043915,3.29029296522737,2.8149849047627757,8.789910387004417,-0.08870837047240909,-0.513537084183938,-0.04523942396749012,45.24287528763724,19.60506644518272,-17.74062292794453,0.8988235834490941,-0.21603032993890453,0.06980059218895315,-0.37483556716009137
152.0,-0.05467204780289149,-0.08633884952074256,-0.09790702902206386,3.294128349160461,2.822536662040074,8.785707132358002,0.32357414266458595,0.7480235694812204,0.4838595319561597,45.26041941670086,19.629413069730845,-17.79834315068314,0.8986930449917532,-0.21639488225261885,0.07011329478017589,-0.3749114608253718
153.0,-0.05443879959536922,-0.10674631898392715,-0.11036461728672586,3.221067925517965,2.8629127421228118,8.800255666704134,0.0006186542280169349,-0.36626390918287066,-0.45677616050354053,45.08819920572478,19.17738001573564,-18.005590367539618,0.8995785387719456,-0.21350282453516167,0.0738119840727586,-0.3737253160578472
154.0,-0.024612903225806452,-0.10858371735791089,-0.1156236559139785,3.2418540706605223,2.8712396313364055,8.789749615975417,0.0932795698924731,0.09719662058371731,-0.09979838709677424,45.14674539170507,19.306173195084483,-18.07629608294931,0.8991513676282643,-0.21479800614285716,0.0737151023625192,-0.3740721348310292
155.0,-0.05368356374807988,-0.11227035330261137,-0.10016282642089094,3.204944700460829,2.8934347158218126,8.795897081413209,0.08053955453149,0.06635944700460827,-0.16043586789554534,44.9040034562212,19.07676651305684,-18.194105222734255,0.9000935681305683,-0.21324787267588327,0.07597816592165899,-0.3722277479416283
156.0,-0.0016394991605044214,-0.08671424999106919,-0.10404722609223735,3.307876201193155,2.848641678276712,8.77151505733576,-0.467927026399457,-1.0688390847711926,-0.5441648358518201,45.59750517986639,19.712215218983317,-17.97636730611224,0.8972168579773336,-0.21787200182315225,0.07044575237773729,-0.3774238954817276
157.0,-0.015286798398205825,-0.08659473317806804,-0.11156184690771999,3.354101826196967,2.79739725066284,8.770813446392957,-0.1744818527149209,0.1018336656245944,-0.45653480824474413,46.062451613012136,20.001128403017567,-17.675012195448687,0.8956572911973701,-0.2193304187842673,0.0661663809771868,-0.38106478713691483
158.0,-0.017574466787428564,-0.08624206704986352,-0.11673176830793065,3.3195948839126155,2.7924119509842624,8.78604113179863,0.029720959203215463,0.07813217459417127,-0.07169338338504486,46.14308496549224,19.78869904213858,-17.621581078523114,0.8957537474299062,-0.21757250236121972,0.06646753062223393,-0.38185996840332687
159.0,-0.007493070567293391,-0.08620859112861841,-0.12744038492201448,3.2822859212189806,2.8291284025274614,8.788216418433876,0.5306054872820992,0.6071104421357952,0.27758936821531166,46.023083381363634,19.554175749947937,-17.832439924822232,0.8962317325475184,-0.21642228821209986,0.06922088105996488,-0.38090704159029626
160.0,-0.034029186739193515,-0.08379459847540283,-0.11584234037603477,3.189879978705478,2.892918351539104,8.801003665550535,0.2568608179919544,0.11661457393965219,-0.25449246675780446,45.98880245976128,18.98347556183471,-18.18200908023173,0.896652147379188,-0.2131866912357706,0.07423394762341282,-0.38077961407357064
161.0,-0.015928964819602116,-0.09091866172117942,-0.1208197519763216,3.1943126896706753,2.9257847214416843,8.789038252594509,0.4203359746731108,0.08288374358397961,0.24301262597879433,45.96960820126634,19.00652607620546,-18.40218613015623,0.8964305731857181,-0.21411922914090892,0.07582533465138061,-0.38050105320332694
162.0,-0.006501442433779179,-0.09051440560488555,-0.12216177737814246,3.169400172342738,2.960554119366078,8.786638754636389,0.11041292008542207,-0.13993012625978796,-0.08214145217489041,45.71503151811472,18.85221376119291,-18.611106037615677,0.8972159779779699,-0.21348087171162566,0.0784868099220711,-0.37847500318927735
163.0,-0.025068562436776444,-0.09105859653066575,-0.1084616537409614,3.247721703945151,2.9625000936645307,8.756659922820422,-0.17408021430444717,-1.7624292832790076,-0.38277649769585254,45.98202226405905,19.34366218950208,-18.68120223108913,0.8955903352000674,-0.21768202115151172,0.07649838809580008,-0.3802641249520438
164.0,-0.018115469633959012,-0.0976287887302836,-0.10777827732194373,3.434484657749804,2.947153347570342,8.688735154171816,-0.08280881195908732,-0.7544958974935371,-0.2996726424637518,46.63334785133566,20.504915046270277,-18.723806713873593,0.8917723286002772,-0.22715666602937318,0.07071566946161628,-0.3846419930414746
165.0,0.001736128282941814,-0.10116215203626691,-0.10744303323217565,3.4325365853658543,2.942425611629388,8.692409276535162,0.19994590873328089,0.4656513431493762,0.43916839946049224,46.40837337492038,20.487508663969127,-18.6840906110674,0.8926213405125698,-0.22676745897220035,0.07097226101090254,-0.38295523539799936
166.0,-0.019705668577423105,-0.09559874114870182,-0.10602412798321534,3.374248323404893,2.9590545876887338,8.709556404780638,0.18248543516541155,0.3009036285639354,-0.11168980180585222,46.210479890225166,20.12891658236859,-18.747767271739537,0.8937131128960698,-0.22410869410284365,0.07335423968056648,-0.38157865763448356
167.0,-0.029496459480723845,-0.10750904799370575,-0.10457120377655388,3.354085759244689,2.994823760818253,8.704974822974037,0.10396833202202989,0.5207907159716758,0.4047157749803304,46.002940597954364,20.001603068450038,-18.970249803304483,0.8943083101400471,-0.22374945632100707,0.07593039448544453,-0.3798929692273801
168.0,-0.04162470495672699,-0.09583556254917389,-0.10625885129819039,3.375614870180959,2.94381628638867,8.714230133752952,-0.11798534618410701,-0.9904160110149489,0.09488837529504324,45.82832907159717,20.138930959874113,-18.64904602675059,0.8950971210338317,-0.2236226077592447,0.07334176917427224,-0.37863491788670345
169.0,-0.046193941778127454,-0.09320102281667976,-0.10337726199842642,3.5247901258851293,2.872081235247837,8.677213414634148,-0.5490103756884342,-1.0520530094413847,-0.4703321695515342,45.60776209677419,21.07209628245476,-18.299149291896143,0.8949089076254917,-0.22949947474901647,0.06734561265952008,-0.37654681039103066
170.0,-0.04611309992132179,-0.07937470495672698,-0.11009185680566483,3.5714878048780485,2.885294649881984,8.6527397718332,0.5082821105428796,1.771201317859953,0.5935889555468136,45.50751008064516,21.360140883162863,-18.4271452104642,0.89464159440952,-0.23200673886644374,0.06724460338217939,-0.37546722058261217
171.0,-0.0606089693154996,-0.06971557828481512,-0.11812254130605822,3.4316713217938624,2.8791795830055076,8.711269079464987,-0.12370672698662472,-0.6189356313926041,-0.3633617722265931,45.651159274193546,20.48896661093627,-18.276400226199844,0.8955830920112116,-0.22494100809047995,0.06939291472738002,-0.3771854805332415
172.0,-0.06555593213500371,-0.07304575440295345,-0.11230930621961308,3.415537170408925,2.8579931207004377,8.72623131392604,0.14628094171760575,0.6791158536585367,-0.09495955133248597,45.71736972704714,20.379419849099236,-18.12165428493615,0.8957515942075289,-0.22362155034672881,0.06861048024892574,-0.37786323334592187
173.0,-0.06552776937198652,-0.08048039097016282,-0.11622939740563659,3.3420132744255477,2.8841145776594237,8.74647128245476,0.23445538037886582,0.8492205940204565,0.2654136153644415,45.48474210191854,19.922695762472515,-18.237877693215516,0.8970106298496338,-0.2203118341780851,0.07178990241399869,-0.3762510800600577
174.0,-0.06661967877388805,-0.07969450592680336,-0.10453914889202065,3.309108806483315,2.8797130529449566,8.761811003709113,0.05341170352726213,0.25984267871192535,0.15359165650766754,45.42566785512547,19.71723118459694,-18.180032707834393,0.897555520507785,-0.21850940540551622,0.07231067030182531,-0.37597284888357496
175.0,-0.05865238931013911,-0.08387048645034484,-0.11158869886997345,3.3288923448699217,2.8704442760884534,8.75709559402046,-0.08324518510272838,-0.4680301295380465,-0.1693279236662891,45.51693819023554,19.84725086495592,-18.134782818970958,0.8971458842206743,-0.21938486744181346,0.07128400640456088,-0.37668017385346186
176.0,-0.07030416475735124,-0.08992068775703707,-0.10387243755457759,3.3751178876198553,2.868988365424242,8.739527930763181,0.015729517008037854,0.23307716084073282,0.6113375871440387,45.13224405086128,20.132713994633743,-18.162583433482332,0.8979785959190508,-0.22145785596058026,0.07107057523463683,-0.3734783567663258
177.0,-0.06525083361432693,-0.08738938218875276,-0.10208459780450338,3.3712393690757194,2.817438462403058,8.758143194335169,-0.08834204413472704,-0.18457766662920083,0.28914006593982994,44.71280581469409,20.105494361395223,-17.82708356749466,0.8998003988970064,-0.21987337296092324,0.06941694019070097,-0.37034823206661427
178.0,-0.06551054662620359,-0.08292364467423477,-0.10111074894159079,3.3852255067251136,2.786303810273127,8.762468922108573,0.025154312315012556,-0.06903942340114644,0.12845575287550112,44.49970542504965,20.201281799108315,-17.644934387995953,0.9005751300370162,-0.2198485414560713,0.06804883158787606,-0.368750185857068
179.0,-0.07554329174628152,-0.08211850436476717,-0.1010538383724851,3.3950551496759207,2.79300520774793,8.756898055524331,0.39246866921434187,0.23084607170956506,0.1963419317372897,44.24712613802406,20.257265323517288,-17.68347429845266,0.9012634945638229,-0.22028282748533212,0.06865905931160315,-0.3666995324515755
180.0,-0.064441384736428,-0.08029504327301337,-0.10603383162863886,3.3453194335169156,2.8076254917387877,8.771536585365851,0.010995279307631778,0.1044207317073171,0.15987411487018094,44.09287470495673,19.94672501966955,-17.737637686860737,0.9021165709693156,-0.21796267077261997,0.07058444012431156,-0.36562270474114866
181.0,-0.06135444531864673,-0.08842368214004723,-0.09480605822187252,3.299993312352478,2.8378158929976394,8.778745476003145,0.3806845003933911,0.3785970692368214,-0.11938434303697876,43.90642948465775,19.662986821400473,-17.90286683713611,0.9028774024925257,-0.21619343857199058,0.07329965693627066,-0.3642331876892211
182.0,-0.06658595594020457,-0.09496321793863098,-0.10406707317073169,3.2751028717545236,2.865870967741935,8.77906589299764,-0.2435188827694728,-1.1405844315499605,-0.33543469708890633,44.15465553697875,19.508347265932336,-18.06873770653029,0.9020749697120378,-0.21571915561959087,0.07467986871203777,-0.36620664487922894
183.0,-0.06118607395751377,-0.08775354051927615,-0.10592387883556253,3.3507201022816675,2.859009441384736,8.751548387096772,0.20164978363493316,0.508775078678206,0.36120180959874115,44.24294354838709,19.977955350118016,-18.07956333595594,0.9011497658786389,-0.21943524699881983,0.07273812366679779,-0.36659701267623923
184.0,-0.055532061369000796,-0.08385660896931549,-0.10433457907159716,3.3533099921321776,2.8570413060582216,8.75187490165224,0.15354666601101497,0.17939614476789922,0.2944851494885916,43.85414781667977,20.00002581628639,-18.063735493705742,0.902387420990952,-0.21929466227734068,0.0732969504063729,-0.3635584675784815
185.0,-0.050391030684500404,-0.09110975609756097,-0.10379228953579858,3.356888867033832,2.8561416207710453,8.751405192761602,-0.006870820220298959,0.020393636900078643,0.09149660700236033,43.66109608575924,20.01616714201416,-18.052810287175454,0.9030005232212825,-0.21929986938867027,0.07354481671125096,-0.36201324422069237
186.0,-0.049546813532651474,-0.10039496459480723,-0.10076947285601887,3.3653485444531857,2.849129819040127,8.751287175452399,-0.05454366640440597,-0.10898898505114084,-0.009264358772619975,43.637834382376084,20.067151848937847,-18.025245869394176,0.9030517285507474,-0.21958732004091266,0.07314545322895358,-0.3618190773926042
187.0,-0.05332966168371363,-0.11239260424862313,-0.09149016522423288,3.3778552321007074,2.8437584579071613,8.749290322580645,-0.0411634539732494,-0.06381294256490952,-0.06287863886703383,43.61890243902439,20.141979740361922,-18.009205350118016,0.9030184257545237,-0.22011563989063732,0.07274532514712825,-0.36169389456176243
188.0,-0.052211644374508266,-0.12612391817466562,-0.08930055074744297,3.3925184893784412,2.840439417781276,8.742816679779704,-0.09285749409913453,-0.31082562942564906,-0.06812303304484657,43.63476101494886,20.237246754523998,-17.996995476003146,0.9028502107301337,-0.2208394195747443,0.07230430274429585,-0.36176526340125886
189.0,-0.03904707579333858,-0.13601481268534768,-0.09169550525530071,3.3777582662551193,2.85972211967157,8.741741007484517,0.34526893698682637,0.7002750900260243,-0.5373359925053965,43.7686435196393,20.142945534255283,-18.11202698511166,0.9024310177120982,-0.22050958195989934,0.0732736794500797,-0.3627747458074301
190.0,-0.03633805402570155,-0.12668885795557705,-0.09463001069216648,3.2678710686114303,2.8904054146744955,8.772935019871294,0.05365765397728417,0.17974944017430247,-0.36456013334947246,44.12328345336803,19.462274178417964,-18.224813895781637,0.9020538803883071,-0.2158612636614013,0.0761479230960076,-0.36585195668597315
191.0,-0.038146360196320866,-0.11356360398059845,-0.10485443811368278,3.249008405310923,2.8866608767576514,8.781831490303563,-0.24075903034154417,-0.31149418703509973,-0.0006633700354196082,44.31970858442632,19.34709963276299,-18.18383551931939,0.9016425929641882,-0.2149469473052052,0.07589031637622305,-0.36748326759029837
192.0,-0.03543509984639017,-0.1052389223679546,-0.10927930402930401,3.301889725865532,2.8413949545078583,8.77665295994328,0.20467457609594705,0.018431702705896252,0.07191949515538225,44.190902679309936,19.676121610244593,-17.92820808224034,0.9019317088172634,-0.21657094374701644,0.0729266965578991,-0.36641934754652605
193.0,-0.03716743471582182,-0.09942591279688053,-0.1091383079286305,3.294168557249202,2.835945173106464,8.781862578281931,-0.21676673460947657,-0.4708340718421363,-0.041751225924613014,44.34498330970105,19.62910943223443,-17.887500738508802,0.9015642098974948,-0.21614650748103506,0.0725027423499941,-0.3676656750557131
194.0,-0.041993855606758834,-0.07958947772657449,-0.10674923195084485,3.4319850230414746,2.8086006144393245,8.735968509984637,-0.35110167050691243,-0.49327476958525346,-0.4046490975422427,44.774889592933945,20.48582229262673,-17.81191916282642,0.8990543628283408,-0.22280503153149,0.06767075554992319,-0.37060775371006144
195.0,-0.04011059907834102,-0.07490092165898615,-0.11090706605222733,3.4876290322580648,2.738970814132105,8.736607526881722,-0.3437884024577573,-0.646774193548387,-0.2008112519201229,45.13138920890937,20.82799059139785,-17.392986751152073,0.8979246745061444,-0.22428452433563745,0.06248214944854073,-0.37342202099231936
196.0,-0.039793394777265755,-0.0723421658986175,-0.11128379416282641,3.5213221966205848,2.7010714285714292,8.735956605222738,-0.06913882488479263,-0.2228350614439324,-0.10763488863287252,45.332015649001534,21.031593221966205,-17.17813220046083,0.8972593207507682,-0.22529118391589853,0.05967623455760371,-0.37492161617895536
197.0,-0.039227342549923216,-0.07356221198156682,-0.11008141321044548,3.5456328725038393,2.688640552995392,8.730772657450078,0.1302995391705069,-0.19826228878648233,0.14237711213517665,45.397484639016895,21.18820084485407,-17.107891705069125,0.8969112759600617,-0.2262882536313363,0.05841640261751152,-0.37538042392012283
198.0,-0.050325428046907206,-0.10159031134090143,-0.10339567644524372,3.559811022442021,2.707444082274925,8.718665430294855,0.37730672324004344,0.1332616799670301,0.2105367914278221,45.12698709302761,21.280240530515904,-17.247927438087743,0.8974939455715413,-0.227302593020756,0.059649204579333856,-0.3731774136907946
199.0,-0.037708028923607216,-0.06901481772882245,-0.11879384436701508,3.458432392941441,2.7849432392941442,8.733467123749579,0.44988608051403095,1.1141778829942677,0.10726532351729047,44.87536950657525,20.645731824397735,-17.680391330411,0.8986778557250947,-0.22366149342512454,0.06587375600548874,-0.371361429201004
200.0,-0.05059205350118017,-0.08886683713611329,-0.10790381589299763,3.367678599527931,2.8051534225019665,8.7624256490952,0.1626561270653029,0.21885695318646725,-0.053321695515342236,44.51177222659323,20.085664584972463,-17.74040371754524,0.9005670745489772,-0.21929191727183317,0.0692726467535405,-0.36878580788316284
201.0,-0.030449645948072385,-0.07514122738001575,-0.13309362706530292,3.3699191581431944,2.848733280881196,8.747358772619982,0.5771993017309205,0.4536523898505113,0.22752016129032254,44.43546911880409,20.10651799763965,-18.02480453383163,0.9004539704872148,-0.2203375008928009,0.07150515175983477,-0.36803360861919754
202.0,-0.04695633359559401,-0.07084539732494098,-0.11186978756884344,3.275953579858379,2.8912588512981907,8.76969551534225,-0.044957218725413084,-0.33632474429583004,-0.6461767309205351,44.43245967741935,19.52083251376868,-18.23294895751377,0.9009706011148702,-0.21648862585601886,0.07534962472501969,-0.36824853461801743
203.0,-0.04326966955153422,-0.07438808025177027,-0.10950688434303699,3.2954079464988193,2.8750904799370582,8.768439417781277,0.08137662273800157,0.5599060778914241,0.026685434697088894,44.681758949645946,19.6345311270653,-18.13712750786782,0.9001462315723838,-0.21722846688945713,0.07372128231136899,-0.3701890049093234
204.0,-0.0481319545914353,-0.06362856393540894,-0.11159042373833877,3.3180622681802854,2.8540275748379607,8.766895208122587,0.13874058671462292,-0.43996103555505606,-0.23824978457157842,45.03177569218088,19.78110364917013,-18.0200746506313,0.898956208644487,-0.21817189334757037,0.07160030052377206,-0.37293413260462327
205.0,-0.0357124124236634,-0.06657712337492037,-0.12353040350680006,3.283099921321793,2.870181709190364,8.774887789891721,-0.07444456933048593,-0.14065836798920983,-0.4183924356524671,45.03741663856731,19.559469952418418,-18.098137012476116,0.899120092074482,-0.21675033069948674,0.07304389804465924,-0.3730710869772582
206.0,-0.022458881270840357,-0.06477164587314074,-0.11235922220973363,3.280479937057435,2.87387134240006,8.774434453561126,0.0014775579783447568,0.02661711812970663,-0.2076964145217489,45.06466130905548,19.543479075343747,-18.121845846914688,0.8990265144086019,-0.21674728726949163,0.07322086103255779,-0.3733003842557416
207.0,-0.02230339814918886,-0.05736615338503616,-0.12218275823311228,3.272187254130606,2.870531265220487,8.778566558015807,0.17070829118429431,0.02862622232213105,0.17698381476902325,45.2629069723877,19.49189099321869,-18.093844835337755,0.8985046499344347,-0.21637549702971046,0.07288596264059044,-0.37486520631748527
208.0,-0.030140684125735267,-0.05522123562249448,-0.12407328312914465,3.2324783634933123,2.8789438387471433,8.79047131992057,0.28322983402645086,0.3375330167472182,0.09395020793525907,44.928045736390544,19.24567504027575,-18.126043188715297,0.8998841997587201,-0.21434176362107082,0.07471773878685697,-0.3723579382806938
209.0,-0.02614945112584767,-0.07002229215840547,-0.11672174141096249,3.2420993968004193,2.8708774493274882,8.789413847364278,0.0653380352927953,-0.24139574201041547,0.3636033681765389,44.992800709977146,19.30212899479225,-18.07447032707654,0.8996574523908807,-0.21467626982896862,0.07398547113690007,-0.3728647453077816
210.0,-0.026227567344797878,-0.06845123824510137,-0.12909819789442134,3.225803154621408,2.8842728260462325,8.791624742422536,0.09126156756959274,0.1707143793788168,-0.1329352590760931,44.96065246712375,19.200334850698738,-18.147498220373908,0.8997985974757783,-0.21412848790910793,0.07503610777198305,-0.37264077564467424
211.0,-0.01849424899778952,-0.07192034768273951,-0.13957101644749167,3.286434228766251,2.8645988535461386,8.77401026563261,0.20676070585590647,0.1641700385897868,0.15213133640552995,45.194248997789515,19.576747780150612,-18.066731295193136,0.8986023722598626,-0.21693046490375034,0.07243561332081976,-0.37430689113319104
212.0,-0.037445393578359756,-0.08575167659510696,-0.11400266007268367,3.1962737626915443,2.9064654377880177,8.793700648158552,0.2785622962796448,0.8138660971863174,0.1758148814207036,44.60868036042112,19.02027790266382,-18.27603873965007,0.9009781266216699,-0.212868724607658,0.07732570441808101,-0.3698997625532202
213.0,-0.02981632385448279,-0.10507489415907982,-0.1211948784234386,3.1762840095912477,2.932406597729571,8.79204701959462,-0.48306346240305725,-0.7738301300063692,-0.6600518433179723,44.7367752706905,18.90352998201641,-18.434513272264056,0.9005260737474989,-0.21255490626527668,0.07874357291321045,-0.37088217587141736
214.0,-0.02817621108238732,-0.09345910606571503,-0.122732615863025,3.1569092859016146,2.9307040669139406,8.79990983852235,0.016508783391405324,0.6357903881458169,-0.05703245007680491,44.805863633809146,18.780562034018956,-18.412029101569814,0.9004978909559307,-0.2115644104214248,0.07892500548502304,-0.37149019084661494
215.0,-0.02285433292120939,-0.09763946648683076,-0.11623993106290509,3.134599115806826,2.915018732906223,8.813781237121127,0.11514180810010863,-0.07365427484920012,0.23417186504814358,44.76950095537822,18.643091304184928,-18.29296626203589,0.900955077433217,-0.2101025676563261,0.07864631087164213,-0.3713387198462028
216.0,-0.02366602974785508,-0.10106627702221722,-0.10549323742085345,3.1783556254917382,2.9371368626128653,8.791241617024468,-0.05120405754748792,-0.16689146154134354,0.1609367389756847,44.56312989397175,18.909295268067886,-18.468439736240683,0.9010674700146117,-0.21264475596717997,0.07929912024764901,-0.3694962576842381
217.0,-0.017821737664381256,-0.09405155295792592,-0.1077044696714248,3.2644692967667006,2.9087351541718176,8.76801618523098,-0.11879004158705181,-1.2023177288224496,0.6185746131654865,44.47172736128283,19.446681465662582,-18.34718163425874,0.9007881638660972,-0.21636270021280582,0.07640896319995505,-0.36856483744707946
218.0,-0.01690138998164175,-0.08069236821400474,-0.11703645423551011,3.6769130043835,2.765336817653891,8.637921022067367,-0.13998983739837398,-2.99931390730958,1.6606018882769473,43.338021243115655,22.056921106365444,-17.736444400734328,0.9011489678936719,-0.2339829996603724,0.06390992885991532,-0.35837660842699787
219.0,-0.030512906972387698,-0.06814956352328501,-0.1148930351054663,3.921371248735529,2.671742909594994,8.561303060956877,0.5295394515005056,0.9327067176201715,1.117167303585478,41.9336035555056,23.596600914165826,-17.313738713424,0.9035802500528268,-0.24382367971113858,0.057695791434565956,-0.34654614066127154
220.0,-0.04127927016597355,-0.06316604848076131,-0.11822543179348849,3.7171411711812974,2.7234442321381733,8.638680641414709,0.218103714735304,1.3728738151436812,-0.9245251208272454,41.95959780450339,22.294956633322094,-17.481736587239148,0.9054510680122514,-0.23419803925761495,0.0638354467558353,-0.34747324076336594
221.0,-0.05650983477576711,-0.07829961410213179,-0.1020735453898318,3.500861676220449,2.793662208234986,8.707334944363268,-0.06915954816230194,1.1121953561125473,-0.5920724682477241,42.33722017721329,20.92893953017871,-17.770327779026637,0.9060066426428384,-0.22468637429316998,0.07050059567899292,-0.3511395772426661
222.0,-0.04262050878573302,-0.08212753362556668,-0.1021773256903076,3.531348656850624,2.7868572177887683,8.699814169570267,0.010091884905024155,-0.09997471057659879,0.1846233280881196,42.80456918998913,21.11467137799258,-17.74833113221685,0.9043963903874715,-0.22632836660357425,0.06862586346929675,-0.3547698140022854
223.0,-0.052791053163987856,-0.07749848263459592,-0.10298497620920909,3.4875414559214724,2.7580676257914654,8.729702783709865,-0.35796289011277205,-0.2085799052114945,-0.37902570154733806,42.922652298527595,20.841470673635307,-17.523018292682927,0.9047608658035668,-0.22351129753373797,0.06775687322696788,-0.35597140231373875
224.0,-0.05459598741148702,-0.0760326514555468,-0.0996038552321007,3.4803221872541314,2.760887883556255,8.733129425649096,0.11735592053501182,-0.019996557828481504,-0.0713340873328088,43.07640391424076,20.78953333988985,-17.537517210857594,0.9043866800200628,-0.22326525724075535,0.06777310597600315,-0.35720309042722265
225.0,-0.05034677419354838,-0.08621774193548387,-0.09623387096774194,3.5190564516129035,2.7449112903225803,8.722701612903226,-0.14642137096774194,-0.5395665322580645,-0.09117943548387096,43.210433467741936,21.035635080645157,-17.45882056451613,0.9037116270564516,-0.22502087011290328,0.0659639416048387,-0.3581694576935484
226.0,-0.037803763440860214,-0.07799048800661704,-0.09291273779983455,3.5421472291149714,2.754571753515302,8.710923076923073,0.18969706368899916,-0.019936414392059565,-0.11106156947890818,43.3107914598842,21.1760016025641,-17.541244055004135,0.9031021599679487,-0.2264373123120347,0.06583664399172869,-0.3588514346259305
227.0,-0.034059139784946235,-0.07915653432588915,-0.09925475599669148,3.506380066170389,2.7783302315963603,8.717816377171218,0.0830541770057899,-0.011782723325062035,-0.0984995347394541,43.4085207299421,20.949971567411083,-17.65945771298594,0.9029689418105873,-0.22514251401488833,0.0674527521732837,-0.3597086792928039
228.0,0.17260752688172046,0.37824028122415226,0.16896133167907368,3.391528742762614,2.233193341604632,8.761101736972703,-22.52041847601323,8.362732630272953,1.3036988213399503,43.99107992142267,20.21787892886683,-14.206442566170388,0.9021447334375519,-0.20788232950744417,0.04205509097373862,-0.3647305167512407
229.0,0.18514247311827958,0.36192659222497936,-0.7960233664185277,1.7827684036393712,-1.5041492969396195,8.584792803970222,-11.772482423490485,5.2747130893300245,2.477706265508685,48.28102383167908,10.601378980562448,9.003759563688998,0.8830127778316791,-0.04697907171339949,-0.1058259053316791,-0.39579904741191063
230.0,0.046736559139784965,0.28946732837055417,-0.11314474772539285,2.270545492142266,-0.19353432588916475,8.798968982630273,16.36940394954508,-9.559064826302729,0.0460607940446649,45.60172663358148,13.547942514474771,0.7871872415219197,0.8970595544400329,-0.10310800218734487,-0.05209530316583955,-0.37704228512531013
231.0,0.01287565641410354,0.10662115528882218,-0.1162243060765191,2.696996061515379,1.3865787696924226,8.799752250562639,7.943354979369843,-4.084826284696174,-0.7617451237809453,50.738667479369845,16.058205176294074,-8.915323752813205,0.878734525024756,-0.16026840480738933,0.004325718928169537,-0.4168283291037133
232.0,-0.028465973636266184,0.06874106919587038,-0.10740900403672346,2.9498665023398702,2.162942610652663,8.786113644482548,6.273848428625014,-5.2022045689993925,0.5715971961740434,56.68999426195835,17.57476071026685,-13.723170468956525,0.8552107513971707,-0.1921747090156378,0.02427138914784053,-0.4616346104756278
233.0,0.04131578430321867,-0.0747479369842461,-0.020421283892401686,2.876244695102347,4.947423302254135,6.547851177079984,34.518993866770266,-5.470687537955918,-7.48570797833387,60.25434812944307,17.099982361661844,-37.1825421757225,0.7862149693606437,-0.2960479239500232,0.1712728918772997,-0.4529976287472226
234.0,0.15805823777372915,0.04402196084735463,-0.14596409816739897,2.754195504233201,5.413328778623226,6.21464102632801,-18.70483318374236,0.26258969876397664,9.496430525041974,63.03438772639588,16.348968715393134,-40.94368804254635,0.7671714997502144,-0.3098099044776998,0.19519970274145326,-0.4675710680203087
235.0,0.003311184939091924,0.5662565641410352,0.34618154538634677,4.135278819704927,3.7322577072839636,6.943051119922838,-33.30653645554246,-11.767415068052728,-1.5293108991533595,63.086608705747864,25.41141312113743,-27.698761744007427,0.7843138259739935,-0.3071680265977209,0.06667514207694784,-0.47984258238381017
236.0,0.22959724251620395,0.9506648308418566,-0.4477537372147912,4.854493836873853,-1.9844844704207403,3.9370270877823987,-68.59090259825409,4.395663566370686,4.619496037990334,94.44066703195833,30.08621117605185,27.271026516428762,0.5620592699986887,3.4296268592387547e-05,-0.25864208254074406,-0.5663432804021954
237.0,0.6950751189539545,0.7301288823948147,-1.2031741036304369,4.382826795549061,-5.508521037053688,0.678659473230677,-26.382744885916605,-0.22337117380390437,14.98200704357274,113.82870045146302,26.79502571091379,67.81574079277658,0.4005584803795287,0.27030036810741437,-0.43340512770278367,-0.566186925251021
238.0,1.1853971376119288,2.6822138548574426,-0.6936021505376342,3.2762905099097073,-2.4826735603761567,4.435108650856092,41.875159229702895,-29.300829399423026,14.963082125060883,88.89474097073919,19.839941366003522,32.99231599602862,0.6066777517704469,0.08560863832265551,-0.2348756741178674,-0.5348108507496909
239.0,0.7099142032894982,1.4746034243752577,-0.5484007717957363,3.1550841107489416,0.48118073507923964,6.5749778951706555,19.145354473418003,-16.284118476265405,8.847301056535912,74.16214384062043,18.93980180585216,5.770091041924244,0.7254102166647933,-0.07090232352684428,-0.07883580864074032,-0.5084961180916788
240.0,0.39721873848253,0.7874063812120278,-0.38912134828132117,3.265069830175314,1.7414554945356544,7.643084185680566,9.587587772378633,-7.458223658702131,4.347172703454609,64.53725348802357,19.521507554588993,-6.630898197110253,0.7938921582480898,-0.15069290749297953,-0.010204069383600245,-0.47843741601195594
241.0,0.17928600181404233,0.3917637728247393,-0.28210198019888244,3.3129283061183408,2.628213978581753,8.238375295043273,7.209362336228655,-0.864561278603623,2.0603880826478393,56.603205815608945,19.7817756104967,-15.060802167005164,0.8423641783215274,-0.20123398429723716,0.04177176478892371,-0.44422324038205985
242.0,0.06034014601211278,0.19231167547984557,-0.1917199421806671,3.0410350758421307,3.074154758201745,8.722187254130606,3.266254825901597,-0.3606126379155761,0.6788899968894663,51.83319419793973,18.091489716941428,-19.28737557865076,0.873811107124403,-0.21338726733079613,0.07546673143102847,-0.42464343655188197
243.0,-0.012202074908971145,0.016741990375642696,-0.1607655572429693,2.931904634695259,3.12311042394745,8.80582533438238,-0.1708851755621832,0.5940790075567672,0.194942638098549,50.03454064735696,17.407767871846012,-19.518358324337182,0.8825711932577168,-0.2084596431988363,0.08309186963683603,-0.4121161387550912
244.0,-0.020610872230252687,-0.006853237699668818,-0.1464394269299032,2.915580956214663,3.1109989570563368,8.818964594807237,0.023443132124494555,0.1443251056666606,0.07164519788483706,48.72507913563757,17.303082401697985,-19.417966534316506,0.8876629174998263,-0.20641966318006327,0.08531978677357142,-0.4022164756080727
245.0,-0.024324940991345398,-0.024236821400472078,-0.14153029110936272,2.9610275373721477,3.0819000786782054,8.815933910306846,0.03396931549960661,-0.24044059795436662,0.42583103855232096,47.73270554681353,17.580010818253342,-19.25604346970889,0.8910721795908735,-0.20731546934697087,0.08482067129976395,-0.3945234420448466
246.0,-0.02527964050111965,-0.023825122556436488,-0.12207806290221711,2.9904249026609366,3.0702882345820974,8.811283241542093,0.20314372390001814,0.07135230688535171,0.5122942892735378,47.17594079717162,17.756521149811373,-19.197452099598536,0.892895775987008,-0.20808137849129493,0.08469279558482115,-0.3901302261990458
247.0,-0.02903242449918296,-0.03382837559765177,-0.12383210776896852,3.002273820331256,3.070785344671065,8.807750196695517,-0.06559473915148582,-0.20013718251326434,0.49075572056123784,46.62057268025379,17.827365610310878,-19.212342296848835,0.8946951887881538,-0.2082480859687002,0.08550773711971191,-0.38574191890597453
248.0,-0.028237199661078502,-0.04879312170913274,-0.12248991305049528,3.027225423147532,3.051078451249773,8.806241738788357,-0.06024499939478303,0.008958503550606234,0.17202211185418304,46.34105382144082,17.977836891504772,-19.096707020769028,0.895607094154895,-0.20882517429847286,0.08454854916017068,-0.38354879588188184
249.0,-0.03757621194698298,-0.05174854747927133,-0.12267670318142387,3.6306296273880854,2.6906447527688675,8.622438040912666,-1.5963732373055741,-7.688694799168835,8.36202588185156,43.042410516149204,21.917283168411707,-17.155122909479715,0.9009301436217039,-0.23203713078456292,0.062359784494522785,-0.35577663847929647
250.0,-0.048250663577178124,-0.0332773075337985,-0.11649311349547384,4.287403907396039,2.5221770230818223,8.336392791577685,2.266329510379471,3.5929317862834775,-4.648111723052715,41.56723780415755,26.14930738681722,-16.642202391759824,0.898314874813348,-0.2625030883262292,0.04573954895156246,-0.3416796077075822
251.0,-0.06593223456323377,-0.04491296010572171,-0.10979366555291023,3.6750828845950796,3.0242477716356557,8.474823961771248,0.17716007438666748,0.8467516289113455,-2.7542855780463964,45.38212254896952,22.175619931471623,-19.44438349154124,0.8897254902835818,-0.2433083714215551,0.07368819903702645,-0.37269743705327985
252.0,-0.06402508847040711,-0.05495563707208083,-0.10901488755147289,3.4845162652715755,3.234595692793962,8.517997384205099,0.6699276824670215,0.34780258752524684,-1.0227677187747999,46.23426755188163,20.901156458935766,-20.673833919162398,0.8884610032769302,-0.23762310222495833,0.08543821312703294,-0.37975842231068696
253.0,-0.05677431394592392,-0.060923283560833194,-0.10236080955620594,3.3228024760387127,3.302205262275341,8.57859240150551,-0.6933837563366134,1.8187932713301862,-1.0508064436920126,46.408121347528834,19.84762470907559,-20.978874514518715,0.8896247273372371,-0.23025314652599718,0.09124341506616043,-0.38177875204276057
254.0,-0.05332721167304813,-0.07789111238848673,-0.1057182639815798,2.794764356673584,3.38123526011373,8.73499100424457,0.27673689932223317,2.534029002380465,-3.6473450749050897,47.73716054825395,16.587925491924928,-21.128273850118372,0.8889713523352102,-0.2064754969267804,0.10330374310537051,-0.39375522534399837
255.0,-0.05585795799599251,-0.07830584269443984,-0.11744233136206128,2.755846526566706,3.461995921058187,8.723510488011613,-0.15694756684300945,-3.961353416682092,1.741437490054332,48.785592451278404,16.351847194753233,-21.62657720030657,0.8850214777434454,-0.2074565141840168,0.1060079160544357,-0.4016926078653511
256.0,-0.04329350194691531,-0.07426749544528988,-0.1116705962204837,3.1383515521737575,3.2929603829528813,8.657606365877186,-0.7577318436752045,-0.7997445790018931,0.622053950987747,46.76781807058907,18.6993935983996,-20.797356705247736,0.8903338798215623,-0.22087829068660025,0.09376929055978281,-0.38534298442021214
257.0,-0.033503018611795804,-0.07414639374129248,-0.11493551959418427,3.4615182367020316,3.055229878898296,8.622704604722607,-0.6174222126960311,-1.3327639945700709,1.3567365055549603,44.87772166255849,20.70469626335155,-19.475100918086664,0.8957361243871682,-0.23048085353838463,0.07941432817775873,-0.37023145427428283
258.0,-0.04885203443718073,-0.07248580002143393,-0.10656378380309364,3.5583022541349614,2.9415196656306932,8.631761154574356,-0.43408620012145893,-0.5348412996106168,-0.20418050941306753,44.734270621226734,21.289637141428216,-18.796768388525702,0.8965260945829314,-0.23249273975118778,0.07210703348872932,-0.36925197105687135
259.0,-0.042204051012753194,-0.08015303825956488,-0.11048312078019507,3.785362340585146,2.8542160540135035,8.569080270067516,-0.7245123780945236,-2.1001875468867217,-0.2843867216804201,45.50289759939985,22.72044261065266,-18.405767066766693,0.8925439126616654,-0.24243078003150786,0.06158158809152288,-0.374606783128282
260.0,-0.036805701425356344,-0.08154838709677417,-0.11136084021005252,3.8908642160540134,2.7713293323330834,8.551699924981243,-0.602794448612153,1.1358777194298573,-0.27644411102775696,46.10408852213053,23.377166166541635,-17.945780195048762,0.8901994205896474,-0.24610417175693924,0.05412231333233307,-0.3791160674358589
261.0,-0.03672018004501125,-0.09061665416354088,-0.10945761440360091,3.7022948237059268,2.7703090772693173,8.63493773443361,0.39736965491372844,0.5617920105026255,0.3860887096774194,46.00064703675919,22.182811327831956,-17.7787556264066,0.8925686743698424,-0.23640291075243808,0.05804632910727681,-0.37918925065341336
262.0,-0.039120030007501874,-0.10076444111027755,-0.10392385596399098,3.6965495123780947,2.7819812453113277,8.636126781695424,0.11122233683420858,0.05045245686421601,0.2479158852213053,45.65169729932484,22.14847149287322,-17.84393520255064,0.8937621525390098,-0.23618578237621904,0.05944799993773443,-0.3764645441901725
263.0,-0.0356526357199056,-0.09619708890637291,-0.10664968528717544,3.6424758064516127,2.8554826907946502,8.635027143981116,1.4877569335169156,1.1697814221085758,-0.5119775275373721,44.90973642800944,21.800875295043273,-18.289859116837135,0.8961280328526751,-0.23459363570908734,0.06572837855192762,-0.37066818868941775
264.0,-0.057307116631074156,-0.08612619422277171,-0.10248056460979357,3.5848364055299538,2.9865911917874937,8.609005123449851,0.9051051852684424,-1.4644096441684464,2.2609527204863062,44.747994174066164,21.45932781649245,-19.11395437600689,0.8959275542817522,-0.2347553775548125,0.07369711905745382,-0.36909478702616044
265.0,-0.05959269041999177,-0.08277296654302949,-0.10238640365666331,3.69305683563748,2.966572093589599,8.572179789067473,-0.220995314431831,-0.012227143512794636,-0.07437795043272999,43.92340664924506,22.132275275373722,-19.07070606665168,0.8977111759809298,-0.23926862262955673,0.07233970391390357,-0.3623258178562062
266.0,-0.0537237645648346,-0.09385825746506313,-0.09681416957026714,3.8155364823348688,2.9143062080851214,8.538311668727285,-0.24938374592559293,-0.6401105475628489,0.3394239280094415,43.65419324397737,22.906661831235247,-18.825877226874226,0.8977675862969166,-0.24424959300026225,0.06792068453759695,-0.3598963657829419
267.0,-0.04596455734142597,-0.10747210670263384,-0.09439488966318235,3.9212760106402893,2.877878910494175,8.503370724214157,-0.076109924693717,-0.31351391854932376,0.25272423288749024,43.450775073994976,23.581845003933914,-18.672288411824212,0.8975826180347682,-0.24882054913506427,0.06453975741081264,-0.3579676286497321
268.0,-0.04257629912704659,-0.12026870480686375,-0.09189059982765727,3.969831553707242,2.8575468509984656,8.489199130793153,-0.19717179948297178,-0.31205790341313555,0.14066188040912672,43.36356613652542,23.889093233674274,-18.582603686635945,0.8975042356900828,-0.250833699903488,0.06277504346386421,-0.3571615318055899
269.0,-0.035520100408377366,-0.13682452886740848,-0.08841139335356485,4.0167453261398975,2.849999775205126,8.470256903075942,0.06207804128732532,-0.31526041081263345,0.10287819396051104,43.34098994042936,24.18479145592147,-18.57725029036005,0.8971269148881458,-0.25309802016942035,0.06157680967327939,-0.35678409863292876
270.0,-0.03729622344610544,-0.12679917387883557,-0.08925393391030682,4.050145357985837,2.8378595594020446,8.458749803304482,-0.009827399685287168,-0.08297723249409915,-0.028109018489378454,43.277188237608186,24.396766817466563,-18.528464299763968,0.897041197153619,-0.2545350888619197,0.060488406362903216,-0.356188088427026
271.0,-0.03852714398111724,-0.13538749016522425,-0.08508261211644375,4.0742863886703375,2.8282926829268273,8.449391030684497,-0.016556845003933902,-0.1402537372147915,-0.014230920535011803,43.26016669944925,24.5508531667978,-18.49240755310779,0.8968623382501967,-0.25560048251966955,0.05961594566129032,-0.35603421558851306
272.0,-0.03529110936270654,-0.1411012981904013,-0.08982848151062155,4.088359559402046,2.8187915027537356,8.446346184107,0.00642456726986625,-0.01685188827694728,0.016011014948859162,43.25331800747443,24.639288699842645,-18.44942958300551,0.896811764003147,-0.25610843744866246,0.05893202827832415,-0.35589902931667977
273.0,-0.04269394177812747,-0.1297159716758458,-0.08978520849724625,4.097518489378443,2.798428009441384,8.4489795436664,-0.2093381195908733,-0.032115460267505905,-0.08937352478363493,43.255615656963016,24.702532454760032,-18.315843823760815,0.8968599708080252,-0.2561661257041699,0.05772615269158143,-0.3559322146986623
274.0,-0.03855895245588401,-0.1185826495822562,-0.10041281705443783,4.098871642126559,2.755507886553519,8.46206067588325,-0.3694329315124948,0.053954165261698696,-0.532792537746806,43.84320346746094,24.714600310029596,-18.032062539807427,0.8953364379876549,-0.25557480165336627,0.05427388983910307,-0.3606231116106927
275.0,-0.019238398885435645,-0.11720159504161756,-0.12556613260457974,4.085077322902155,2.7057439895688202,8.484957569749575,-0.2202834748865788,-0.020381937002107667,-0.2687343152752474,44.22761192530275,24.621443363072913,-17.680208556603436,0.8946760665197637,-0.25391912935055183,0.051211637898162035,-0.36386991364471477
276.0,-0.03453471403565177,-0.11036903868824349,-0.10841574679384132,3.9976592451684345,2.7060978012360226,8.525975520665877,0.1599223466580931,0.5372924704390383,0.24774329743150075,43.972292905815735,24.054134459954277,-17.602280257564388,0.8965117908364946,-0.24922498128549098,0.05347430375457257,-0.3622649719168274
277.0,-0.023419107607912434,-0.11262511729848837,-0.1139897380704061,3.9273545045669076,2.718894592986225,8.555303161591791,0.2722187461063872,0.4306335975326584,0.025504221493091048,43.82674993933587,23.604900260071553,-17.619871688577632,0.8976773481680506,-0.2457627746839532,0.05575538682703059,-0.36140413568451524
278.0,-0.028971650578149766,-0.11194562316537321,-0.10883761097068692,3.872330478089906,2.7475118126221445,8.570869322731378,0.19286340531125812,0.3693994600566518,-0.1527468811889383,43.633385050313095,23.25252573487448,-17.760868303966234,0.8986732635678962,-0.2434255012452024,0.05860899292561207,-0.3600473034551609
279.0,-0.01078570165189381,-0.11854512060070764,-0.116590417639253,3.8402874150593393,2.767794814557297,8.57826885641271,0.4688243162707053,0.9545648062712542,0.2227998528377739,43.641912753885336,23.050595390572383,-17.872256653013427,0.8988544040222495,-0.24221837166480642,0.06022984538688156,-0.3601797912870761
280.0,-0.01950620059195983,-0.12044606796298375,-0.10357510022104828,3.7110659023640924,2.824842643587726,8.616087595069498,0.6564752631973324,0.9272062680304222,0.30897610617811244,43.165092634221274,22.233354173691506,-18.144529757221534,0.9012629182944812,-0.23649588618391967,0.0664688544151212,-0.35677588989674425
281.0,-0.020997339927316325,-0.12735053014124612,-0.11287049941927992,3.64773341201154,2.8640111835450144,8.63075885129819,0.37357653328837437,0.4973012906972387,0.29614511914128355,42.78934355213368,21.835571096062345,-18.352122789517068,0.9027799207294219,-0.23385031038458656,0.07033803606316735,-0.3539498290305534
282.0,-0.011423138885766737,-0.11404898654977333,-0.11381133153497433,3.604618082874378,2.8588741991682585,8.651197678992919,0.31058350661271594,0.32772224251620397,0.27228577750927274,42.5400789357836,21.564766271870667,-18.27672032473493,0.9040407737636094,-0.2313760615848975,0.07136752355872764,-0.35218958425957253
283.0,-0.02140511782998014,-0.11587126746843507,-0.11356292383200331,3.5758211382113823,2.874981454422839,8.657885129819041,0.1956647371773257,0.1631050728710052,0.011571316173991208,42.300936645311154,21.379837773032108,-18.358345041399723,0.9049489170350302,-0.23005602639728745,0.07319345800517027,-0.3503700489483347
284.0,-0.022671874414596678,-0.11282863137387132,-0.11607335806076954,3.602469971151324,2.874622119815667,8.647294256490955,-0.5659707392004796,-0.9965995091978569,-0.9563160334944364,42.54847186317485,21.550289657562473,-18.37550906672661,0.90387790266543,-0.23162024476119292,0.0721240354117118,-0.3522639798880147
285.0,-0.022120115394702336,-0.11031523734592183,-0.11190150237907909,3.7087649394927107,2.8354562211981573,8.613948971563449,-0.22517046944662994,-0.6728005226480835,-0.3351328631373871,43.39041296691769,22.223315911730545,-18.207368588662845,0.9004504252059866,-0.23676600323082686,0.06649960373811398,-0.3585769994424713
286.0,-0.02051474279719756,-0.10806084447941254,-0.11322801693454723,3.750933929039749,2.823903225806452,8.599770184706458,0.19679456558390468,0.0782982793825634,0.06496045015173652,43.54579692124686,22.4891061125473,-18.166592320445094,0.8996412485822559,-0.2387649325447529,0.06484901971851936,-0.3596488868717733
287.0,-0.030993012625978797,-0.1028777865198007,-0.11417891798733654,3.647107405117829,2.853694335169158,8.634652991645126,0.5837188799595369,1.031010862743996,0.3976946231875913,42.89575939689408,21.82932882338616,-18.276229873833877,0.9025154970448652,-0.2336070958711176,0.06957511119678918,-0.3548490685027631
288.0,-0.03919735116706005,-0.09869887789891725,-0.10823154808737027,3.557907965231726,2.8808583042973286,8.662532332996141,0.342008249503578,0.8563932481922745,0.1360844947735192,42.47000071419205,21.268543059926564,-18.378597127777155,0.9045332577701285,-0.229305231954376,0.07341352314562961,-0.35175670089404665
289.0,-0.03861401783372672,-0.08860976546401408,-0.10091799670300851,3.4648410793900566,2.884468687947248,8.698553735341502,0.030101907009853518,0.17159933357686108,0.04118224541980444,42.4152674941928,20.69403930632048,-18.328729253306356,0.9055958982705875,-0.2246365815722903,0.07539560052993519,-0.3516668095192106
290.0,-0.04179491214266981,-0.08836536660297478,-0.10343883706118168,3.483771346146641,2.8596738601026566,8.699619609606234,-0.05410227230152487,-0.2051529541793114,0.0272191469034506,42.41189281967704,20.809066024127983,-18.183719465362856,0.9056338445022293,-0.22509735452808063,0.07386620022464499,-0.3516494303039601
291.0,-0.04188055898992169,-0.0920106402907347,-0.10522325877636658,3.5512581769135663,2.827272413922296,8.683174628151809,-0.44806208085122323,-0.8631659548162302,-0.745419804428459,42.75816895208122,21.22927859578135,-18.02753081563074,0.9041427964961223,-0.22809019707894046,0.07034651535348996,-0.3542382682341613
292.0,-0.046852946686148894,-0.09667015098722416,-0.10627016597354914,3.6103930538383717,2.8024875051515497,8.667153797160092,-0.15356487205425048,-0.16289690345060132,-0.3771601382488479,43.4490343186842,21.601190242029148,-17.906935156045108,0.901589224825559,-0.23100118359847888,0.06660060071372373,-0.35951143763793036
293.0,-0.04860542879622344,-0.09957317073170732,-0.10580251770259638,3.579915420928402,2.8144795436664056,8.676261998426435,0.2070933320220299,0.10789486624704958,0.09737903225806452,43.36651504720692,21.413906372934697,-17.96348101888277,0.9020762756754525,-0.22965861042289537,0.06795455289142407,-0.35894409049331233
294.0,-0.04111624704956726,-0.1014073564122738,-0.09576593233674272,3.6039577104642015,2.81911782061369,8.664655782848147,-0.15834849527930767,-0.3934561860739575,-0.6535724822974036,43.786080104248626,21.56629622344611,-18.01267579661684,0.9004728161744688,-0.23123353383536582,0.06687919684775767,-0.36213721516955155
295.0,-0.037134736428009435,-0.09894964594807237,-0.0972700629425649,3.5886845003933914,2.8501758457907163,8.66044079464988,-0.05692122344610545,-0.4495758752950433,-0.47230035405192755,44.07991001180173,21.472916256884343,-18.205707857985836,0.8994490547444923,-0.23131683065558617,0.06810729621420142,-0.364403499665421
296.0,-0.017256884343036974,-0.09502321007081038,-0.106647128245476,3.6340841856805675,2.8536766325727774,8.640409913453974,0.046488985051140824,-0.29658733280881194,-0.215081628638867,44.55250540912667,21.754477281667977,-18.270117033831628,0.8974382931585365,-0.2340094471947286,0.06646252860306845,-0.36793675096577505
297.0,-0.011669354838709676,-0.10562096774193547,-0.11713709677419358,3.6464354838709685,2.854887096774193,8.634983870967742,0.05524193548387096,0.6826612903225806,0.22933467741935482,44.488659274193544,21.83210685483871,-18.28578629032258,0.8975139499758064,-0.23462455510483876,0.06640561004032258,-0.36737675828225813
298.0,-0.017669354838709683,-0.10548387096774192,-0.12035483870967742,3.6364596774193547,2.8566532258064505,8.638435483870968,-0.14017137096774193,-0.5883064516129032,-0.3982358870967742,44.52585685483871,21.770715725806454,-18.2866935483871,0.8974842691693549,-0.23419903147580648,0.06658039697580644,-0.3676992598790323
299.0,-0.021709677419354843,-0.09883064516129031,-0.12008064516129031,3.6949354838709674,2.843911290322579,8.61767741935484,0.042288306451612905,-0.05488911290322579,-0.11421370967741937,44.86537298387097,22.133417338709677,-18.25110887096774,0.8959032124032258,-0.23708284416129033,0.06415513549999999,-0.370124029516129
300.0,-0.019991935483870966,-0.1090241935483871,-0.11792741935483872,3.7123145161290316,2.84583064516129,8.610104838709677,0.3390625,-0.2950604838709677,0.05307459677419353,44.977620967741935,22.244657258064514,-18.276562499999997,0.8953454292016129,-0.23808869356451615,0.06369402467741936,-0.3709380609596774
301.0,-0.01375806451612904,-0.10904032258064517,-0.11851612903225808,3.6928387096774196,2.862798387096774,8.61257258064516,0.24501008064516128,1.0715725806451615,0.4838709677419355,44.706300403225804,22.114667338709673,-18.371824596774193,0.8962914248064515,-0.2372373516129032,0.0654614846048387,-0.3688569104435484
302.0,-0.019274193548387105,-0.10955645161290321,-0.12211290322580645,3.6123064516129033,2.869629032258065,8.643991935483871,0.07626008064516127,0.27807459677419366,-0.006502016129032229,44.34082661290322,21.61118951612903,-18.350655241935485,0.8982199882741935,-0.23307672266129031,0.06809426575,-0.36631100625806445
303.0,-0.011491728701406126,-0.10019396195202646,-0.11306761786600497,3.581150744416873,2.8733246484698087,8.656501033912326,0.03895910876757651,0.0405151468155501,-0.08261993382961123,44.28441118693135,21.41516620140612,-18.346168062448303,0.8987046373312653,-0.23151464439640196,0.0689758296331679,-0.36597749419437553
304.0,-0.017983959588798306,-0.08756049864114379,-0.10266764149828664,3.5132065166016777,2.876469543896963,8.6830786659577,-0.18423228317381543,-0.15728058903462128,-0.21378260516365352,43.84603863878057,20.993392192484933,-18.315611152959942,0.9007314166679367,-0.22785186768994448,0.07128120765375753,-0.36280439229227224
305.0,-0.02146989838118871,-0.09262164717003427,-0.11657172397494978,3.532225570128796,2.856618988538343,8.681778004253811,-0.04523514120288313,-0.1883009127968805,-0.17010054797353183,43.845923985288906,21.112037878116503,-18.20435055535862,0.9007094518007503,-0.22841085586762966,0.06998086363237033,-0.36277997875827134
306.0,-0.031508950726692665,-0.08929200638071606,-0.1126491492378589,3.552638514711096,2.855545285359801,8.67382275788728,-0.04654230178423727,0.04680096449249674,-0.13927814457048326,44.313528188881016,21.242881698274843,-18.207618826066405,0.8990363466225334,-0.2297155618195675,0.0685744980978672,-0.36635783063086386
307.0,-0.041649917973998994,-0.08619861009208346,-0.1140712925484118,3.660416312869427,3.242454844480351,8.463234709776348,2.510023110173148,-0.10139966310258884,-1.92717083803918,45.21170419665356,21.92124919966255,-20.98523875474363,0.8909383831419118,-0.24519251187414984,0.0839849413052164,-0.37114800396546943
308.0,-0.035758403886685955,-0.10584306790983458,-0.1030002143392991,3.5012249490944165,3.2870617654413605,8.523915621762583,-0.7456093934197836,0.4964165148429965,0.21493096488407815,46.221681536455534,20.92721841174579,-21.085039116922086,0.8891117404540421,-0.23850671933340475,0.08708144845407781,-0.379689835448505
309.0,-0.025962919301253887,-0.10233397635123065,-0.09939949273032542,3.4547676204765474,3.2564648304933375,8.56294859429143,0.6757024077447933,0.6943968134890866,0.8393683242239132,46.51735478512485,20.63085190940592,-20.814456962454898,0.8891038132300932,-0.23542724026578069,0.08586553503733076,-0.3824197187227164
310.0,-0.037651198513914186,-0.09210016789911762,-0.09897009966777409,3.4285435644625437,3.213808452113028,8.593240810202552,-0.438886507341121,-0.4064018236702033,-0.11607812667452583,47.173759957846606,20.46629961061694,-20.493946031150642,0.8876363891572893,-0.23346897380416531,0.08291154486889576,-0.38783672428071303
311.0,-0.05507598328153467,-0.0997490086807416,-0.09456492694602223,3.375430000357232,3.1208519987139636,8.649519022612797,-0.4469970171114207,1.006529310899153,0.3085315971850105,47.71154395741793,20.12761985139142,-19.82812220912371,0.8871823842714249,-0.228900776235416,0.07837566662108383,-0.39261863188690027
312.0,-0.055619762083377974,-0.10077848033436929,-0.0927693351909406,3.4115709641696133,3.0262677097845883,8.671439931411424,-0.22036178687529026,0.23400359018326006,0.6988363162219126,47.47845577465795,20.354071553602687,-19.22223814882292,0.8885102330066803,-0.2283716692332369,0.07345322170664095,-0.39104652431779374
313.0,-0.056760368663594477,-0.09535023041474655,-0.09586328725038402,3.408033794162826,2.975497695852534,8.691281105990782,-0.13314132104454685,0.3661578341013824,0.10865015360983099,47.27974270353303,20.334715821812594,-18.886184715821813,0.8896667013855608,-0.22688778651459293,0.07145224488632872,-0.3896957282841782
314.0,-0.0636148139822412,-0.09115981042298901,-0.10240674759282155,3.3936627514892654,2.9457602562661567,8.707617436589114,-0.1038614373758945,0.1456985734891911,0.17088004851822708,47.143002088719044,20.2452124545727,-18.679362308456035,0.8905141219677419,-0.22540558477981343,0.07055930976735605,-0.38880994109574385
315.0,-0.05812077104642015,-0.0941866640440598,-0.09992073170731708,3.4056193941778132,2.9168686073957506,8.712885523210076,-0.241422846184107,-0.10832390833988985,-0.1558234166011015,47.229455153422506,20.32047969118804,-18.50002581628639,0.8903231232903226,-0.22539345018253343,0.06870155384834777,-0.3896013114702991
316.0,-0.0562313139260425,-0.09358556254917387,-0.10438965381589299,3.4041864673485436,2.9020525177025975,8.718832808811962,-0.035687942564909536,0.02823687057435091,-0.09090160306845003,47.37642481313925,20.309177075137686,-18.407194138473642,0.8899545282354444,-0.2250769504911487,0.06777928076494885,-0.3907953251780095
317.0,-0.051857592446892226,-0.09806294256490952,-0.10090853658536586,3.4031012981904007,2.8991431943351698,8.720061565696309,-0.05831776160503541,-0.009596282454760033,-0.07758285798583792,47.47518317269866,20.299069384343035,-18.382276504720693,0.8897087499443352,-0.2249584663221873,0.06750647608005508,-0.39150044355271435
318.0,-0.052074744295830075,-0.10521911880409128,-0.09594256490952006,3.411073564122738,2.897841856805665,8.718348151062157,0.00891768292682927,-0.15080153422501968,-0.02454760031471282,47.52657848151062,20.352330841856805,-18.37453038945712,0.8894730000735638,-0.2253441554181747,0.06708997798072384,-0.39188054425570407
319.0,-0.04385274062418045,-0.10219968341388483,-0.1010286800794275,3.397499053988235,2.9166992057247763,8.71597505713536,0.08601957354538983,0.3462277780899929,-0.4544137068674834,47.8094213639429,20.264957054812484,-18.48892703767187,0.8884396986005301,-0.22526272217463755,0.06774122647509459,-0.394072555359091
320.0,-0.04210241279832154,-0.09435446405155296,-0.10433121651493013,3.391295848787981,2.881844292083474,8.729519688284439,0.06621063748079876,-0.66627561724926,0.48974829998876024,47.71255760368663,20.230769735116702,-18.250191661046795,0.8891033473538645,-0.22411839425441155,0.06633877861136714,-0.39344721417226775
321.0,-0.04685372410175716,-0.08998211007455696,-0.10643783485069871,3.5300853752201116,2.8593367801880785,8.680381401970703,-0.13770014939492714,-0.9852080289236071,0.7767879973586602,47.20275795211869,21.102943876212954,-18.21560035452025,0.8896447886061221,-0.2303815139958132,0.06343598383754823,-0.38898838308141315
322.0,-0.052869131917125625,-0.08500580720092914,-0.10376681278333519,3.6512921958712674,2.798378854295455,8.649962534187553,-0.04170179086583492,-0.7496604660747068,0.6178768124086771,46.69576823648421,21.864493181222134,-17.9129997002735,0.89061993275074,-0.23488269559851638,0.05905802781649245,-0.3847393988475516
323.0,-0.04535274062418043,-0.07544546850998463,-0.1054239256678281,3.8345209995878764,2.7170454460304962,8.595284178187404,-0.26192583642426287,-0.8024708703308232,0.6619576823648421,46.19837093964258,23.027250524521374,-17.527162714023454,0.8909668041133716,-0.24217977532482857,0.05244416139447754,-0.3802832595496609
324.0,-0.06022816679779702,-0.08270653029110936,-0.10223446105428796,3.8248544453186466,2.7097639653815886,8.602604248623129,0.38812942564909514,0.8428894571203777,0.2400177025963808,45.5742525570417,22.95687450826121,-17.471429976396536,0.893230015483871,-0.24112536357985836,0.05360053640440597,-0.3755149810306846
325.0,-0.055392604248623134,-0.08446892210857593,-0.10603147128245474,3.7343288749016526,2.7450668764752164,8.631395751376866,0.09596774193548387,0.9696498819826908,-0.6940794649881983,45.63621164437451,22.37839299763965,-17.628894571203777,0.8937328950055075,-0.23726727916915813,0.05700174580959872,-0.3762943196695516
326.0,-0.05598673710239408,-0.08889887977220785,-0.10693334831965831,3.6276020381401968,2.770560113896069,8.669094900902923,-0.0750187329062231,0.3230569293020119,-0.27072655576786187,46.0914470233412,21.70811556329849,-17.7108332396688,0.8931156764027575,-0.2326575753048593,0.05943727918594282,-0.38024718015211123
327.0,-0.05740253268892137,-0.09353134015211118,-0.10529425649095202,3.621404331047918,2.7692499344348276,8.67264549848263,-0.17964178000074935,-0.6967664662245701,-0.2093383537522011,46.304659107939,21.673857761043045,-17.69311472031771,0.8925038055025288,-0.2324302020209434,0.05900702176542654,-0.38193121163856736
328.0,-0.05143233674272228,-0.09962768348881645,-0.10573599715259827,3.7034367951744027,2.755068937094901,8.642599209471353,0.12505139841144952,-0.18972371304934255,-0.058873075193885585,46.375108299614105,22.19368420066689,-17.664700648158554,0.8915385673406393,-0.2363354461921809,0.056528780149132665,-0.3821635328857106
329.0,-0.04566090629800307,-0.09468701996927803,-0.1059519969278034,3.7104005376344076,2.7551497695852536,8.64038056835637,0.07925067204301073,-0.34843750000000007,-0.3080405145929339,46.6015384984639,22.23137480798771,-17.67143817204301,0.8907290111129034,-0.23677846950499226,0.0559443922123656,-0.38389322554723504
330.0,-0.04340245775729647,-0.08994623655913978,-0.10072964669738864,3.6597849462365586,2.7579493087557605,8.660591397849462,0.3337653609831029,0.8801363287250382,0.1495295698924731,46.7201900921659,21.907738095238095,-17.653945852534562,0.890832528640553,-0.23428794734254987,0.05688879685867897,-0.3850313764900154
331.0,-0.040555056011389604,-0.08879022891611404,-0.10930182458506613,3.6159920947135737,2.760637668127834,8.678208572177887,-0.25475815818066017,-0.3441726611966581,-0.36873735528829943,46.96802761230377,21.632986072084222,-17.638142304522123,0.8904000700824248,-0.23228032597973106,0.05739545100277246,-0.387163956416395
332.0,-0.04194035442658574,-0.0901324416469971,-0.10557641152448391,3.5639292270802887,2.7728610767674495,8.696028249222586,0.06674534487280356,0.278182486605972,-0.09241879285152296,46.63786365254205,21.305716346333966,-17.678398149188865,0.891935376208647,-0.22970882207972726,0.05969924884624031,-0.3847749093449103
333.0,-0.05314375632235585,-0.08815454647634033,-0.09597868195271814,3.5804139222959046,2.7800780038215116,8.686812895732647,0.027698709302761217,-0.4694773050841108,-0.2520177681615526,46.89596235622494,21.417278296054846,-17.735618045408565,0.8908404391588549,-0.2308916424238882,0.05917318735015549,-0.3867134771678469
334.0,-0.029687909782323635,-0.10368378854295454,-0.11325132066988876,3.6993021617773785,2.7578021055786586,8.642803529279533,-0.13667130306095687,-0.7913781799108314,0.15266592671687082,47.297837520137875,22.16744548724289,-17.68349888539208,0.8884325487166835,-0.23662077185991537,0.05481893863826759,-0.38935555586493575
335.0,-0.03555824060544753,-0.11449166385673071,-0.10644516878348509,3.6931149825783978,2.7752220973361794,8.640506987374021,0.3449948016185231,0.7014211250983479,0.07914114308193773,47.284167415982914,22.12030108463527,-17.79530647034581,0.8884263447308456,-0.23666238264654754,0.05586293868933348,-0.38922192451080895
336.0,-0.025886534787006858,-0.10228123712112697,-0.12075808324903528,3.6094258738900753,2.799491083136637,8.668227342549923,0.5329571531602413,0.9998198128582669,0.4365957860327451,47.05137897605935,21.591386492637966,-17.88905951444307,0.8898890591428008,-0.2328451740648346,0.059245394643831245,-0.38768680465377847
337.0,-0.026209911580682622,-0.10190445281180922,-0.11903439361582557,3.472138286313739,2.86180475628489,8.703044677981346,0.5060262003109662,0.6157173181034806,-0.03864089252931696,46.58592807500656,20.734717636562884,-18.189845359859127,0.8922887611298846,-0.2270603359734461,0.06597199121461353,-0.38441385439743736
338.0,-0.02510284365516466,-0.1020261511370874,-0.11279907084785135,3.437341800606947,2.8789355962684047,8.712240080926158,-0.09033007380765046,-0.19477070922782957,-0.13890449964407475,46.3960698362744,20.52103705368851,-18.274233355812818,0.893133493892323,-0.22560819413322844,0.06785430192124686,-0.383049709485969
339.0,-0.021675715096021387,-0.09003536162786341,-0.11108088868907122,3.6042634569792282,2.853221663429794,8.650958750140497,-0.30756028510611977,-1.4773805058407457,-0.44547746801682997,47.110322441237486,21.57161821487602,-18.244317449135803,0.8892209800663928,-0.23392268378390327,0.06173435081634955,-0.38797763136878727
340.0,-0.020246459698548328,-0.0900829649921191,-0.12619328612640968,3.6962523122069726,2.830923427721042,8.619434828219251,-0.15469220092479566,-0.46065645875754646,-0.7138821671881385,47.599420053184026,22.149696396224492,-18.176786220727656,0.8868280341576202,-0.23832374992190553,0.05781534552722238,-0.39143084297702035
341.0,-0.020418928774005345,-0.09262212765734987,-0.11622644337042448,3.7047236983461898,2.8301007307576023,8.614559964032821,0.21825681812439174,1.7056116707748366,0.7194078027346559,47.625794896023656,22.208104726530063,-18.181015038167207,0.8866115695096857,-0.23872116741871008,0.057462257974824724,-0.39154709553228895
342.0,-0.03004929803879541,-0.11165237738005931,-0.10390937019969279,3.6043201871896544,2.7932109813167583,8.669831029185872,0.07073531775801092,-0.6350973904190333,0.25397420783767377,47.307016486264416,21.5762679509163,-17.854105267388277,0.8890116636893152,-0.23267756694209268,0.05838274004376094,-0.38968952276408375
343.0,-0.006938590048208916,-0.07281740295701104,-0.12212618485631861,3.5968095072548616,2.7969999119989053,8.672885616874606,0.4064425296219525,0.8049639260860508,0.5660138357760172,49.39007792017691,21.527624229663687,-17.87277579412275,0.8817256701975669,-0.23337887627854698,0.054580813985857096,-0.4057785876458574
344.0,0.005221627706578215,-0.07629992428420695,-0.11234216219560114,3.5052389621795697,2.789460196059468,8.713423303561083,0.14705097223783295,-0.04221514873491905,-0.17212248946382935,51.331854413951916,20.9509370210584,-17.747176531720037,0.8756254335646498,-0.22953327725780318,0.052349184502305884,-0.42111589296771484
345.0,-0.02288073760600429,-0.09722989545295731,-0.1065330008460303,3.438353155362011,2.807943353434177,8.734803517952656,-0.044875847664006596,0.44588972809404437,-0.12265187921544848,53.573652423341024,20.525436781669285,-17.812136723205192,0.8676986570988174,-0.22764510089605156,0.050297923769174,-0.43838472301180686
346.0,-0.01962623669854746,-0.10269559288776897,-0.11811903498522715,3.40028333651357,2.7938257473776105,8.755073033937926,-0.05943389157393879,0.09732082410846613,-0.07033611625902994,55.37268930690861,20.28886086395292,-17.68625269339983,0.8612288986776728,-0.22616684101945433,0.04693494062191418,-0.4522294729774856
347.0,-0.006598832634988021,-0.10627483177414562,-0.10463555435897302,3.357503419408859,2.813141752337038,8.765220848766198,-0.006483458843805027,-0.18761070929753348,-0.05004901051046734,56.070225221810674,20.028335001868932,-17.784994626269807,0.8588122832712481,-0.22494178297132475,0.0474734829952889,-0.45764595322069357
348.0,-0.005628478548208483,-0.10785473633216666,-0.11557074634512286,3.366449997516801,2.8201524205093085,8.759151393249006,0.0699828593908059,0.07285428717806627,-0.15382845602515613,56.42950702287941,20.077673223837316,-17.835649967587713,0.8573047828611307,-0.22564551236254973,0.046884383083759626,-0.46027880331972437
349.0,-0.007986324978457159,-0.11394685474504515,-0.12133595594020455,3.443374395863775,2.81991354763778,8.728536229440634,0.37453706305496237,-0.45735922220973363,0.326337880746319,56.727251109924694,20.558020142557414,-17.89059409070473,0.8554052528526284,-0.22953581201197032,0.04435371325834552,-0.46212452416558014
350.0,-0.02051389981641752,-0.10435925030909296,-0.11469180622681802,3.4793276010640293,2.815315508973061,8.716272348357123,0.021217709152897973,0.07900134876924805,-0.01262767646397664,56.676961510902544,20.784532766194594,-17.883417572871004,0.8553393499565303,-0.23110863915386273,0.04337144551306621,-0.46158995605397884
351.0,-0.040344123487317834,-0.08779963283503803,-0.11375988160803267,3.460375782098835,2.8259018021055784,8.719783447604062,0.5153059551908883,1.1820697988085869,-0.10002903600464576,56.73606740099659,20.66221525982541,-17.944647774530743,0.855197709617474,-0.2304705322683676,0.044249281581993934,-0.46207052329062226
352.0,-0.04417088157056687,-0.08227529878985426,-0.11155389457120377,3.2539725000936643,2.9064993818140947,8.770636731482519,0.26639831778502115,0.946051571690832,-0.8307130680753811,56.70913767749428,19.379122410175714,-18.322121688958823,0.8564484821108238,-0.22265939279420027,0.05308532668277696,-0.4625181311597542
353.0,-0.06150402757483796,-0.08753857105391333,-0.10792364467423476,3.1258587538870772,2.9335976171743288,8.807661683713608,0.37410737701847063,-0.7300368101607284,-0.7367563036229441,57.18009207223409,18.594107096024878,-18.408852703158367,0.8553726410308342,-0.21751875046315233,0.05656773201573564,-0.4665032353456221
354.0,-0.05627915776853622,-0.07798250346558766,-0.11020887190438727,3.4729018395713913,2.8736752838035295,8.682587726199841,-0.2766805758495373,-2.842423007755423,2.4723476546401404,56.72104524933498,20.788079315124946,-18.288071119478474,0.8542715440756059,-0.23293929036926297,0.04624961957199055,-0.4614339979324491
355.0,-0.0671679967030085,-0.0653468584916264,-0.10596081076018135,3.7416314113371545,2.794875276310367,8.599285414559215,-0.665294012963171,-1.5411231782248698,-0.2536735229103444,56.41623018995166,22.464172146041737,-17.98473736465475,0.8535873069072346,-0.2436753252921584,0.036619978234535985,-0.4581685872880371
356.0,-0.07354812483608705,-0.06096311490764678,-0.10188415570791653,3.9600483121651493,2.7053584728934847,8.534310198194147,-0.37907651455546815,-0.5072266868982054,0.25293603180847474,56.39430613315349,23.83570597298715,-17.570773505114083,0.8522223925782286,-0.2518598853704057,0.027113981053875837,-0.4571806691421264
357.0,-0.06441371623393653,-0.0697427690981979,-0.10144561837323443,4.124409679292646,2.6321922183507542,8.483993808774494,-0.28338168764752164,-0.7345928871155071,0.27749574997190063,55.22577718144693,24.883185401914503,-17.222906422108576,0.8556171277131897,-0.25781878494090704,0.02229920856312989,-0.4478663467890018
358.0,-0.06760555992656701,-0.07314705331385112,-0.10076804915514594,4.223070398261585,2.597002285414558,8.451236971263722,0.16383752950432728,0.15712084597804504,0.41404967966730355,53.430210089543294,25.513506425386836,-17.069541699449253,0.8616860031336404,-0.26140183335528827,0.022342306411974072,-0.4339604539152523
359.0,-0.06333857854707581,-0.07648304671986812,-0.09816136525420555,4.197801918249596,2.59832411674347,8.464044921509124,-0.008561172305271453,0.1682781649245064,-0.07410222546925928,51.891516335094224,25.35244558090742,-17.05067859952793,0.8677519067871191,-0.2597588182354726,0.026412510471919372,-0.4225321070913792
360.0,-0.05246262785208498,-0.08294020456333598,-0.09804287962234462,4.191636900078677,2.597997246262784,8.46807356412274,0.014712824547600308,0.16074203383162863,-0.11620525177025963,51.123104346970884,25.305763178599527,-17.05122934697089,0.8707084152202988,-0.259233435711251,0.028290491296616836,-0.4167788963261212
361.0,-0.05478756884343036,-0.08725295043273013,-0.09703481510621557,4.182061565696301,2.5919608575924458,8.474583595594023,-0.04282553107789142,0.019887145948072386,-0.054930910700236035,50.759108231707316,25.24080448465775,-16.995126868607393,0.8722272653835565,-0.2585130273992919,0.029042121938630996,-0.41412328109775776
362.0,-0.053949645948072375,-0.08579071597167584,-0.09874901652242327,4.209732494099133,2.5856018882769467,8.462863886703383,-0.09166011014948859,-0.4340578284815106,-0.29892800944138476,50.87849134539732,25.422452793076317,-16.979789535798584,0.8715187397797011,-0.2598213774744297,0.02783265623918174,-0.4148988397954367
363.0,-0.048195646472593764,-0.092603441667171,-0.10214973067844821,4.287732857229317,2.5692642579031233,8.428538401016766,-0.1465999414956929,-0.8153747806088483,-0.10564062216304546,51.01036055801005,25.928124180435354,-16.9358696967863,0.8702263137247069,-0.2634576959046986,0.024970927349754885,-0.4154952403334744
364.0,-0.04547233149750854,-0.09934184671871531,-0.09817006596864974,4.363588694546998,2.5587233956706794,8.392341584458032,-0.08051377877302346,-0.37015296858923924,-0.07746625915390667,51.141662379713125,26.429861657487542,-16.93459495854264,0.8689088420928808,-0.2671011509704453,0.022361428175270825,-0.4160637557725593
365.0,-0.050176763703120915,-0.10282749298957007,-0.09576166555710222,4.400963505416695,2.550176804050919,8.37433759002603,-0.07016935988218442,-0.2325243599830539,-0.044476638624947044,51.207362464443506,26.66781733543142,-16.933883828602553,0.8682974947325146,-0.2688208996528072,0.021114775610845488,-0.41632950443151984
366.0,-0.04247862575399947,-0.11859942706126811,-0.10026635598862194,4.432418023361376,2.547942060562045,8.357862736791144,0.07054572918557969,-0.596115641832597,-0.2581893421291533,51.3047728923319,26.87629163388408,-16.958125037826058,0.8675284770586256,-0.2704948860002825,0.020104919755855474,-0.41689899320789214
367.0,-0.023906504065040652,-0.12856407230325406,-0.10516071536645888,4.477613417660232,2.549761746252699,8.33341996005568,0.09106063013173556,-0.19717760848514193,-0.06172645705985595,51.42935831870726,27.171475872016785,-17.007976759668338,0.8665072180847809,-0.27287024364530255,0.01886320371349029,-0.41754117546704594
368.0,-0.016289732494099134,-0.11530979543666404,-0.11319374508261212,4.504862509834776,2.5348426435877256,8.323731707317071,0.14829489575137686,0.05417363296616838,-0.14500147521636506,51.49764457120378,27.34613001573564,-16.922295436664044,0.866028605607986,-0.273871975942565,0.017332415391817468,-0.41795302358143205
369.0,-0.003041306058221873,-0.11927753737214794,-0.12003343823760818,4.537788945712038,2.5234126671911885,8.310520456333595,0.14528545436664042,-0.1464029307631786,-0.06918273013375294,51.55163503147128,27.559030782848147,-16.874822974036192,0.8654907764706926,-0.2752897876070024,0.015879564511408338,-0.418190429465775
370.0,0.005526750590086546,-0.11798033044846579,-0.1223324154209284,4.51737588512982,2.5308945712037767,8.318391620771045,0.6597278225806452,1.2476433418568058,-0.16725511408339888,51.3638387588513,27.424291896144766,-16.913242525570418,0.8663537627136115,-0.2743856764807239,0.017196170335562547,-0.4168937178351692
371.0,0.015295043273013377,-0.13187254130605822,-0.13060582218725408,4.368426435877261,2.586191974822974,8.379583005507474,0.5728756884343037,1.084972462627852,-0.04243705743509048,51.19158143194335,26.453284815106215,-17.143391030684498,0.8684286124311565,-0.2680553139417781,0.023628672564909515,-0.41629909524783637
372.0,0.024660896931549964,-0.1377938630999213,-0.12095200629425648,4.264956726986624,2.6208308418568054,8.422413847364282,0.31621754523996853,0.8276848937844217,-0.24564319433516918,51.07902242328875,25.778117623918178,-17.27564909520063,0.8698522820220298,-0.2635568447537372,0.027853986451612904,-0.4159563279291897
373.0,0.03713296616837136,-0.15215578284815107,-0.11801258851298191,4.078303697875688,2.6919480723839486,8.490100708103856,0.8904701022816679,1.520121951219512,0.144404012588513,50.491070023603456,24.5771833202203,-17.582366247049567,0.8735967578536585,-0.25557712448623127,0.0367362777277734,-0.41221694225649097
