time,linaccel_x,linaccel_y,linaccel_z,gravity_x,gravity_y,gravity_z,gyro_x,gyro_y,gyro_z,euler_x,euler_y,euler_z,quaternion_w,quaternion_y,quaternion_x,quaternion_z
0.0,-0.1637704918032787,-0.0072131147540983615,-0.05901639344262295,0.2699999999999997,-0.2699999999999997,-9.790000000000001,-0.006147540983606557,0.0020491803278688526,0.015368852459016393,135.625,1.5625,178.3125,0.018493650000000007,-0.3773193399999998,-0.925842289999999,-0.007690430000000011
1.0,-0.16157429091855324,-0.00706045624078411,-0.05861393008933991,0.2699999999999997,-0.2699999999999997,-9.79,-0.017922196200884723,-0.0013010668748373666,-0.006781811085089773,135.625,1.5624999999999998,178.3125,0.018493650000000004,-0.3773193399999997,-0.9258422899999988,-0.007690430000000011
2.0,-0.16143660086985617,-0.008549719341288432,-0.05778692241924091,0.2699999999999997,-0.2699999999999997,-9.79,0.011961915913906548,0.0036090665774506526,0.0012601762016281924,135.625,1.5625,178.3125,0.018493650000000007,-0.3773193399999998,-0.9258422899999988,-0.007690430000000011
3.0,-0.16285620608899298,-0.008361453725388154,-0.057918050134443566,0.2699999999999997,-0.2699999999999997,-9.790000000000001,0.007768019776216498,-0.0010480093676814984,4.163413999479595e-05,135.625,1.5625,178.3125,0.018493650000000007,-0.3773193399999998,-0.925842289999999,-0.007690430000000012
4.0,-0.16244706336615383,-0.008387902596257966,-0.05858297868768518,0.2699999999999997,-0.2699999999999997,-9.790000000000001,0.005806850326945515,-0.009723691168693812,0.002580309402096816,135.625,1.5625,178.3125,0.018493650000000004,-0.3773193399999998,-0.925842289999999,-0.007690430000000011
5.0,-0.16142078181528208,-0.0077765354687618065,-0.058791224933477694,0.2699999999999997,-0.2699999999999997,-9.790000000000001,0.011067095179337379,-0.015109950643398554,-0.005409342919258308,135.625,1.5625,178.3125,0.018493650000000007,-0.3773193399999998,-0.925842289999999,-0.007690430000000011
6.0,-0.16290260465194362,-0.008767688214012914,-0.05874432357113477,0.2699999999999997,-0.2699999999999997,-9.790000000000003,-0.00042827659002963106,0.01470349840094684,-0.0024166530264494307,135.625,1.5625,178.3125,0.018493650000000007,-0.3773193399999998,-0.925842289999999,-0.007690430000000011
7.0,-0.16315022705715465,-0.009143444721445782,-0.05851668303492733,0.2699999999999997,-0.2699999999999997,-9.790000000000001,-0.00793703256024779,-0.0035185464984513106,-0.010030491131760301,135.625,1.5625,178.3125,0.018493650000000004,-0.3773193399999998,-0.925842289999999,-0.007690430000000011
8.0,-0.16425614933485838,-0.010766260154346341,-0.059872797087992986,0.2699999999999997,-0.2699999999999997,-9.790000000000001,0.009492956570902187,-0.004798393189178914,-0.0029175544654212707,135.625,1.5625,178.3125,0.018493650000000007,-0.3773193399999998,-0.925842289999999,-0.007690430000000011
9.0,-0.1634875216720375,-0.010244881229246905,-0.059785348876817794,0.2699999999999997,-0.2699999999999997,-9.790000000000001,-0.007094279523048649,-0.0021111781614097337,-0.004610978973622054,135.625,1.5625,178.3125,0.018493650000000004,-0.3773193399999998,-0.925842289999999,-0.007690430000000011
10.0,-0.1643586471395619,-0.01008352822259102,-0.058724245035976314,0.2699999999999997,-0.2699999999999997,-9.790000000000001,-0.013846749756236117,-0.012370424705594695,0.013760745309592991,135.625,1.5625,178.3125,0.018493650000000007,-0.3773193399999998,-0.925842289999999,-0.007690430000000011
11.0,-0.16515658427840074,-0.010385497585647708,-0.05845255086277927,0.2699999999999997,-0.2699999999999997,-9.790000000000003,0.0033225267612262046,-0.014811600507213,0.024331456737292534,135.625,1.5625,178.3125,0.018493650000000007,-0.3773193399999998,-0.925842289999999,-0.007690430000000011
12.0,-0.16276646418221113,-0.010281074445665637,-0.058609275943422384,0.2699999999999997,-0.2699999999999997,-9.790000000000001,0.0028933422336596968,-0.010598004554681769,0.036127261906792704,135.625,1.5625,178.3125,0.018493650000000004,-0.3773193399999998,-0.925842289999999,-0.007690430000000011
13.0,-0.16207157756457075,-0.010276159838164073,-0.061264922397656386,0.2699999999999997,-0.2699999999999997,-9.790000000000001,-0.002201872067353294,-0.021330479904812266,-0.0056573194454936915,135.625,1.5625,178.3125,0.018493650000000007,-0.3773193399999998,-0.925842289999999,-0.007690430000000011
14.0,-0.16457187057539108,-0.00889450097519092,-0.060720828144635294,0.2699999999999997,-0.2699999999999997,-9.790000000000003,-0.00697640883812968,-0.011705822678732877,0.031086285027265542,135.625,1.5625,178.3125,0.018493650000000007,-0.3773193399999998,-0.925842289999999,-0.007690430000000011
15.0,-0.1640353936729159,-0.008284441937758373,-0.05973145857855261,0.2699999999999997,-0.2699999999999997,-9.790000000000003,-0.020864123458316983,-0.028902458429999486,0.04730543759559998,135.625,1.5625,178.3125,0.018493650000000007,-0.3773193399999998,-0.925842289999999,-0.007690430000000011
16.0,-0.1634708962018731,-0.009733795091918143,-0.057056104751994435,0.2699999999999997,-0.2699999999999997,-9.790000000000003,0.012909864941033645,-0.02065495740114464,-0.001623810375476934,135.625,1.5625,178.3125,0.018493650000000007,-0.3773193399999998,-0.925842289999999,-0.007690430000000011
17.0,-0.16320254199494577,-0.007980096790710737,-0.058548213666319786,0.2699999999999997,-0.2699999999999997,-9.790000000000001,-0.003817224947557934,0.0118001874700626,0.013296747766050575,135.625,1.5625,178.3125,0.018493650000000007,-0.3773193399999998,-0.925842289999999,-0.007690430000000011
18.0,-0.16250780193348557,-0.007038611765706153,-0.059043056242643416,0.2699999999999997,-0.2699999999999997,-9.790000000000001,0.001893939086242186,0.0011159186953697458,0.02272342235825885,135.625,1.5625,178.3125,0.018493650000000007,-0.3773193399999998,-0.925842289999999,-0.007690430000000011
19.0,-0.16337859746344763,-0.006493811606058072,-0.060379141718269316,0.2699999999999997,-0.2699999999999997,-9.790000000000003,0.010281863750543917,0.011343165729925594,0.018369385476736083,135.625,1.5625,178.3125,0.018493650000000007,-0.3773193399999998,-0.925842289999999,-0.007690430000000011
20.0,-0.1632137524257925,-0.007950339726025915,-0.05962765618691821,0.2699999999999997,-0.2699999999999997,-9.790000000000003,0.009856072353940013,0.016809069857678716,-0.00014803358837493265,135.625,1.5625,178.3125,0.018493650000000007,-0.3773193399999998,-0.925842289999999,-0.007690430000000011
21.0,-0.16388939442309397,-0.007707653387119793,-0.05998578438898459,0.2699999999999997,-0.2699999999999997,-9.790000000000003,0.008351119770449021,0.01068731328471865,0.001219124031341496,135.625,1.5625,178.3125,0.018493650000000007,-0.3773193399999998,-0.925842289999999,-0.007690430000000011
22.0,-0.1648122458959531,-0.007247778099998297,-0.06082535837555369,0.2699999999999997,-0.2699999999999997,-9.790000000000003,-0.002788498717751886,0.0010135730653974971,0.019396312754814828,135.625,1.5625,178.3125,0.018493650000000007,-0.3773193399999998,-0.925842289999999,-0.007690430000000011
23.0,-0.1644077094101659,-0.006992477098650656,-0.060248744761547325,0.2699999999999997,-0.2699999999999997,-9.790000000000003,-0.011028702029420629,-0.01413493742288031,-0.006116888572354616,135.625,1.5625,178.3125,0.018493650000000007,-0.3773193399999998,-0.925842289999999,-0.007690430000000011
24.0,-0.16660708051153456,-0.008388711667604899,-0.0613878132409887,0.2699999999999997,-0.2699999999999997,-9.790000000000003,-0.016552657466323215,0.008187907632645866,0.011743303025650648,135.625,1.5625,178.3125,0.018493650000000007,-0.3773193399999998,-0.925842289999999,-0.007690430000000011
25.0,-0.1660844975918755,-0.008788528570535022,-0.06137808976305418,0.2699999999999997,-0.2699999999999997,-9.790000000000003,0.015527001131562636,-0.0019544332804512605,0.019139081273491298,135.625,1.5625,178.3125,0.018493650000000007,-0.3773193399999998,-0.925842289999999,-0.007690430000000011
26.0,-0.16521706669396063,-0.00868406657454951,-0.06126916975145424,0.2699999999999997,-0.2699999999999997,-9.790000000000003,0.00971459317764396,-0.008326332144908253,0.02360114833705782,135.625,1.5625,178.3125,0.018493650000000007,-0.3773193399999998,-0.925842289999999,-0.007690430000000011
27.0,-0.1649260845089644,-0.00810373984294593,-0.06146878536133238,0.2699999999999997,-0.2699999999999997,-9.790000000000003,-0.004054860886030604,-0.0002859114765470846,-0.00976875465561261,135.625,1.5625,178.3125,0.018493650000000007,-0.3773193399999998,-0.925842289999999,-0.007690430000000011
28.0,-0.163837976151891,-0.007920193559759588,-0.06082429220472752,0.2699999999999997,-0.2699999999999997,-9.790000000000003,-0.004902893161153853,0.022530233050726985,-0.0012322091628142375,135.625,1.5625,178.3125,0.018493650000000007,-0.3773193399999998,-0.925842289999999,-0.007690430000000011
29.0,-0.16254070498058154,-0.007442469422220709,-0.06096410273906391,0.2699999999999997,-0.2699999999999997,-9.790000000000003,-0.0037018872645184038,0.010249064612795185,0.00420167260879207,135.625,1.5625,178.3125,0.018493650000000007,-0.3773193399999998,-0.925842289999999,-0.007690430000000011
30.0,-0.1638894650949887,-0.009241909895771144,-0.060461239715005416,0.2699999999999997,-0.2699999999999997,-9.790000000000003,0.02119807037296077,0.007947486111348037,-0.01258380102693574,135.625,1.5625,178.3125,0.018493650000000007,-0.3773193399999998,-0.925842289999999,-0.007690430000000011
31.0,-0.163456178957484,-0.009228134968697229,-0.06079513598653495,0.2699999999999997,-0.2699999999999997,-9.790000000000003,-0.04253572027657893,0.007843410069201593,0.11761873944490882,135.6291623309053,1.5625,178.3125,0.018493650000000007,-0.3772578600416232,-0.9258763303746098,-0.007690430000000011
32.0,-0.16393732621415535,-0.009231333481175693,-0.06138602207400076,0.2699999999999997,-0.2699999999999997,-9.790000000000003,-0.01939577966940175,0.024956926698623358,-0.018800856348407564,135.6593392299688,1.5625,178.3125,0.018493650000000007,-0.3770995884079086,-0.9259538134131111,-0.007690430000000011
33.0,-0.1636441434525739,-0.009050533654037522,-0.06017423790109344,0.2699999999999997,-0.2699999999999997,-9.790000000000003,-0.015512714442492168,-0.00918335579399874,-0.02670388313630496,135.67442767950052,1.5625,178.3125,0.018493650000000007,-0.3770204525910512,-0.9259925549323618,-0.007690430000000011
34.0,-0.16220790100952506,-0.007934355828386981,-0.059822834495357975,0.2699999999999997,-0.2699999999999997,-9.790000000000001,-0.022043697840553912,0.0005451754517788853,-0.013517198046206422,135.6819719042664,1.5625,178.3125,0.018493650000000007,-0.3769808846826225,-0.9260119256919872,-0.007690430000000011
35.0,-0.16343349111307698,-0.007119887693965246,-0.06032765033820968,0.2699999999999997,-0.2699999999999997,-9.790000000000001,-0.007603172166212715,-0.00865499368691484,-0.006832697895520945,135.68574401664932,1.5625,178.3125,0.018493650000000007,-0.37696110072840816,-0.9260216110717998,-0.007690430000000011
36.0,-0.1633058227413493,-0.008245250158199446,-0.06063716643068751,0.2699999999999997,-0.2699999999999997,-9.790000000000001,0.012193760199700901,-0.005977408889441267,-0.004742111215900472,135.6875,1.5625,178.3125,0.018493650000000004,-0.3769531300000003,-0.9260253899999997,-0.007690430000000011
37.0,-0.16318913559066411,-0.00888201164705319,-0.06045607660508463,0.2699999999999997,-0.2699999999999997,-9.790000000000001,0.001816737318253412,-0.008409116924889857,0.003247664645883714,135.6875,1.5625,178.3125,0.018493650000000007,-0.3769531300000003,-0.9260253899999997,-0.007690430000000011
38.0,-0.16326123446199875,-0.009975952060085738,-0.05938395228103694,0.2699999999999997,-0.2699999999999997,-9.790000000000003,-0.013960582953776519,-0.009463295021584713,0.0032367355487483086,135.6875,1.5625,178.3125,0.018493650000000007,-0.3769531300000003,-0.9260253899999997,-0.007690430000000011
39.0,-0.16336599539197588,-0.009706192834628041,-0.05820121750615941,0.2699999999999997,-0.2699999999999997,-9.790000000000003,-0.005491680076726391,0.0159199967750871,-0.012429499031036876,135.6875,1.5625,178.3125,0.018493650000000007,-0.3769531300000003,-0.9260253899999997,-0.007690430000000011
40.0,-0.16308220982620947,-0.009254926521537466,-0.06007070438758741,0.2699999999999997,-0.2699999999999997,-9.790000000000001,-0.005436076729640469,0.015404861955586099,0.006602328842012572,135.6875,1.5625,178.3125,0.018493650000000004,-0.3769531300000003,-0.9260253899999997,-0.007690430000000011
41.0,-0.16321033174362193,-0.007057058754880356,-0.060880206264454215,0.2699999999999997,-0.2699999999999997,-9.790000000000001,-0.006391873490268263,0.024417100716656336,0.012360944246915145,135.6875,1.5625,178.3125,0.018493650000000007,-0.3769531300000003,-0.9260253899999997,-0.007690430000000011
42.0,-0.1623041474654378,-0.008869448160811326,-0.060434814924929366,0.2699999999999997,-0.2699999999999997,-9.790000000000003,-0.01711159836810201,0.011316698462249971,0.011284231868258924,135.6875,1.5625,178.3125,0.018493650000000007,-0.3769531300000003,-0.9260253899999997,-0.007690430000000011
43.0,-0.16211364609302215,-0.008657093197275046,-0.05914434206496777,0.2699999999999997,-0.2699999999999997,-9.790000000000003,0.015711563763243196,0.005843161059081975,0.0008491272156383638,135.6875,1.5625,178.3125,0.018493650000000007,-0.3769531300000003,-0.9260253899999997,-0.007690430000000011
44.0,-0.16375488062542193,-0.0099411029635352,-0.058414696179899764,0.2699999999999997,-0.2699999999999997,-9.790000000000003,0.016425414209058294,0.027002399121285697,0.011078613208929135,135.6875,1.5625,178.3125,0.018493650000000007,-0.3769531300000003,-0.9260253899999997,-0.007690430000000011
45.0,-0.16363371271414467,-0.009745257062924796,-0.05925855136695961,0.2699999999999997,-0.2699999999999997,-9.790000000000001,-0.005020139797672591,0.007644824752655138,-0.016878128111357242,135.6875,1.5625,178.3125,0.018493650000000007,-0.3769531300000003,-0.9260253899999997,-0.007690430000000011
46.0,-0.16339750151836263,-0.009265101649741968,-0.05874217890928625,0.2699999999999997,-0.2699999999999997,-9.790000000000001,0.0013541774129916615,0.002763944634392085,0.002028005836794496,135.6875,1.5625,178.3125,0.018493650000000007,-0.3769531300000003,-0.9260253899999997,-0.007690430000000011
47.0,-0.16442802581988197,-0.008761929943844279,-0.05670442278797646,0.2699999999999997,-0.2699999999999997,-9.790000000000003,0.022621460888250945,0.022382232462877627,0.0051524871362258985,135.6875,1.5625,178.3125,0.018493650000000007,-0.3769531300000003,-0.9260253899999997,-0.007690430000000011
48.0,-0.13561681877051898,-0.03847497063341465,-0.07113800789132857,0.2730360531309296,-0.25853889943073993,-9.791593927893736,-0.1298503810126201,-0.022015714888105775,0.7920987884401072,135.8355075901328,1.585744781783681,178.4031072106262,0.017895576148007596,-0.3756522799810248,-0.92653729800759,-0.00809069079696395
49.0,-0.11174515827836509,-0.04425661877654287,-0.06363320381916207,0.24654648956356748,-0.24165085388994312,-9.795958254269447,-0.1458391690009337,-0.06870670311135206,0.10493320984307697,136.52763282732445,1.4370256166982922,178.51245256166982,0.016509718349146107,-0.370021756223909,-0.9288181834724856,-0.007263763282732451
50.0,-0.09086066881170418,-0.04538750928141243,-0.05934559854797458,0.22102219288837555,-0.23929433765090902,-9.7981404174573,-0.24688410953441686,-0.09729094477903363,2.2527806424112424,137.3960189615818,1.2884491103594313,178.5344959161785,0.015844860836564646,-0.36295344030690535,-0.9315631609110908,-0.006215645645573798
51.0,-0.06447603333058327,-0.042246277386777345,-0.05676171573387148,0.2042207738635426,-0.23566950133165815,-9.799231499051231,-0.218845022095579,-0.11264852243087331,0.9771709250104185,138.9328264783095,1.1947053244104848,178.55253021615377,0.01528543479297214,-0.35042203266710037,-0.9363232576887961,-0.005633829485317919
52.0,-0.0497791138039831,-0.042158768363518076,-0.05758939623034014,0.19582006435112612,-0.23735087969808724,-9.799777039848198,-0.1237632254636816,-0.0717416682684711,0.5403920052425885,139.79184721947186,1.152796210592339,178.56154736614138,0.01499942110616348,-0.34350386354240736,-0.9389499808372905,-0.005339043291046055
53.0,-0.0420360648287835,-0.04315220966991476,-0.05456687170885312,0.19152483293457634,-0.23854972827409116,-9.8,-0.06425735491216766,-0.0618882715462451,0.2803875922644356,140.21891934028622,1.1311152542525262,178.56322446580316,0.014875104070633912,-0.340023001986742,-0.9402699610925755,-0.005179142044005001
54.0,-0.04004298648204031,-0.04553005200522334,-0.05341269400930142,0.19025245441795227,-0.2394978242888483,-9.8,-0.07517943270441972,-0.033773493322593946,0.3668951285469041,140.49813654546313,1.0966116145814602,178.56206171107993,0.01486991200263722,-0.3377395027954253,-0.9411109153190356,-0.005114287328439054
55.0,-0.038630656401375474,-0.04293660150518296,-0.05583724929544079,0.18999999999999997,-0.2397816377171218,-9.8,-0.07353817357521127,-0.02405423146728108,0.16255871434357827,140.69771542093167,1.0780948442238765,178.5625,0.014843435440308785,-0.33606511946924156,-0.9417237669746186,-0.005087193201386428
56.0,-0.03843695696853544,-0.03980585109225711,-0.05428753812451331,0.18999999999999997,-0.2400000000000002,-9.8,-0.04225255097017082,0.008482230155795245,0.07482672730562145,140.76304815711595,1.0694444444444444,178.5625,0.014837290824372745,-0.33550909185869043,-0.9419243300505851,-0.005075451054787507
57.0,-0.036995588015887926,-0.0369617919576467,-0.05373024619001317,0.18999999999999997,-0.2400000000000002,-9.8,-0.01801095746066405,0.0057777015550253795,0.04062891860086977,140.79288274449564,1.064964157706093,178.5625,0.014834415412186365,-0.33525146759418956,-0.9420169030023295,-0.005069701172555044
58.0,-0.03691801599892558,-0.035478121091553155,-0.05328586537735136,0.18999999999999997,-0.2400000000000002,-9.8,-0.009869379181251206,-0.010781804789604898,0.01922509925881158,140.80773169482848,1.0627240143369174,178.5625,0.014832977706093174,-0.33512460635432695,-0.9420624827342556,-0.0050668262314388125
59.0,-0.03830027784073264,-0.036136397975372075,-0.055045390445972134,0.18999999999999995,-0.2400000000000002,-9.8,-0.014775319390932821,0.00038546729285756157,0.01202870426330236,140.8125,1.0625,178.5625,0.014831539999999983,-0.3350830100000004,-0.9420776400000006,-0.005065920000000001
60.0,-0.03788669806015127,-0.03547948931026669,-0.056347964040190365,0.18999999999999997,-0.2400000000000002,-9.8,0.003045808046469073,-0.0032850889342163807,-0.0003196532446929053,140.8125,1.0625,178.5625,0.014831539999999983,-0.33508301000000035,-0.9420776400000006,-0.005065920000000001
61.0,-0.03716333845366104,-0.034093701996927815,-0.054935483870967736,0.18999999999999997,-0.2400000000000002,-9.8,0.00178731438812084,-0.005446748591909882,-0.0008880568356374806,140.8125,1.0625,178.5625,0.014831539999999983,-0.3350830100000003,-0.9420776400000006,-0.005065920000000001
62.0,-0.03712855799820369,-0.03468452066178138,-0.05436003878018684,0.18999999999999997,-0.2400000000000002,-9.8,-0.0044785554800097355,0.004117693040551315,0.0025776862833975477,140.8125,1.0625,178.5625,0.014831539999999983,-0.33508301000000035,-0.9420776400000006,-0.005065920000000001
63.0,-0.03624623739853778,-0.03616448842889881,-0.054588048651507126,0.18999999999999997,-0.2400000000000002,-9.8,-0.01331091091469198,-0.008592759772691026,-0.008758750723980762,140.8125,1.0625,178.5625,0.014831539999999983,-0.33508301000000035,-0.9420776400000006,-0.005065920000000001
64.0,-0.035547593865679544,-0.03546443538436171,-0.05584934864070327,0.18999999999999997,-0.2400000000000002,-9.8,-0.016709260191171537,-0.001870934335249598,-0.01403263833211079,140.8125,1.0625,178.5625,0.014831539999999983,-0.33508301000000035,-0.9420776400000006,-0.005065920000000001
65.0,-0.03569883659439452,-0.032651572530890544,-0.0550855239589908,0.18999999999999997,-0.2400000000000002,-9.8,-0.019745483700380408,0.014517941522662526,-0.012153316786362112,140.8125,1.0625,178.5625,0.014831539999999983,-0.3350830100000004,-0.9420776400000006,-0.005065920000000001
66.0,-0.03519830777366474,-0.03271847972569559,-0.056039985670664094,0.18999999999999997,-0.2400000000000002,-9.8,0.0007036727452619362,-0.016965976356595757,0.00823510346121697,140.8125,1.0625,178.5625,0.014831539999999983,-0.3350830100000004,-0.9420776400000006,-0.005065920000000001
67.0,-0.0401441462956961,-0.03402176694358679,-0.056122549939441484,0.18999999999999997,-0.23775234131113449,-9.8,-0.00884815168625578,-0.004015199331297657,-0.03396287166715,140.78596514047865,1.0625,178.5625,0.014831539999999983,-0.3352852322684705,-0.9420024414151928,-0.005096403246618107
68.0,-0.03733085878315404,-0.039865794293388504,-0.05658185891600536,0.18741935483870964,-0.23746854602213624,-9.799999999999999,-0.025093655030025953,-0.005570629487933014,0.6206737049449133,141.0064661968278,1.0625,178.5625,0.014831539999999983,-0.3334534181821336,-0.9426400091142435,-0.005071614018225961
69.0,-0.041663325604760756,-0.041437368636235636,-0.056243319028045954,0.18833567087424025,-0.23222655912607532,-9.799999999999997,0.03406166454488839,-0.007074183901999353,-1.8403756262257593,140.48825822697864,1.0807328190743337,178.59195301542778,0.014660335137914912,-0.3377270429269714,-0.9410736319250506,-0.005171945989945144
70.0,-0.04127727203496817,-0.0430052118323493,-0.05487190059406154,0.1870425982454692,-0.22928216001844576,-9.799999999999997,-0.03859935872516056,-0.0111320852629728,-0.03909276536347861,139.49240947402063,1.0839503753815691,178.59857375629073,0.014604643375409069,-0.3458519239966925,-0.9380941980877623,-0.005052684949431777
71.0,-0.03556195701166707,-0.037290122335205386,-0.0548222964869627,0.1833600088001539,-0.2294797896866424,-9.799999999999999,-0.023272231860831757,-0.02041460372733942,-0.013228787451361098,139.44277731765547,1.0732251876907846,178.58053687814538,0.014655087816736793,-0.3462008347402816,-0.9380067861406549,-0.004807286990844919
72.0,-0.033057773511036455,-0.03398932061956247,-0.05437680901351256,0.1815187140774962,-0.22964884385476775,-9.8,-0.024246677845088098,-0.009815999400957258,0.010701553204600398,139.41879045383294,1.0678625938453923,178.5715184390727,0.014680310037400654,-0.34636897066618644,-0.9379654301228764,-0.004683635410094674
73.0,-0.03129172248609591,-0.031663468204395584,-0.0554349250113413,0.1806787118774577,-0.22970711987459813,-9.8,-0.01453876623716491,-0.008882072222938249,-0.05348062497103685,139.39949175673075,1.0651812969226961,178.56700921953632,0.014692921147732584,-0.3465134425422817,-0.9379236531455042,-0.004623060583835213
74.0,-0.030562629458622884,-0.031049087086202888,-0.05524457414815717,0.180189753320683,-0.2298956356736246,-9.8,0.007148885338410623,-0.012770681111814007,0.08489953952131793,139.40948173624287,1.063270872865275,178.56383420303604,0.01470457685483871,-0.3464235056119542,-0.937961675939278,-0.004589250464895632
75.0,-0.028817842243542946,-0.030382861063658066,-0.055576113766045696,0.17999999999999983,-0.23000000000000032,-9.8,0.010700075180274254,-0.025517812092908897,0.019759423460848715,139.4375,1.0625,178.5625,0.014709469999999999,-0.34619140999999976,-0.9380493199999991,-0.004577639999999996
76.0,-0.02840996170449781,-0.03208008818011208,-0.05545715157605094,0.17999999999999983,-0.23000000000000032,-9.8,-0.008063724116418544,-0.01643346379879576,0.012790091543119468,139.4375,1.0625,178.5625,0.014709469999999999,-0.34619140999999976,-0.9380493199999991,-0.004577639999999996
77.0,-0.02845152463105076,-0.032337407121290046,-0.05585914414440028,0.17999999999999983,-0.23000000000000032,-9.8,0.0045638880697989204,-0.005161336354082979,0.015619636145343655,139.4375,1.0625,178.5625,0.014709469999999999,-0.34619140999999976,-0.9380493199999991,-0.004577639999999996
78.0,-0.027482703662997432,-0.031504250196920075,-0.054989017425089826,0.17999999999999983,-0.23000000000000032,-9.8,0.015385234258376988,-0.008175864979314256,0.018911431801756938,139.4375,1.0625,178.5625,0.014709469999999999,-0.34619140999999976,-0.9380493199999991,-0.004577639999999996
79.0,-0.027570610970715042,-0.03090539781642801,-0.055242926515038884,0.17999999999999983,-0.23000000000000032,-9.8,-0.0032089795682407546,-0.011627892572221396,-0.00129768305171531,139.4375,1.0625,178.5625,0.014709469999999999,-0.34619140999999976,-0.9380493199999991,-0.004577639999999996
80.0,-0.028741016749239075,-0.03324218418937037,-0.05574260727303152,0.17999999999999983,-0.23000000000000032,-9.8,-0.010233632213170262,-0.018429625820748453,-0.009261182879638723,139.4375,1.0625,178.5625,0.014709469999999999,-0.34619140999999976,-0.9380493199999991,-0.004577639999999996
81.0,-0.028885596824151285,-0.03353975321157732,-0.05528007921750778,0.17999999999999983,-0.23000000000000032,-9.8,-0.010070423460036396,-0.009084740069583385,-0.01064212456503615,139.4375,1.0625,178.5625,0.014709469999999999,-0.34619140999999976,-0.9380493199999991,-0.004577639999999996
82.0,-0.027827335022418714,-0.030500035335947397,-0.054670249542189624,0.17999999999999983,-0.23000000000000032,-9.8,-0.009387490275845132,0.0030421153722743587,-0.02866655639414122,139.4375,1.0625,178.5625,0.014709469999999999,-0.34619140999999976,-0.9380493199999991,-0.004577639999999996
83.0,-0.029391354688159604,-0.03125494764187385,-0.056836497999118885,0.17999999999999983,-0.23000000000000032,-9.8,-0.020436023928799556,0.011747501707904125,-0.009882814625995398,139.4375,1.0625,178.5625,0.014709469999999999,-0.34619140999999976,-0.9380493199999991,-0.004577639999999996
84.0,-0.029816709056264865,-0.031129938807887003,-0.0564604181880755,0.17999999999999983,-0.23000000000000032,-9.8,-0.017296320079239168,0.004531175241117071,-0.021042186044169124,139.4375,1.0625,178.5625,0.014709469999999999,-0.34619140999999976,-0.9380493199999991,-0.004577639999999996
85.0,-0.02999424524988744,-0.03155992001891084,-0.056376351261520394,0.17999999999999983,-0.23000000000000032,-9.8,-0.013066371943203623,0.002678728815693385,-0.0071349344782180284,139.4375,1.0625,178.5625,0.014709469999999999,-0.34619140999999976,-0.9380493199999991,-0.004577639999999996
86.0,-0.02992723015182545,-0.030976196568595217,-0.05474462724366341,0.17999999999999983,-0.23000000000000032,-9.8,-0.019806035433967403,-0.00134880763516406,0.005219495126482383,139.4375,1.0625,178.5625,0.014709469999999999,-0.34619140999999976,-0.9380493199999991,-0.004577639999999996
87.0,-0.028349885990799673,-0.032857406049026816,-0.05480314790490324,0.17999999999999983,-0.23000000000000032,-9.8,0.017280141360035937,-0.007678206899688962,-0.015400695427690871,139.4375,1.0625,178.5625,0.014709469999999999,-0.34619140999999976,-0.9380493199999991,-0.004577639999999996
88.0,-0.029735199179664492,-0.03491975923899639,-0.05520810111117338,0.17999999999999983,-0.23000000000000032,-9.8,-0.03440347099189494,-0.010297483999314402,-0.013993471785261415,139.4375,1.0625,178.5625,0.014709469999999999,-0.34619140999999976,-0.9380493199999991,-0.004577639999999996
89.0,-0.029004740432419955,-0.036142939728787814,-0.05620514345176155,0.17999999999999983,-0.23000000000000032,-9.8,-0.019658548469682707,-0.03305615430355285,-0.010247881670878548,139.4375,1.0625,178.5625,0.014709469999999999,-0.34619140999999976,-0.9380493199999991,-0.004577639999999996
90.0,-0.031107383777902894,-0.036168269646042125,-0.052662669643009447,0.17999999999999983,-0.23000000000000032,-9.8,-0.018672894695085977,-0.018114539341094246,-0.005750316195805014,139.4375,1.0625,178.5625,0.014709469999999999,-0.34619140999999976,-0.9380493199999991,-0.004577639999999996
91.0,-0.03138884624205586,-0.03648918164924375,-0.05452687765882696,0.17999999999999983,-0.23000000000000032,-9.8,0.0004488240711181292,-0.02041967428379721,-0.006786014844347182,139.4375,1.0625,178.5625,0.014709469999999999,-0.34619140999999976,-0.9380493199999991,-0.004577639999999996
92.0,-0.031079438729768837,-0.0371675877028737,-0.05518227337675999,0.17999999999999983,-0.23000000000000032,-9.8,0.009264474470522643,-0.0115593428651036,0.012280769893122974,139.4375,1.0625,178.5625,0.014709469999999999,-0.34619140999999976,-0.9380493199999991,-0.004577639999999996
93.0,-0.03076757394757772,-0.03535798739982395,-0.05512057857266059,0.17999999999999983,-0.23000000000000032,-9.8,0.015720946912680677,-0.015316281775613755,0.0017241023044723934,139.4375,1.0625,178.5625,0.014709469999999999,-0.34619140999999976,-0.9380493199999991,-0.004577639999999996
94.0,-0.0310029479115643,-0.03467868522115295,-0.0537984789566987,0.17999999999999983,-0.23000000000000032,-9.8,0.010588582481547459,-0.01788972029905313,-0.000606803510199904,139.4375,1.0625,178.5625,0.014709469999999999,-0.34619140999999976,-0.9380493199999991,-0.004577639999999996
95.0,-0.031225429534840858,-0.035252263463740593,-0.055350676107998556,0.17999999999999983,-0.23000000000000032,-9.8,0.012026840156691233,0.009384286686362736,-0.0008245105158967087,139.4375,1.0625,178.5625,0.014709469999999999,-0.34619140999999976,-0.9380493199999991,-0.004577639999999996
96.0,-0.03034092446961557,-0.03514107978531992,-0.054294311345709306,0.17999999999999983,-0.23000000000000032,-9.8,0.0006004284855933581,0.013242367976912766,0.013014410500273074,139.4375,1.0625,178.5625,0.014709469999999999,-0.34619140999999976,-0.9380493199999991,-0.004577639999999996
97.0,-0.031429226158998784,-0.0356609000025182,-0.0552687332645027,0.17999999999999983,-0.23000000000000032,-9.8,-0.013758047728169355,0.025178686845794194,-0.003483081933637196,139.4375,1.0625,178.5625,0.014709469999999999,-0.34619140999999976,-0.9380493199999991,-0.004577639999999996
98.0,-0.028168593085039426,-0.03420995861767942,-0.05424466772430811,0.17686938127974608,-0.23000000000000032,-9.8,-0.008769505510647762,0.0039034104740080407,-0.08726648997339108,139.3565904283448,1.0418759915388682,178.5625,0.014669188921205719,-0.34689891350079294,-0.9377828414806979,-0.0044805502908514
99.0,-0.026235402801368938,-0.03545198805996985,-0.05499365983748712,0.17327340031729238,-0.23000000000000032,-9.8,0.0028166980899363486,0.015306027920001582,-0.025373470332561356,139.300271020624,1.019929931253305,178.5625,0.014626325589635128,-0.3473957165891059,-0.9376010562242204,-0.004371582887361185
100.0,-0.0226741530135877,-0.034868467148264505,-0.0548839266929371,0.17147540983606552,-0.23000000000000032,-9.8,-0.010083586438902793,0.006544142992258854,-0.019659181402839815,139.2721113167636,1.0089569011105235,178.5625,0.014604893923849832,-0.34764411813326235,-0.9375101635959817,-0.004317099185616078
101.0,-0.022537247743982546,-0.03582137231822499,-0.053911203607353436,0.17057641459545209,-0.23000000000000032,-9.8,0.004108169427338325,0.0009007721919903561,-0.007601513678260919,139.25803146483344,1.0034703860391327,178.5625,0.014594178090957184,-0.3477683189053406,-0.9374647172818623,-0.004289857334743524
102.0,-0.02098574675146212,-0.034612565571198156,-0.05488635986399585,0.17012691697514537,-0.23000000000000032,-9.8,-0.005708772764947174,0.005504348893876536,-0.008111590109508944,139.25099153886833,1.0007271285034374,178.5625,0.01458882017451086,-0.3478304192913797,-0.9374419941248027,-0.004276236409307247
103.0,-0.024453916915304484,-0.036562408292385606,-0.05514298603106367,0.16999999999999993,-0.23000000000000032,-9.8,-0.011406959976691814,0.0385169814273719,-0.0029915433360871,139.25,1.0,178.5625,0.01458740000000002,-0.3478393599999995,-0.937438960000001,-0.004272460000000002
104.0,-0.024184789269136187,-0.036897442354343474,-0.05561106074723207,0.16999999999999993,-0.23000000000000032,-9.8,-0.016507522055182022,0.025197861843485853,-0.002064840346503488,139.25,1.0,178.5625,0.01458740000000002,-0.3478393599999995,-0.937438960000001,-0.004272460000000002
105.0,-0.02210045915069713,-0.03545999415670695,-0.05306055985679327,0.16999999999999993,-0.23000000000000032,-9.8,-0.002698024815312135,0.011054857907521629,-0.0023748802842472345,139.25,1.0,178.5625,0.01458740000000002,-0.3478393599999995,-0.937438960000001,-0.004272460000000002
106.0,-0.021007923916966764,-0.03653417987973864,-0.05456281093264424,0.16999999999999993,-0.23000000000000032,-9.8,-0.008914027504634965,-0.016778997071042585,0.012257507061097071,139.25,1.0,178.5625,0.01458740000000002,-0.3478393599999995,-0.937438960000001,-0.004272460000000002
107.0,-0.021588728157713687,-0.036873617531828766,-0.05543329750999357,0.16999999999999993,-0.23000000000000032,-9.8,-0.007322745546249068,-0.004403178894935261,0.00731334547346514,139.25,1.0,178.5625,0.01458740000000002,-0.3478393599999995,-0.937438960000001,-0.004272460000000002
108.0,-0.020668019992835344,-0.03660224151754492,-0.05398440831783831,0.16999999999999993,-0.23000000000000032,-9.8,0.007712679756401289,-0.008598667712935637,-0.002109952064959656,139.25,1.0,178.5625,0.01458740000000002,-0.3478393599999995,-0.937438960000001,-0.004272460000000002
109.0,-0.02224904613250088,-0.03524929632725475,-0.05438899597982519,0.16999999999999993,-0.23000000000000032,-9.8,0.0047244872429106745,-0.0018094695871217936,0.002170830419133075,139.25,1.0,178.5625,0.01458740000000002,-0.3478393599999995,-0.937438960000001,-0.004272460000000002
110.0,-0.022123482483524123,-0.035389996758840706,-0.05551395688689491,0.16999999999999993,-0.23000000000000032,-9.8,0.012605479833734213,0.0017454993375525267,-0.007190469285750839,139.25,1.0,178.5625,0.01458740000000002,-0.3478393599999995,-0.937438960000001,-0.004272460000000002
111.0,-0.0219774540409296,-0.03423766227119975,-0.05607383588361394,0.16999999999999993,-0.23000000000000032,-9.8,-0.00127400305919949,-0.007793353348913642,0.012631352245782226,139.25,1.0,178.5625,0.01458740000000002,-0.3478393599999995,-0.937438960000001,-0.004272460000000002
112.0,-0.021716409932731738,-0.03572726497330309,-0.05471229877802607,0.16999999999999993,-0.23000000000000032,-9.8,-0.012173502954003969,-0.005613211704565486,0.008927261561556437,139.25,1.0,178.5625,0.01458740000000002,-0.3478393599999995,-0.937438960000001,-0.004272460000000002
113.0,-0.020941451584472016,-0.03417570495215026,-0.05547721521866451,0.16999999999999993,-0.23000000000000032,-9.8,-0.012156995075712345,-0.004202223463718917,0.0062062869961276666,139.25,1.0,178.5625,0.01458740000000002,-0.3478393599999995,-0.937438960000001,-0.004272460000000002
114.0,-0.021183091383633862,-0.03391580946532245,-0.05360688717922473,0.16999999999999993,-0.23000000000000032,-9.8,-0.008783470656135741,-0.0080990956028272,0.0218195413475262,139.25,1.0,178.5625,0.01458740000000002,-0.3478393599999995,-0.937438960000001,-0.004272460000000002
115.0,-0.020310588355708717,-0.034200360507895364,-0.05486275680501299,0.16999999999999993,-0.23000000000000032,-9.8,0.00048599620158873685,-0.009854048321704964,0.035103319060859874,139.25,1.0,178.5625,0.01458740000000002,-0.3478393599999995,-0.937438960000001,-0.004272460000000002
116.0,-0.021765183017191696,-0.0338505064683738,-0.05502825169917168,0.16999999999999993,-0.23000000000000032,-9.8,-0.007193606874182094,-0.016923146751407953,0.03700064620106073,139.25,1.0,178.5625,0.01458740000000002,-0.3478393599999995,-0.937438960000001,-0.004272460000000002
117.0,-0.021546966618766844,-0.034733643856432635,-0.05452311580199198,0.16999999999999993,-0.23000000000000032,-9.8,-0.009147217679996034,0.0007277885139487655,0.020030598087309847,139.25,1.0,178.5625,0.01458740000000002,-0.3478393599999995,-0.937438960000001,-0.004272460000000002
118.0,-0.020855493169331225,-0.03291487637969276,-0.05487026467843069,0.16999999999999993,-0.23000000000000032,-9.8,0.0051240144519963185,-0.00170261134681948,0.0030918522413144658,139.25,1.0,178.5625,0.01458740000000002,-0.3478393599999995,-0.937438960000001,-0.004272460000000002
119.0,-0.018155894347412754,-0.0325637510583861,-0.05473646775371412,0.16999999999999993,-0.23000000000000032,-9.8,-0.015043893745212384,0.008178459328324564,0.003039053938902116,139.25,1.0,178.5625,0.01458740000000002,-0.3478393599999995,-0.937438960000001,-0.004272460000000002
120.0,-0.018336531981198577,-0.03262422724615456,-0.055599243242101595,0.16999999999999993,-0.23000000000000032,-9.8,-0.021212113365842403,0.02143769480464095,0.0247050108404188,139.25,1.0,178.5625,0.01458740000000002,-0.3478393599999995,-0.937438960000001,-0.004272460000000002
121.0,-0.019117062713589567,-0.03281236963946234,-0.05558251972652954,0.16999999999999993,-0.23000000000000032,-9.8,-0.006269779161159809,0.015199134140671729,0.018896924263015338,139.2254224270353,1.0,178.5625,0.01458740000000002,-0.3480523727598566,-0.9373569561904767,-0.004272460000000002
122.0,-0.019795090496579733,-0.032605109550913974,-0.05375900179874863,0.16999999999999993,-0.23000000000000032,-9.8,-0.011552228290257325,0.012690292876787478,0.04918300514226036,139.20545314900153,1.0,178.5625,0.01458740000000002,-0.3481978818637995,-0.9373034548694321,-0.004272460000000002
123.0,-0.019120707596253915,-0.033262540673570866,-0.054031448722395646,0.16999999999999993,-0.23000000000000032,-9.8,-0.011449919891647259,0.02146501247047553,-0.005301190889120129,139.19546850998466,1.0,178.5625,0.01458740000000002,-0.34827063641577094,-0.9372767042089096,-0.004272460000000003
124.0,-0.01938865764828305,-0.0333690434897511,-0.053071915828419455,0.16999999999999993,-0.23000000000000032,-9.8,-0.02281327940472061,0.01952868209371851,-0.00019547057463290473,139.1904761904762,1.0,178.5625,0.01458740000000002,-0.34830701369175676,-0.9372633288786485,-0.004272460000000002
125.0,-0.019201612903225817,-0.0348230926779314,-0.05771146953405017,0.16999999999999993,-0.23000000000000032,-9.8,-0.008295730926779312,0.016217037890424987,-0.011060707885304657,139.18798003072197,1.0,178.5625,0.01458740000000002,-0.3483252023297496,-0.9372566412135179,-0.004272460000000002
126.0,-0.019850546305931333,-0.035359781477627486,-0.0557640478668054,0.16999999999999993,-0.23000000000000032,-9.8,0.019657529049601108,0.014744298473812001,-0.05049942551161984,139.1875,1.0,178.5625,0.01458740000000002,-0.3483276400000005,-0.9372558600000003,-0.004272460000000002
127.0,-0.01991720863683664,-0.03505372008324663,-0.05493093132154004,0.16999999999999993,-0.23000000000000032,-9.8,0.0038540853711411718,0.023853462105445714,-0.056149600026014566,139.1875,1.0,178.5625,0.01458740000000002,-0.3483276400000005,-0.9372558600000003,-0.004272460000000002
128.0,-0.020770113339741453,-0.0344770605154706,-0.05379524513953801,0.16999999999999993,-0.23000000000000032,-9.8,0.004828787719286642,0.005988832383140208,-0.03369490207242044,139.1875,1.0,178.5625,0.01458740000000002,-0.34832764000000044,-0.9372558600000003,-0.004272460000000003
129.0,-0.02137572007232849,-0.03406736730330622,-0.05325506944636911,0.16999999999999993,-0.23000000000000032,-9.8,0.020886826095306402,-0.014698216136898916,-0.046112073972078116,139.1875,1.0,178.5625,0.01458740000000002,-0.3483276400000005,-0.9372558600000003,-0.004272460000000002
130.0,-0.021869441721908266,-0.03518083939220116,-0.05442817641586579,0.16999999999999993,-0.23000000000000032,-9.8,0.0051564940396754,-0.014851601131231282,-0.015452737471644329,139.1875,1.0,178.5625,0.01458740000000002,-0.3483276400000005,-0.9372558600000003,-0.004272460000000002
131.0,-0.02143458439108839,-0.03545816333745778,-0.055451494598134365,0.16999999999999993,-0.23000000000000032,-9.8,0.030386647593011136,-0.013983017689172046,-0.03224030145617835,139.1875,1.0,178.5625,0.01458740000000002,-0.3483276400000005,-0.9372558600000003,-0.004272460000000002
132.0,-0.020963067925190898,-0.03617642487933954,-0.05569194487764769,0.16999999999999993,-0.23000000000000032,-9.8,-0.013797434837853484,0.018601871067212204,-0.009561021266384272,139.1875,1.0,178.5625,0.01458740000000002,-0.3483276400000005,-0.9372558600000003,-0.004272460000000002
133.0,-0.020620780840497337,-0.03703967346876886,-0.05460458804106985,0.16999999999999993,-0.23000000000000032,-9.8,-0.021321064177932877,-0.017153910118888536,0.000544847138857817,139.1875,1.0,178.5625,0.01458740000000002,-0.3483276400000005,-0.9372558600000003,-0.004272460000000002
134.0,-0.0203615936972584,-0.036656037451230306,-0.05553578096369928,0.16999999999999993,-0.23000000000000032,-9.8,-0.02504545272388707,-0.00956901855150776,-0.014176501161753886,139.1875,1.0,178.5625,0.01458740000000002,-0.3483276400000005,-0.9372558600000003,-0.004272460000000001
135.0,-0.021226582488587584,-0.03464175441760267,-0.0540894305442846,0.16999999999999993,-0.23000000000000032,-9.8,-0.012880426674118354,-0.01028008679916699,-0.0026332557837905743,139.1875,1.0,178.5625,0.01458740000000002,-0.3483276400000005,-0.9372558600000003,-0.004272460000000002
136.0,-0.021612762423564025,-0.035358952301344976,-0.05481837999979961,0.16999999999999993,-0.23000000000000032,-9.8,0.012233768683036009,-0.004941735625918768,0.008483081256703337,139.1875,1.0,178.5625,0.01458740000000002,-0.3483276400000005,-0.9372558600000003,-0.004272460000000002
137.0,-0.02178180363881735,-0.03494522115835298,-0.05403489404495869,0.16999999999999993,-0.23000000000000032,-9.8,0.008053008253448369,-0.011991477131955799,0.01584228307586831,139.1875,1.0,178.5625,0.01458740000000002,-0.3483276400000005,-0.9372558600000003,-0.004272460000000002
138.0,-0.022278510626372323,-0.034886845090185206,-0.05589353509211581,0.16999999999999993,-0.23000000000000032,-9.8,-0.009862384762164703,-0.010284013015542673,0.026706343790878342,139.1875,1.0,178.5625,0.01458740000000002,-0.3483276400000005,-0.9372558600000003,-0.004272460000000002
139.0,-0.02113669514933568,-0.0344080922839559,-0.056715328733973926,0.16999999999999993,-0.23000000000000032,-9.8,-0.022241100215183735,-0.009932713112994068,0.023510621972244086,139.1875,1.0,178.5625,0.01458740000000002,-0.3483276400000005,-0.9372558600000003,-0.004272460000000002
140.0,-0.020616453879277793,-0.03437180294292934,-0.05503386970864496,0.16999999999999993,-0.23000000000000032,-9.8,-0.011104291002493012,-0.014516129032258063,0.016729306741205208,139.1875,1.0,178.5625,0.01458740000000002,-0.3483276400000005,-0.9372558600000003,-0.004272460000000002
141.0,-0.01959960716174361,-0.034795631772892494,-0.05462692956611519,0.16999999999999993,-0.23000000000000032,-9.8,0.007056923774269093,-0.007258064516129032,0.008612538087683513,139.1875,1.0,178.5625,0.01458740000000002,-0.3483276400000005,-0.9372558600000003,-0.004272460000000002
142.0,-0.020022915564956827,-0.035115744587981515,-0.05572876532950567,0.16999999999999993,-0.23000000000000032,-9.8,0.017774619542863856,-0.00018409047031469,-0.010868734943298666,139.1875,1.0,178.5625,0.01458740000000002,-0.3483276400000005,-0.9372558600000003,-0.004272460000000002
143.0,-0.022016066077409295,-0.03321583440356578,-0.05560887831247429,0.16999999999999993,-0.23000000000000032,-9.8,-0.01012190681842982,0.009796587637346494,-0.027019748936063057,139.1875,1.0,178.5625,0.01458740000000002,-0.3483276400000005,-0.9372558600000003,-0.004272460000000002
144.0,-0.021438140565586374,-0.03240361612651409,-0.05818884775838768,0.16999999999999993,-0.23000000000000032,-9.8,-0.0077323243769568464,-0.006240819084552558,-0.0283284228551283,139.1875,1.0,178.5625,0.01458740000000002,-0.3483276400000005,-0.9372558600000003,-0.004272460000000002
145.0,-0.021393400653051644,-0.031809574173402855,-0.0569174452082966,0.16999999999999993,-0.23000000000000032,-9.8,-0.017615501162566206,-0.013921625410255763,-0.004276627802540019,139.1875,1.0,178.5625,0.01458740000000002,-0.3483276400000005,-0.9372558600000003,-0.004272460000000002
146.0,-0.022192507533596917,-0.030164773824213294,-0.05601158369217596,0.16999999999999993,-0.23000000000000032,-9.8,-0.0020524329950559464,0.013520498098763567,0.014742241864135043,139.1875,1.0,178.5625,0.01458740000000002,-0.3483276400000005,-0.9372558600000003,-0.004272460000000002
147.0,-0.019423389093729086,-0.029995131491694176,-0.05489530243103194,0.16999999999999993,-0.23000000000000032,-9.8,8.84651012165046e-05,0.004579929709895934,0.011475878612762154,139.1875,1.0,178.5625,0.01458740000000002,-0.3483276400000005,-0.9372558600000003,-0.004272460000000002
148.0,-0.01940191472095569,-0.030711851460132812,-0.055716980452587134,0.16999999999999993,-0.23000000000000032,-9.8,0.009868861326849932,-0.015935201555702314,-0.0033346413387802124,139.1875,1.0,178.5625,0.01458740000000002,-0.3483276400000005,-0.9372558600000003,-0.004272460000000002
149.0,-0.019437776645944378,-0.03132800342690999,-0.055267092376831195,0.16999999999999993,-0.23000000000000032,-9.8,0.004514945751874497,0.01163600223983875,0.007631261536645273,139.1875,1.0,178.5625,0.01458740000000002,-0.3483276400000005,-0.9372558600000003,-0.004272460000000002
150.0,-0.020660009960703107,-0.033179754297057974,-0.055168031574141026,0.16999999999999993,-0.23000000000000032,-9.8,0.028930988816745183,-0.04194868362225811,-0.026022686775080996,139.1875,1.0,178.5625,0.01458740000000002,-0.34832764000000044,-0.9372558600000003,-0.004272460000000002
151.0,-0.026696434250006635,-0.0389612871005841,-0.05492633296809736,0.16999999999999993,-0.23359726295210187,-9.799999999999999,0.059207266972725804,-0.030412036732694943,1.0201849629942497,139.4216153470186,0.9980449657869013,178.55174731182797,0.014669974076246348,-0.3464165166373414,-0.9379532001368526,-0.004209456754643208
152.0,-0.024432504325835786,-0.035830519480813144,-0.05398882085049388,0.16753846153846153,-0.24212121212121224,-9.8,0.014666518702083705,0.029027752545363085,0.9625841268185048,140.63061226408,0.984134145424468,178.52486559139783,0.014849201499661643,-0.33654749993653665,-0.9414870319443567,-0.004173593533649146
153.0,-0.027000052057454427,-0.039131987163200446,-0.05774404168522966,0.18448420428873008,-0.24484250302738514,-9.799999999999999,0.03689598718651885,-0.05570124436071063,-1.3397809031710564,140.46177640165965,1.074397356775787,178.50420277644037,0.015281576705536166,-0.3379177341281142,-0.9409818099972145,-0.004835200941114415
154.0,-0.029747599296622913,-0.027832802098847496,-0.057411982325522866,0.18171008481167358,-0.24774383215885384,-9.799999999999997,0.042537435173081437,-0.001971708346817487,-0.9330460089961856,139.25988133997282,1.0487538059757606,178.46883525918793,0.015441341159701163,-0.3478004988310286,-0.9373420270640862,-0.004375632685289995
155.0,-0.02476782724294691,-0.020715680630036752,-0.056128722967347666,0.17532373310792407,-0.25336906977961665,-9.799999999999997,0.0005244986305055974,-0.005649283241044547,0.7009081697211849,139.27397529996745,1.016786770160556,178.4511515005617,0.015560562003000484,-0.347671218713427,-0.937422634841341,-0.004020144103555814
156.0,-0.021065243044738363,-0.01652597325734487,-0.054450969499314106,0.16750057623138143,-0.257055991390297,-9.8,0.02412588567888916,-0.02297982246118698,0.26546202718708317,139.8040667066797,0.9761964153833083,178.44264564275397,0.015638440561617534,-0.34345985389728045,-0.938987060702684,-0.003770247677388853
157.0,-0.017087252115501342,-0.013647441923637618,-0.05583870815476391,0.16366592087003318,-0.25868928601772906,-9.8,-0.003080537509550856,-0.025357176899368006,0.1399190388877063,140.03498930867482,0.9563054037214308,178.43906475686086,0.015673069203885684,-0.3416327169585658,-0.9396697373290093,-0.003645435764252737
158.0,-0.01624383469199879,-0.012854534635386458,-0.05402672047121922,0.16118057718995166,-0.25955407969639455,-9.8,0.009354852413576361,-0.016380843304442467,0.13332916316075252,140.17461730720214,0.9433218159676003,178.4375,0.015679672228327043,-0.34052212528477155,-0.9400820799500125,-0.0035617942133733572
159.0,-0.014227999836771345,-0.012776488951459882,-0.05405075391238702,0.16028937381404185,-0.25993833017077783,-9.8,-0.007902817734794228,-0.007942668482585541,0.13401934004611207,140.27935246679317,0.9390417457305503,178.4375,0.015684736963946854,-0.339669428164453,-0.9403941003842502,-0.0035446725616698252
160.0,-0.01408513783591828,-0.011483309383413447,-0.054404861007878696,0.1600000000000001,-0.2599999999999999,-9.8,-0.035074812529937396,-0.009923009266141418,-0.06929011198652198,140.30123527905786,0.9375,178.4375,0.015686039999999984,-0.3394125143840243,-0.9404812201945726,-0.0035400399999999956
161.0,-0.017162126471281902,-0.011364781784955449,-0.05367973528095327,0.1600000000000001,-0.25999999999999984,-9.8,-0.024144084830101786,0.020002689796684268,0.013008852873299906,140.27566721647236,0.9375,178.4375,0.015686039999999984,-0.33947286336335003,-0.9404565363585239,-0.0035400399999999956
162.0,-0.015820339452544643,-0.008774697187177358,-0.05467471229634105,0.1650793650793651,-0.2599999999999999,-9.8,-0.026433219594906535,0.03650523469567626,0.027343179471682907,140.31866118120084,0.9375,178.4375,0.015686039999999984,-0.33918916848147007,-0.940561135562775,-0.003571039365079365
163.0,-0.014677532673566526,-0.008746682279469169,-0.053989259902797695,0.16770097286226315,-0.25999999999999984,-9.8,-0.0030098188579151045,0.017908608446022514,-0.007682852358288634,140.34783865511656,0.9375,178.4375,0.015686039999999984,-0.33901931940202523,-0.9406204361684849,-0.003587039037378395
164.0,-0.014013497519578965,-0.007693233612852865,-0.055454307370753686,0.1690117767537122,-0.25999999999999984,-9.8,-0.0038234578160543267,-0.0007567172823650867,0.0050631437133288005,140.3624273920744,0.9375,178.4375,0.015686039999999984,-0.3389347065746684,-0.9406500864713396,-0.003595038873527909
165.0,-0.01267751168861693,-0.007366842100845277,-0.054780405093466954,0.1696671786994367,-0.2599999999999999,-9.8,0.009833022756079338,-0.016059362225411933,0.014356328641098603,140.37007378308277,0.9375,178.4375,0.015686039999999984,-0.3388920571429408,-0.9406652084916867,-0.003599038791602667
166.0,-0.013505726725050866,-0.007330322331533504,-0.05550598016908724,0.16999487967229898,-0.25999999999999984,-9.8,-0.0073886992120219125,-0.01659423135920466,0.009382472503623627,140.37451996927803,0.9375,178.4375,0.015686039999999984,-0.3388689401024063,-0.940673392437277,-0.0036010387506400458
167.0,-0.013487630387615041,-0.007777808375188157,-0.05567157687409816,0.16999999999999993,-0.25999999999999984,-9.8,-0.0064561263597231935,-0.025242200165009394,-0.004045322887973133,140.375,0.9375,178.4375,0.015686039999999984,-0.33886718999999976,-0.940673830000001,-0.0036010700000000044
168.0,-0.015681482582627228,-0.01048909865715277,-0.05428134548998233,0.16999999999999993,-0.25999999999999984,-9.8,-0.03373547519944502,0.019653490081429727,0.016848562178947195,140.375,0.9375,178.4375,0.015686039999999984,-0.33886718999999976,-0.940673830000001,-0.0036010700000000044
169.0,-0.017186766322161495,-0.011987850932665932,-0.05270734822533665,0.16999999999999993,-0.25999999999999984,-9.8,-0.01889901514246885,-0.007321919686942463,0.010732363232960288,140.375,0.9375,178.4375,0.015686039999999984,-0.33886718999999976,-0.940673830000001,-0.003601070000000004
170.0,-0.02105421265416831,-0.013534632071555705,-0.05214732490631911,0.16999999999999993,-0.25999999999999984,-9.8,-0.02860273337768604,0.007587760074603524,-0.015873577728117913,140.3540322580645,0.9375,178.4375,0.015686039999999984,-0.3389081425161291,-0.940673830000001,-0.003601070000000004
171.0,-0.021352883047762027,-0.01484017334380686,-0.054989144011721225,0.16999999999999993,-0.2599999999999999,-9.8,0.005034064327129099,-0.027196232362149866,-0.02187548739237767,140.3322580645161,0.9375,178.4375,0.015686039999999984,-0.33895067012903257,-0.940673830000001,-0.0036010700000000044
172.0,-0.021297409265816497,-0.015116323231043217,-0.05601338921016169,0.16999999999999993,-0.25999999999999984,-9.8,-0.014586462460091364,-0.0012661269337631061,-0.019825512513393137,140.32137096774193,0.962231182795699,178.4375,0.015696539784946225,-0.3389719339354842,-0.940673830000001,-0.003635723247311832
173.0,-0.01905071642617915,-0.014487228559677004,-0.0564007285974499,0.16999999999999993,-0.25999999999999984,-9.8,0.0006390441775158857,0.006961022554623823,-0.0008044055803177966,140.31592741935486,0.9821236559139785,178.4375,0.01572278924731181,-0.33898256583871,-0.940673830000001,-0.003681400494623661
174.0,-0.019549155145929347,-0.014685355862775225,-0.05773835125448028,0.16999999999999993,-0.25999999999999984,-9.800000000000002,0.020815732206861236,-0.011565540194572453,0.032848502304147466,140.3132056451613,0.9920698924731183,178.4375,0.01573591397849461,-0.33898788179032296,-0.940673830000001,-0.0037042391182795756
175.0,-0.016015360983102925,-0.011855094726062474,-0.05679160266257039,0.16999999999999993,-0.2599999999999999,-9.8,0.038645673323092676,-0.0030465949820788533,0.029880312339989758,140.33810163850484,0.9970430107526882,178.4375,0.015742476344086005,-0.3388067468612394,-0.9407333318125966,-0.003715658430107533
176.0,-0.018317625489321643,-0.0139129461704904,-0.055934245082007825,0.16999999999999993,-0.25999999999999984,-9.8,-0.010925808929190824,-0.0026284004756949603,-0.15944571420312834,140.3341457724262,0.9995295698924731,178.4375,0.015745757526881704,-0.3389701515263533,-0.9406695367855902,-0.0037213680860215116
177.0,-0.02422693985106429,-0.013567891798132378,-0.05408676625790327,0.1684593163216177,-0.2599999999999999,-9.799999999999999,-0.06607115354179008,0.017093258436522606,0.6379435989247558,140.49327955448464,0.9894077997111218,178.4375,0.015662907457871925,-0.3376693148532104,-0.9411291669941433,-0.0037363067597496417
178.0,-0.022083900033059028,-0.016722117942076942,-0.0522584368923925,0.1646328839672605,-0.2599999999999999,-9.799999999999999,-0.10885882945906708,-0.016923800889265577,0.9028427672043133,141.23454300304877,0.9594216417910447,178.4375,0.015549446954742419,-0.33157554912015363,-0.9432720244648136,-0.003682471444390949
179.0,-0.01588065969394887,-0.01500353208931804,-0.052133698732934594,0.1633840303092831,-0.2599999999999999,-9.8,-0.07964542855441833,0.04886096821896168,0.5660991229774767,141.98140680618388,0.9546212151607554,178.4375,0.015492747161446985,-0.3254402733567998,-0.9453991460956941,-0.0036773067360203575
180.0,-0.01987289296763388,-0.014986170680358525,-0.05766255261823596,0.17141714009784917,-0.25607451158564287,-9.799999999999997,0.014742580718571971,0.15927314220861327,-2.9236203414413873,140.70907929464195,1.000481893359569,178.4520388459791,0.015523627254053802,-0.33588268935074217,-0.9416059445635003,-0.003974426003176013
181.0,-0.03454969657053217,-0.01920035049957762,-0.056641480326397944,0.19213574502448685,-0.24982611209780686,-9.799999999999997,-0.07723468747314866,0.08605546871727293,-1.2261418328151028,138.33553768046195,1.1263406534246525,178.4784937631655,0.01572699132497411,-0.3552404725791487,-0.9343331735652145,-0.004759956725928183
182.0,-0.03386534493353838,-0.02526681722601192,-0.05661721066429152,0.19691750771093966,-0.23911156721515667,-9.799999999999997,-0.07194226688756873,0.03946328304201856,-0.17097293855487922,138.04525856283385,1.1602755265197406,178.55477107513113,0.015266644523566266,-0.35766294914694996,-0.933565991444879,-0.005225938807429115
183.0,-0.03376141531276295,-0.02813272573059182,-0.05546293675774409,0.19908627401676005,-0.23407191263983657,-9.799999999999999,-0.06482596402390924,0.02988443646117577,0.03413532361407964,137.96714610146114,1.1780145273727736,178.59290973111393,0.015039186329323447,-0.35834241417130613,-0.9333834672490076,-0.005452578607343593
184.0,-0.036113356727740215,-0.02972618691221674,-0.05418145208692026,0.19874227120751414,-0.23256870314298783,-9.799999999999999,-0.08736340793012247,0.015121138772411653,1.754898155685921,138.43980879527277,1.1728802679222943,178.59731630250712,0.014953617922609866,-0.3544652539301348,-0.9348734699595127,-0.005499351904565527
185.0,-0.023855213464994945,-0.02197549415551498,-0.053445757502989535,0.1907141890367695,-0.2360844424392814,-9.799999999999997,-0.08549207253031393,0.02729290523905508,1.675592225585722,140.43135743895368,1.1204178885630498,178.55507697947212,0.014995374570945186,-0.33810869899045526,-0.9407866445870974,-0.005289995595007143
186.0,-0.020388411449805837,-0.019521234921859282,-0.055045569761490665,0.18484878562297902,-0.2379762388149487,-9.8,-0.04215430337958954,0.02333343035736376,0.7947020937785767,141.50441283482388,1.0885263929618767,178.52749266862168,0.014990843279465598,-0.3294153335462478,-0.9439387204474603,-0.0051711413605534245
187.0,-0.017144577933339646,-0.016662189007662483,-0.05439706114211837,0.1820918866080155,-0.23915933528836775,-9.8,-0.03180399205373191,0.002619982341626463,0.4038026597925142,142.012767831804,1.0734970674486801,178.51173020527858,0.015005715170750174,-0.3253054017656798,-0.9454215672733579,-0.005109413362658847
188.0,-0.015112351401633407,-0.01582849304701543,-0.05446179800081984,0.18072336265884636,-0.2397409579667646,-9.8,-0.02845402516318229,-0.003665294989436509,0.11122430075994076,142.26004221454923,1.065982404692082,178.50384897360703,0.015013135972471867,-0.32329523365859447,-0.9461472175804875,-0.0050788068426197465
189.0,-0.023556005697841664,-0.024024047195019473,-0.05592453238899421,0.1892088486548515,-0.2416456287985041,-9.799999999999997,0.09317103875930731,-0.07622754315539232,-1.4392007666585775,141.3724181226599,1.1108060797313952,178.5120542734498,0.015217304667034099,-0.330517726948618,-0.9436082955096112,-0.005274660976454589
190.0,-0.03515740349962625,-0.035894006644153355,-0.05460814238539015,0.19072561456392645,-0.23342753274301722,-9.799999999999997,0.13739020197839016,-0.0090114368437413,-2.4761247628977223,139.69484098419363,1.1183532722083829,178.56987851765018,0.014876028518574167,-0.3442526277858524,-0.9385868408422641,-0.005223598155645338
191.0,-0.04145076285765671,-0.04482152261809984,-0.05503986120611708,0.19284293818425396,-0.22788721190680555,-9.799999999999997,0.00517902474011879,-0.02444998503726222,0.17493420461034637,138.66512152061483,1.1282947987970386,178.60413046967128,0.014677783934255794,-0.352627058378818,-0.935512677327359,-0.005263917413493542
192.0,-0.04274428676991772,-0.0484090867100723,-0.05161198947843312,0.19158275941470762,-0.2287823156308223,-9.799999999999999,-0.014491948056522666,-0.02304460956428597,0.19733539289216423,138.91244574179865,1.1276554639146483,178.6165813638679,0.014594201483256932,-0.3506086009768233,-0.936339419581183,-0.005196418061585481
193.0,-0.0437422411315002,-0.05128425881536605,-0.053017659500991354,0.19095267002993443,-0.22922986749283064,-9.8,-0.012111444593417162,-0.02988469837829453,0.11776015051544293,139.03094971793368,1.1273357964734532,178.6228068109662,0.014552410257757503,-0.34971846858179945,-0.9367122316740455,-0.005162668385631451
194.0,-0.04101424485613947,-0.05183082461461105,-0.0551605138930634,0.190352445346898,-0.22940221752388157,-9.8,-0.013453760988576166,-0.0284924337858658,0.0977479541063156,139.12129241389906,1.1256711707939964,178.62555429374862,0.01452522282172588,-0.34903031417636,-0.9369877409001356,-0.005139259202165889
195.0,-0.03991616462602896,-0.05071863345443149,-0.05577391405122674,0.19014492753623186,-0.22977092099111762,-9.8,-0.008484805230647905,0.003031144996889579,0.09267794757515758,139.2033550418075,1.1253506311360448,178.62529219261336,0.014525399752220673,-0.348383540713601,-0.9372378464298456,-0.0051324286863020105
196.0,-0.03891749340598731,-0.05023262967412674,-0.053051964421439515,0.18999999999999997,-0.23000000000000032,-9.8,-0.024994784224625068,0.014292053771293292,0.035533595144272206,139.2503305129561,1.125,178.625,0.014526370000000007,-0.34801313221047026,-0.9373804798254878,-0.00512695
197.0,-0.03707760342669336,-0.04743920253942259,-0.0534670954636496,0.18999999999999997,-0.23000000000000032,-9.8,-0.02131729027167522,0.013216270484357006,0.049172458512754647,139.25,1.125,178.625,0.014526370000000007,-0.348021846795346,-0.9373779299999986,-0.00512695
198.0,-0.03787583679178842,-0.04798383536102101,-0.05432882359997217,0.18999999999999997,-0.23000000000000032,-9.8,0.003485105965872244,0.02385319958203396,0.05203092342172194,139.25,1.125,178.625,0.014526370000000007,-0.3480151097204297,-0.9373795049677407,-0.00512695
199.0,-0.03572202225596062,-0.0492967423505797,-0.05620897516817068,0.18999999999999997,-0.23000000000000032,-9.8,-0.05171944923036682,-0.06510078157429362,0.011119024467909678,139.25,1.125,178.625,0.014526370000000007,-0.34786127776344056,-0.9374102168387096,-0.00512695
200.0,-0.037127400305919954,-0.05090487481732939,-0.05774808800031842,0.18999999999999997,-0.23000000000000032,-9.8,-0.027973408278034607,-0.03259916810244338,-0.10181561783888596,139.2395941727367,1.125,178.625,0.014526370000000007,-0.34791392540617383,-0.9373859415567122,-0.00512695
201.0,-0.03704439819632328,-0.05088518903919526,-0.056532778355879276,0.18999999999999997,-0.23000000000000032,-9.8,-0.025104058272632672,-0.025819458896982308,0.033534946236559136,139.21253902185225,1.125,178.625,0.014526370000000007,-0.34822020818695765,-0.9372874273912595,-0.00512695
202.0,-0.03726309399930629,-0.05044259451959763,-0.056952653485952125,0.18999999999999997,-0.23000000000000032,-9.8,-0.0018535379812695107,-0.01881178459937565,0.0016302462712452278,139.19901144641,1.125,178.625,0.014526370000000007,-0.34837334957734956,-0.9372381703085333,-0.00512695
203.0,-0.03695813786868188,-0.052104251604942475,-0.05779278188135081,0.18999999999999997,-0.23000000000000032,-9.8,-0.0008347762178513955,-0.0279066304452898,-0.008519664454717593,139.19224765868887,1.125,178.625,0.014526370000000007,-0.3484501499687821,-0.9372134925494282,-0.00512695
204.0,-0.03761278381467393,-0.05015462320101441,-0.056669543906336176,0.18999999999999995,-0.23000000000000032,-9.8,0.05972504165174027,0.058529775308052284,-0.055703640760137146,139.19693028095733,1.125,178.625,0.014521939677419366,-0.3483854474037458,-0.9372272920811653,-0.005129903548387096
205.0,-0.038239943267527235,-0.04959589343490589,-0.054439945135864684,0.1892626728110598,-0.24091244239631354,-9.799999999999997,0.09905198120939919,0.13247443500054018,0.5686013719790811,138.88646313364052,1.1111751152073732,178.5498847926267,0.01512089179723503,-0.3508734981244238,-0.9362758992626727,-0.004878212654377878
206.0,-0.028532972611280728,-0.035551856785879146,-0.051980236497551104,0.18861471861471854,-0.2537553414327607,-9.799999999999997,0.08459747154311602,0.14179165298414106,1.001081905442131,139.878135037006,1.1112449378578413,178.45841013824884,0.015743869569194244,-0.34270249090971927,-0.9392507504426755,-0.00478636470939813
207.0,-0.032638280392682045,-0.025624829660002072,-0.054060908479540065,0.1921916097817427,-0.26305414130461546,-9.798937381404173,0.14728664664870803,0.08293425919085244,-1.6707468066594817,139.71640385626392,1.134725884488693,178.40365952832747,0.016252050486684405,-0.3440241035763018,-0.9387370118627041,-0.0047945160264258185
208.0,-0.04815825240894274,-0.010484143442359654,-0.054743225655036365,0.20426865034103997,-0.2774948125877914,-9.795462913138293,0.06640484293413167,0.09402707576621164,-0.16298573827058405,138.9006760494608,1.1861941892351986,178.32078137706696,0.01713545517352998,-0.35068569776311487,-0.9362568159602398,-0.004929231732519599
209.0,-0.05214744323249886,0.0035747332100734813,-0.05524228310779318,0.21261819613826205,-0.2847151482293793,-9.792570166246566,0.03983643620794367,0.08712980614394664,-0.07299584581760295,138.7535134279562,1.2201132236498573,178.2793423014367,0.01762666393757145,-0.35193273586744467,-0.9358114132220554,-0.0050595030840017334
210.0,-0.05589860640887615,0.011010100860029065,-0.056366917283543275,0.21681601051152743,-0.2879843022252885,-9.791123792800704,0.03657528415619918,0.03818855898595182,-0.043741586503271514,138.6897175434712,1.2375047685069562,178.26097011385198,0.017853481842057622,-0.35247736583003586,-0.9356186971985851,-0.005132550249374137
211.0,-0.05843501703229891,0.013397138951399726,-0.0547959612458131,0.21892364552946864,-0.2893880455407965,-9.790400606077771,0.027250802903700924,-0.007054803884425823,-0.04435368670227115,138.62200014514713,1.245982345152794,178.25346892789372,0.0179567813657991,-0.3530436271818802,-0.9354145939267609,-0.0051680114101220614
212.0,-0.05864603476535882,0.01453886043079158,-0.053846747226322114,0.21985556090515185,-0.28999999999999954,-9.790072219547426,0.017861249016682845,-0.009274357982693618,0.002141230652659497,138.60869041887338,1.2494884448724122,178.25,0.018002284501685138,-0.3531577854742419,-0.9353750786711603,-0.005184052137698601
213.0,-0.058861045245446726,0.013467187526654278,-0.055913387125205403,0.22000000000000022,-0.28999999999999954,-9.790000000000003,0.02268388603628961,-0.006782410171553994,-0.01421003138806912,138.625,1.25,178.25,0.018005370000000014,-0.35302734000000024,-0.9354247999999998,-0.0051879899999999965
214.0,-0.0596711360547699,0.016551150611555595,-0.0574331610401278,0.2200000000000002,-0.28999999999999954,-9.790000000000003,0.030643899654844965,-0.018462595884296298,0.0027277447501748535,138.625,1.25,178.25,0.018005370000000014,-0.35302734000000024,-0.9354247999999998,-0.0051879899999999965
215.0,-0.057701159425234405,0.015065897886422963,-0.058243462240493996,0.2200000000000002,-0.28999999999999954,-9.790000000000003,0.013121008967207427,-0.01776624417870729,-0.022107229775450207,138.625,1.25,178.25,0.018005370000000014,-0.35302734000000024,-0.9354247999999998,-0.005187989999999997
216.0,-0.056486751050533635,0.01516647617747907,-0.05500221763531838,0.2200000000000002,-0.28999999999999954,-9.790000000000003,0.011534724473027298,-0.01289885450606438,-0.017399463644996387,138.625,1.25,178.25,0.018005370000000014,-0.35302734000000024,-0.9354247999999998,-0.0051879899999999965
217.0,-0.0569409995280417,0.014589134724188723,-0.05619881953566126,0.22000000000000022,-0.28999999999999954,-9.790000000000003,0.004491564456423466,-0.0021190855950370463,-0.005777970636233886,138.625,1.25,178.25,0.018005370000000014,-0.35302734000000024,-0.9354247999999998,-0.0051879899999999965
218.0,-0.05690182130408328,0.014092174021823814,-0.0548866106002968,0.22000000000000022,-0.28999999999999954,-9.790000000000003,0.003904210948294979,-0.017172315950484185,-0.0015069613847142377,138.625,1.25,178.25,0.018005370000000014,-0.35302734000000024,-0.9354247999999998,-0.0051879899999999965
219.0,-0.05759950927710775,0.013246510067495727,-0.05585419900718171,0.2200000000000002,-0.28999999999999954,-9.790000000000003,-0.002361088603060337,-0.0018106423750305634,-0.003182750919750033,138.625,1.25,178.25,0.018005370000000014,-0.35302734000000024,-0.9354247999999998,-0.0051879899999999965
220.0,-0.05895298044500548,0.01302648084019948,-0.056738927460580096,0.2200000000000002,-0.28999999999999954,-9.790000000000003,-0.007044119570347372,0.007965646554420202,0.0023568772282970265,138.625,1.25,178.25,0.018005370000000014,-0.35302734000000024,-0.9354247999999998,-0.005187989999999997
221.0,-0.05895824590732558,0.013205466755372087,-0.05647099731040638,0.2200000000000002,-0.28999999999999954,-9.790000000000003,-0.0005143918845919833,-0.0032719361093578522,-0.013430234045819757,138.625,1.25,178.25,0.018005370000000014,-0.35302734000000024,-0.9354247999999998,-0.0051879899999999965
222.0,-0.05812801712805124,0.011701547443721757,-0.057706246718563114,0.22000000000000022,-0.28999999999999954,-9.790000000000001,0.005919715509069153,0.003354286805503093,-0.01905268082054131,138.625,1.25,178.25,0.018005370000000014,-0.35302734000000024,-0.9354247999999998,-0.0051879899999999965
223.0,-0.05773709215750463,0.012513971779439793,-0.05783630060520593,0.2200000000000002,-0.28999999999999954,-9.790000000000001,-0.008933135655108157,0.014546767058665526,-0.00688694568255647,138.625,1.25,178.25,0.018005370000000014,-0.35302734000000024,-0.9354247999999998,-0.005187989999999997
224.0,-0.057371983413495836,0.01392224236777384,-0.057445384570186234,0.2200000000000002,-0.28999999999999954,-9.790000000000003,-0.01175437850973282,-0.006674263218419747,-0.010252039737100552,138.625,1.25,178.25,0.018005370000000014,-0.35302734000000024,-0.9354247999999998,-0.0051879899999999965
225.0,-0.057921801683832354,0.015046040979409576,-0.055375874023150584,0.2200000000000002,-0.28999999999999954,-9.790000000000003,0.011758706655586617,-0.015240004868508305,0.013810719951650677,138.625,1.25,178.25,0.018005370000000014,-0.35302734000000024,-0.9354247999999998,-0.0051879899999999965
226.0,-0.06009768913735068,0.013929859904476517,-0.057235266466889936,0.2200000000000002,-0.28999999999999954,-9.790000000000003,-0.0017466822794691625,0.0302457652371719,0.023497110372440885,138.625,1.25,178.25,0.018005370000000014,-0.35302734000000024,-0.9354247999999998,-0.005187989999999997
227.0,-0.060420068326995875,0.01466334265065096,-0.05716090000251818,0.2179518689196111,-0.28999999999999954,-9.790000000000001,-0.003113484508910209,0.010354577447054973,0.32754476614372174,138.68849206349205,1.25,178.25,0.01801737172043012,-0.3524958069738865,-0.9356238141116231,-0.005184489498207884
228.0,-0.060407113284024316,0.013895625746766662,-0.05414741357050961,0.2122739604588426,-0.29285026480500687,-9.79,0.07199535612461727,0.07460309316904183,2.482898777310346,139.48727082712398,1.2278526721232546,178.23074145402023,0.018101177003691224,-0.34588802340509445,-0.9380336564636111,-0.00506164119349489
229.0,-0.05980234265355423,0.02076455733034576,-0.057270903268980156,0.2242155216038954,-0.3312194288026905,-9.789999999999997,0.22463483423303343,-0.013694686525788015,-3.8859655114436933,139.00377449724596,1.3006374160055263,178.0103567017647,0.020135602365800732,-0.34980237967356165,-0.9362124150667752,-0.004886038672951279
230.0,-0.05803491828233382,0.026842829383549777,-0.05808696771138508,0.21440217243302448,-0.32907404879480245,-9.789999999999996,0.014543538253704733,-0.1264292583387537,0.11366902699986703,137.53769483608323,1.2448779992340218,178.01568493879694,0.019922815705844487,-0.3617377622266036,-0.93176416718809,-0.004224173336929979
231.0,-0.04195025484009164,0.031500139730177346,-0.056405235007766265,0.18291537193079804,-0.32310384467389897,-9.792728110599072,-0.12014278540463766,-0.0335151284013277,3.8839802508271224,139.59978059776512,1.0621855433958127,178.05127564912198,0.01902664717550289,-0.3448447504865737,-0.9380520212161647,-0.00317283234127605
232.0,-0.03319530151118766,0.0349697319234604,-0.054488331789597416,0.1650239942091266,-0.31245053984847027,-9.794829493087553,0.07962394779947328,0.04099013165187071,-2.2457466897426084,140.70856285392608,0.9602402371356944,178.11469312410014,0.01816101204090044,-0.33579426553053715,-0.9413346386060342,-0.002689124874683085
233.0,-0.04103452346401202,0.040776744040319876,-0.05500165635811488,0.17128222783675834,-0.31264984679175867,-9.792414746543777,0.0216441282643898,0.07588167187756308,-1.0400136822662156,138.83784985961367,0.9941496915466258,178.1184322625797,0.018363904578466587,-0.3511431271209593,-0.9357879288337752,-0.0026392367699958875
234.0,-0.041843114934437056,0.042658591749005194,-0.056463895032727376,0.1743133906832225,-0.3155652226011155,-9.791207373271888,0.03504190985449504,0.053526389935976484,-0.45976841196059726,138.0292977675815,0.9911141164605499,178.1268879405465,0.01840308451223469,-0.35773590235103614,-0.9334347004627028,-0.002597988712253669
235.0,-0.042980621529008625,0.04377454803261255,-0.0553276615857261,0.17675233368781745,-0.31768947181850427,-9.790603686635945,0.021634615384615384,0.043952351412028835,-0.27643123006026227,137.65736810232778,0.992476072314782,178.12750576036865,0.018461111958525338,-0.36076089886293305,-0.9323513108469801,-0.002595304185749732
236.0,-0.04557095592579463,0.04510616802552286,-0.055488715585489776,0.17880243412501462,-0.3189046437433536,-9.790216589861751,0.007749911378943636,0.03310808814841073,-0.261357896136122,137.3840555949427,0.9979949485997873,178.12678571428572,0.018514806156682016,-0.36298779408814874,-0.931543616727637,-0.002616474682736616
237.0,-0.0463180382106876,0.04605901435951673,-0.05574658639439178,0.17989660876757635,-0.3197518610421838,-9.790000000000001,-0.0010173443029735997,0.018455673975240342,-0.0027642959565553444,137.24490798180315,1.0010856079404467,178.125,0.01855468999999999,-0.36412063512241555,-0.9311352412440022,-0.002625752004962777
238.0,-0.04453313943239908,0.04573235060814383,-0.0554940066983959,0.17997311827956974,-0.3200000000000002,-9.790000000000003,0.03436095319936542,-0.0100222545390446,-0.04166735523532523,137.25036962365593,1.0,178.125,0.01855468999999999,-0.36407218326344126,-0.931153422892472,-0.0026245099999999974
239.0,-0.0435058170280275,0.037479078529878376,-0.055763132381456,0.17999999999999983,-0.3166129032258065,-9.790000000000001,-0.08910312555085492,0.074189141547682,0.22221067722104704,137.43145161290323,1.026209677419355,178.125,0.018455261693548376,-0.3626433361290323,-0.931720362741935,-0.0028100762096774194
240.0,-0.04159968270756214,0.03898953926493919,-0.05708586726599682,0.18661290322580645,-0.30991935483870986,-9.791209677419355,-0.13077468105499734,0.19191647937599154,-0.5194894194539925,137.48941532258064,1.084173387096774,178.14566532258064,0.018370107217741925,-0.3622062447580645,-0.9318970703225804,-0.003312878669354839
241.0,-0.055007231820800806,0.04409556856121297,-0.05591730171195845,0.1989443909484836,-0.3093361819932595,-9.790604838709676,0.022941021442891313,0.10135777928838094,-0.01697677332533526,137.23634223038036,1.1691930970149254,178.13822144318726,0.018697956047484345,-0.36422893973820414,-0.9310973135002409,-0.003938205976468463
242.0,-0.06163566756424458,0.04959806489676792,-0.05635982108507801,0.2049560664419839,-0.30950680067404907,-9.790302419354838,-0.01660869724157101,0.05524583237802305,0.0020000688396267664,137.1786549861579,1.213628806571979,178.13161072159363,0.018909837862451852,-0.364624351320715,-0.9309358151372178,-0.0042894250850084225
243.0,-0.06415460295635528,0.050922821314466835,-0.05694439709346265,0.207961904188734,-0.30959211001444387,-9.79015120967742,-0.005004540878491498,0.0035646540373385736,-0.023043102562681744,137.14981136404668,1.2358466613505055,178.12830536079682,0.019015778769935605,-0.36482205711197035,-0.9308550659557061,-0.0044650346392784025
244.0,-0.06593916412125776,0.05245396398709813,-0.056870270216866595,0.2094648230621091,-0.3097406114588348,-9.790075604838712,0.025763675678079953,-0.010071576792464948,-0.04087126837291215,137.12971919008785,1.2461365363204142,178.12665268039842,0.019071856358254098,-0.36496564044106583,-0.9307969406542649,-0.004547040472360974
245.0,-0.06579208141026467,0.05037923225369475,-0.0572974042291409,0.21000962927299016,-0.3099711121810303,-9.790000000000003,0.03430574929195361,-0.014569721148573786,0.10539256397951688,137.17168547222263,1.2498796340876264,178.12518054886857,0.019077630258747896,-0.36467102718048666,-0.9309195963666581,-0.004567100086352832
246.0,-0.06227930869697036,0.0516787144142124,-0.058405257280369716,0.2100000000000003,-0.30999999999999994,-9.790000000000001,0.044097405066072945,-0.022826392545765902,0.015415328844578042,137.24726847034339,1.25,178.125,0.019029309927159226,-0.3641183380124867,-0.9311438325598332,-0.004573574901144638
247.0,-0.06143361896867247,0.05284247895528517,-0.05883842468597049,0.2100000000000003,-0.30999999999999994,-9.790000000000001,0.02864989920317175,-0.01884360730305985,0.005301316867658428,137.28290842872008,1.25,178.125,0.01900365109261188,-0.36386124142559795,-0.9312485012799163,-0.004575607450572316
248.0,-0.061686156946302605,0.05237153758485704,-0.05946021835720067,0.2100000000000003,-0.30999999999999994,-9.790000000000001,0.0321094098409395,-0.008652940884990832,0.008556934740597594,137.30072840790842,1.25,178.125,0.018990821675338207,-0.3637326931321535,-0.9313008356399577,-0.004576623725286156
249.0,-0.06279573195910343,0.05251008374213369,-0.06004020283104569,0.2100000000000003,-0.30999999999999994,-9.790000000000001,0.021188246370348347,-0.0024209033249095683,-0.000952628710172934,137.30963839750262,1.25,178.125,0.01898440696670137,-0.36366841898543134,-0.9313270028199785,-0.004577131862643077
250.0,-0.06273501478288157,0.05370041127793468,-0.05897431577556447,0.2100000000000003,-0.30999999999999994,-9.790000000000003,0.00012325950151132262,0.0010170457360883997,-0.004313463158416332,137.3125,1.25,178.125,0.01898193000000002,-0.3636474599999995,-0.9313354499999993,-0.004577639999999996
251.0,-0.06220212080669936,0.05385225377004773,-0.05957932378639975,0.2100000000000003,-0.30999999999999994,-9.790000000000001,-0.006498790116115817,0.006620914061080553,0.005427753827857885,137.3125,1.25,178.125,0.01898193000000002,-0.3636474599999995,-0.9313354499999993,-0.004577639999999996
252.0,-0.06134611763539963,0.053581520572155324,-0.058598368102010134,0.2100000000000003,-0.30999999999999994,-9.790000000000001,-0.011492761343177576,0.0024628156847199506,0.006542354194539418,137.3125,1.25,178.125,0.01898193000000002,-0.3636474599999995,-0.9313354499999993,-0.004577639999999996
253.0,-0.06047592620121236,0.055446674264572275,-0.05872570734849611,0.2100000000000003,-0.30999999999999994,-9.790000000000001,0.013662861519911466,-0.07301334382174651,-0.002521193614455841,137.3125,1.2474398361495136,178.125,0.018974929733742974,-0.3636474599999995,-0.9313354499999993,-0.004560138801843314
254.0,-0.06342006507771336,0.05334629932444708,-0.058522322977057624,0.2100000000000003,-0.30999999999999994,-9.790000000000001,-0.02821290239994714,-0.01106279834167451,0.11026656673769057,137.40771331945888,1.2164618535586276,178.125,0.018929653841897494,-0.3628395857856398,-0.9316494539958375,-0.004423572439423219
255.0,-0.06400451745040714,0.05337190096295195,-0.05784336752390862,0.2108064516129034,-0.30758064516129047,-9.790000000000001,-0.07176123788051467,-0.030294016236393967,0.0102906715062022,137.39186069198752,1.2297027009728623,178.140625,0.018836676920948744,-0.36294425345733605,-0.9316022161914674,-0.004473039768098705
256.0,-0.06220775963845604,0.04931092086764038,-0.05714733736796419,0.20662855079441508,-0.3036290322580648,-9.79,-0.062185108397731864,0.017897972432200034,0.10604468883408635,137.59580095263794,1.201334258526874,178.16507056451613,0.018637070663170573,-0.3612693834691594,-0.932257324342725,-0.004344790322181271
257.0,-0.06609061238946735,0.046105339032502114,-0.05586416469508164,0.20315298507462679,-0.30165322580645193,-9.79,-0.041766656696264476,0.011584045182454508,0.05186415416383471,137.64769886341577,1.193409064747308,178.1772933467742,0.01855748484771432,-0.36075731205716044,-0.9324579303971692,-0.004335207419155149
258.0,-0.06692139426437013,0.04406649440104368,-0.05571344435470928,0.20141520221473264,-0.3006653225806455,-9.79,-0.018819196243677554,0.013488515166752087,0.02557045393803615,137.67364781880465,1.1895264729778527,178.18340473790323,0.01851791069830673,-0.360501276351161,-0.9325582334243913,-0.004330962880084485
259.0,-0.07015493924109939,0.042969424793307134,-0.05556015610035152,0.20054631078478558,-0.3001713709677423,-9.790000000000001,0.005120622134838297,0.005947561433532131,-0.006823253780201488,137.683646880266,1.1885132364889262,178.18646043346774,0.018499429116062838,-0.36039850456736,-0.9325985723131323,-0.004332834853153582
260.0,-0.07091489482866624,0.043265897360233174,-0.05624375520938491,0.20008666345690881,-0.3000000000000004,-9.790000000000003,0.013216630168615818,-0.001977624882869731,-0.0020097871723588085,137.69062951372172,1.1871088107847858,178.1875,0.018492386417910456,-0.3603312247761197,-0.9326251242513245,-0.004330091136254209
261.0,-0.07154224026657113,0.043912994774341386,-0.0576695780238026,0.19999999999999982,-0.3000000000000004,-9.790000000000003,0.01748342459755605,0.0027324181322961622,-0.015798554840984174,137.6875,1.1875,178.1875,0.018493650000000007,-0.36035156000000024,-0.9326171900000004,-0.004333499999999995
262.0,-0.07302398173578296,0.04248719457759734,-0.056339991925532934,0.19999999999999982,-0.3000000000000004,-9.790000000000003,0.018448398042794675,0.002325496266980547,-0.011508798752437977,137.6875,1.1875,178.1875,0.018493650000000007,-0.36035156000000024,-0.9326171900000004,-0.004333499999999995
263.0,-0.07180614739882749,0.04331855762724393,-0.05620921683355794,0.19999999999999982,-0.3000000000000004,-9.790000000000003,0.01442840094277932,0.005225303218982958,0.0021947126456389344,137.6875,1.1875,178.1875,0.018493650000000007,-0.36035156000000024,-0.9326171900000004,-0.004333499999999995
264.0,-0.07109777416024324,0.03769192090271568,-0.058095263818724686,0.20393241167434722,-0.3000000000000004,-9.790000000000001,0.023691255002879677,0.023093962413382928,-0.039361233026898916,137.70439708141322,1.1875,178.1875,0.018488649774705587,-0.3602875571326165,-0.932644190593958,-0.004367000542754734
265.0,-0.07216397883309059,0.0333764594355509,-0.056147750833102486,0.20712749615975443,-0.2949206349206349,-9.79,0.001328567312813573,0.022478519534821884,-0.013024190502184738,137.63143241167435,1.1875,178.21924603174602,0.0182711389093702,-0.36092659848438324,-0.9324056763901687,-0.004476258013312849
266.0,-0.07346705620148583,0.030287451839540697,-0.05634156105821549,0.208725038402458,-0.29229902713773653,-9.790000000000001,0.006593792706064758,0.001204993037058337,-0.0883545663791864,137.59495007680493,1.1875,178.23563108038914,0.018161883486943163,-0.3611939226136797,-0.9323137836633462,-0.004530886748591907
267.0,-0.0758092432881331,0.02869505564802474,-0.0559669201377804,0.2095238095238098,-0.29098822324628737,-9.790000000000003,-0.008629823593744373,0.007444647795375349,0.012520348631767743,137.5767089093702,1.1875,178.2438236047107,0.018107255775729643,-0.36152879291974294,-0.9321819668316726,-0.0045582011162314355
268.0,-0.07614330743925939,0.026456243130813697,-0.05480030045032347,0.2099231950844857,-0.2903328213005628,-9.790000000000003,-0.013325121448703441,0.0077524496205514945,0.0008093759671692477,137.56758832565285,1.1875,178.24791986687148,0.018079941920122883,-0.3616962280727746,-0.9321160584158359,-0.004571858300051199
269.0,-0.0743542958087234,0.026039181473240955,-0.0546500222169692,0.2100000000000003,-0.29000512032770054,-9.790000000000003,-0.016330379464751105,-0.001602525829765215,-0.011218455897623773,137.5625,1.1875,178.24996799795187,0.018066441249359952,-0.3617819457388961,-0.9320822604393564,-0.004577639999999996
270.0,-0.07379087698947474,0.026279092247943017,-0.05608523111740387,0.2100000000000003,-0.28999999999999954,-9.790000000000003,-0.016169831061678692,-0.009982237594036266,-0.01726365125125808,137.5625,1.1875,178.25,0.01806640999999999,-0.36180383448491127,-0.9320732369042656,-0.004577639999999996
271.0,-0.0729669496520966,0.026127835439003808,-0.05613104031466051,0.2100000000000003,-0.28999999999999954,-9.790000000000001,-0.009816123102317468,0.004022361291513983,-0.017327607962150188,137.5625,1.1875,178.25,0.018066409999999995,-0.36181640999999964,-0.9320678699999991,-0.004577639999999996
272.0,-0.07287691744899913,0.026242130305435284,-0.0568677412043953,0.2100000000000003,-0.28999999999999954,-9.790000000000001,0.002858992917376432,0.008671016711330762,0.004903752867153355,137.5625,1.1875,178.25,0.01806640999999999,-0.36181640999999964,-0.9320678699999991,-0.004577639999999996
273.0,-0.07391764706997303,0.024763451555770023,-0.05543855322446612,0.2100000000000003,-0.28999999999999954,-9.790000000000003,-0.008509152518072102,0.004743069923476688,-0.006525317461671329,137.5625,1.1875,178.25,0.01806640999999999,-0.36181640999999964,-0.9320678699999991,-0.004577639999999996
274.0,-0.07478588446688615,0.02466347180963105,-0.05534754082114243,0.2100000000000003,-0.28999999999999954,-9.790000000000001,-0.016257744461801026,0.010715268960714279,-0.01105195724594063,137.5625,1.1875,178.25,0.018066409999999995,-0.36181640999999964,-0.9320678699999991,-0.004577639999999996
275.0,-0.07425558531356793,0.026137667226355597,-0.0548017620859094,0.2100000000000003,-0.28999999999999954,-9.790000000000001,0.030112542961607293,-8.916572775940611e-05,-0.016094396937226297,137.5625,1.1875,178.25,0.01806640999999999,-0.36181640999999964,-0.9320678699999991,-0.004577639999999996
276.0,-0.07405815620005073,0.027231660034068746,-0.05352991330101921,0.2100000000000003,-0.28999999999999954,-9.790000000000001,0.009471914081930119,0.00685185850836812,0.005617676083358176,137.5625,1.1875,178.25,0.018066409999999995,-0.36181640999999964,-0.9320678699999991,-0.004577639999999996
277.0,-0.0733966767421502,0.027258807789504992,-0.05405747980773995,0.2100000000000003,-0.28999999999999954,-9.790000000000001,0.010748094329650001,-0.0071947314305534915,-0.001312445286820937,137.5625,1.1875,178.25,0.01806640999999999,-0.36181640999999964,-0.9320678699999991,-0.004577639999999996
278.0,-0.07299403729580628,0.026500371636687985,-0.05480293345225707,0.2100000000000003,-0.28999999999999954,-9.790000000000003,0.024510471896007798,-0.008452876467964917,0.005543374130783079,137.5625,1.1875,178.25,0.01806640999999999,-0.36181640999999964,-0.9320678699999991,-0.004577639999999996
279.0,-0.07290585203904665,0.02625606593660705,-0.05481437986224667,0.2100000000000003,-0.28999999999999954,-9.790000000000003,0.008997220983433262,0.004882789917909585,0.004588577539930297,137.5625,1.1875,178.25,0.01806640999999999,-0.36181640999999964,-0.9320678699999992,-0.004577639999999996
280.0,-0.07286774689063971,0.0266924004426606,-0.056187437028227864,0.2100000000000003,-0.28999999999999954,-9.790000000000001,0.0007515319690137587,-0.0014760170457360886,0.008780123218208546,137.5625,1.1875,178.25,0.018066409999999995,-0.36181640999999964,-0.9320678699999991,-0.004577639999999996
281.0,-0.07424921428287118,0.027951305439867576,-0.05652438004366493,0.2100000000000003,-0.28999999999999954,-9.790000000000001,-0.010024637346224318,-0.001490843589558214,-0.006073558882279308,137.5625,1.1875,178.25,0.01806640999999999,-0.36181640999999964,-0.9320678699999991,-0.004577639999999996
282.0,-0.07424479444632633,0.02843715115905971,-0.05635011926220707,0.2100000000000003,-0.28999999999999954,-9.790000000000003,-0.016133546560729226,0.005302965301995087,-0.01124762751606161,137.5625,1.1875,178.25,0.01806640999999999,-0.36181640999999964,-0.9320678699999991,-0.004577639999999996
283.0,-0.07368700148898372,0.028442354885011973,-0.05477857628895653,0.2100000000000003,-0.28999999999999954,-9.790000000000003,-0.017644763320907534,-0.006187260077717421,0.005825430469009562,137.5625,1.1875,178.25,0.01806640999999999,-0.36181640999999964,-0.9320678699999992,-0.004577639999999996
284.0,-0.0735735121738431,0.029624659129955887,-0.051549742589131205,0.2100000000000003,-0.28999999999999954,-9.790000000000003,0.010328978347052075,-0.015549170715408069,0.016084456163523393,137.5625,1.1875,178.25,0.01806640999999999,-0.36181640999999964,-0.9320678699999992,-0.004577639999999996
285.0,-0.07436228092051092,0.030022263000717843,-0.054259254295077636,0.2100000000000003,-0.28999999999999954,-9.790000000000001,-0.003460062797800126,-0.007134544395082427,-0.0018784068388732235,137.5625,1.1875,178.25,0.018066409999999995,-0.36181640999999964,-0.9320678699999991,-0.004577639999999996
286.0,-0.0750526370229207,0.02926285016773069,-0.05371344523320777,0.2100000000000003,-0.28999999999999954,-9.790000000000001,-0.004572442821427826,0.00385274366708068,0.007307094835454979,137.5625,1.1875,178.25,0.01806640999999999,-0.36181640999999964,-0.9320678699999991,-0.004577639999999996
287.0,-0.07495330429016309,0.02947759227082338,-0.053908404892011444,0.2100000000000003,-0.28999999999999954,-9.790000000000003,-0.008934027515465908,0.016801285118313143,0.012515843636943583,137.5625,1.1875,178.25,0.01806640999999999,-0.36181640999999964,-0.9320678699999991,-0.004577639999999996
288.0,-0.07488417147222012,0.02812673230758902,-0.05452292815592656,0.2100000000000003,-0.28999999999999954,-9.790000000000001,-0.007258274365624973,0.004585316411069981,0.0053823247966558385,137.5625,1.1875,178.25,0.018066409999999995,-0.36181640999999964,-0.9320678699999991,-0.004577639999999996
289.0,-0.07500816734238204,0.029216640225630197,-0.05572612122585681,0.2100000000000003,-0.28999999999999954,-9.79,-0.004736093273903956,0.009329174116323773,-0.0074506014286553676,137.5625,1.1875,178.25,0.018066409999999995,-0.36181640999999964,-0.9320678699999991,-0.004577639999999996
290.0,-0.07383735093577981,0.029769693021326416,-0.05499807209237276,0.2100000000000003,-0.28999999999999954,-9.790000000000001,-0.009380108312124994,0.024419657834304463,-0.006022738072899278,137.5625,1.1875,178.25,0.018066409999999995,-0.36181640999999964,-0.9320678699999991,-0.004577639999999996
291.0,-0.07424028376525772,0.02907617726244159,-0.05336186677237666,0.2100000000000003,-0.28999999999999954,-9.790000000000003,-0.0009488607270865331,0.004174099400426143,-0.03135498736435261,137.5625,1.1875,178.25,0.01806640999999999,-0.36181640999999964,-0.9320678699999991,-0.004577639999999996
292.0,-0.07488089457080091,0.028253142394661663,-0.05436641725715607,0.2100000000000003,-0.28999999999999954,-9.790000000000003,0.006195596518177164,-0.001609186858926713,0.005021431049006493,137.5625,1.1875,178.25,0.01806640999999999,-0.36181640999999964,-0.9320678699999991,-0.004577639999999996
293.0,-0.07660921989329897,0.02742959549411164,-0.05368296912937911,0.2100000000000003,-0.28999999999999954,-9.790000000000003,-0.011374353765092578,-0.010041829773879721,-0.0011153229935748142,137.5625,1.1875,178.25,0.01806640999999999,-0.36181640999999964,-0.9320678699999992,-0.004577639999999996
294.0,-0.07652913631633715,0.02677419354838711,-0.05447589316684008,0.2100000000000003,-0.28999999999999954,-9.790000000000001,-0.012223595213319458,-0.009261186264308012,0.009827003121748178,137.5625,1.1875,178.25,0.018066409999999995,-0.36181640999999964,-0.9320678699999991,-0.004577639999999996
295.0,-0.07683324661810612,0.027779743322927524,-0.05535050294831772,0.2100000000000003,-0.28999999999999954,-9.790000000000001,-0.015561589490114462,-0.00524843912591051,0.004457162677766215,137.5625,1.1875,178.25,0.01806640999999999,-0.36181640999999964,-0.9320678699999991,-0.004577639999999996
296.0,-0.0763871884648846,0.027308271211113212,-0.05594647680296593,0.2100000000000003,-0.28999999999999954,-9.790000000000003,-0.01847102307620136,0.005023157230344075,0.007865959582174762,137.5625,1.1875,178.25,0.01806640999999999,-0.36181640999999964,-0.9320678699999991,-0.004577639999999996
297.0,-0.0765457447700767,0.027629430024399423,-0.05419802078755568,0.2100000000000003,-0.28999999999999954,-9.790000000000001,-0.01916574707317492,0.006196614457465943,-0.003378688155661211,137.5625,1.1875,178.25,0.018066409999999995,-0.36181640999999964,-0.9320678699999991,-0.004577639999999996
298.0,-0.07675310131323813,0.02895536711070822,-0.0529958192734171,0.2100000000000003,-0.28999999999999954,-9.790000000000001,-0.0005254680561851029,-0.003598276191315589,-0.00372606797654722,137.5625,1.1875,178.25,0.01806640999999999,-0.36181640999999964,-0.9320678699999991,-0.004577639999999996
299.0,-0.07638638328590733,0.02912854121024403,-0.0532965047467956,0.2100000000000003,-0.28999999999999954,-9.790000000000001,-0.008762528014907707,0.014711918611971493,-0.007298381850536795,137.5625,1.1875,178.25,0.018066409999999995,-0.36181640999999964,-0.9320678699999991,-0.004577639999999996
300.0,-0.07528018265300127,0.029836921759713954,-0.053241016343078734,0.2100000000000003,-0.28999999999999954,-9.790000000000001,-0.007780589761023394,0.006298317846440533,0.014876335692041665,137.5625,1.1875,178.25,0.01806640999999999,-0.36181640999999964,-0.9320678699999991,-0.004577639999999996
301.0,-0.07701802187471146,0.02781816121477678,-0.05366792576364231,0.2100000000000003,-0.28999999999999954,-9.790000000000003,-0.010011394827629624,0.00022962781093399838,0.008364705832976589,137.5625,1.1875,178.25,0.01806640999999999,-0.36181640999999964,-0.9320678699999991,-0.004577639999999996
302.0,-0.07643271805461123,0.027385783116348972,-0.05375920609738694,0.2100000000000003,-0.28999999999999954,-9.790000000000001,-0.0077738745771532645,-0.006653619274256502,-0.003802158092216263,137.5625,1.1875,178.25,0.018066409999999995,-0.36181640999999964,-0.9320678699999991,-0.004577639999999996
303.0,-0.07560085434468335,0.027191764260220973,-0.053764705372661564,0.2100000000000003,-0.28999999999999954,-9.790000000000001,0.001567450501919379,0.0015742266098367156,0.017937197055175255,137.5625,1.1875,178.25,0.01806640999999999,-0.36181640999999964,-0.9320678699999991,-0.004577639999999996
304.0,-0.07653248537890561,0.028775176185575208,-0.05398788098852922,0.2100000000000003,-0.28999999999999954,-9.790000000000003,-0.025999408224421445,0.024208483240336157,0.008608317405079656,137.5625,1.1875,178.25,0.01806640999999999,-0.36181640999999964,-0.9320678699999991,-0.004577639999999996
305.0,-0.07944099235254282,0.029712642254265585,-0.05485469005500223,0.2100000000000003,-0.28999999999999954,-9.790000000000003,-0.016526064119716563,0.02046195472639281,-0.004078609418099533,137.5625,1.1875,178.25,0.01806640999999999,-0.36181640999999964,-0.9320678699999992,-0.004577639999999996
306.0,-0.07965739023585187,0.028485133043226578,-0.053629310477880096,0.2100000000000003,-0.28999999999999954,-9.790000000000003,-0.006474956967314655,0.013487907118176134,0.015378177222908636,137.5625,1.1875,178.25,0.01806640999999999,-0.36181640999999964,-0.9320678699999992,-0.004577639999999996
307.0,-0.07938759147745686,0.028275873833609133,-0.05454538475972774,0.2100000000000003,-0.28999999999999954,-9.790000000000003,-0.010016141826307978,0.0032502217635318395,0.021165623240818138,137.5625,1.1875,178.25,0.01806640999999999,-0.36181640999999964,-0.9320678699999992,-0.004577639999999996
308.0,-0.07792220364715716,0.02974927926852154,-0.05382576209890653,0.2100000000000003,-0.28999999999999954,-9.790000000000001,-0.017283695262789785,0.004502972484263318,0.0039165785298783725,137.5625,1.1875,178.25,0.018066409999999995,-0.36181640999999964,-0.9320678699999991,-0.004577639999999996
309.0,-0.07747972143088655,0.02902332355299297,-0.054552805308677774,0.2100000000000003,-0.28999999999999954,-9.790000000000001,-0.01572868511284352,-0.009072847187867827,-0.005957762576551064,137.5625,1.1875,178.25,0.01806640999999999,-0.36181640999999964,-0.9320678699999991,-0.004577639999999996
310.0,-0.07735226070861978,0.028401308831306205,-0.05404680063458487,0.2100000000000003,-0.28999999999999954,-9.790000000000003,-0.01356755684822845,0.00419338313061872,-0.005379098360655737,137.5625,1.1875,178.25,0.01806640999999999,-0.36181640999999964,-0.9320678699999991,-0.004577639999999996
311.0,-0.07776306165879121,0.028912617705259228,-0.0545643839238498,0.2100000000000003,-0.28999999999999954,-9.790000000000003,-0.016718891267634463,-0.006327124132136947,0.006130348979034817,137.5625,1.1875,178.25,0.01806640999999999,-0.36181640999999964,-0.9320678699999992,-0.004577639999999996
312.0,-0.07813589360041623,0.02864192492877981,-0.053464106292966676,0.2100000000000003,-0.28999999999999954,-9.790000000000003,-0.014490460969618396,0.014403201551065321,0.010055523511199059,137.5625,1.1875,178.25,0.01806640999999999,-0.36181640999999964,-0.9320678699999992,-0.004577639999999996
313.0,-0.08092826586062797,0.029139470848926527,-0.05233705186640141,0.2100000000000003,-0.28999999999999954,-9.790000000000001,0.024878825454770933,0.012739455198215711,-0.021920962962782446,137.5625,1.1875,178.25,0.018066409999999995,-0.36181640999999964,-0.9320678699999991,-0.00454763569892473
314.0,-0.07926302752440142,0.029512929842845766,-0.05449702595878881,0.2100000000000003,-0.28999999999999954,-9.790000000000001,0.01736991971293672,0.037397430981854655,0.004375852767427458,137.5625,1.1875,178.25,0.01806640999999999,-0.36181640999999964,-0.9320678699999991,-0.004531133333333334
315.0,-0.07649102372165778,0.030909117838750583,-0.05468496635503339,0.2100000000000003,-0.28999999999999954,-9.790000000000003,-0.013713903178962627,0.040460790230923804,0.000657651396934247,137.5625,1.1875,178.25,0.01806640999999999,-0.36181640999999964,-0.9320678699999991,-0.004522882150537635
316.0,-0.07012896659548029,0.02683593248857405,-0.054761838016226375,0.20645161290322583,-0.28999999999999954,-9.79314516129032,-0.0010036737538933844,-0.005215104364246735,0.11092325858088127,137.58770161290323,1.1769153225806452,178.25,0.018029001048387085,-0.36148859016129015,-0.9321958479032255,-0.004408500349462366
317.0,-0.0662403539632988,0.029181734469715757,-0.05455323902020051,0.20306451612903215,-0.28999999999999954,-9.79673387096774,-0.023345003757659844,-0.034898930305733114,0.055742302991262406,137.60940700204813,1.1499495967741935,178.25,0.01798470165322579,-0.3612279713351253,-0.9322953714964162,-0.004272554045698927
318.0,-0.0635737389128388,0.03117767330657551,-0.05450379688816212,0.20137096774193533,-0.28999999999999954,-9.798528225806452,-0.0059007776497695865,-0.002537026885849728,0.04328736393967923,137.6182115655402,1.1364667338709675,178.25,0.017962551955645147,-0.3611126629256271,-0.932339133006273,-0.004205518528225809
319.0,-0.062419023462662884,0.031257411054952694,-0.054975623730241306,0.2005241935483869,-0.28999999999999954,-9.799425403225808,0.009390271945146425,0.010259192072163586,0.03105770382207687,137.62261384728623,1.1297253024193548,178.25,0.017951477106854824,-0.361055008720878,-0.9323610137612015,-0.00417204765120968
320.0,-0.061244457967890575,0.031798060366186036,-0.05301200541350776,0.2001008064516127,-0.28999999999999954,-9.799873991935485,0.006476049951067837,-0.004699032996176271,-0.005388486798638986,137.62481498815924,1.1263545866935483,178.25,0.017945939682459666,-0.3610261816185034,-0.9323719541386657,-0.004155312212701615
321.0,-0.0615864426936227,0.032388781527179056,-0.05495475942718398,0.19999999999999982,-0.28999999999999954,-9.8,-0.0012363113819929637,0.01189464512825595,-0.00562183076491089,137.62512800819252,1.125,178.25,0.01794433999999999,-0.36102201243727583,-0.9323734250179219,-0.004150390000000003
322.0,-0.06025558693820919,0.03387488231504883,-0.056012965991113745,0.1999999999999998,-0.28999999999999954,-9.8,0.0006139231620501131,-0.004837367656046115,0.006389673455230166,137.625,1.125,178.25,0.01794433999999999,-0.36102294999999984,-0.9323730500000008,-0.004150390000000003
323.0,-0.06234943758981219,0.03380268569446511,-0.05609961514956312,0.1999999999999998,-0.28999999999999954,-9.8,-0.008229068595874005,-0.022140978312934607,0.011584534958624448,137.625,1.125,178.25,0.01794433999999999,-0.36102294999999984,-0.9323730500000009,-0.004150390000000003
324.0,-0.06235040384520092,0.03471924087012538,-0.056746304279602915,0.1999999999999998,-0.28999999999999954,-9.8,0.003022128900120576,0.0035930557620203803,0.02483818319211139,137.625,1.125,178.25,0.01794433999999999,-0.36102294999999984,-0.9323730500000008,-0.004150390000000003
325.0,-0.061759416623816746,0.033591155777914807,-0.056484953655754205,0.19999999999999982,-0.28999999999999954,-9.8,0.009938593975884367,-0.010609551353962486,0.007257305504040888,137.625,1.125,178.25,0.01794433999999999,-0.36102294999999984,-0.9323730500000007,-0.004150390000000003
326.0,-0.06000133707975608,0.034798574539759444,-0.05389376362498621,0.19999999999999982,-0.28999999999999954,-9.8,-0.006001529735132027,-0.02053178299233467,-0.015954515324834835,137.625,1.125,178.25,0.01794433999999999,-0.36102294999999984,-0.9323730500000007,-0.004150390000000003
327.0,-0.06052369742356265,0.03409163951484964,-0.05521868727361639,0.19999999999999982,-0.28999999999999954,-9.8,0.010203752352683622,-0.013070792321295554,-0.00879409682536975,137.625,1.125,178.25,0.01794433999999999,-0.36102294999999984,-0.9323730500000007,-0.004150390000000003
328.0,-0.05969212966911743,0.03398390508520839,-0.056756065801220265,0.19999999999999982,-0.28999999999999954,-9.8,0.005362021857923497,-0.0100961401772971,-0.014038697736306102,137.625,1.125,178.25,0.01794433999999999,-0.36102294999999984,-0.9323730500000008,-0.004150390000000003
329.0,-0.05930076252537487,0.03554152948602038,-0.055205813616280866,0.19999999999999982,-0.28999999999999954,-9.8,-0.0028424114225277623,-0.019267839170263215,-0.011854753416011327,137.625,1.125,178.25,0.01794433999999999,-0.36102294999999984,-0.9323730500000008,-0.004150390000000003
330.0,-0.06083617361241421,0.03479561931730951,-0.05413948357528304,0.19999999999999982,-0.28999999999999954,-9.8,0.005841265644279923,-0.010312572855006454,-0.021336992431608692,137.625,1.125,178.25,0.01794433999999999,-0.36102294999999984,-0.9323730500000007,-0.004150390000000003
331.0,-0.061609980496181674,0.034716773852373733,-0.05354438398071226,0.19999999999999982,-0.28999999999999954,-9.8,-0.009739612653031053,-0.018741435094363226,0.00034878001626265955,137.625,1.125,178.25,0.01794433999999999,-0.36102294999999984,-0.9323730500000008,-0.004150390000000003
332.0,-0.06120535871672835,0.03546623223759405,-0.05333136020652438,0.19999999999999982,-0.28999999999999954,-9.8,0.008764919283760655,0.003215429055571666,0.0007112070191000955,137.625,1.125,178.25,0.01794433999999999,-0.36102294999999984,-0.9323730500000009,-0.004150390000000003
333.0,-0.06111776780789592,0.03500158646218933,-0.05319793816777832,0.19999999999999982,-0.28999999999999954,-9.8,0.009585373273514042,0.01058274054235399,0.002209141490819558,137.625,1.125,178.25,0.01794433999999999,-0.36102294999999984,-0.9323730500000009,-0.004150390000000003
334.0,-0.06240617412417619,0.03388553590010407,-0.05378581338883107,0.19999999999999982,-0.28999999999999954,-9.8,-0.012211671869580299,-0.013529743322927508,0.009041146375303503,137.625,1.125,178.25,0.01794433999999999,-0.36102294999999984,-0.9323730500000009,-0.004150390000000003
335.0,-0.06151537064145751,0.032840526287941596,-0.055865888287271376,0.19999999999999984,-0.2899999999999996,-9.8,-0.006887797844759167,-0.008918256935748426,-0.0070206264660752395,137.625,1.125,178.25,0.01794433999999999,-0.3610229499999999,-0.9323730500000008,-0.004150390000000003
336.0,-0.06199043467676158,0.034136994349511486,-0.05508601215680503,0.19999999999999982,-0.28999999999999954,-9.8,0.005952531111226121,-0.009308339927931189,-0.005421957524332548,137.625,1.125,178.25,0.01794433999999999,-0.3610229499999999,-0.9323730500000007,-0.004150390000000003
337.0,-0.06401344405327762,0.03418162338257499,-0.05609568764357106,0.1999999999999998,-0.28999999999999954,-9.8,0.001001171407652107,-0.015285043888283847,0.012633745235653457,137.625,1.125,178.25,0.017944339999999986,-0.36102294999999984,-0.9323730500000008,-0.004150390000000003
338.0,-0.06385256225454349,0.03438708776982591,-0.055703376821904946,0.19999999999999982,-0.28999999999999954,-9.8,-0.0070654955639789995,0.0015998464050844628,0.018430972087300122,137.625,1.125,178.25,0.01794433999999999,-0.36102294999999984,-0.9323730500000008,-0.004150390000000003
339.0,-0.06457661121375952,0.033669721363973365,-0.054050618828379665,0.19999999999999982,-0.28999999999999954,-9.8,-0.0003520936648642378,-0.010232545963797477,0.007385137277849411,137.625,1.125,178.25,0.01794433999999999,-0.36102294999999984,-0.9323730500000007,-0.004150390000000003
340.0,-0.0660848799241184,0.03510463095867644,-0.051899557637262554,0.19999999999999982,-0.28999999999999954,-9.8,-0.011264196318400442,-0.00028854305691957717,0.014116050968245574,137.625,1.125,178.25,0.01794433999999999,-0.36102294999999984,-0.9323730500000007,-0.004150390000000003
341.0,-0.0658414880847456,0.03409946866107629,-0.05389178481193288,0.19999999999999982,-0.28999999999999954,-9.8,-0.008063571806300521,-0.01234460644825531,0.011408677696356173,137.625,1.125,178.25,0.01794433999999999,-0.36102294999999984,-0.9323730500000007,-0.004150390000000003
342.0,-0.06632237594036267,0.03322930917816712,-0.05316519108624328,0.19999999999999982,-0.28999999999999954,-9.8,-0.008146113736260611,-0.012616070463940681,-0.013506180947669491,137.625,1.125,178.25,0.01794433999999999,-0.36102294999999984,-0.9323730500000008,-0.004150390000000003
343.0,-0.06733358352808722,0.03407895918982391,-0.0529363766113395,0.19999999999999982,-0.28999999999999954,-9.8,-0.019706319692033,-0.018768373677237396,-0.026699547374945266,137.625,1.125,178.25,0.01794433999999999,-0.36102294999999984,-0.9323730500000008,-0.004150390000000003
344.0,-0.06444239550104341,0.03379833734213565,-0.053579064385345404,0.19999999999999982,-0.28999999999999954,-9.8,-0.026064820343107985,0.020549269886218247,-0.008999121475239248,137.625,1.125,178.25,0.01794433999999999,-0.36102294999999984,-0.9323730500000007,-0.004150390000000003
345.0,-0.06396366205512245,0.03331905233050728,-0.05407403774529036,0.19999999999999982,-0.28999999999999954,-9.8,-0.0031665984317337924,0.025461705276266185,-0.02120699066887293,137.625,1.125,178.25,0.01794433999999999,-0.36102294999999984,-0.9323730500000007,-0.004150390000000003
346.0,-0.06580571240113042,0.03343987649477152,-0.05435708477621784,0.19999999999999982,-0.28999999999999954,-9.8,-0.01608425308336603,0.014678151458806,-0.01646110893138409,137.625,1.125,178.25,0.01794433999999999,-0.36102294999999984,-0.9323730500000008,-0.004150390000000003
347.0,-0.06612345973854647,0.03359558861158972,-0.05480081085845231,0.19999999999999982,-0.28999999999999954,-9.8,-0.007912053700892171,0.014834523179975322,-0.021693093487544283,137.625,1.125,178.25,0.01794433999999999,-0.36102294999999984,-0.9323730500000009,-0.004150390000000003
348.0,-0.06659237588350021,0.032384444141178095,-0.05402038802931827,0.19999999999999982,-0.28999999999999954,-9.8,-0.007622588321591238,0.02080463556859601,-0.007633640959155707,137.625,1.125,178.25,0.01794433999999999,-0.36102294999999984,-0.9323730500000009,-0.004150390000000003
349.0,-0.06420003070571978,0.032658774159430935,-0.05490438580031047,0.19999999999999982,-0.28999999999999954,-9.8,-0.01282603503863803,0.010007079374285664,0.0002793367564524656,137.625,1.125,178.25,0.01794433999999999,-0.36102294999999984,-0.9323730500000008,-0.004150390000000003
350.0,-0.06617087733064943,0.032572115794681104,-0.05358510317690474,0.19999999999999982,-0.28999999999999954,-9.8,-0.0067104791798161065,-0.008378929905665206,0.015168092492451511,137.625,1.125,178.25,0.01794433999999999,-0.36102294999999984,-0.9323730500000007,-0.004150390000000003
351.0,-0.06704225448218215,0.03281051159140924,-0.05404801464776558,0.19999999999999982,-0.28999999999999954,-9.8,-0.012785520547244161,0.005127002268811518,-0.006805261766261236,137.625,1.125,178.25,0.01794433999999999,-0.36102294999999984,-0.9323730500000008,-0.004150390000000003
352.0,-0.06764763480663924,0.03252998072363149,-0.054563711525448776,0.19999999999999982,-0.28999999999999954,-9.8,-0.012738609030893366,0.009739363879838283,0.03035207093021272,137.625,1.125,178.25,0.01794433999999999,-0.36102294999999984,-0.9323730500000008,-0.004150390000000003
353.0,-0.06620397695933766,0.033394716341697814,-0.0558427298522145,0.19999999999999982,-0.28999999999999954,-9.8,-0.014303747803688097,0.009839548398469261,0.017245277574020685,137.625,1.125,178.25,0.01794433999999999,-0.36102294999999984,-0.9323730500000007,-0.004150390000000003
354.0,-0.0668804125938941,0.034188103808077894,-0.05418260236661492,0.19999999999999982,-0.28999999999999954,-9.8,-0.001566204943620887,-0.010961373341748973,0.013778640902293263,137.625,1.125,178.25,0.01794433999999999,-0.36102294999999984,-0.9323730500000007,-0.004150390000000003
355.0,-0.06821439984533414,0.03351609491479164,-0.05532248397900639,0.19999999999999982,-0.28999999999999954,-9.8,0.0024427039798024597,-0.003464557638616423,0.015037841956522975,137.625,1.125,178.25,0.01794433999999999,-0.36102294999999984,-0.9323730500000007,-0.004150390000000003
356.0,-0.06787184910981843,0.03272395557905872,-0.05402679358364182,0.19999999999999982,-0.28999999999999954,-9.8,-0.005873215230037017,-0.0025537634408602148,0.02330997708443504,137.625,1.125,178.25,0.01794433999999999,-0.36102294999999984,-0.9323730500000007,-0.004150390000000003
357.0,-0.06871526984072827,0.03257365961003737,-0.05459532135810262,0.19999999999999982,-0.28999999999999954,-9.8,-0.00950208756247761,-0.013474942142463166,0.016337077725274787,137.625,1.125,178.25,0.01794433999999999,-0.36102294999999984,-0.9323730500000008,-0.004150390000000003
358.0,-0.07021516180208455,0.0294131738910402,-0.054679381109158834,0.19999999999999982,-0.28999999999999954,-9.8,-0.033531285716722675,-0.06281946031854341,-0.10533952565349164,137.6040322580645,1.125537634408602,178.25,0.017933838494623655,-0.3612287626451613,-0.932291669784947,-0.004150390000000003
359.0,-0.0702344978761877,0.02996570910310869,-0.05449727913205164,0.19999999999999982,-0.28999999999999954,-9.8,-0.03808372852731956,-0.05999910086260328,-0.049133274196391505,137.55,1.125268817204301,178.25,0.017907584731182806,-0.3617558950322581,-0.9320803444086032,-0.004150390000000003
360.0,-0.06879336756452464,0.029853909008717032,-0.05622557331559225,0.19999999999999982,-0.28999999999999954,-9.8,-0.015500631173129081,-0.03421228456241506,0.002739987945161858,137.52298387096775,1.1251344086021504,178.25,0.017894457849462385,-0.3620194612258064,-0.9319746817204314,-0.004150390000000003
361.0,-0.0663562204670681,0.029811978642466028,-0.055731728675161914,0.19999999999999982,-0.28999999999999954,-9.8,-0.009079830606779138,-0.03842156252310037,-0.015238282071840012,137.5094758064516,1.1250672043010752,178.25,0.01788789440860217,-0.3621512443225806,-0.9319218503763455,-0.004150390000000003
362.0,-0.06613778352359234,0.029375416009702372,-0.05605962744809744,0.1999999999999998,-0.28999999999999954,-9.8,-0.011497005718466458,0.002156521729712226,0.0024426642099383096,137.50272177419356,1.1250336021505376,178.25,0.017884612688172066,-0.3622171358709677,-0.9318954347043026,-0.004150390000000003
363.0,-0.0661832492446095,0.029321103033936334,-0.05684397730592779,0.1999999999999998,-0.28999999999999954,-9.8,-0.013831197200851419,-0.005106738253776003,0.010054566284415655,137.5,1.125,178.25,0.017883300000000022,-0.36224365,-0.9318847700000015,-0.004150390000000003
364.0,-0.06695174705774828,0.028600221138458018,-0.05571518837690155,0.19999999999999982,-0.2899999999999996,-9.8,-0.005707825832004374,0.009290478626520202,0.019127021868915066,137.5,1.125,178.25,0.01788330000000002,-0.36224365,-0.9318847700000015,-0.004150390000000003
365.0,-0.06860074345603336,0.029219465407938697,-0.05680920709167658,0.19999999999999982,-0.28999999999999954,-9.8,0.00951926606422674,-0.0108334287408502,0.0024582820062577417,137.5,1.125,178.25,0.017883300000000022,-0.36224365,-0.9318847700000015,-0.004150390000000003
366.0,-0.06798143312239753,0.02836363488919308,-0.05498628928985494,0.19999999999999982,-0.28999999999999954,-9.8,-0.00091479464738715,-0.005270382424535402,0.018382496882421273,137.5,1.125,178.25,0.017883300000000022,-0.36224365,-0.9318847700000015,-0.004150390000000003
367.0,-0.06776439807681577,0.028250941868559684,-0.05574557680058542,0.19999999999999982,-0.28999999999999954,-9.8,0.008368767550858396,0.012837799059109667,0.0029572494652761764,137.5,1.125,178.25,0.017883300000000022,-0.36224365,-0.9318847700000015,-0.004150390000000003
368.0,-0.06944803721926457,0.02778491038430629,-0.05554333308564437,0.19999999999999982,-0.28999999999999954,-9.8,0.0007635746797126459,-0.008669016916769861,0.013476245039354112,137.5,1.125,178.25,0.017883300000000022,-0.36224365,-0.9318847700000015,-0.004150390000000003
369.0,-0.07242344893468211,0.03009071265701144,-0.05477902116988791,0.19999999999999982,-0.28999999999999954,-9.8,-0.015244039394301245,-0.021845840227904676,0.03907224657830243,137.5,1.125,178.25,0.017883300000000022,-0.36224365,-0.9318847700000015,-0.004150390000000003
370.0,-0.06940267139762202,0.02918774273155811,-0.053982469308495803,0.19999999999999982,-0.28999999999999954,-9.8,-0.01607675434855541,-0.010972781369588827,0.018655963733133177,137.5,1.125,178.25,0.017883300000000022,-0.36224365,-0.9318847700000015,-0.004150390000000003
371.0,-0.06786127987072185,0.029223267001938488,-0.05488851427369193,0.1999999999999998,-0.28999999999999954,-9.8,-0.017588149650038732,0.0006742616614718753,0.010855821583792362,137.5,1.125,178.25,0.017883300000000022,-0.36224365,-0.9318847700000015,-0.004150390000000003
372.0,-0.06888771589789994,0.030140683102079208,-0.054920063588458856,0.1999999999999998,-0.28999999999999954,-9.8,-0.010103474755647185,-0.01733651641171984,0.006133013983016542,137.5,1.125,178.25,0.017883300000000022,-0.36224365,-0.9318847700000015,-0.004150390000000003
373.0,-0.06985810085393851,0.029768561187916046,-0.05701793766413954,0.1999999999999998,-0.28999999999999954,-9.8,-0.03235541268189551,-0.01302772409692285,-0.0016146581768329946,137.5,1.125,178.25,0.017883300000000022,-0.36224365,-0.9318847700000015,-0.004150390000000003
374.0,-0.06874585669093608,0.030863195999700003,-0.05767449824985518,0.19999999999999982,-0.28999999999999954,-9.8,-0.008815263700938204,-0.027130140771103477,0.04311810932102721,137.5,1.125,178.25,0.017883300000000022,-0.3622415844685351,-0.9318868355314662,-0.004150390000000003
375.0,-0.06684873479708094,0.03120769928323537,-0.056697117317782264,0.19999999999999982,-0.28999999999999954,-9.8,-0.004675907084600215,-0.0010612765943620057,-0.0668568749267219,137.5,1.125,178.25,0.017883300000000022,-0.3622111178794288,-0.9319173021205722,-0.004150390000000003
376.0,-0.06789097194975635,0.028755201492070552,-0.05545628699612766,0.19999999999999982,-0.28999999999999954,-9.8,-0.004678037733917879,0.028362489551525906,-0.04089593177643961,137.5,1.125,178.25,0.017883300000000022,-0.3621958845848756,-0.9319325354151251,-0.004150390000000003
377.0,-0.06703341521525277,0.02894575891460969,-0.05514489687995769,0.19999999999999982,-0.28999999999999954,-9.8,0.006538452517016086,0.012116338428208322,-0.030870052256586095,137.5,1.125,178.25,0.017883300000000022,-0.36218826793759906,-0.9319401520624016,-0.004150390000000003
378.0,-0.06664181777861175,0.02838368502754987,-0.056234796404019044,0.19999999999999982,-0.28999999999999954,-9.8,-0.002748588389826171,0.021016359325156515,-0.013185334607052079,137.5,1.125,178.25,0.017883300000000022,-0.36218445961396073,-0.9319439603860398,-0.004150390000000003
379.0,-0.06629076610770883,0.02838591972160149,-0.05780239732064163,0.19999999999999982,-0.28999999999999954,-9.8,0.019378614319100665,0.0025670550371596074,0.0016800719878541804,137.5,1.125,178.25,0.017883300000000022,-0.3621826199999999,-0.9319458000000007,-0.004150390000000003
380.0,-0.06543385476194537,0.028577267532113083,-0.05702537770878468,0.19999999999999982,-0.28999999999999954,-9.8,0.015522594292147866,0.004066233374842918,0.03586214837686153,137.5,1.125,178.25,0.017883300000000022,-0.3621826199999999,-0.9319458000000007,-0.004150390000000003
381.0,-0.06656998345302878,0.0288473243376947,-0.0557748474664938,0.19999999999999982,-0.28999999999999954,-9.8,-0.003602484604493271,0.007367702416085248,0.030129134610463827,137.5,1.125,178.25,0.017883300000000022,-0.3621826199999999,-0.9319458000000007,-0.004150390000000003
382.0,-0.06481794351284806,0.02909258343142107,-0.05599217572769711,0.19999999999999982,-0.28999999999999954,-9.8,-0.018206679346991692,-0.008062810255710411,0.03151878166527354,137.5,1.125,178.25,0.017883300000000022,-0.3621826199999999,-0.9319458000000007,-0.004150390000000003
383.0,-0.06442113463320881,0.029580665063145765,-0.056684612454012476,0.19999999999999982,-0.28999999999999954,-9.8,-0.017349637928387437,-0.011368792753450128,0.050066635676634656,137.5,1.125,178.25,0.017883300000000022,-0.3621826199999999,-0.9319458000000007,-0.004150390000000003
384.0,-0.06322545565407336,0.036246287866560485,-0.05898829464718819,0.20627295285359806,-0.28999999999999954,-9.796903225806453,-0.04555834874086866,0.004013701224598345,-0.3281226995314097,137.55210918114145,1.1721464019851116,178.240570719603,0.018014639513647658,-0.3617280204565756,-0.9321052491712164,-0.00446153354342432
385.0,-0.07775989108155054,0.03926146832702503,-0.05631072207618153,0.2027678128323289,-0.29044239631336366,-9.796976958525345,0.20745379004748515,-0.014682165025685263,-1.077511810595198,136.05739099610068,1.1679280397022334,178.24067706487062,0.017982722604750093,-0.37380727716837986,-0.9272124666685575,-0.004121450361573911
386.0,-0.052755075613616066,0.030296112489660878,-0.05735901794310042,0.18980786954980505,-0.3076221198156681,-9.795686635944696,0.016987821142369006,-0.0024670673500657627,1.1857549279118553,137.08284296348813,1.0999202410492732,178.14349521446297,0.018458644850762145,-0.3654671352754342,-0.9305061928734493,-0.003423525415809998
387.0,-0.04439097866702309,0.0255620347394541,-0.058418756283378157,0.17538780574264448,-0.3039723502304149,-9.797843317972347,0.02563100734537805,-0.017496974535247935,0.7224137542785082,137.69968761077632,1.0156859269762495,178.16448954271536,0.017981960812477847,-0.36042364360545903,-0.932531361114144,-0.002952155127259837
388.0,-0.034925085667021155,0.02623263027295286,-0.05710114616566228,0.1670487415809997,-0.3021474654377883,-9.798921658986174,0.0329723871558549,-0.010684191480562447,0.36282088207491425,138.1159728376462,0.9735687699397377,178.17498670684154,0.0177436187933357,-0.3569558543833746,-0.9339081857183624,-0.0027007177249202393
389.0,-0.030759373976983723,0.025884650978318362,-0.05430015612802497,0.16268317972350238,-0.301235023041475,-9.799557603686637,0.0012248849500138513,-0.014626713158822491,0.21041702078769103,138.3224870391705,0.9510368663594471,178.18052995391704,0.017620343423963136,-0.35523616600806446,-0.9345916152338711,-0.002565275788018431
390.0,-0.029139163724035202,0.02675212183225418,-0.05467081539120143,0.16070794930875582,-0.3007649769585258,-9.799824884792628,-0.018034428344080335,-0.0005514270417272859,0.14204699708925209,138.4732682891705,0.940639400921659,178.18315092165898,0.017561755322580648,-0.3539917419302995,-0.9350887208381338,-0.002513044036866357
391.0,-0.02857037509311227,0.02673516796455197,-0.05533238586285916,0.1600705645161291,-0.3000000000000004,-9.8,-0.0226888826014426,0.0016811592599779374,0.004957971990270834,138.49325856854838,0.9375,178.1875,0.01751709,-0.3538188977116935,-0.9351578949697583,-0.00250342451612903
392.0,-0.028258587650614418,0.026596560959383175,-0.05567835474204352,0.1600000000000001,-0.3000000000000004,-9.8,-0.006141019572053247,-0.012167212546129657,-0.005226813627653343,138.5,0.9375,178.1875,0.01751709,-0.3537597699999999,-0.9351806600000002,-0.0025024399999999973
393.0,-0.029267668582931047,0.02504682622268472,-0.05731410245475171,0.1600000000000001,-0.3000000000000004,-9.8,-0.011624460517561965,-0.015535175107896489,0.009994285324371813,138.5,0.9375,178.1875,0.01751709,-0.3537597699999999,-0.9351806600000002,-0.0025024399999999973
394.0,-0.03001493776405499,0.02612450600751723,-0.05792904135605556,0.1600000000000001,-0.3000000000000004,-9.8,0.0016893121350141874,-0.009637189175665148,-0.010618492804057703,138.5,0.9375,178.1875,0.017517090000000003,-0.3537597699999999,-0.9351806600000002,-0.0025024399999999973
395.0,-0.028238435600438996,0.025808964932930764,-0.057775996087863844,0.1600000000000001,-0.3000000000000004,-9.8,-0.007258775296679802,-0.016647759904016193,0.008708767620249854,138.5,0.9375,178.1875,0.017517090000000003,-0.3537597699999999,-0.9351806600000002,-0.0025024399999999973
396.0,-0.029067700425899727,0.02546261009990733,-0.05662055122453272,0.1600000000000001,-0.3000000000000004,-9.8,-0.0057185493821895455,-0.002146486185269216,-0.0009887312851480983,138.5,0.9375,178.1875,0.01751709,-0.3537597699999999,-0.9351806600000002,-0.0025024399999999973
397.0,-0.03480440172179482,0.02416210629865294,-0.057324323479071765,0.17911290322580659,-0.3058870967741936,-9.796693548387099,0.06299010095926943,0.1359422355754195,0.1699823513189244,138.59677419354838,1.042842741935484,178.16078629032256,0.01811513596774193,-0.35308050580645167,-0.9354169276612903,-0.0032575051612903205
398.0,-0.04837497918428388,0.029887706217745804,-0.0572879413304133,0.19536290322580668,-0.313675755248336,-9.793185483870968,0.0035811328413648813,0.04932336695460725,0.26483009518637746,138.81720430107526,1.151461693548387,178.10911498335892,0.01883667613799283,-0.3512559975652839,-0.9360773446550176,-0.003978542821300566
399.0,-0.05220285057524485,0.030153402520035226,-0.056704646548463175,0.20758416538658492,-0.3164231310803892,-9.791431451612905,-0.02812574822345478,-0.01520966828920943,-0.3525215883515117,138.86904761904762,1.2236923163082438,178.08891169034817,0.019194947093573986,-0.35084877570276474,-0.9362175411498334,-0.004503072301587304
