time,linaccel_x,linaccel_y,linaccel_z,gravity_x,gravity_y,gravity_z,gyro_x,gyro_y,gyro_z,euler_x,euler_y,euler_z,quaternion_w,quaternion_y,quaternion_x,quaternion_z
0.0,-0.5845238095238094,0.5623809523809523,0.26571428571428557,-6.1030952380952375,-1.8128571428571412,6.734523809523807,-23.132440476190474,-65.46130952380952,74.98363095238095,85.62202380952381,-38.85565476190476,17.72470238095238,0.6601329985714284,0.323309035,0.18959118095238092,-0.5858706521428572
1.0,-0.35896825396825394,0.19047619047619047,-0.018095238095238136,-5.418333333333332,-0.30793650793650734,7.8191269841269815,-5.858630952380952,-19.34126984126984,26.005456349206348,67.69742063492063,-33.75248015873016,3.8616071428571423,0.7791602723809523,0.25646488246031746,0.16517227380952382,-0.5101560562698413
2.0,-0.25998639455782313,0.08820408163265306,-0.07332653061224491,-5.341285714285713,0.7618843537414968,7.971340136054421,2.021301020408164,-8.298044217687073,13.766624149659863,61.89800170068027,-33.09034863945578,-4.615561224489795,0.8122862524489797,0.22823714662585032,0.19065680420408163,-0.4814809788299319
3.0,-0.19892698412698417,0.020095238095238086,-0.06301904761904764,-5.3473999999999995,1.3555460317460315,7.98075873015873,-0.2458928571428567,-3.1207539682539682,5.992757936507937,56.893234126984126,-33.09049603174603,-9.188928571428571,0.8346439032761905,0.21992131295873013,0.20472350116190474,-0.4495755638539682
4.0,-0.15856813157993332,-0.0021096998988423144,-0.0656150387771159,-5.336153422501966,1.3470187329062233,8.04721213143007,-1.6720882038889513,-3.1803805589899214,2.501609859128545,54.41411407403244,-32.98714009403919,-9.290472912217602,0.8470825631745533,0.22195525006264283,0.19669987318219623,-0.43429271597969343
5.0,-0.1279822224719943,-0.020448091116855874,-0.0597046008017684,-5.296398523846989,1.3089548349630964,8.131144468172792,-0.5120953692255816,-0.547419542167772,0.20268184968716046,52.564919940242035,-32.69482292720392,-9.153853007568094,0.8573604211187666,0.2223039218247162,0.187988196683264,-0.42370915638078377
6.0,-0.11523410055475541,-0.026261001225916243,-0.0511576267324671,-5.339382325546543,1.2426565158275633,8.117477174607243,-0.17107610689693326,0.2597087397938334,-0.04614739813002032,52.21058820753751,-32.998709890887355,-8.699204283050292,0.8584268719174906,0.226607941217613,0.18519124127102507,-0.42090039680692104
7.0,-0.11451605627887806,-0.02495889521160778,-0.06537841951777143,-5.262462918212131,1.0867810898717714,8.185431573050057,-1.7843541637260358,-1.3567653319035333,-0.7234722361992938,52.32563063321361,-32.4702734563214,-7.5754619267839605,0.8596377390523311,0.22609893774149595,0.1758391117210339,-0.4225937111558048
8.0,-0.15457331231762642,-0.04145832625403737,-0.05234051544244947,-5.063237795511595,0.9803682715103865,8.324536831071878,0.3534630391047241,-1.1158610645692781,0.16514320217685075,52.5416207601552,-31.102338629082357,-6.731660974912717,0.8621638913673714,0.21790564142950375,0.16586825450798237,-0.42582607950973805
9.0,-0.1523900618011646,-0.04309363055049477,-0.06132461686850286,-5.173586789554531,1.0210908084163899,8.252913764155323,0.6131309613117566,1.041886587718358,0.6195901653984925,52.27473609473797,-31.85862313792734,-7.066215214517914,0.861428417616547,0.22304417516325514,0.17025465726860284,-0.42299253870414033
10.0,-0.12857214303575895,-0.044941592540992406,-0.057605472796770626,-5.320015360983103,1.0759332690315437,8.15298145965063,0.09612001214589369,0.8239626871003465,-0.02089808166327295,52.164297770871286,-32.87578814346443,-7.527875272389526,0.8594497099757084,0.2295372189372343,0.1765738609230879,-0.42099597414853723
11.0,-0.12761690422605654,-0.04585789304468975,-0.053742721394634374,-5.568938663237238,1.0351309255885397,7.987184653306183,-0.07152457757296465,1.3649305183438716,-0.12438377451505732,52.28055004822634,-34.63924909798878,-7.38975815382417,0.8550494863494444,0.24338522853463368,0.18156414816597002,-0.4199167968192049
12.0,-0.11060032865359198,-0.041489836744900525,-0.04609205872896796,-5.757863573036115,1.0064405387061048,7.8578542849998225,0.08936497517236452,0.7005121816168327,-0.09330792519558459,52.35716741685421,-35.986132693887754,-7.301289608116315,0.8516643254492193,0.2538843462228057,0.18547021721769724,-0.41897138800039285
13.0,-0.10593867543540939,-0.03631037114679368,-0.045945227596097635,-5.812790671535479,0.9880059649058603,7.824379073862547,-0.054488932555438505,-0.49437552659070694,0.03642354948493222,52.4064554629511,-36.36544608168593,-7.203454037507635,0.8506939407119463,0.25706070892544125,0.18613881495789888,-0.41891805790422776
14.0,-0.11974737151186751,-0.03600080769321252,-0.042853566179001205,-5.81629548937757,0.9644791729291209,7.826598139081812,0.07814627872996123,-0.4368719030802997,0.05558216644753523,52.471108875868794,-36.38464796403805,-7.03051446115013,0.8505199079442987,0.25764966528837346,0.18519461630767448,-0.4194064893553396
15.0,-0.10513529079133895,-0.04105152594768903,-0.038564301354084174,-5.821802628357438,0.9548053389654034,7.824517270432592,0.08661023051930229,-0.48280994464644034,0.13238158189373128,52.49130134232165,-36.414999111276074,-6.962221446040953,0.8504085149783873,0.2580975547440518,0.18489427341759657,-0.4195225579267986
16.0,-0.1120924656251171,-0.02985013675021544,-0.04126465849911956,-5.8046691768761,0.9577758420441345,7.836566632947437,0.07287920085422052,-0.5400568075381214,0.24847092652954178,52.36923377730321,-36.28993270203439,-6.973485912854521,0.8511451656741971,0.25732313329923945,0.1842987030770672,-0.4187611270626803
17.0,-0.12211382113821141,0.000412873253156483,-0.059560900678131204,-5.6246195346746095,0.7858349256303621,7.969711887902289,-2.8883635869768836,-3.3912601626016263,-0.49937244764152705,52.16524764902027,-35.011733824135476,-5.679475291296692,0.855112065640478,0.2520415806204339,0.17062621759844143,-0.4188275775943201
18.0,-0.1395571758793357,-0.00035849119074194053,-0.07381600190988515,-5.374311395793198,0.728999562608422,8.142735566295755,1.6770158077411335,-0.2524762288133011,0.4433898653234737,52.36094626335155,-33.26327672946111,-5.169740687567362,0.8584921953737127,0.2400004461895831,0.16181993051614385,-0.4223479450913251
19.0,-0.1427010149749981,-0.013239921478627499,-0.0685708273758335,-5.380408386068641,0.8695650654823983,8.133061331534972,0.2910568670042074,0.3858586597868978,0.4104910156110456,52.060729468081306,-33.2929286873112,-6.129105174812866,0.8593680637160421,0.23749983635516025,0.16802206379493825,-0.4199816410402861
20.0,-0.12872186862046522,-0.016070000078416823,-0.05875512257855406,-5.407625908219215,0.8947990551644879,8.11740556741973,0.1168305578136694,-0.2499109533480932,0.21439184926893745,51.62154294017755,-33.473652581263785,-6.3019984961397135,0.8605711675000353,0.23894869875114425,0.16897879793838178,-0.41654026267199207
21.0,-0.12617918765405636,-0.018558996892080164,-0.05795584610438324,-5.395231522166256,0.88052934662237,8.130314900153609,-0.19481544493266179,-0.39237778194548645,0.16774372164469686,50.395424302504196,-33.38248423713071,-6.182549208730753,0.8652631270324724,0.24034284075008036,0.16531730085432073,-0.40741391522191267
22.0,-0.1326060975174107,-0.02270649631048878,-0.056191403251509744,-5.430015259041242,0.8673792437656455,8.109627027837098,0.13868602167963595,0.09649930448640032,0.17107236848410706,49.78267524742684,-33.62772058977288,-6.111179488034029,0.8669645023607907,0.24335372308971925,0.1642822182536749,-0.40252616520143625
23.0,-0.1262490352553295,-0.020996909070473198,-0.0535353115282305,-5.472648289685662,0.8696671162564162,8.082748997789517,0.04041390356299876,-0.033108187216664794,0.042813003446854736,49.49530892903975,-33.92641655895246,-6.140501596980255,0.8673172589890978,0.2459174619852198,0.1648065199197856,-0.400090814156607
24.0,-0.14139256678281067,-0.022483861601288832,-0.06581911505751004,-5.4908940373159485,0.8663773369300515,8.070495082612117,0.06715395638979431,-0.07158961588175788,0.06691341416582368,49.377094748698056,-34.04790970036717,-6.137287088812709,0.8674449549016149,0.2471228732199524,0.16493924477172076,-0.39905794214358764
25.0,-0.15785836049604735,-0.024770746693642064,-0.07832714210782663,-5.501593065078115,0.8643448447042075,8.062697088906376,0.06590511548836686,-0.12320199224457683,0.0794988245101345,48.53899547131992,-34.12729805927091,-6.130779043029485,0.8701414310823967,0.24896261680952378,0.16329467828456218,-0.3925978756538159
26.0,-0.1503282754486531,-0.018718575549810802,-0.07337019969278034,-5.545157075418681,0.8524559589374696,8.033467348544455,-0.07638986456108801,0.018615123075193897,0.17458295867520887,47.83681062905099,-34.43948252688172,-6.0607554981079765,0.8718275599026266,0.2525798344838335,0.1622179733900191,-0.38694468175334384
27.0,-0.16092574275973176,-0.01850248211007456,-0.08327990708478514,-5.567923148252222,0.8279203476827397,8.020071990558613,0.00324881280206811,-0.3621125800831741,0.17308022835412684,47.390056573376796,-34.598419469577756,-5.909557528755011,0.8730090322581581,0.2549267241577311,0.16065873727250754,-0.3834041187075139
28.0,-0.14938458656475967,-0.01650192948934098,-0.07693027612303771,-5.5264738675958185,0.8349255554306698,8.048036191974823,0.16942719455996405,-1.1972062211981567,0.06201833014873928,46.61799740549249,-34.303947023341195,-5.9330930838110225,0.8762357146812032,0.25360182632984907,0.1582867020561987,-0.37778911414948857
29.0,-0.13146498819826913,-0.01629740361919748,-0.06289378442171518,-5.477645161290324,0.8400385523210072,8.081209284028326,-0.0035552714398111723,-0.14183221872541313,0.25442073170731705,44.989230920535014,-33.96236723052715,-5.937155782848151,0.8822516581101494,0.25307742049960663,0.15375749428874902,-0.365604547830055
30.0,-0.12033985238469896,-0.017669888726537037,-0.052860289985388345,-5.527244145966806,0.8382780525270688,8.047933329586753,-0.04346771851935109,0.1127471572814806,0.25479199449252554,43.58214964782136,-34.31525924000599,-5.947188424937244,0.8858346651522608,0.2577171343987674,0.15160903003954512,-0.35443893817414096
31.0,-0.13800548874152335,-0.016626447117005734,-0.06326806788805217,-5.549707832228093,0.8511154228016935,8.03067162152036,0.03676830439099321,-0.1361864134914391,0.27069851494885916,42.84266805758495,-34.467970886722114,-6.047079657000487,0.88774555175473,0.2596911994070942,0.15103531126996922,-0.34858719095882496
32.0,-0.14354306695140684,-0.016659997752051257,-0.06666629200854221,-5.558035367726951,0.8582552920460078,8.02421887527631,-0.012084597804503393,-0.23087042448765505,0.24066679779701022,42.45898523846989,-34.52786145142558,-6.10312652204863,0.888794109627365,0.2605104497398374,0.1507461198648233,-0.34554374673747695
33.0,-0.13781480648907873,-0.021255254580195573,-0.06549443632685176,-5.5673143007006125,0.8528263084934997,8.017470570604324,-0.041998239106815036,-0.39574107377018475,0.07837824547600314,42.0108753887078,-34.596773959387065,-6.073145676445243,0.8899988065139186,0.2616431946755835,0.1497470111448428,-0.34201803496118544
34.0,-0.13505453149001534,-0.025331797235023046,-0.060718894009216595,-5.572443932411676,0.837931643625192,8.015950076804915,-0.04085061443932411,-0.2209773425499232,0.048286290322580645,40.094191628264205,-34.62923867127496,-5.976118471582181,0.8954441146904762,0.2646261508924731,0.14467368524039936,-0.32700071652150525
35.0,-0.12666227380015738,-0.03174114870180961,-0.05519984264358774,-5.595063335955942,0.8191182140047208,8.001801140833988,-0.1025521243115657,-0.19166011014948858,0.09249483674272227,38.9832095790716,-34.79503466758458,-5.84467815696302,0.8982166053691976,0.2676560223666404,0.14161311873977178,-0.3182730914793469
36.0,-0.13283339889850512,-0.03374803304484659,-0.061788158929976404,-5.595457513768686,0.8123154996066089,8.002449252557039,0.07918961447678992,-0.33221134933123525,0.08648210070810386,38.43623008457907,-34.801309254524,-5.786292781274587,0.89978844379406,0.26847530944708886,0.13997843992053502,-0.3139978795830055
37.0,-0.13810275935708666,-0.03380815630736954,-0.0617037952868008,-5.598875454272978,0.8041504533363306,8.001679695402945,-0.055504079090330075,-0.21903386206961145,0.1036121141021318,38.196745274624405,-34.82505098862913,-5.7340954113746205,0.9004454059256397,0.2691160269226612,0.13906990195143493,-0.3120851490998745
38.0,-0.1330080083174104,-0.034746131654864953,-0.060653431868420066,-5.610183694878425,0.7907387789891727,7.994717601438689,-0.025220814132104453,-0.2712823962196995,0.16486479524933498,38.05757798743022,-34.908018093645794,-5.64294635832303,0.9006621972823516,0.27017940602948554,0.138311225395564,-0.31094469843359185
39.0,-0.1263144880296729,-0.029493836873852618,-0.05548574425836425,-5.5914281967704484,0.7854190551122102,8.008406204338542,0.07700161102993518,-0.9787943501554831,0.17948934097635907,36.89104005095351,-34.77272769847514,-5.597582050129257,0.9040171707740439,0.2705278739458993,0.13493325326701883,-0.30182974452324757
40.0,-0.11470945262448015,-0.024586564759656822,-0.05410250646285267,-5.5319175002809935,0.7861728672586266,8.049733618073507,-0.014960567232400433,-0.6414147090779663,0.1796485706792552,35.34624498894759,-34.34567597692106,-5.580556179985763,0.9090362814701585,0.2689315040403132,0.1302313744337042,-0.2899429835592523
41.0,-0.11628470270877825,-0.02381177175827058,-0.04998988423063956,-5.519963470832866,0.7826458356749468,8.058674834213779,0.048971329287025585,-0.2053454347907534,0.10966594544977708,34.60268091304185,-34.261400144243375,-5.55370255891499,0.9111880060851973,0.269179201697576,0.12805035220111646,-0.2840934956269905
42.0,-0.11688097111385862,-0.024460304971713316,-0.05181709190363795,-5.529120677381889,0.7764991944850324,8.051596043610205,0.03456689520812259,-0.2314544228391593,0.13545296167247386,33.508373609081715,-34.32957036079577,-5.523683076692518,0.9137038288958825,0.2709924738331273,0.1253714887370275,-0.2753516598493875
43.0,-0.12347195683938407,-0.023492937694353913,-0.0555348244726687,-5.533773556629578,0.7777539245438536,8.048390468697312,0.15177400621932488,-0.2685104529616725,0.09098572552545801,32.639513319096324,-34.362193716983256,-5.528855700423364,0.9157105451009705,0.2722033419362332,0.12343930325128322,-0.2684015613487693
44.0,-0.11644880296729232,-0.02356393540893935,-0.051626578247349314,-5.533716046607471,0.7843923045221233,8.048514667865572,0.05658625566670414,-0.33449126109924693,0.12820332696414521,32.25364237945375,-34.35807364842081,-5.5763623506050735,0.9166444643482821,0.2725286196148514,0.12283656354932375,-0.2652643894627402
45.0,-0.11152163650668762,-0.02164909520062943,-0.04702911093627067,-5.543553107789142,0.794593233674272,8.040517702596379,-0.01753540519276161,-0.17371164437450826,0.10476986624704956,32.08112706530291,-34.43224822974037,-5.651593233674272,0.9168425431848936,0.27315711371833207,0.12312647476160504,-0.26383616510464203
46.0,-0.10583050466449363,-0.02507054812483609,-0.04328545202502718,-5.5412655202128045,0.8212136675283802,8.0394771271215,0.45861713686261285,-0.3859231576186729,0.061705724776141765,32.01999831403844,-34.41187713086808,-5.837160466074707,0.9169570046927429,0.27268264050196694,0.12430974929062233,-0.26338107281795364
47.0,-0.11490899554156836,-0.027978681952718153,-0.04694844704207412,-5.547141883031733,0.8401954591435313,8.033665917350417,-0.03972991832452891,-0.24725188265707537,0.20338644112247573,31.22857002360346,-34.45198826383425,-5.969655501854557,0.9185699619863248,0.27361871677902666,0.12344726651616653,-0.25698218880023227
48.0,-0.11237769285526958,-0.03020941515866772,-0.048078959199730265,-5.5603908433554405,0.8211733730470945,8.027069742609866,-0.10778668371361134,-0.32836138586040237,0.1745899835150425,30.525732222471994,-34.54498391311678,-5.838716936420516,0.9199509143085121,0.27535758413452094,0.12099549251007832,-0.2512969265675134
49.0,-0.10951536098310291,-0.0267231182795699,-0.04675230414746545,-5.566278033794166,0.7933168202764977,8.025538018433178,-0.2686995967741935,-0.1498415898617511,0.23138920890937018,30.045271697388635,-34.58680155529954,-5.641585061443932,0.9209701838851765,0.2765666860649001,0.11848864088210445,-0.2474381290272657
50.0,-0.10374961597542244,-0.029172043010752696,-0.04707373271889402,-5.590251920122888,0.7829124423963134,8.009635944700463,0.05826612903225806,-0.037471198156682026,0.1772369431643625,29.69647657450077,-34.758899769585256,-5.576084869431644,0.9213187832288786,0.2784554522380952,0.11748824993701998,-0.24452316896927798
51.0,-0.11192780337941627,-0.03000000000000001,-0.048572964669738886,-5.61547926267281,0.7807834101382489,7.992958525345625,-0.1056931643625192,-0.24659178187403993,0.22298387096774192,29.434168586789554,-34.93533026113671,-5.576632104454685,0.9214386025483869,0.2801889821674347,0.11714051888018431,-0.24229830141167433
52.0,-0.10885289048743022,-0.022183601213892328,-0.04335836049604738,-5.6000695365479,0.7750047768910869,8.004204806863736,0.04131320014237008,-0.762699154209284,0.23741218950207932,29.31240961372747,-34.82562228372859,-5.5289074500768045,0.9219859874722566,0.2795176207321943,0.11627911346588737,-0.24142717364362515
53.0,-0.10639752163650668,-0.014098151062155785,-0.04316207710464204,-5.565606215578283,0.7757720298977184,8.027944728560193,0.07284003737214792,-0.40862878638867034,0.228125,29.270884146341462,-34.585167928796224,-5.513549862313139,0.9226681966667979,0.2775960021963021,0.1156862479771833,-0.2413184550578284
54.0,-0.11328958263084937,-0.010852262935071747,-0.04296698325278185,-5.54271785433292,0.7808113221685213,8.043434921883787,-0.012150689839271658,-0.26214489434640886,0.17936827956989246,29.233404342755982,-34.4208277720018,-5.53830334897531,0.9231571961290979,0.27623984327672246,0.11550345846363005,-0.24109214824896025
55.0,-0.11523320594957104,-0.007188031546214078,-0.04640196133528157,-5.538557097898169,0.7825246618710427,8.046597476677533,0.04696052742497471,-0.19517428627627287,0.22776562090217675,29.204185575193886,-34.389955708384846,-5.5621474701210145,0.9232940149407288,0.27598461251306616,0.11552265419749166,-0.24086623824072712
56.0,-0.11581821587801133,-0.009291596418268329,-0.04652759357086661,-5.558738226368439,0.8021534599677794,8.030617286725864,0.3651385298415196,-0.15308109475103968,0.11289994754786258,29.213206698887262,-34.53547684612791,-5.711063654415346,0.9228675827122997,0.27687957626862986,0.11688549228826196,-0.24080968195504093
57.0,-0.12045198756135025,-0.013180023228803718,-0.046900303473080836,-5.56711655614252,0.8425613877336929,8.020472294031693,0.23714735304035067,-0.30327638529841516,0.42008589037503274,28.39076936045858,-34.59501517365404,-5.99988666591735,0.9242796130044583,0.27771178675193886,0.11711339742579896,-0.23409218817106886
58.0,-0.12011303435614999,-0.026019032632722643,-0.048806076954778774,-5.61303506800045,0.8292655951444307,7.989018508111346,-0.4720690026600727,-0.08913702184256866,-0.0691780469071972,27.906406185605636,-34.9223717732569,-5.921912582893109,0.9244586823727472,0.2810282589932187,0.11589384823670901,-0.22997909926630694
59.0,-0.111703982615863,-0.03155790341313552,-0.044111179798433944,-5.624620452587015,0.7965606009516315,7.984359484470422,0.036814961035555094,-0.26780679817166836,0.0530885879135289,27.53891257820988,-35.00294855943952,-5.700011590985725,0.9250848078760816,0.2824157579489903,0.11348165036643436,-0.2269973594411411
60.0,-0.1113752013787419,-0.025527181446929684,-0.043282969914952625,-5.64215680379154,0.7879655876512681,7.972899647821368,-0.0330038098048031,-0.19645257296466972,0.1299569611479525,27.378228909089206,-35.12561373684014,-5.643500091322917,0.9251376733440203,0.28366921500124576,0.11283960157188751,-0.225600837639532
61.0,-0.1200451275710914,-0.02866835262822675,-0.04263860477314452,-5.629376596980256,0.7872619796935294,7.982299670300855,0.17954384202540183,-0.3320516513056836,0.12555355737889176,27.226217229122177,-35.03625636918811,-5.6267555660147615,0.9256796118695909,0.28309876476848006,0.11226536261409276,-0.22441717046665538
62.0,-0.12214353152748118,-0.03702772470121016,-0.04675478625754001,-5.643982653328836,0.7975100221048289,7.970593383537522,-0.00798513543891198,-0.20912058371735792,0.22063968191525232,27.18697454198044,-35.14302737814245,-5.709925162039639,0.9254602268985053,0.2838938512310142,0.11290635292398185,-0.22399563053171484
63.0,-0.11695425424300326,-0.04422584391742536,-0.04682132554044437,-5.667555842793451,0.7946459480723838,7.95496643063205,-0.1041317766288262,-0.09357718894009216,0.1520009085459518,27.085758776366568,-35.30906649245064,-5.703618494998314,0.9252382135736766,0.28538989385897867,0.1128607893821138,-0.22303560528275448
64.0,-0.1135769735116706,-0.05262597879435016,-0.04419253681016075,-5.699316323854481,0.7822822674309692,7.932351878910497,-0.08553843055711663,-0.14540130568356374,0.14496646809786068,27.039087145479748,-35.53746815405942,-5.631153525532951,0.9247574627891424,0.28738793182657074,0.11258160455280808,-0.22260911808070138
65.0,-0.10811814843954891,-0.05219025139560152,-0.03991294818478141,-5.6936982878123725,0.7768689071222509,7.937674759282153,0.036671185980292974,-0.45856808006444116,0.1753304016335094,26.33211733355813,-35.494122550672515,-5.585418422876625,0.9262064212214791,0.2877871406379116,0.1104324192118879,-0.2169359576005395
66.0,-0.1106066932673935,-0.049800962871379875,-0.03832436963770561,-5.653358360496048,0.7725358360496046,7.9660109587501395,0.009575032314263227,-0.6251413749016522,0.15873374920385147,25.713701715934207,-35.2065706839384,-5.540813090086546,0.9281157917090499,0.28611289089883285,0.10811770525494549,-0.21211247163053087
67.0,-0.11259121052040014,-0.040799576636319376,-0.0411288449290023,-5.628545427297594,0.7679791690082801,7.984397886928175,0.10220035545689557,-0.6225486821400471,0.19366540922033645,25.37862013412761,-35.02717155361358,-5.496559057828481,0.9292106082466376,0.28501131988657225,0.1067486344782792,-0.2095349528905998
68.0,-0.10975272563785546,-0.034935193510921295,-0.03717850586339966,-5.606526844254619,0.7883906466599228,7.998076205462511,1.01703927587951,-0.5429914929189614,0.25472941487767414,24.876957588700307,-34.872297544115995,-5.6350757277734065,0.9304481573211946,0.28399391849698397,0.10627892026441497,-0.2055688466553707
69.0,-0.1090361527664146,-0.030539333439631694,-0.03964532945082962,-5.581033864737961,0.9100320637650701,8.001897817659987,0.6675904603328532,-0.41748165699961576,0.08686219899922715,24.108021179946554,-34.69309503987495,-6.485610350758421,0.9319199878653984,0.2820314133336383,0.11039789559263508,-0.19928520964970334
70.0,-0.09980113059623791,-0.03227015377537765,-0.039766653335807825,-5.557161681535366,0.9714785098713703,8.011197119837448,0.08942563929309849,-0.3832554120673025,0.09771554931415781,23.82112778303461,-34.523724517801924,-6.912264215879754,0.932675408411737,0.2803110398173193,0.11260220376106218,-0.19701155747836782
71.0,-0.1050887373411297,-0.03639237335466272,-0.0414079042408686,-5.567432607280741,0.9695602994825361,8.005322062222874,-0.03509228788033247,-0.028489265173436223,0.18329037834371487,23.640714621164,-34.59265142940787,-6.901216593346943,0.9328303408725349,0.28108039826119424,0.11214646521386443,-0.19549401744118083
72.0,-0.10808012978854467,-0.0287368183509292,-0.05022232910143913,-5.585595963450794,0.9637490905827503,7.992683510598902,-0.3799435812785949,-0.25642832746514155,0.09328431846637618,22.71720456246466,-34.72485499423636,-6.870169197351602,0.9340289287012256,0.2830706288108264,0.10978893363611808,-0.18791277821423996
73.0,-0.11031615046618798,-0.04227556889222306,-0.05295538170256849,-5.500337227163934,0.9082845711427856,8.056157610831278,0.03802289858178831,-0.9435662487050334,-0.519768334940878,22.593161683277962,-34.12851203872397,-6.434164344657593,0.9358946135812523,0.2788528315400279,0.10547765239952844,-0.18722252351909405
74.0,-0.11829493087557603,-0.04109831029185869,-0.05320276497695853,-5.472642089093702,0.8484485407066054,8.082718894009217,-0.1518337173579109,-0.5915418586789554,0.04161866359447003,22.534274193548384,-33.929387480798766,-5.990591397849462,0.9366953855222733,0.2778652208371736,0.10184067459293393,-0.18688950788018432
75.0,-0.11672061743658911,-0.03686092690419993,-0.05050766175864525,-5.449074032445392,0.8375935708665846,8.100611254730062,0.18341388483009252,-0.44965531452549545,0.1873805777228279,22.448235126072458,-33.761733824135476,-5.906943117530254,0.9373168716649806,0.2766452896230939,0.10081429006013262,-0.18627423888483008
76.0,-0.1171621520362669,-0.025761492637967866,-0.05540744071035182,-5.468350380277996,0.8261470158480387,8.089026825521714,-0.1269950545127571,-1.0759221273088306,0.5809694747293095,22.221213377168333,-33.8969479412536,-5.831519753849612,0.9373793014238883,0.2780561428607021,0.09991408748398337,-0.1843177829639204
77.0,-0.13863099921321795,-0.023595032033269646,-0.0648542579895845,-5.352485481997677,0.8181195908733281,8.166114795249333,-0.0384399235697426,-0.5646507717957364,-0.02535147615301042,20.87800780225544,-33.090563064328805,-5.719355307032332,0.9414323674515754,0.2726369819411038,0.0949449231083511,-0.17366653781068525
78.0,-0.13423101419954292,-0.026025626615713168,-0.05759225956314863,-5.319506949908209,0.829612790828369,8.187112697163833,0.34061106740099656,-0.5354215840545502,0.10317967667003856,20.507240268255217,-32.858669589000044,-5.784552845528455,0.942571102151287,0.27094502907347046,0.09427339420010489,-0.1707660777571091
79.0,-0.1259173504177438,-0.0328976059345847,-0.05104267356037617,-5.3066198344011095,0.8512464875800831,8.193598591285452,0.26765576411524483,-0.24001301936982503,0.1428196770446967,20.35375454272976,-32.76737242890862,-5.9340390955752875,0.9429915140095914,0.270139649237196,0.09489848776441495,-0.169523681432318
80.0,-0.10882413547637779,-0.0359373946274025,-0.04502173017121877,-5.3007253381289585,0.8998679330111272,8.192121876287889,0.3069199355588026,-0.8624583192836537,-0.12976049979393803,20.419820819751976,-32.72500210745195,-6.264964079652318,0.9428703172723016,0.26929684153047845,0.09749406188378104,-0.17007571149900713
81.0,-0.0894220523772058,-0.037848113596343345,-0.032901802105578665,-5.272774343411637,0.9962035517590198,8.197948034918138,0.8160175714660373,0.16054311378367236,0.4044361863549511,20.504399657187815,-32.53101583867221,-6.926995288674085,0.9428959915324643,0.2668316207191562,0.10248805003252032,-0.17079227361586302
82.0,-0.08508025177025964,-0.04123775804578323,-0.02759716758457907,-5.405808137574462,0.9958061518864038,8.110038140197068,-0.3799920853471207,0.7493295961185418,0.20028099359334606,20.232548424562587,-33.46261731482522,-6.997164774643139,0.9409818601496385,0.27476219230283616,0.10328137179701022,-0.16814583764519875
83.0,-0.08630633529462503,-0.03995148003028632,-0.029188502700588037,-5.530218129445252,0.9951793592997553,8.02578229661945,-0.3635332885921828,0.630189058588689,0.28836612463220335,19.830795476525928,-34.33812833108102,-7.068076323305565,0.9393446034890657,0.28231984982921254,0.10368198187535647,-0.1644624669858902
84.0,-0.08893273753978564,-0.041577122503622437,-0.028250165328788646,-5.609909371942286,0.9580197871767593,7.975425710521707,-0.4158296243268134,0.34507244788113406,0.2777516107031984,19.44172742336281,-34.90492726077861,-6.847066195446946,0.9385745149588185,0.2876023680520871,0.10161246514658759,-0.1610536609161402
85.0,-0.09852073166375219,-0.04584663326110275,-0.03561153877319505,-5.671744615160758,0.9057975748292474,7.938470039330391,-0.293446920364673,0.00772177337670657,0.16803942792100465,19.203613046663236,-35.34574343444311,-6.506454307119898,0.9379280903850703,0.29184296455281283,0.09894098593416449,-0.15895823861063085
86.0,-0.10211186071779269,-0.04822662111520913,-0.03847374735669982,-5.710084542041434,0.8554935946530187,7.917169815101858,-0.30411245015086524,-0.1908314077648332,0.030321223598582574,19.181661214519657,-35.61779082619087,-6.166348588453733,0.9374119917378733,0.29448611568415617,0.09663902756021756,-0.15867082507203462
87.0,-0.11294027339587512,-0.05282456154108214,-0.04427070530698879,-5.71823975331812,0.824944279623913,7.913991673876657,-0.08792856968597548,-0.1477416283513387,0.09859393201959027,19.196480685938035,-35.675334240790164,-5.961837748200116,0.9373331324251916,0.29519306451635025,0.09518366697916464,-0.15872899821028952
88.0,-0.11994050428983552,-0.051341763141133735,-0.050532201865797474,-5.740744782885619,0.7959920197819492,7.900644749166384,-0.18244890599827657,-0.05497077666629199,0.08364148964070287,19.227216336967516,-35.839542589262294,-5.761582790079053,0.9369354006191973,0.29673211284032064,0.09397693134629648,-0.15895459880131885
89.0,-0.11955550560113895,-0.0537315574538234,-0.05136057097898168,-5.729953804653255,0.7569937057435092,7.9119467985463245,-0.34820890000374655,-0.7772933760443596,-0.8549246468847177,19.49924084897531,-35.7599450657525,-5.46851700947885,0.9368395359278783,0.29622487119358587,0.09244367183290246,-0.1612433843084935
90.0,-0.11865711549838678,-0.05439024913022682,-0.04791477268271773,-5.72257630217659,0.523603218748938,7.933771420206966,-1.0440764072769064,-0.589818074618829,-0.26239092166334266,20.394166605675807,-35.70792059131943,-3.779390323408378,0.9360870890319739,0.29722926667259764,0.08232087439232019,-0.16866521770474152
91.0,-0.11969928196334798,-0.05108519987139644,-0.05008997785160578,-5.696870744471832,0.44123943485871464,7.9595641410352584,-0.2666080024470403,-0.02747221403565181,0.43606152654234986,19.89960123959561,-35.518023088361375,-3.178119864787625,0.9374798830190404,0.29668928271455364,0.07639897668493909,-0.16472205441042403
92.0,-0.11835356984850606,-0.05188544526241453,-0.05071878958750679,-5.636437957016726,0.4202477157750977,8.004320738838553,-0.07581266023923566,-0.7720584550327143,0.21460786728275474,19.67678960863155,-35.08826157002849,-3.008382461343358,0.9389920678507113,0.2934566599503289,0.07404978575086492,-0.16310973025608047
93.0,-0.11456791395651109,-0.05275723876023953,-0.050907781890527595,-5.636936720443847,0.4093819224036779,8.004978917806373,-0.06648495915187588,-0.3425060420324862,0.216527723963958,19.49865186076739,-35.08967009953038,-2.9298464726071627,0.9392657886430975,0.2936987709630677,0.07304196093188407,-0.1616879707086854
94.0,-0.11408503224707275,-0.051802582513760326,-0.04901149463189975,-5.647535180498421,0.40294441742303716,7.998560887474618,0.06614308109994531,-0.22607732977200345,0.14583106628305428,19.39287431748047,-35.163849066662266,-2.8887903637997407,0.9392513274958956,0.2944119030752358,0.0725590569951279,-0.16077279375603237
95.0,-0.11032494387333097,-0.054140493914687476,-0.04664646106581592,-5.677206664303439,0.4103308519437552,7.977285123478671,-0.0349019260309583,-0.12807367363818978,0.22057633226988066,19.295071192248614,-35.37701169797944,-2.948559169325298,0.9388273006698569,0.2961735888515893,0.07299002516601677,-0.15983526388030248
96.0,-0.11238915883487086,-0.054244856376249,-0.04703365726851173,-5.70955655608488,0.4004380834219545,7.954048878475316,-0.06778569663355266,-0.09897195071516472,0.12485709854661467,19.270135442514473,-35.60863459088774,-2.8858128496208746,0.9382722647351946,0.29815567869446197,0.07273894988593821,-0.15954414380988263
97.0,-0.11019758532838783,-0.04842626728110601,-0.045978447791390376,-5.735029644824098,0.3854261267843092,7.936520999587875,-0.03887517093776929,-0.14298821466037243,0.1828320524708703,19.262395915289797,-35.79081654396613,-2.787448250346559,0.9378123904968718,0.299755189718229,0.07226733386820466,-0.1594518020090387
98.0,-0.12002355662957549,-0.04223299988760258,-0.05300446779813421,-5.747667753175227,0.37706386984376733,7.928322655576787,0.04296468144692967,-0.13346241476527668,0.12887607245888127,19.27082472790454,-35.880511045389824,-2.731868302986025,0.9375809963650762,0.3005639831076393,0.07195378812106142,-0.1594447234595745
99.0,-0.12385452025027163,-0.037455209621220655,-0.05554658873777679,-5.7612532314263225,0.36777790266381905,7.919290360046458,-0.028946086695890008,-0.2223511670600577,0.18349045558427934,19.29183877524259,-35.9861980630175,-2.6736458450414,0.9373113205817316,0.30145507200543264,0.07160934137907911,-0.15949718135075494
100.0,-0.1257891424075531,-0.03468607395751379,-0.059159716758457916,-5.770542879622344,0.35923682140047175,7.91264516129032,-0.013857199055861531,-0.2308811959087333,0.151485051140834,19.303009441384738,-36.05317663257277,-2.6049862313139256,0.9371136958111723,0.3020821295405194,0.07127137115814322,-0.15961582669079466
101.0,-0.1170456333595594,-0.029760031471282467,-0.05552242328874904,-5.7827592446892195,0.3503603461841068,7.9034767899291865,0.100044256490952,-0.34121754523996856,0.13118607395751378,19.316020849724623,-36.138286782061364,-2.5521931549960657,0.9368704242824546,0.3028183550204564,0.07103706178127459,-0.15975968310306846
102.0,-0.11146126034993069,-0.021806695140684132,-0.05210256266157133,-5.783751020943389,0.35548289685661827,7.902228822449516,0.1960498154808737,-0.34436467348544453,0.14094029822786708,19.340442002922334,-36.14549403356936,-2.5836007455696675,0.9368027774540668,0.3028461484345098,0.07137285003829005,-0.15995627935978424
103.0,-0.1164623374920385,-0.02365708478513357,-0.05404105316398788,-5.775203598591284,0.36261556329848993,7.908301665355364,-0.10452229918324529,-0.2709972462627852,0.185635373346821,19.32620054512757,-36.08860559270916,-2.6222242516203966,0.9369783432313605,0.3023180196932581,0.07156525180907422,-0.15984002442418793
104.0,-0.11521887527631036,-0.02602081225881384,-0.05315437788018434,-5.790834981829081,0.35249582256191214,7.897273275635985,-0.06887024184181934,-0.030637785208497248,0.08043324528867409,19.269783002697537,-36.20138752294781,-2.5606695609006778,0.9367714297359597,0.3033728144883482,0.0710657174312877,-0.15928931200635046
105.0,-0.11183052339739988,-0.022805842793450982,-0.04760393953017872,-5.809249119553407,0.34893870593083787,7.883660241279834,0.13479678309167886,-0.23815032454760032,0.11609191768761004,19.300582886085195,-36.33426968594282,-2.5476193988610394,0.9363806994116464,0.30446323784999624,0.07117650111926307,-0.15944852994888728
106.0,-0.11610074556966768,-0.02573414259488218,-0.05442658574051179,-5.808911618148439,0.34872204113746186,7.884160765801203,-0.05187844217151849,-0.3178306826271028,0.16457677681615526,19.308618775991906,-36.327327095275564,-2.5336431287699974,0.9363658234107006,0.304459668437863,0.07114754096343337,-0.15955475430182461
107.0,-0.11692518077254502,-0.02540931400097412,-0.055062755235847305,-5.8054542729759095,0.34414596680528997,7.886892210857589,0.05398589412161403,-0.40068281443183096,0.1781265220486306,19.309767337304706,-36.30416853995729,-2.502636656550897,0.9364446071469785,0.304297003992357,0.07086645936420516,-0.15953715267318574
108.0,-0.12204795623993107,-0.016416694766026006,-0.059787868569929944,-5.789592596755462,0.3512704657000485,7.898371361132965,0.082456164999438,-0.3286458918736653,0.14590826495822562,19.337771158817578,-36.183875182645835,-2.5301637256003895,0.9367375494979577,0.3032437925453523,0.07105134432018281,-0.1597498497905661
109.0,-0.12679187741186165,-0.018586789554531497,-0.06117717582705781,-5.779096849125175,0.3476525420553743,7.906232887490162,-0.0880451275710914,-0.22067129369450378,0.1514503952643213,19.30974907272114,-36.11360851972575,-2.5069681727923268,0.9369540271463039,0.3027085575818815,0.07070265782256188,-0.15962031469858756
110.0,-0.1167342549923195,-0.022390168970814132,-0.056609831029185875,-5.7514500768049155,0.3838648233486943,7.923967741935485,0.2337557603686636,-0.8314804147465438,0.6620007680491552,18.719700460829493,-35.913968894009216,-2.773079877112135,0.9382030288233485,0.3011236660875576,0.07086765754070659,-0.15488352435637484
111.0,-0.11578648233486943,-0.033056835637480804,-0.053902457757296476,-5.72294930875576,0.42476574500768044,7.942677419354838,0.08582469278033794,-0.3544690860215054,-0.054641897081413204,17.895060483870964,-35.70671082949309,-3.0612279185867894,0.9397741877519199,0.2996265278164362,0.07059926234178188,-0.14823072978955454
112.0,-0.10908755760368662,-0.033087557603686646,-0.04633294930875577,-5.7271658986175105,0.42305491551459284,7.940424731182795,0.06024145545314901,-0.2601358486943164,0.021066148233486945,17.622213421658984,-35.73829205069124,-3.0559595814132106,0.9400680681463134,0.30004921453033795,0.06984262354800305,-0.14600842686098314
113.0,-0.10386251920122887,-0.0267373271889401,-0.044618663594470066,-5.741276113671276,0.4142818740399386,7.930004992319507,-0.042845142089093693,-0.07526881720430106,0.16532498079877112,17.47113335253456,-35.84125624039938,-2.991282642089094,0.9400171195733487,0.30104750488863286,0.06908133881989248,-0.14471805153341016
114.0,-0.10117948934097636,-0.023856075081488147,-0.044090508036416794,-5.768860027724703,0.4002392847776405,7.91088634745794,0.09199759516316361,-0.2491890407815368,0.14001337061181673,17.33648438378105,-36.037813776179235,-2.8922348005882137,0.9397007787527443,0.30283703429463116,0.06819479231386047,-0.14351012976798358
115.0,-0.10667442208984299,-0.025057069798808593,-0.04688799595369228,-5.776446142894607,0.4038333520662397,7.9062254317934855,-0.008814710482934321,-0.20264391555205874,0.16854499175752125,17.314739167696978,-36.09168914615413,-2.930416795455397,0.9395849998925013,0.3032658397198962,0.06844490673354317,-0.14327719377512083
116.0,-0.10774043685137312,-0.02795998651230753,-0.044677868944588084,-5.792965006931174,0.397690869581507,7.894935296541902,-0.08316239556404781,-0.28932599003409387,0.28331483458843804,17.30026272900978,-36.20753812146416,-2.883378760630924,0.9393012550470572,0.3042989997510771,0.06818093773773934,-0.14307092010127007
117.0,-0.10848188527968228,-0.030696302124311573,-0.05292480611442061,-5.778671162564159,0.3994232512832042,7.904681128470269,0.05220860964370012,-0.34796771383612457,0.22030108463527032,17.21667767224907,-36.1080120639916,-2.893954422839159,0.9396710315251582,0.3035121685870893,0.06794033723273762,-0.14241753857925893
118.0,-0.11192761605035405,-0.03139063729346972,-0.05383202202989773,-5.7748139260424844,0.41034657749803305,7.906939024390245,0.119603166797797,-0.3289904602675059,0.06827547206923683,17.20442810778914,-36.07608920141621,-2.9806033634933122,0.9397435255892999,0.30319424227104647,0.06848247251140833,-0.14234441275924464
119.0,-0.11973511670600578,-0.03194686411149827,-0.05495973361807352,-5.776172089843017,0.42790567045071365,7.90494322992769,0.17082332293657038,-0.5226555182458507,0.29186974307819114,17.22079920431981,-36.08581585319021,-3.1028560071747027,0.9396755637903038,0.30311650361594733,0.06945190345438537,-0.14247581760025851
120.0,-0.12226252294781012,-0.028642098460155113,-0.05248389906710128,-5.7229120677381875,0.48092460941890514,7.93943748829193,0.05852399919448503,-0.46746158583417635,0.39011698699936304,16.82356529354464,-35.70480984929377,-3.467327762635345,0.9410831591128939,0.29983090167943316,0.07074767395673637,-0.13939702427888614
121.0,-0.12004982953055335,-0.02804203664156458,-0.05400247274362145,-5.698794350155483,0.45340339440260763,7.958465400322204,-0.05557584953729723,-0.39628058146940914,0.07119441010078303,16.873414727810875,-35.538386066464355,-3.263595406691394,0.9415164824371514,0.29859886907309585,0.06919831078865536,-0.13991378459705517
122.0,-0.11194387621295568,-0.028062717770034842,-0.04821917500280995,-5.709342100333445,0.44460964370012357,7.951569442883367,-9.319620845978788e-05,-0.2642791577685362,0.11534740174590684,16.905388520475068,-35.61432973661533,-3.2026277584204412,0.9412934873122025,0.29927545728005694,0.06890374152965419,-0.14016705863999102
123.0,-0.2098610018358248,0.026867146229065983,-0.04542587389007532,-5.528953504926754,0.37642205237720583,8.064340976359073,-2.1125761024315315,-5.416054803117155,-2.955686842006669,17.1938527968229,-34.347630053201456,-2.700305814694092,0.9439098250589337,0.289255154273388,0.06412737531085384,-0.14311009545060133
124.0,-0.13348656850623802,0.010019594619909353,-0.07428743771308682,-5.2600374283466325,0.07230088793975507,8.240315649469858,-0.17814384998688726,-0.17665739387808577,1.5539826158630248,17.756680622681802,-32.485570978981684,-0.5794635832303023,0.9475902592191752,0.2764263404354651,0.04709066523607208,-0.14845013317844968
125.0,-0.14014218275823312,-0.0018824135476377731,-0.07523577235772358,-5.2002311453298855,0.1758947397999327,8.290181428196771,0.18167945187516382,-0.11798054587688706,0.8565792308268705,74.09839341913005,-32.04793399460492,-1.251966252669439,0.9539129152390133,0.27411848609499456,0.03525087697680866,-0.08924987132171895
126.0,-0.12839000037465811,-0.008607273987486414,-0.07580716346333971,-5.215742001049042,0.23814518938968204,8.285592006668914,0.2041679545539694,-0.8110251348769246,0.599412372147915,216.14011569911207,-32.14115654621408,-1.657380647971226,0.9541146729909803,0.27610180543575547,0.009370444055074744,0.01134472592750365
127.0,-0.12483072009291521,-0.009261052414671612,-0.0651565321644,-5.233075072121689,0.27747355850286626,8.276637958487882,0.09797918774118614,0.3536399207598068,0.4419035208497246,279.27434827048444,-32.257950421022066,-1.922117005732269,0.9424164283282007,0.27549391514480537,-0.022435460440204565,0.12649845117874
128.0,-0.12812906972387697,-0.007570042336368064,-0.0667234273725226,-5.276122213480198,0.3040311340901428,8.249532688921363,0.22056217451575436,0.34209213779925823,0.36031667977970105,303.3214735304035,-32.555210089543294,-2.117913341575812,0.9173188473253905,0.2727773226046607,-0.05630632038945712,0.24398320738372484
129.0,-0.12209448877898918,0.001253381289573263,-0.06514742797197556,-5.235503503053463,0.39959237196058595,8.272658049529804,0.34924038065265445,-0.830898055524334,0.8631940541755648,308.0232559664306,-32.27170066689146,-2.7642178075006556,0.8800766835014049,0.26364935291139335,-0.08433951400809261,0.3589712158616013
130.0,-0.1197451200779289,-0.006194709827282607,-0.05666104679479976,-5.261496834138848,0.432203739088082,8.255152785583157,-0.14537882619609604,-0.09960520400134881,0.49574435202877376,304.313752294781,-32.45339065602638,-3.000003278258589,0.8426052466208833,0.256710025126035,-0.10958428759019893,0.4453031976475591
131.0,-0.11292171518489377,-0.008865404068787233,-0.05058090742197746,-5.294412011539472,0.433006631448803,8.234534918137198,-0.2389720551871417,-0.0038636619085085054,0.3854969840020981,296.0755589430894,-32.68214847701473,-3.0153866237683116,0.8105465969010714,0.25038327533951515,-0.12896853976668166,0.5057050888045782
132.0,-0.12601632572777338,-0.02012507024839834,-0.05790257015473382,-5.293992001049045,0.3933640552995391,8.236858332396688,-0.22639004018208383,-0.14989603237046195,-0.023419879360083884,290.1008203842119,-32.67953804653254,-2.741810149020269,0.7847762380060037,0.24246065386960025,-0.14363265307374207,0.5482722328837998
133.0,-0.12384399235697424,-0.029303510546626214,-0.057847214416844636,-5.334514817728824,0.3809754224270352,8.211704319808174,0.14924857629912702,-0.20090807762916338,-0.2105098628751264,284.9702474616912,-32.96103438424937,-2.663124976583867,0.7596193632055748,0.2374427292746619,-0.15646188042223969,0.582857350880072
134.0,-0.12390243902439023,-0.03796822899104569,-0.056580869956165014,-5.369397175077741,0.375083736090817,8.18902251695328,0.4628339140534262,-0.17624620658648982,-0.21218060394889662,281.1481936795174,-33.202001611029935,-2.6314534861938483,0.7396474712296279,0.23362175989921702,-0.16586211892285785,0.6077306022101083
135.0,-0.1170632422914091,-0.035845228728785,-0.051094189052489615,-5.400711101120227,0.40624798621258107,8.167314450563858,0.034548162301899527,-0.09565373159491963,0.08460014611666855,278.2417762541681,-33.419172192874,-2.8501894365141807,0.7237462982497844,0.23189344232494105,-0.17174573803135887,0.6260817274877299
136.0,-0.11985650593833128,-0.03211232250571354,-0.05074294706080702,-5.442859390805889,0.38199880109400164,8.14014724064291,-0.2641199280656401,-0.08308512232587763,0.3296944662995017,275.30080364167696,-33.71592250196696,-2.690047675246338,0.7069443589520812,0.22837031442283917,-0.1802590503866472,0.6440204997231278
137.0,-0.11446798546326478,-0.03251901389981643,-0.04718219624592561,-5.484727436214453,0.36276104304821843,8.113149750852346,-0.05114317560226293,-0.13904031321419202,0.2920448372110449,272.8099862781462,-34.00920136937545,-2.5695494267730696,0.6923241632329249,0.2254944198580046,-0.1875716292677307,0.6588097561342775
138.0,-0.11254168071634635,-0.02962983777303212,-0.0459428271702072,-5.463816642313889,0.3611355887752425,8.126813907309579,0.0054629837773032056,-0.4133415758120715,0.19782417294219024,270.95498716795925,-33.86201341276086,-2.5477127121501626,0.6818733547311826,0.22153446405455024,-0.19042110043610205,0.6702966226593232
139.0,-0.10705054138098985,-0.02351043422876626,-0.04297770784159456,-5.450915402195496,0.35210910044584304,8.135753924543854,0.036307416357573716,-0.3235620152860515,0.06278403769060731,269.56144814731556,-33.77542055374471,-2.4888494717320446,0.6739051599037502,0.21841249742145297,-0.1928933802455884,0.6787434425326514
140.0,-0.10580791277958863,-0.01922142295155671,-0.042557978344760425,-5.453274137349669,0.34447236896332084,8.13464193923045,0.02541657300213555,-0.20459494773519166,0.13504505263946648,268.09757315199886,-33.79086887902289,-2.420668015435915,0.6652122321001086,0.21569032013315348,-0.1960755476151137,0.6872669969521937
141.0,-0.12017073170731708,-0.016588625379341356,-0.05307294593683266,-5.464119366078453,0.34191360383649905,8.127382413547638,0.03267580832490353,-0.09885705855906486,0.1276387640028474,266.7565075774605,-33.863536398036786,-2.39509783260275,0.6569862018977182,0.21364483273582857,-0.199192715963246,0.6948951944441197
142.0,-0.1257766100932899,-0.014400303473080819,-0.05900191075643477,-5.478307762916337,0.3365942827170207,8.118629762841412,0.015449847326814283,-0.1468747658386722,0.14530459705518714,265.499029518377,-33.9615061022442,-2.3746322496347085,0.6491554282030834,0.21184709024272225,-0.20227647638408075,0.7018866255016298
143.0,-0.12542567719455994,-0.012931859053613578,-0.06037034955603014,-5.4951452268554934,0.33281720430107525,8.107127627290103,0.022231217919898093,-0.21520567560226292,0.15619871866921436,264.4645521313364,-34.08551799998126,-2.340099366359447,0.6426281199709358,0.2105203476508654,-0.2050813017679649,0.7074806590804764
144.0,-0.1294507418230864,-0.013526413397774531,-0.06282227155220863,-5.490850839234197,0.3305376344086022,8.110313813645053,-0.015320882975534826,-0.41433166844629277,0.2881800044958975,263.66808755760366,-34.051957588700304,-2.3243087557603688,0.6377405400620808,0.2088380644020456,-0.20643518625091795,0.712026024443464
145.0,-0.12716488704057546,-0.017739013150500176,-0.06002000674384625,-5.488155258326776,0.3360430107526881,8.11196335843543,0.008443389157393877,-0.3098624068037915,0.16888838934472294,263.04654377880183,-34.0372691169308,-2.372235023041475,0.6338775104020082,0.20786456537844217,-0.2072364631214267,0.7155437017297966
146.0,-0.11793492188378102,-0.01366966393166236,-0.05582983027986963,-5.510865984788877,0.3446021505376342,8.095336517927393,0.08855489678168671,-0.17597270615563299,0.13066764077779025,262.68699140159606,-34.198674881046045,-2.4421658986175117,0.6313706401711063,0.20847925332494097,-0.2086051976779439,0.7172000006619086
147.0,-0.11917230527143982,-0.018334775767112517,-0.056838709677419365,-5.526185680566481,0.3475967741935482,8.084048780487803,-0.03602232494099134,-0.15801288355625492,0.1751794846577498,262.4330694335169,-34.3114993115657,-2.4442761605035406,0.6296072684036191,0.20869656844453188,-0.20973121661565697,0.7183578683505116
148.0,-0.12762200741823088,-0.020771861301562333,-0.05987433966505565,-5.513672811059907,0.3572315668202764,8.093300475815822,0.22650477923270015,-0.4866789718444419,0.1893890379716009,262.2833573348694,-34.2163751943539,-2.519709124798621,0.6288135730557303,0.20833833916906447,-0.2090457735434884,0.7193651846269064
149.0,-0.1248382694541231,-0.02232199055861527,-0.05716105616125287,-5.508552995391705,0.3753410138248849,8.09653925480499,0.019563593533400772,-0.27587956848750517,0.1549875777415608,262.24384120583716,-34.179490160541,-2.6480554072533815,0.6286136604019049,0.20880051734451688,-0.208243663971629,0.7196380215164104
150.0,-0.12106026375931962,-0.028358575924468932,-0.052955528080626445,-5.53872004608295,0.3701624423963133,8.076233337079916,-0.09152868710426734,-0.11291458263084934,0.14596657112884492,262.209571812596,-34.39191241898018,-2.622112381046046,0.6280167053662749,0.20970411472064554,-0.20981304036887902,0.7194386442017537
151.0,-0.12637690607320823,-0.03428009441384738,-0.057380989846764846,-5.54246082949309,0.3783594470046083,8.073471507249634,0.10078303548012439,-0.3324149526057472,0.10130989846764826,262.2349270353302,-34.419393709490095,-2.6875430856843128,0.6281348402920086,0.21024195336435506,-0.20963019901105243,0.7192346298911994
152.0,-0.12459600614439324,-0.03922580645161292,-0.058076804915514604,-5.544843317972352,0.39076036866359454,8.07089861751152,0.0658026113671275,-0.2752112135176651,0.08181643625192012,262.31907642089095,-34.44174347158218,-2.7801651305683563,0.6286082373364055,0.21103820241781873,-0.20915717672503847,0.7187252487142854
153.0,-0.12242220224045558,-0.03586107676744972,-0.05433456970514408,-5.557017028211758,0.37239266044734165,8.063381008579668,-0.01566785152298527,-0.35917783616200216,0.164315921096999,262.34467493724475,-34.51943035573789,-2.641050822374583,0.6286178182892359,0.21075051349666554,-0.21031912237389008,0.7184605716835822
154.0,-0.12375334382376083,-0.02676694391367878,-0.056391555205874654,-5.5537773313101795,0.36028235172904705,8.0655883537522,0.09035635841669477,-0.4900967905848413,0.1084876456483459,262.38751123974373,-34.5032587646585,-2.5570845509722377,0.6289727038373982,0.21026665729364769,-0.210525718967283,0.7182279644554623
155.0,-0.12228565808699562,-0.01934814169570268,-0.055669663931662366,-5.5440075212618485,0.3555257764789627,8.072169944925255,0.09287523181971452,-0.3363586391480274,0.13118554709452626,262.44879594245253,-34.43419106627702,-2.5063432547487916,0.6295017349885919,0.20974736188741522,-0.21018098399151403,0.7180157941587986
156.0,-0.12612670001123977,-0.013572871005207751,-0.05806240867708218,-5.539519201228879,0.35206442246450087,8.077237214791502,0.02367933011127346,-0.15324090985725525,0.14648564825221985,262.47817821316175,-34.393258495372976,-2.4779718584916264,0.6298039719140441,0.209420694555234,-0.20998152837931325,0.7179108169869521
157.0,-0.1289355962684051,-0.009609606234311192,-0.06031021692705407,-5.544682102581396,0.34969802555168383,8.073391030684498,0.13181409463864224,-0.2509553782173766,0.11779251433067325,262.50567607058554,-34.427564534861936,-2.476895301787119,0.6298582438709679,0.20964053198306545,-0.21020519006406654,0.7177338697823235
158.0,-0.12231594919635835,-0.007054999812670938,-0.06093008879397551,-5.545806826271027,0.36198905998276565,8.07227773406766,0.15215803079689783,-0.2574112060245026,0.1320424019332359,262.50030558053277,-34.43255685437039,-2.5717727885804207,0.6297964315066877,0.21018341671930613,-0.20979428762448013,0.7177504844033568
159.0,-0.12328931100370913,-0.014176501442433782,-0.05975459892847778,-5.580606946161627,0.3745582780712601,8.04694915889251,0.0638862350605073,0.020055917725075867,0.07127753737214791,262.5344029822786,-34.684788411824215,-2.665206670787906,0.6295646824008094,0.21213647311003705,-0.2108808956824397,0.7170584390142745
160.0,-0.12519688284440447,-0.025809448877898926,-0.055292046008017695,-5.624650631298939,0.37061631261473915,8.016070585590647,0.102747649020269,-0.007109137911655607,0.05697613427747181,262.49416001648495,-34.999988291933605,-2.6508397025214494,0.6287918127365031,0.21366555248435803,-0.2130353729871492,0.7166406925562925
161.0,-0.1318785358360496,-0.030512906972387708,-0.061288823948147324,-5.653776928552695,0.3823419879360086,7.994502641339775,-0.029886010265632604,0.019852197369899967,0.12821269341725675,262.49708000824245,-35.208663500805514,-2.7436682776966017,0.6284848368521223,0.21532543154509015,-0.21389228425911355,0.7161609914315686
162.0,-0.13116743471582182,-0.02710539133041101,-0.058842681053538654,-5.655519463489566,0.3907343299239445,7.993360683376414,0.34085459518189654,-1.0403787793638306,0.05874639391555206,262.5468533400772,-35.21843973624068,-2.804564272601251,0.6287558097163837,0.21579866863249786,-0.21355494351429316,0.7158708626788056
163.0,-0.4014109624967217,0.09209452624480163,0.00351691581431942,-5.269035629987638,0.03781967704469677,8.23099265670076,-3.506575250084298,-0.05193581169682665,-7.699610823873215,264.4483053744708,-32.54141377243265,-0.3194147840095909,0.644674247147915,0.19015317564928252,-0.20699819320070434,0.7097348027642276
164.0,-0.05737982840657896,0.3529942677306957,0.2140702858641488,-5.595654527743434,-3.5982522198493876,5.38246637443333,11.585710070810386,38.84372775467386,-35.85076547338054,178.02995625866396,-34.969343598965935,34.9752772470121,0.7088727448834812,0.300441325101907,-0.32697646180772544,0.33645681696583113
165.0,0.09798321531602415,0.5144606796298379,0.363403769060732,-5.831184668989547,-5.700421865048143,3.2483410138248843,-7.583122588138323,2.0865319770709227,-4.524867933011128,116.07451013450226,-36.676365628863664,58.70788608519726,0.7262418816623579,0.39527678383612447,-0.3899118285156046,0.10035999020006744
166.0,-0.4046918436926304,0.3458956202465251,0.13805252706904944,-5.593776553894571,-3.4881881533101042,5.592109699898842,-3.7813237608182533,-26.447486980630174,19.772772189127416,194.56375276310365,-34.9264569517815,34.27047038327527,0.7060439421134466,0.2812734069581507,-0.3192121504312315,0.3772380789839271
167.0,-0.3680461578809336,0.19132310516653556,-0.01641826833014874,-5.4713926042486225,-1.7348965943576484,6.900248398336515,0.19172895357985853,-12.230873702746244,11.433322561912252,231.42177606683902,-33.991405108463525,17.061671068899628,0.6868710458757634,0.24024468541455923,-0.26139446823685886,0.5324737022024277
168.0,-0.2963339702521448,0.08720149113933537,-0.07592671687085532,-5.51369918699187,-0.6402742497471057,7.48078359746731,0.2209159922820427,-5.384064384998688,6.443561265969802,248.4900399479225,-34.252073498557564,6.920052639466485,0.6676981482561538,0.23002391987598816,-0.23133420963808024,0.6164730013023116
169.0,-0.2333574613165486,0.027309654939867384,-0.08469761342774716,-5.651420254018209,0.052188527968229204,7.7677228279195205,-0.3128282941815592,-3.6512007792888976,4.434707860327451,259.5602801506126,-35.215231257727325,0.4747344610542883,0.6534389916664793,0.22764836102094335,-0.21723258596650558,0.6692393863992357
170.0,-0.18502648832939939,-0.003434078903001008,-0.08142827170207184,-5.774734517253005,0.41646405155295785,7.890875576036868,0.24499222584391747,-1.3247644337042446,2.006275055262073,265.6543287063055,-36.09237172642464,-3.0163945712037767,0.6458087233588101,0.22781847588025925,-0.21231235820355177,0.6965052270863212
171.0,-0.1373749953167734,-0.02106035742385074,-0.06438541081263348,-5.861825783972124,0.4942688921359259,7.834869431643624,0.17601953842119067,0.09760242216477465,0.36820089168633624,265.1519051365629,-36.71810886628451,-3.6212445206249297,0.6419397413107414,0.23322220962983775,-0.2140256687676745,0.698278616081563
172.0,-0.12210606571503502,-0.01726109924693717,-0.05693700123637182,-5.908528942340114,0.5278740212056497,7.79924824847327,0.0076350642538683434,-0.19519957569967403,0.3127884867558353,264.99602042823426,-37.05611875257577,-3.880055777228279,0.6403404074452999,0.2362065881941478,-0.21512640906519048,0.6984676861013637
173.0,-0.11235122325877636,-0.02231662358098236,-0.05067935821063282,-5.930409239069347,0.5333036510434228,7.783377074669365,-0.06888604773144506,-0.2648893236484208,0.2136080514030947,264.85963491907387,-37.211281248829195,-3.9276852450264137,0.6392271360003838,0.23704354978157427,-0.2161500541510059,0.6989034134480068
174.0,-0.12203851485519464,-0.021013150500168602,-0.05634371136338093,-5.924156232437898,0.5412526319733245,7.788341763141139,0.14075858903750327,-0.2412400247274362,0.10015079989509573,264.7628315724402,-37.16589768086621,-3.979820445093852,0.63873433065745,0.2369013564391742,-0.21580919071259974,0.6995083370506165
175.0,-0.12429541793113782,-0.020753624817354172,-0.059329212093964266,-5.933966393166232,0.5391345771983066,7.780410850099287,-0.03152373459218463,-0.25724471732044507,0.18632638342512456,264.7209171630887,-37.2368089899217,-3.967959003034731,0.6383573196709752,0.23714675970739202,-0.21641193096998984,0.6995865886653554
176.0,-0.11883713611329658,-0.007592446892210862,-0.05959716758457907,-5.918124311565694,0.5437317073170731,7.791347757671127,0.10293568056648308,-0.4701367033831628,0.18825727773406764,264.69681845003936,-37.12593922108576,-3.993513965381589,0.638398930439811,0.23663875635326512,-0.21561893005114086,0.6999653861062156
177.0,-0.12594099134539732,-0.0148072383949646,-0.05890165224232888,-5.92194177812746,0.5392694728560189,7.789116050354049,-0.11722315106215578,-0.1803869984264359,0.19166502753737213,264.6416330645161,-37.15475265538946,-3.9736698465774976,0.6380178042678992,0.23653091093036982,-0.21602354869984272,0.7002231883442174
178.0,-0.1294771833202203,-0.013768686073957518,-0.06280645161290323,-5.937906372934698,0.534548190401259,7.777052124311562,0.01446080841856806,-0.18640219315499607,0.14235100314712823,264.62264580055074,-37.272031127065304,-3.931047157749803,0.6376484581095594,0.23691616659421713,-0.21700070625786785,0.7001302313239575
179.0,-0.13246774193548386,-0.019913650668764753,-0.06236998426435878,-5.957248229740362,0.523679386309992,7.762780094413847,-0.10209357789142409,-0.356770013768686,0.0050858084185680524,264.68111231313924,-37.41383630015736,-3.8558332513768683,0.637760449218332,0.2373703656852872,-0.21814514387195122,0.6995200040582219
180.0,-0.12251612903225803,-0.021501180173092063,-0.057019669551534244,-5.921616050354054,0.5108638867033832,7.791107789142407,0.005379622344610535,-0.7498819826907946,0.21582415420928402,264.69952793076317,-37.15210464201416,-3.752891424075531,0.6384059622785208,0.23544359074586935,-0.21694960181904016,0.6999498758678208
181.0,-0.1163320220298977,-0.02436978756884344,-0.05722738001573566,-5.864434303697877,0.5196365066876476,7.833074744295829,0.09328284815106214,-0.70691384736428,0.2073072383949646,264.68154012588514,-36.73619197482297,-3.801249016522423,0.6390603199307631,0.233447476761605,-0.21414449135798586,0.7008774852462629
182.0,-0.11551376868607395,-0.03389929189614478,-0.05490322580645163,-5.847731707317076,0.5226711250983477,7.8452698662470475,-0.07791109362706532,-0.2476986624704957,0.1609166011014949,264.6529061762392,-36.609451219512195,-3.815853658536585,0.6390440359409912,0.2327858857553108,-0.2133647158859166,0.7013527099638082
183.0,-0.11353186467348544,-0.035368214004720705,-0.051940204563335965,-5.862555861526357,0.5223072383949646,7.834019669551531,0.08786388670338315,-0.23478560188827693,0.15839889850511407,264.6612534421715,-36.716679779701025,-3.823151062155783,0.6389174778485447,0.23341801077301338,-0.2140059331514556,0.7010642517246266
184.0,-0.11450393391030686,-0.03338040912667192,-0.05228796223446107,-5.873402242328875,0.5213778520849726,7.826250590086543,-0.02205940204563337,-0.21212627852084973,0.08755900865460267,264.6743521341463,-36.802404602675054,-3.8190057041699452,0.6389133380037375,0.23386992592151848,-0.21448882984480727,0.700772861409127
185.0,-0.10716517740062192,-0.03536685586901953,-0.049268405080364175,-5.911230499044621,0.5431434191300439,7.796367998576301,0.067952153815893,0.19687704891161817,0.6299090166160878,264.46232127636654,-37.07634391040051,-3.9956419649881982,0.6370266070761775,0.235923989535836,-0.21582708136191975,0.7013778104430426
186.0,-0.10809843641223896,-0.02794271150540249,-0.04843296473072973,-5.960956303535813,0.5734370509003558,7.755600259603227,0.009272049338554147,-0.4639940758817753,-0.08884624656817519,264.17093757460486,-37.44188010880116,-4.23347305957587,0.6344938337788051,0.23861481927654515,-0.21760042008643626,0.7022148494569865
187.0,-0.10178908838707934,-0.03380111578417253,-0.044514377723350707,-5.923863674977978,0.5423416568427822,7.786224500375964,-0.009402503064790589,-0.638181267877945,0.12835237337208869,264.3421324625581,-37.16992031108822,-3.985654950322947,0.6361290735942611,0.23613562965774543,-0.21667994581505132,0.7018586749001101
188.0,-0.10224623577497162,-0.037866726263447406,-0.04261989539196648,-5.91638738430252,0.5286838103254038,7.7935481274499825,-0.05712060637110497,-0.300202947078233,0.09959613161130004,264.3465874743947,-37.119775261759685,-3.8834352643038805,0.636244747325061,0.23532349642604034,-0.2168352170987137,0.7019890635310935
189.0,-0.11118606045239532,-0.04209622701842711,-0.04878044336868191,-5.904625635502951,0.5191766809298146,7.803182403614841,-0.03426447313047774,-0.37898129257924235,0.14480199971595686,264.33999318644993,-37.02595765448331,-3.8156849806963935,0.6364008325020273,0.23445881053796114,-0.21663745505997845,0.7021955261439887
190.0,-0.12316215465016078,-0.03888605513747777,-0.05534644288249764,-5.88569991452567,0.513981581632342,7.8180812171684035,0.03180689553921582,-0.44186679836335385,0.11915599217748687,264.3646490509823,-36.88620271357037,-3.766305431976461,0.6368225664622271,0.23349992579509427,-0.2159356153525699,0.7023517352993369
191.0,-0.11873612828294179,-0.03874727436214456,-0.05094458806339218,-5.884493874339665,0.4984316998239109,7.820153722228465,-0.05186673410512907,-0.2651784543479075,0.16729738020306473,264.361684533176,-36.882036547900036,-3.653989289460867,0.6368427378489753,0.23281405550325948,-0.21645545310306846,0.7024082747807501
192.0,-0.1132075606009516,-0.03308331460042713,-0.04810014611666856,-5.899410587838596,0.4887044415720657,7.8110446030497185,0.0013827226405904586,-0.2836513829568019,0.149000775073995,264.33379761670597,-36.98456174365891,-3.573109908302424,0.6365573482793261,0.2328692140380184,-0.21751727237765536,0.7023147561826644
193.0,-0.12040275748379603,-0.02455434416095314,-0.04705518714173319,-5.88170057322693,0.48088831441309826,7.824129107189689,0.008497714585440784,-0.4436420516278895,0.13861882282417295,264.3318089430894,-36.85909342100334,-3.510750346558765,0.6367986007669252,0.23182524175002805,-0.21705750152635717,0.7025884957697349
194.0,-0.12007234648383348,-0.019279532426660678,-0.05193278633247164,-5.862194110374284,0.4753151249484847,7.838307669251811,0.12465601700947886,-1.2436001367502154,0.11149568206511559,264.3329284683976,-36.716136993743206,-3.464246141021318,0.637073561706043,0.2308291861606159,-0.21635004853107787,0.7028764887652768
195.0,-0.1150169720130381,-0.021721179423775813,-0.05188805215241094,-5.7555094975834535,0.48982346109175356,7.9146300251020945,0.006956464725937583,-0.6011347457944626,0.1428014124611292,264.2969605859653,-35.95249053988236,-3.5398467648270953,0.6381757606994116,0.22706889570319583,-0.2112206266810535,0.7046348411184294
196.0,-0.11999471732044509,-0.029003784047057075,-0.05464976958525347,-5.721086770821624,0.48996680529017256,7.939840582968039,0.07800124573826384,-0.3891049417406616,0.06763890449964408,264.2735294668615,-35.69570829118429,-3.5250866396912817,0.6385314106722864,0.22560582311123595,-0.20968747627128992,0.7052541003389157
197.0,-0.12745230602075605,-0.0291686336218201,-0.060145498482634605,-5.719758663969127,0.4878098235360233,7.941770353302612,-0.0010058399835150417,-0.3000374658124461,0.09765885504477163,264.28840643849986,-35.685260715222356,-3.5179196639316626,0.6386103276179984,0.22548992236356818,-0.2096709226075643,0.7052358002110448
198.0,-0.12658374545727025,-0.03328061893522162,-0.05720414184556592,-5.737792785957813,0.47509216589861747,7.929399732119439,-0.07408671228129331,-0.060763225431793466,0.0822725825184519,264.28241624049303,-35.81288999569143,-3.4313978728784984,0.6383377455265444,0.22567671105825934,-0.21091918749182306,0.7050497633305421
199.0,-0.1191668727286351,-0.03575321269341727,-0.05904158705181522,-5.744569780075681,0.4708525345622121,7.9251635757371375,0.1600080551496759,-0.5006437094900902,0.059886291259225954,264.30920207185943,-35.86234217526507,-3.4104065977295717,0.6384257114245624,0.22585309375493615,-0.21130019053220184,0.7047951678023678
200.0,-0.12037836723989359,-0.03980364167696978,-0.05203461841070024,-5.74596691768761,0.46122427035330255,7.924485781724176,-0.11105780038215128,-0.18379439698774863,0.07312670937769286,264.3495223108913,-35.8765243902439,-3.3323154340414374,0.6386692323704991,0.22560738842662323,-0.21167199199958786,0.7045480413059457
201.0,-0.14869036379303885,-0.023595762616612354,-0.05694571203776555,-5.503679760968117,0.3410409314000974,8.081338091491514,-1.9193172558165674,-3.9985897634033942,-2.6652216571128844,264.92835084860064,-34.17552616050354,-2.451366214266981,0.6450746105243528,0.21204839499222583,-0.20472281753401894,0.7043478761879847
202.0,-0.09971000524521373,-0.03823797347420478,-0.09906809411412086,-5.183748482634597,-0.06268613952268556,8.283614514255742,-0.11050828228616394,-0.36296615666329446,1.1468918596156008,266.0068981585553,-31.96710735828556,0.3286323690569857,0.6552760144634053,0.18567139641316355,-0.20419441858651796,0.7020323525294763
203.0,-0.14195888127084036,-0.02811149825783972,-0.09511469221835074,-5.271579118429433,0.08334375819564643,8.241865244839083,0.08912829933310853,0.8459758790416245,1.4095106379491216,264.9398234072347,-32.55323253858978,-0.6403557144730433,0.6479300671036305,0.19289333807850956,-0.2040929123280132,0.7073804623263741
204.0,-0.13860463264770898,-0.03212986587239145,-0.08233787606309242,-5.4425182458506605,0.17362137986587226,8.135146332096962,0.01601552255441908,0.666799143437863,0.7755538500805514,264.1726346778877,-33.736993333426994,-1.2639542589262298,0.6412827423045033,0.2017652794086864,-0.20934932063021244,0.7096491390128414
205.0,-0.12865272938443673,-0.035383087932261824,-0.06939267918024802,-5.548133827882056,0.2162114570454459,8.068267206174367,-0.03002884867558353,0.18339281031059157,0.48547497283728597,263.6929957663632,-34.47090311340901,-1.561209771083886,0.6370973698227866,0.20668896980967366,-0.21315415277734073,0.7110463113015625
206.0,-0.1342720767299839,-0.03859004908021432,-0.07344299576636318,-5.617633397025214,0.23860140122138535,8.022173728972316,0.15202924206661422,0.13886890712225097,0.3795883912180136,263.43572388632873,-34.96418385410813,-1.722038795848788,0.6346940939963657,0.2098861566176614,-0.21576367433595597,0.7116109342699789
207.0,-0.1368564684725188,-0.032647559102319146,-0.06777295717657636,-5.664643887452698,0.2544727436214454,7.991783485069876,-0.10612823610955002,-0.14772184444194675,0.3211162002173017,263.229982718894,-35.293463854857436,-1.8320159417031956,0.6329273249651567,0.2119839433979244,-0.2175583983592222,0.7121218881488144
208.0,-0.1344716571128845,-0.028360983102918597,-0.0654167696976509,-5.683963133640551,0.24943018245850662,7.978583005507478,0.029041624517627665,-0.40659772957176576,0.22094245251208272,263.06766559889104,-35.427088016559885,-1.7971207523135138,0.6316886105205874,0.21221921783099174,-0.2188820938309917,0.7127502844115995
209.0,-0.11943968309150459,-0.027760315078769707,-0.05715726492598759,-5.686704801200298,0.24650795015827132,7.976645216182096,-0.06130227297678078,-0.1129029399118072,0.13974696036814083,263.0845887920151,-35.44687019696997,-1.779586436243207,0.6317811196588933,0.21225157648908569,-0.2190549977636543,0.7126069171653433
210.0,-0.10683628529083491,-0.020013498365880678,-0.04991653662544557,-5.762624065206199,0.2288434996379758,7.922347560322139,-0.029274267880994638,0.24847809431669765,0.01915647819838235,263.0981699720444,-35.99859807476912,-1.6494312983733739,0.6309105874125271,0.21454993661665328,-0.22309746930313024,0.7114189700410283
211.0,-0.11398265877444973,-0.02186562015068228,-0.053006655409496985,-5.797017677764391,0.23074433046414922,7.897560876935261,0.20534774509176074,-0.12422365445455438,0.0393917471637073,263.1418269215061,-36.24498956157811,-1.6678608104770094,0.6307264131296506,0.2160678705825202,-0.22447219083704895,0.7106984202987399
212.0,-0.1280760068065797,-0.024940874591470177,-0.05681784383378075,-5.782283032430582,0.23381974587723603,7.908373180403114,-0.06746221616379704,-0.33756545625953527,0.2301041397108859,263.0894870494627,-36.13708651466002,-1.6937590342707627,0.6305774251898253,0.21550175935577626,-0.22378202725723412,0.7112207425324344
213.0,-0.12394673668417105,-0.022665559246954604,-0.05731372128746473,-5.783836244775479,0.2324558996892082,7.906502089808163,-0.003371155288822203,-0.2642292269495945,0.21073460329368054,262.97400198263847,-36.14696575929696,-1.6765707051762941,0.6298638697113563,0.21527144357718003,-0.22414088469706706,0.71181593619462
214.0,-0.11679661683713612,-0.022723371173803915,-0.0541679030384774,-5.767175564797123,0.24043677644149722,7.919141114982577,0.06207464594807238,-0.523832588700311,0.13034648851672848,262.9789015960436,-36.02726972575025,-1.7334603658536585,0.6301110036525421,0.21495578999985016,-0.2230974211915065,0.712020184905811
215.0,-0.106918563482334,-0.02579413298446564,-0.04823432839917298,-5.777896538158931,0.24257665635921183,7.911220166322065,0.0070313214736611,-0.22403907951073135,0.14168009418513164,263.0093341170658,-36.102200531077884,-1.7557610343896948,0.6301613283219127,0.21552041463376215,-0.22344050255258172,0.7117017042905972
216.0,-0.10323436041937314,-0.02320617349459317,-0.044476428558359114,-5.791919748229742,0.2384978089034455,7.9013353978738525,0.1035371743088211,-0.2418686988820376,0.1453882620807641,263.0661589940168,-36.205818499213215,-1.733356643276673,0.6303237397884149,0.21605390008576386,-0.2240974242986158,0.7111873441209082
217.0,-0.10622693630724755,-0.015809223647375262,-0.04454712458602457,-5.804203383162866,0.2294742191645473,7.892272340951087,-0.04268398463945254,-0.17038606069200227,0.1571816162882184,263.09064612761426,-36.29549444335169,-1.6768290395769674,0.6302618457719613,0.21623000714998264,-0.22492860009197113,0.7109262458676926
218.0,-0.11310943589555925,-0.015444934404332793,-0.049725175196238106,-5.821609756097563,0.2248096902274349,7.879511170475546,0.06714087058349953,-0.23998133679761408,0.14487105007959306,263.0975660073555,-36.423780487804876,-1.6333741972078386,0.6300730917730776,0.21671965705886226,-0.22588598044114686,0.7106414385306202
219.0,-0.10947349206639635,-0.01767526027848426,-0.046283103877014564,-5.8208515229852775,0.23472884945975167,7.879758207844645,0.21828859871762366,-0.554081279466208,0.16071785803593755,263.2002853827569,-36.419448503240794,-1.7033366246613917,0.63073452550982,0.21731329189329912,-0.2253046434255864,0.7100568084832112
220.0,-0.11485631860926904,-0.026507474429583015,-0.052041886778314804,-5.802782173766437,0.2473752201116481,7.892736952530814,-0.08680102843655164,-0.21321466037241016,0.1905244277097149,263.156897924394,-36.28695182833165,-1.794003362556667,0.6306798910700986,0.21698250638807087,-0.22415435734404854,0.7105719595574163
221.0,-0.1222786707129744,-0.027899685287175464,-0.057330935521336786,-5.812866303248287,0.2441557453823387,7.885813794912143,-0.008192016972013036,-0.18570351429320744,0.18574215091229251,263.10869089768084,-36.36185711007455,-1.771067377580458,0.6302899954524375,0.21716540594383874,-0.2247940095453524,0.7106578943420441
222.0,-0.11789779326364691,-0.022238591660110156,-0.057520699861376506,-5.841441019444757,0.2436435689932937,7.864708628376608,0.13041913706867483,0.09936893522161028,0.11440923438612266,263.14064560619687,-36.571442913809896,-1.7853910845416059,0.6300965125452589,0.21842655885704915,-0.22600840142491851,0.7100554782921863
223.0,-0.12238975684687722,-0.018123712112697168,-0.05675190138998166,-5.886479150275373,0.237466561762392,7.831257539994756,-0.14419303323217564,-0.1343161084260612,0.2094151586677157,263.14710131692334,-36.89607451950096,-1.7464313813645047,0.6295407040103406,0.22000185725993782,-0.22821655139410285,0.7093527339335355
224.0,-0.11896984002098085,-0.018158630249896973,-0.054777640403132155,-5.922435427672248,0.22549518564310078,7.8038599527930765,-0.08760630924281593,-0.025793806901202646,0.15272985275935708,263.06882235585033,-37.158540331947094,-1.6647671499756473,0.6285632284045559,0.22082061496714256,-0.23041091141133713,0.709256164705631
225.0,-0.11546446367689482,-0.017702446517552733,-0.052144917762541695,-5.965820388895133,0.21569015773107045,7.771650668764755,-0.04237711213517665,-0.03460717095650219,0.12871052040013486,263.02789563897943,-37.47762775842044,-1.6006270840358172,0.627760625945,0.22212291620111652,-0.23276339254280468,0.7087950208697312
226.0,-0.1104151586677157,-0.01656562137049942,-0.04672548799220713,-6.002768573676518,0.20718811584429214,7.74262706530291,-0.05858529092203364,-0.030433011127346296,0.1354115151174553,263.00979262672814,-37.745206483458844,-1.5368890730958,0.6271937936412646,0.22318781811629393,-0.23480939628713804,0.7082920244749915
227.0,-0.12034605297665878,-0.019890206436626583,-0.05095440410625307,-5.986347308081376,0.21052246075456155,7.75446066089693,0.25692391630137495,-1.7155213836124537,-0.1870886956277397,263.0819812858267,-37.627953359746726,-1.554828289498333,0.6278510783391217,0.22277470451762765,-0.2338247067281481,0.7081511816639317
228.0,-0.11416688209508824,-0.020163997227529887,-0.04902942939567646,-5.817490090292608,0.19579118429433146,7.880333249035251,0.2332286632198119,-1.096095945262448,0.016838716702259185,263.49322758607775,-36.4029263726537,-1.4319600356861863,0.6325997236204057,0.21622545229337606,-0.22599813961599416,0.7084110180362669
229.0,-0.11124345284927503,-0.024642089093702003,-0.04909673672773596,-5.743570379528679,0.20534071409838525,7.934781199655311,0.014635082986774559,-0.5465444812858267,0.3396404686973137,263.4944501423701,-35.867493256153764,-1.4881469877486793,0.6335653026020007,0.21365052225585401,-0.2223705186661796,0.7095114166900454
230.0,-0.09600567607058558,-0.023388707804128737,-0.04232649582256193,-5.7783304297328675,0.21996776066839013,7.909702952306018,-0.12801880783784797,0.2096004973586602,0.445493916488704,263.1135016250796,-36.11204619534675,-1.5925048471394851,0.6307258853285377,0.21485323295090106,-0.2241511435644037,0.7111337288052904
231.0,-0.11019327675995655,-0.030117605185268456,-0.041500440223296256,-5.828664858941215,0.23775653778427192,7.872874217901164,-0.08668792851522986,0.15060688762129554,0.23042042495597767,262.84486759347726,-36.47750412123936,-1.7293431657674871,0.6283900778665843,0.2170538762643307,-0.22627064304835898,0.7118724589198983
232.0,-0.10093016372560037,-0.027099509197856968,-0.0403813645048893,-5.87394706080701,0.22711962833914054,7.839767562099586,-0.10771608407328312,0.13977276984751413,0.22222706155632985,262.7394472856019,-36.80923017121876,-1.6571651024689968,0.627183029943277,0.21823811196837883,-0.22886533969641448,0.7117529651734668
233.0,-0.1112945749503578,-0.022642688546701144,-0.05039421527855832,-5.913725450526392,0.21693692630474695,7.810726330972988,0.025327825858903738,-0.07570693304859316,0.21557781649245064,262.7345469914953,-37.09508167547113,-1.5814627355662958,0.6266006189094264,0.21938816368618635,-0.2310413817629538,0.7112242641896519
234.0,-0.1195741167434716,-0.01847004608294931,-0.057047619047619055,-5.94011213517665,0.20771236559139797,7.790932795698926,-0.08494623655913978,0.03626632104454684,0.15303379416282642,262.7232382872504,-37.291148233486936,-1.5254776305683562,0.6262194255664362,0.22009091869124425,-0.23256126011751155,0.7108553210153609
235.0,-0.11398385223483573,-0.01869922445768237,-0.05450492675433667,-5.959631598666215,0.1982764227642278,7.776799895095724,0.05696138211382114,-0.38718130643288,0.11426768386347458,262.79184509759847,-37.42983847551609,-1.4584981829080963,0.6264018284036943,0.22061358548173537,-0.23361139725368102,0.710191587578884
236.0,-0.10824440822749243,-0.012794219025139563,-0.05026218575549812,-5.94795262448016,0.19550084298078013,7.785359971525985,-0.0038201079015398424,-0.28155277059683037,0.15202245138810835,262.81128025364353,-37.34749318590536,-1.4381315331010454,0.6266939393794351,0.22007539310213176,-0.2331521071311116,0.7102510359016709
237.0,-0.11279760031471284,-0.014191778127458697,-0.05205861526357201,-5.9615336349331205,0.19232415420928417,7.774841856805664,-0.01198367427222659,-0.1608059598741149,0.1531667977970102,262.7830350118017,-37.44273824744296,-1.4141964988198268,0.6263285841902048,0.22040617464162077,-0.23389448030743504,0.7102314082126279
238.0,-0.11785329324491403,-0.017492778464651013,-0.056766634820726095,-5.922925611629386,0.19606530291109364,7.804564937619422,0.031376154415346,-0.6839096043610207,0.10700054559589375,262.87993676473343,-37.156395765426545,-1.4340567747555355,0.6274529055899182,0.2192102626019164,-0.23184165413202013,0.7102691054429114
239.0,-0.11943913678768124,-0.0246217826233562,-0.05593908058896259,-5.873525158293058,0.19767112509834783,7.84141395976172,-0.035449683413884825,-0.5637855456895583,0.19574247873815143,262.9741251732794,-36.7999536360571,-1.4462389007530627,0.6286404615634484,0.21747361307406993,-0.22938874746618704,0.7105444608560938
240.0,-0.5492105204001348,0.12412498595032034,0.06098954703832753,-6.064405380090667,-0.09352321007081035,7.589249859503204,-0.5327966355700423,15.914979768461277,-21.20519229328238,265.2401802105578,-38.34462178262335,1.4631856243677643,0.6352885540885692,0.22195760302169273,-0.24755297951908875,0.6922980387388258
241.0,0.05480071934359898,0.5199948297178826,0.010460155108463546,-3.7580311715559556,-4.069900865460266,6.166832640215803,9.161247236896333,-7.190612004046308,-39.13621632760106,242.23826477089654,-23.546455265819937,30.779679948297176,0.7508599309805555,0.14693989924334044,-0.3616411594999063,0.35078018114045934
242.0,0.4065585028661347,0.7480579970776666,-0.30371170057322694,-1.0167850586339973,-6.116819040125884,5.778998538833314,7.606169448503241,-3.2736842474991574,1.5812329062230717,159.7136199936308,-6.715571259975271,43.94501306620209,0.8161368085901991,0.05262798029436888,-0.41481260974995315,0.11340439903207071
243.0,-0.34171306807538115,0.5744245438537334,0.06836688396837876,-2.99840020980855,-3.6452297965606375,6.975758870031096,13.379409609044249,-5.916604028511483,29.125965915477128,235.82656806133153,-18.670717657637407,25.95680952849275,0.8441407349978646,0.13842467350355925,-0.2916611659003222,0.2519924561058971
244.0,-0.27544515941703196,0.2503579015398449,-0.02268085684313069,-4.268359746731107,-1.8640470289610727,7.528111723052714,7.98786827722828,-1.4675712904162452,15.076148678393468,270.0406139358773,-26.535085562549174,13.263839227173953,0.8450424488786108,0.1992988559398955,-0.21696999781266157,0.3497121108698157
245.0,-0.19401539844891535,0.1037206174365891,-0.052804138098984696,-5.065442162152036,-0.8915767018845301,7.694040116518677,4.206557746525046,-1.1804170296167247,8.27364221554082,286.5075729529617,-31.62074698634371,6.311615514124612,0.8402462727184912,0.23952233040984794,-0.18165523011197598,0.4017570436881721
246.0,-0.1754523996852872,0.017031583679892076,-0.059547038327526156,-5.543606833764189,-0.28587763665655075,7.81369075718407,1.6581595856281142,0.04684865685062378,5.193534337417107,295.0390651343149,-34.68562670937769,1.966374433329587,0.8324081633644299,0.2616688902746244,-0.16199616125510474,0.44142917207373267
247.0,-0.1609600614439324,-0.02221198156682029,-0.050199692780337965,-5.872726574500767,0.0077496159754224594,7.832826420890935,0.8482142857142857,0.017233102918586797,1.9926075268817207,301.5128168202765,-36.80837173579109,-0.08280529953917048,0.8274919592549924,0.276385048187404,-0.15399976205837176,0.46301480437788023
248.0,-0.12667434715821813,-0.029278033794162835,-0.060092165898617524,-5.949285714285713,0.052096774193548426,7.785875576036865,0.09562211981566818,0.1529377880184332,0.23521505376344087,301.00633640552996,-37.35714285714286,-0.3848406298003072,0.8245803668356375,0.28051373338709684,-0.15508822317204307,0.46612923881720425
249.0,-0.6914474916638567,-0.04947472930950508,-0.10754879922071112,-5.940652841781873,0.030012176389045027,7.790154171818216,0.5871548462028399,-2.331821821962459,-7.357263450226667,301.2350101626016,-37.30129538046532,-0.22027439024390244,0.8255073447064553,0.2797712287205426,-0.1555397314735304,0.46450511934528493
250.0,-0.14809317747555353,0.7549093327338803,-0.2235017421602788,-3.514961597542243,-1.8925553557378887,8.31922071110112,5.858093552133678,-3.415838906372935,-48.76760541942976,187.9077556573377,-21.859653066576747,11.549833042973287,0.8744831055943951,0.19754126537409616,-0.16865733099022145,0.09444225557510025
251.0,0.14965156794425083,0.9788947585328388,-0.23100202315387205,-2.157089093701997,-2.95349349968154,8.636591922370837,6.153413135513844,-0.523323639054363,-3.0863516728485223,122.20462187628789,-13.242182524071785,17.901812642838408,0.8504657571750776,0.17241268955340755,-0.15659372781461917,-0.22744738837604428
252.0,-0.7513954141845566,0.4539251058409202,-0.1531469409164138,-3.3591628264208904,-1.4375340002247947,8.64348413322843,-3.5028825259450747,4.049278080626428,30.534157112884493,206.16063467086283,-20.514836461728674,8.62455743509048,0.9067600635184143,0.20753882111310934,-0.08497969797797011,-0.07999584050522644
253.0,-0.6353092802817429,0.7588220748566933,-0.04359334607170958,-5.7604012588512985,-0.1473043347944999,3.60567681990184,31.07559195983665,42.25249381814095,5.223851204525872,138.1671818215878,-40.1248196957776,-50.96724551346896,0.7526471958660222,0.4149920791191787,0.13634310849125172,-0.12586958449252555
254.0,-0.578180210557866,0.48118129706642687,-0.2638344385748005,-6.165619984264359,-0.3422548424562587,5.009238882020158,-16.668227820239032,-20.47252374395864,16.180493658911242,179.3148704151212,-42.27920764489903,-29.75155647034581,0.823058779215466,0.3927439961622644,0.08168168359495709,-0.08943994540912668
255.0,-0.4420348057397624,0.244630587089281,-0.2228335019294893,-5.756119515941704,-0.20819500955378215,6.639314525495486,-6.2888422127308825,-11.401493246787307,10.8669509385186,269.1956120508786,-37.61351415271065,-14.5721636038365,0.8907638652989771,0.33658216035839794,0.026695208546326465,0.0006968399935933511
256.0,-0.34431617399123293,0.1099305009179124,-0.16504578322280916,-5.583466824023079,0.08983874714323167,7.4368154808737055,-3.1551737945374843,-5.03900027162714,5.259320323329961,313.7237900884193,-35.503161646247804,-8.587997124498894,0.925175334826908,0.310579991538646,0.009063588320782277,0.05574391804979206
257.0,-0.2228168296429508,0.052062118317035694,-0.11769785695552806,-5.525327039076842,0.18466263909182848,7.78388889513319,-1.2800322440148364,-2.932741607658012,1.6523650294106627,333.17005018077253,-34.69113207635532,-5.274975295979918,0.9393627479431269,0.30123334816011016,0.0003236117818740374,0.06662117897778276
258.0,-0.16824142969540293,0.004260799520437595,-0.09168003259525684,-5.4697203926417135,0.21121802292907707,8.094868841557076,-1.7841119782885615,-2.475421139148027,1.1283911243490317,347.21021476106176,-33.99690216271402,-1.8821382324566334,0.9521619566722865,0.2924246587522292,-0.007926446423513546,0.06839098524794875
259.0,-0.14384416095313024,-0.006553707242141547,-0.07193610205687312,-5.528467395376717,0.23560517590198946,8.085677438087744,0.08549183245288672,0.39107213105541194,0.05855531827207672,352.481264810704,-34.32635971629013,-1.6707769004533364,0.9531375103503055,0.2955702777757015,-0.006433734954675734,0.062378667609222206
260.0,-0.13639635082986773,-0.016698512607245888,-0.06048686823273765,-5.633432430407251,0.23449402420291487,8.013640178337269,-0.06961967517140609,0.287140328200517,-0.05340283241542093,353.4452683020494,-35.072460052077474,-1.6757638342512458,0.9517111037619423,0.30183703054587685,-0.0043255508527218905,0.05423719003521786
261.0,-0.12108388595406691,-0.015724401483646174,-0.055641227380015756,-5.690493424749914,0.23122588138323794,7.973742085347122,-0.04155192761605035,0.05091838072758606,0.17036875725900114,354.213782267431,-35.47976377805253,-1.6634773893821888,0.9510263606238059,0.3052227213468959,-0.002662801102244202,0.04780426551796485
262.0,-0.1159565771233749,-0.01302663819264921,-0.05726435877262,-5.713500842980779,0.22785212243827527,7.95818811584429,0.06747639653815893,-0.24003058146940914,0.18117179011651866,354.5065075774606,-35.64152429657936,-1.6370494736053351,0.950749435192312,0.30656084466558015,-0.0021501499232700165,0.045352864180697616
263.0,-0.12214034693342324,-0.01112622232213106,-0.06079884605297667,-5.747043048218499,0.22023251283204087,7.933749203851486,-0.09643653291371625,0.03432898729908959,0.18691366003521787,354.60439146154135,-35.87951790865835,-1.5905581469409165,0.9501602043780303,0.3085479431768761,-0.0023845182627102767,0.04451926028466525
264.0,-0.12787021842568655,-0.010059757970851601,-0.05957554981079766,-5.779663107414483,0.21470319583380174,7.9102978532089425,-0.01046677719081339,-0.07982864074032445,0.174576167996703,354.63217704469673,-36.12252421228129,-1.5601658798846052,0.9495356448449663,0.31051430401116487,-0.0026476450460829496,0.04419596155966432
265.0,-0.12308294930875577,-0.006778221123225059,-0.061531808474766775,-5.813368982053875,0.21193469708890644,7.885798958450416,-0.014904251433067327,-0.10529977333183468,0.19789887040575474,354.6340848741148,-36.368949505451276,-1.5286668493125024,0.9488647384314375,0.3125557287613241,-0.0029720860415495855,0.04418093364296954
266.0,-0.1282236896332097,-0.01533077629163389,-0.06272723951893898,-5.8129315405942075,0.22750007493162494,7.886046982128807,0.13783209930313586,-0.30466133247161964,0.10152755142182758,354.66439852150535,-36.363105892435655,-1.6508424539170505,0.9488808117437244,0.3125493395767956,-0.0019964876213892317,0.0439370374565303
267.0,-0.12847578195473555,-0.023248618087917863,-0.06018464953614443,-5.833048586674276,0.22868221281734274,7.870926303305926,-0.0910864058902021,-0.14955202686442853,0.16519202219561188,354.6547211021505,-36.50092329361236,-1.6636378574382606,0.9484940079559192,0.3137264328137285,-0.0019714863497765026,0.04396072913180114
268.0,-0.13120160065478714,-0.024894470334281518,-0.06286248605839481,-5.845754132046815,0.23178868705383274,7.861471216169093,0.12880155511941507,-0.23871250536769814,0.12637121271070917,354.6720430107527,-36.59474088067715,-1.6922271948481624,0.9482295871916695,0.31453388366492874,-0.0018038841990817994,0.04385915395702962
269.0,-0.136318926287455,-0.03245491565869221,-0.05580144272197775,-5.738230368634774,0.5926301346175461,7.888005193338003,8.302880040232518,-3.1634950775686415,2.854900276094218,354.5793970814132,-35.822140025592034,-4.260692130450195,0.9489135088684921,0.30935733978945357,0.017890815880489828,0.04464412445931358
270.0,-0.12457823247020545,-0.034765232516920444,-0.052808320211921125,-5.17547064513381,2.1974519673874515,7.836726417868201,5.9709890384684075,-1.7665526958662743,4.9521645864762895,352.5039239720644,-31.929360980354975,-15.185672396807995,0.9463554726894197,0.2869937306092346,0.10084814187479561,0.061714662664399615
271.0,-0.12160546317898155,-0.037647593216985575,-0.042183015534103314,-4.852495262551901,3.119598969797396,7.7800931056940055,3.8774323474412555,-1.1716559205048513,2.578569968728446,350.7425807344693,-29.71239643702134,-21.444268364481232,0.9437936687912143,0.27548252433580367,0.14726252509173995,0.07611736134666772
272.0,-0.11096224949094416,-0.03442996463401565,-0.03318710034651521,-4.685945138070233,3.6196269692423098,7.735643267959847,1.6978515276140462,-0.832958853552674,1.012957145536384,350.32477539027616,-28.568316409459506,-24.851805250419748,0.9424178819957487,0.26898045363369405,0.1737317677833744,0.07948395065206482
273.0,-0.1279825313471225,-0.0292787482584932,-0.04062337012824635,-4.360933090415461,3.7416391597899468,7.900784124602579,0.1121753652698888,-2.03191981030972,0.6618060765191297,350.1482982352731,-26.437662987175365,-25.284202747115348,0.9467189842585646,0.2509598545895402,0.18032192716625584,0.0813724482186618
274.0,-0.13065409209445217,-0.030353659843532315,-0.043852391669345916,-4.322924302504196,3.728135248097738,7.955714642946451,-0.7060090915586039,-0.1142941985496374,0.14681125638552497,347.902634140678,-26.169772353802735,-25.10528301718287,0.9463061980970241,0.2515296665766441,0.17448811051477153,0.10004347661701138
275.0,-0.13248914144912535,-0.03750652819999426,-0.04012464788671037,-4.383469360371451,3.6339142015469026,7.969570859613861,-0.5522622489246005,-0.09143558755542544,-0.07304047266171945,346.2727398421905,-26.563070700166328,-24.497958439958424,0.9451861266128726,0.25644461646893424,0.1653554497288695,0.11350505413874376
276.0,-0.12933177109608415,-0.044160330152224474,-0.04104256900462051,-4.460152320310042,3.5537439760637017,7.96519964050246,-0.491549934521958,0.2123902600214514,0.13691932891759523,344.9195054371171,-27.059409506122172,-24.03719636355082,0.943694137670027,0.26192213129469644,0.15753552758779416,0.12465132803354147
277.0,-0.12685754191161033,-0.04222225416981425,-0.03849344740366278,-4.544679209872152,3.5009625054347198,7.942555142269891,-0.3214933742146338,0.22249954910330372,0.12418713345583782,343.9915161172697,-27.60910534689421,-23.78076520436729,0.9421006829217842,0.2674891270453851,0.15214440116885491,0.13218353414040793
278.0,-0.14199891349143906,-0.05581780375407441,-0.042075680941141225,-4.60581072271552,3.4741226630699473,7.920772694915889,-0.18627650706230564,0.2094680791277959,0.08058100108650856,343.34302925143305,-28.016757287100518,-23.674792767224908,0.9407958285036526,0.27159405748443294,0.14889677623108913,0.13744075236652803
279.0,-0.13710314338166424,-0.05849492338241357,-0.03860005245213744,-4.66717725075868,3.444615863024988,7.896779588625379,-0.22736924431456296,0.07711307182196245,0.09250824247873815,342.9846914690345,-28.431136900078677,-23.550208403581728,0.9397627897487539,0.27530804740811515,0.14603093491431562,0.14032576050046836
280.0,-0.14136353077816494,-0.06801536098310293,-0.03831890899554158,-4.70490333820389,3.4192048630624545,7.884626615713161,-0.04713761192911468,-0.15615727211419578,-0.009872944063542013,342.8548014780263,-28.683334972462625,-23.420491691956087,0.9393201935738261,0.27736567528784983,0.14409948767667002,0.141355270099172
281.0,-0.13267485294668613,-0.06440706605222735,-0.03421705818440674,-4.737386384923758,3.3934426773069566,7.876825596643064,0.21961475778352252,-0.1457629678543329,-0.11491151043422876,342.9123757774156,-28.89941518208385,-23.29067499344348,0.9391604256079575,0.2788991553858604,0.14266380986752092,0.14085754023775804
282.0,-0.13918164362519203,-0.07628955453149001,-0.03373847926267283,-4.751205837173579,3.3822722734254986,7.872720430107529,0.10242895545314898,-0.10930059523809524,-0.13957613287250384,343.0368927611367,-28.99345478110599,-23.22938268049155,0.9392338866682024,0.2793966943579109,0.1422838555483871,0.13977189551152072
283.0,-0.12899807987711215,-0.07549961597542243,-0.02800230414746545,-4.793909370199692,3.342865975422428,7.863844086021509,0.15917818740399384,-0.11581461213517664,-0.20680923579109062,343.26963085637476,-29.275633640552996,-23.008844566052225,0.939263101132488,0.281149807719278,0.14046248299193548,0.13782979158640551
284.0,-0.12615423017842373,-0.078068356374808,-0.021369018078695505,-4.818292981212336,3.333629741226516,7.853575062034739,0.29436757798652957,-0.12152070040174878,-0.047869955984875326,343.49401401689704,-29.432797175942337,-22.982200276202292,0.939244949203444,0.2821589120814132,0.14038054063047972,0.13595852204806214
285.0,-0.11801210722139124,-0.07795766363193586,-0.016491747434312348,-4.83388547565731,3.3341089304086946,7.844196756037039,0.3954399603150586,-0.39216586259269187,0.02427447814446241,343.69412910718967,-29.533127541551025,-23.01126204309721,0.9392327712339996,0.2827855870387397,0.14080545373469305,0.13429191405048663
286.0,-0.11617129657648934,-0.0825667453448728,-0.017951017773205034,-4.830385939656987,3.3385617148390567,7.844105327926725,0.19266385168725844,-0.1745412599464527,0.002812934999697394,343.8632895919973,-29.509386140675478,-23.046047852128197,0.9394377723054902,0.28243019853285756,0.141574996176758,0.132822680532418
287.0,-0.13709870512388214,-0.09985480124386498,-0.024167521175389006,-4.838560865373808,3.3398376930570093,7.837636381321275,0.30248111939201633,0.001319039765636923,0.0023905304798794184,343.9712233290247,-29.56251277079857,-23.073067128829077,0.93940893138316,0.28278436225413994,0.14192223689406258,0.13191319604193863
288.0,-0.13272753996593492,-0.08215128695065751,-0.032603729865728306,-4.8605663389849045,3.3260530631183665,7.830441462550038,0.028098278590017386,-0.11114683572394038,-0.07058252853886214,344.1268007006107,-29.716053812434616,-23.008810590144183,0.9393695876646984,0.283751396768199,0.14139453323773793,0.13064866519454843
289.0,-0.13801318796598105,-0.06697650893559629,-0.04299314375632237,-4.882656326102429,3.2772102956052604,7.836535161664981,-0.7313045595893747,0.16828940466824022,-0.6720078865535198,344.30840920160347,-29.86741785620621,-22.67835600014986,0.9397532132793824,0.2842993673062081,0.13898175405829685,0.12920719759132293
290.0,-0.15093027612303772,-0.06169045745756997,-0.06283803529279533,-4.939786070210932,2.67344385748005,8.000974111123599,-3.3451467723202577,-0.15943810647783893,-2.375220111648121,345.6725956314863,-30.25156888089618,-18.433985238469894,0.9455447565846163,0.2807198256712,0.10921828075456148,0.11850575727323817
291.0,-0.1380693866846503,-0.03612453636057098,-0.06169045745756998,-5.072040950133002,2.283197145105092,8.044531115357238,-0.9944410100783035,-0.06223773931287699,-0.9260050204188677,346.63409482597126,-31.155534637143607,-15.806907056685775,0.9476532655189012,0.2839976052706905,0.08998854568412576,0.11071552758233111
292.0,-0.12087482672061743,-0.022482484732681426,-0.05288711550709979,-5.148685324641264,2.117181634258739,8.05266381926492,-0.6476340339440261,-0.23605803454347907,-0.5731039957288973,347.17933128208006,-31.67315410625304,-14.706282080101907,0.9484018592040385,0.28640990743902434,0.0820072895994905,0.1063287532576524
293.0,-0.11182758233112283,-0.020150612566033496,-0.04729609231576189,-5.185878760630924,2.0252613240418107,8.059273537896669,-0.2586288449290023,-0.29036004645760743,-0.28187169832527814,347.4895072309018,-31.931791146828516,-14.089892192124685,0.9488768004199919,0.287480296841632,0.07765033366303248,0.10381080596830392
294.0,-0.11387051815218613,-0.004322355850286615,-0.048483608707054836,-5.189347720205312,1.9914780263009997,8.06959349593496,-0.007033737964107764,-0.19324257240268256,-0.09770709227829605,347.6606416957027,-31.962596006144395,-13.858375482372335,0.9492915901321048,0.2872503394121614,0.0762720944349781,0.10237411069776331
295.0,-0.11302888614139597,0.002759357086658424,-0.0535242591135589,-5.200735229103442,1.989718556816904,8.062101232625231,0.11999316248922856,-0.2757764789629463,0.03498791727548612,347.72649020269006,-32.04172286538533,-13.859567363530777,0.9491845973351318,0.28786128039608855,0.07626939594290211,0.10176991854085647
296.0,-0.10740350680004496,0.005459143531527481,-0.046709415158667736,-5.194941178674459,1.9990803641676966,8.06381694204039,0.005738123337454576,-0.13119567457195308,0.056911739912330006,347.6739994286463,-31.998625004683223,-13.912213854857441,0.9491877858674089,0.2876034369777453,0.07663966059222209,0.10219364712487354
297.0,-0.1069700460829493,0.0046036866359447,-0.046263440860215076,-5.2142864823348685,2.0009170506912444,8.051172043010753,0.10978782642089094,-0.17056931643625192,-0.013263248847926262,347.6594230030722,-32.12980030721966,-13.943164362519202,0.9488391458471582,0.2887359014400922,0.07663988776267279,0.10222418271428568
298.0,-0.1077284946236559,0.0042104454685099844,-0.05293586789554532,-5.185069508448538,2.058227342549923,8.055612903225805,0.28338853686635945,-0.469957277265745,0.14844230030721964,347.7149121543779,-31.923987135176652,-14.325532834101383,0.9489973523821043,0.2874235745910138,0.07999825960714285,0.10183842375729645
299.0,-0.11440821812596005,-0.008001920122887866,-0.04717089093701998,-5.175715437788018,2.0929327956989248,8.052812211981568,0.2868279569892473,-0.20450748847926267,0.005133928571428567,347.7174731182796,-31.86095190092166,-14.557620487711214,0.9489220112987711,0.2871670278187404,0.08187652690975422,0.10183717645890936
300.0,-0.11386405529953916,-0.009533026113671277,-0.047330261136712765,-5.18728149001536,2.116522657450076,8.039360983102915,-0.09256672427035328,-0.0426435291858679,-0.05720286098310292,347.7933923771121,-31.93620391705069,-14.740044162826422,0.9486329311628263,0.2879453875695085,0.08329536429877112,0.10117821273924732
301.0,-0.10676881720430106,-0.007468125960061444,-0.04070775729646699,-5.197009216589861,2.047960829493087,8.049706605222731,-0.16813796082949306,-0.5876008064516128,-0.35420506912442395,348.0303667434716,-32.00260176651305,-14.266373847926268,0.9491339240887096,0.28782670946582184,0.08016465462173578,0.09925335047542241
302.0,-0.099715821812596,-0.0074731182795698915,-0.03718894009216591,-5.151152073732719,2.0463056835637476,8.080261136712746,-0.052707373271889395,-0.38786482334869427,0.1968125960061444,348.2321428571429,-31.686875960061442,-14.204301075268816,0.9500984623502304,0.28499400496159755,0.08075312133640551,0.0976760320814132
303.0,-0.10211531977070923,-0.008696002397811996,-0.04281911505751004,-5.149949608482261,2.0678110599078336,8.076047169457865,-0.03198058334269979,-0.1636436439249185,-0.05120991158068264,348.1410587838597,-31.683344807238395,-14.35005713536398,0.9499086281233377,0.2851338539340976,0.08164834675171405,0.09842513286875729
304.0,-0.13697163837997828,-0.007232025776478971,-0.019631523734592204,-5.143434865685062,2.06226574500768,8.080707916526167,0.2151685024914765,-1.9368045408564685,-0.5856808006444119,348.2040739387809,-31.632883041099994,-14.300988629125921,0.9501109427099022,0.28462395645629607,0.08154322510396762,0.09788629848506988
305.0,-0.11470701734667113,-0.024337979094076662,-0.09801468659847892,-4.813514667865574,1.571559139784946,8.360534449814544,-3.076315518339515,-1.1090992750365292,-0.4284730808137574,349.9790050953505,-29.424520437600684,-10.699121426698138,0.9586806342504961,0.26203365585871635,0.06066054179929564,0.08362450193454724
306.0,-0.14201172679929563,-0.01368588662845154,-0.08949889475853286,-4.880943201828331,1.2957757296466974,8.378005320145366,-1.3883881739163013,1.5145987879809675,-0.5128636525420553,349.35571798546323,-29.871726424637515,-8.808278071259975,0.9587442569639577,0.2641566300222921,0.04446459763927915,0.08896212018770372
307.0,-0.12615563298490126,-0.00783372672436402,-0.06361657487542619,-5.142088344385746,1.3316129032258064,8.2185879135289,0.6211620958375483,0.7757085721778877,0.00458487879809677,348.97002969165635,-31.655237252257315,-9.226047637780525,0.9542823201832078,0.27943893382451007,0.04445097110074557,0.09182809816604848
308.0,-0.11855145929339476,-0.009440860215053764,-0.05489247311827959,-5.299479262672808,1.3825483870967745,8.116657450076804,0.13714477726574506,0.5171274961597542,-0.15608678955453148,349.0972542242704,-32.733563748079874,-9.682354070660523,0.9517073159861746,0.2887192881459293,0.046801897854070657,0.09051416162826421
309.0,-0.1163763440860215,-0.01580337941628264,-0.050460829493087576,-5.41258525345622,1.3821228878648235,8.045663594470042,-0.08242127496159753,0.4478398617511521,-0.17721774193548387,349.5768529185868,-33.51933563748079,-9.759283794162826,0.950210594095238,0.2950821883317972,0.0476015050061444,0.08640293328725038
310.0,-0.12675115207373272,-0.027377880184331807,-0.05135330261136714,-5.498519201228879,1.380064516129032,7.992167434715819,0.03512864823348696,0.11778033794162829,-0.10447388632872504,350.14516129032256,-34.12069892473118,-9.807210061443932,0.9491907914930875,0.2998341824577573,0.048691878794162834,0.08160360088172042
311.0,-0.1200975047768911,-0.032018245850661285,-0.05158519725750253,-5.517594151586677,1.3637025963808027,7.982195047019594,-0.10422649488591659,-0.2853123477951369,-0.18814300700610692,350.61726682214976,-34.24393955359484,-9.693365038777117,0.9492983017610244,0.3006213606944289,0.04896099850914165,0.07762716802094338
312.0,-0.11531065715035033,-0.03365198006818779,-0.0444116462477989,-5.554635017421603,1.3301646622457006,7.961602131804729,-0.139219622250946,0.2737992792514331,-0.09936624236634072,350.9944581038552,-34.50463106712,-9.484033709864748,0.9490159091739068,0.30247171446703014,0.04801833247730508,0.07448382270094786
313.0,-0.10296581244614289,-0.03200340938893262,-0.036943726349705906,-5.626232831291446,1.3007274924131735,7.91550267880559,-0.03515920628676332,0.007842179948297168,-0.11959239537671873,351.18775324547596,-35.016907267430966,-9.331936209771083,0.9479229346232436,0.3064975543060957,0.04673312100074932,0.072761024382732
314.0,-0.10589534861938481,-0.030030122513206713,-0.03630980480311717,-5.660224710576598,1.2832208890637302,7.895186055224606,0.008414060451088378,-0.08850882554044434,-0.07074089814918887,351.30048184547223,-35.25605348010565,-9.247021292289535,0.9474223776687645,0.30838294057470683,0.04597521003186468,0.07189842487953804
315.0,-0.11433014873927541,-0.029114589187366542,-0.04255458768873405,-5.669679330111271,1.2750015735641238,7.888946292757854,0.008871787306582743,-0.12577425443033233,-0.06385134502266682,351.34794757596194,-35.336846689895474,-9.192023996852871,0.9472862732328873,0.3089630668449851,0.04562266407749805,0.07153955158896261
316.0,-0.12434052676932297,-0.028950685624367773,-0.05204047244389496,-5.658347139485219,1.2701129032258067,7.898003437488292,-0.04190065237345922,-0.389618047750178,0.03310678224869806,351.34953437019965,-35.254030150612564,-9.137091856805664,0.9475361055298976,0.30823673738000634,0.04538111535739576,0.07150751603917054
317.0,-0.10948320594957102,-0.02575612566033495,-0.04732344235884756,-5.6290297853208955,1.2713430369787573,7.918295680191823,0.3219495803829006,-0.9922599729309505,0.19347854848076132,351.3487800194822,-35.039447461222885,-9.11971995476003,0.9480980968890635,0.30645230069600243,0.04555546200432731,0.0714963050307969
318.0,-0.10513450226668167,-0.011139372822299654,-0.04709602487729948,-5.5545266943913685,1.3180173092053502,7.9631942602375325,0.18760490427484922,-0.5032386853246412,0.10380371660859465,351.3817808437301,-34.5085471226256,-9.401017899291896,0.949307382581432,0.3022583225325016,0.04839105384500393,0.07130827807047319
319.0,-0.102043666404406,-0.005246262785208499,-0.04550157356412275,-5.521830055074744,1.339327301337529,7.983689221085758,0.15135228166797798,-0.5273800157356412,0.05078432336742723,351.4099577104642,-34.275646636506686,-9.525572875688434,0.949853928340283,0.3003787899173879,0.04967760855900866,0.07111244059756096
320.0,-0.09536093627065304,-0.003547600314712825,-0.04436762391817467,-5.478003933910307,1.3514929189614477,8.01144728560189,0.13220151455546814,-0.4970692368214004,-0.046868853265145546,351.4593553304485,-33.964362460660894,-9.5796875,0.9506376613770653,0.2978267628265146,0.050603540207907166,0.0707694960737608
321.0,-0.10340339440260764,0.0028721291821213126,-0.040489303510546644,-5.42942977033457,1.3647345547188192,8.042943688883891,0.06996740474317185,-0.6719985201004084,0.046872072983402645,351.5490685062381,-33.62428112472369,-9.636232718894007,0.9515112060301225,0.2949950711194785,0.05169144170207186,0.07006178813307853
322.0,-0.09510846352703159,0.00570829118429433,-0.038317035704919275,-5.413640927653516,1.3820171593421005,8.050405754748795,0.23595734517253003,-0.3083389532052002,-0.06077423101419954,351.5561284702709,-33.506992057247764,-9.745953692255815,0.9517315942857144,0.2941385328099359,0.0526863506504065,0.07002195106889962
323.0,-0.10425604136225694,0.00010512906972387622,-0.046023978119965545,-5.404004570829116,1.3942029148402078,8.054559289648196,0.04695683938406203,-0.18608332396688018,-0.11682495972425161,351.64723221310555,-33.43939296017384,-9.818659379566146,0.9519090901043051,0.2935961118251096,0.05359437323157619,0.06920652349039001
324.0,-0.12420433854108129,-0.013491888651605416,-0.05134007717957366,-5.406915739387806,1.383975572290285,8.05540474317186,-0.005760368663594476,-0.1714346596230939,-0.09868588662845154,351.7085197257502,-33.45942405679817,-9.753915645723277,0.9519342483479825,0.2936969898149938,0.05321308137109887,0.06875799773496684
325.0,-0.12297707092278297,-0.01986396163500806,-0.050905286426136176,-5.414010977483045,1.3905566295755125,8.048696077329437,-0.05787625042149039,-0.17188963508298677,-0.11479829343224308,351.79773448915364,-33.50943272076729,-9.803265848038663,0.951833108565022,0.29410370892087223,0.05377671302858642,0.06797989453782174
326.0,-0.12048229740361918,-0.007167191188040918,-0.06022344610542881,-5.279534618410699,1.4023611329661683,8.127841070023603,0.7011236231313925,-3.7151848937844214,-1.1556427025963807,352.30846282454763,-32.589085857592444,-9.78257769472856,0.954218977660897,0.2861071215782848,0.055907088950039346,0.06387050837490166
327.0,-0.5040280405467221,-0.0034654867985289012,0.013085082246171293,-4.658050020126982,1.3603250782207748,8.472469562512577,-1.3027137405540408,-5.984472490073737,-6.187515695615977,348.94983332342235,-28.455952755338224,-9.137054175891533,0.9637702804869905,0.2503994532493916,0.057143163094217145,0.056220544521192795
328.0,-0.2028796116712105,0.6245884931598754,-0.12347013168797433,-2.9060586122140286,-0.9275064317037442,8.790645687554292,-1.906460796928326,0.2161450913686611,-49.39367264235484,206.4086412200829,-17.611819743644535,5.178455918966675,0.8632653944934952,0.20396118215733788,-0.02044458067658573,-0.2679633210579519
329.0,-0.22263069883324482,0.31775303886947354,-0.14995447969135145,-1.7587442943052836,-2.4348559892586383,8.914475282801536,-0.33868353575763266,-0.5933756250473767,-24.457181275937447,150.328579313818,-10.558295419619277,14.473251366249663,0.7330620905319561,0.18922371571134006,-0.05878050033544078,-0.5285649064256125
330.0,-0.01707898228912627,0.5687501753487152,-0.1855031615046619,-1.5798815557547925,-2.7949671651362316,9.020250890248693,0.8745642421058226,3.2838085392428247,14.496260552507465,122.85831807472773,-9.426731955201344,16.767924886273832,0.6634992410255787,0.1820629840540187,-0.04787332051852684,-0.6609080576421458
331.0,-0.5952722849701971,0.4221647920690974,-0.1986814822172442,-3.150458180747278,-1.604235858616222,8.798715044614813,-9.782155142444147,3.813345485761684,31.143362985781287,69.96570108337188,-19.12032314481059,9.773318874143621,0.7983523082755182,0.21370990571982715,-0.004335915863774308,-0.44969485753075045
332.0,-0.4222185380839983,0.3253606084447942,-0.17452793076317857,-4.230294106627702,-1.0927897043947397,8.511294256490952,-4.006286060844479,3.383560938143943,15.801592765351614,35.375838297553486,-25.956660250646284,6.886046560638416,0.8759097564042185,0.24893595904574578,-0.002922554168446293,-0.2756548420308344
333.0,-0.2896470284818591,0.203605535530224,-0.121943796053543,-4.965392114579169,-0.5443952451527515,8.272621639730492,-1.609763993698773,1.7775965659533348,9.39126386561797,77.80378070345112,-30.69971527071663,3.4809965013030264,0.9181927440554478,0.27535649354798636,-0.0005276380875096833,-0.13538110440063852
334.0,-0.19515789661701136,0.1404779766370164,-0.08509913192583861,-5.309246954595791,-0.19666916729182293,8.17621959061194,-0.19579560068588564,-0.3134667595470295,5.16130036973529,221.11371034722964,-32.891114519701354,1.2672464991247812,0.9422589676367307,0.28632843358321736,-0.002859233232058015,-0.03931626787732648
335.0,-0.15255599614189258,0.06944629014396456,-0.05911531454292146,-5.431860286500196,0.026839031186368024,8.151634873003964,-0.08095550673382629,0.04054473439788525,1.6442894205694278,290.47195615868253,-33.650865841460366,-0.20090290429750296,0.9541196723925627,0.2895936726381596,-0.007295517983245812,0.027832369390383305
336.0,-0.1005582798138559,0.0369604160622037,-0.044214376764922944,-5.49250155308862,0.12063177815359764,8.113400235947488,0.5346575918805485,-0.26117959694627485,0.18034422041921633,325.24458409354077,-34.06339702848186,-0.8588555022030768,0.9530759625531993,0.29307504752510427,-0.012499949566629469,0.06204770158543557
337.0,-0.09456333595594019,0.012988299339643272,-0.04764616241168306,-5.542064104876392,0.2254928976146475,8.078008570086771,0.5518647736847103,-0.30474550257773503,0.14923319244445257,341.6907918726197,-34.41463185918431,-1.6031363568243977,0.9506537766536581,0.29606000233612406,-0.01480304400374484,0.08691748475611935
338.0,-0.09267694536874638,0.001285704701436683,-0.04178203523006188,-5.574339486439553,0.2535866588598369,8.054890042196957,-0.07077036027299516,0.2112449388479524,-0.08572929382171326,347.6289746434867,-34.648156050336624,-1.803669150083688,0.9487022994053129,0.2978263449182854,-0.018407142881378014,0.10258212048079965
339.0,-0.1011733421160168,-0.00499462844805278,-0.04241559518799562,-5.60512289222131,0.25020730792454215,8.032940412803548,-0.09111674695677405,0.20378875206606528,0.004562388419404505,346.3783314077649,-34.86891289459996,-1.7817548899419977,0.9470689509852985,0.2994199613838739,-0.022006704278630627,0.11287234569354886
340.0,-0.10573295762965132,-0.001361786439641269,-0.05356329500493592,-5.638559561493157,0.25564525277660877,8.010661559118002,0.11497146934817327,0.01985176172091803,0.07546965138497168,345.3699323132177,-35.10700301381966,-1.831465107130441,0.9454606978717501,0.3012025872085966,-0.02456077647521636,0.1211314772884336
341.0,-0.11333933483370842,-0.0019177146202927033,-0.04867071123181494,-5.6479320230754535,0.27045834629389054,8.003742266577097,0.1801155537142125,-0.16554618837636237,0.019166769044177426,344.8151589182139,-35.172020389679304,-1.940816149159241,0.9447163648272991,0.30173743592058466,-0.025237330336742726,0.12566370906750554
342.0,-0.10224731182795702,0.0018108351129594252,-0.04643287999700275,-5.662713948521972,0.2717498033044846,7.993083436364318,-0.03900261324041812,-0.11816319171256229,-0.04231552770596831,344.55182645835674,-35.28042598628751,-1.9500639260424861,0.9441571706484584,0.3025764614389119,-0.02599351045869395,0.12778362245648342
343.0,-0.09917818740399387,0.002944588063392155,-0.03655284552845529,-5.6916595856281145,0.2519071597167585,7.973044022329622,-0.16707715147427973,-0.020626334719568387,-0.07747976846127907,344.40366860552245,-35.48663196395789,-1.810175012176389,0.9434673478326777,0.3040901331679967,-0.027679521543479073,0.12894535029582999
344.0,-0.10547797010228169,0.002995279307631786,-0.04036270653029113,-5.728654996066091,0.23563099921321792,7.947019276160504,-0.05093922108575926,0.10111132966168371,0.023045338316286385,344.3393391030685,-35.747470003933906,-1.7083275963808027,0.9427025990881199,0.30610759829543666,-0.02901073063414634,0.1294720393749016
345.0,-0.11994984264358774,0.005604642014162078,-0.05502793076317861,-5.748387293469709,0.22720967741935483,7.933958103855234,-0.06593971282454761,-0.05103756884343038,0.005400521243115654,344.3174370574351,-35.87887367230527,-1.6385609264358771,0.9423206792844216,0.3071691286205743,-0.02969658804720693,0.12962484268509045
346.0,-0.1213307200929152,0.008610308718294558,-0.05888608519725751,-5.750631242740999,0.22296543778801842,7.931837154846205,0.005958234985575649,-0.38311047028961076,-0.026006776628826198,344.3069592161215,-35.899986711344646,-1.604515918287063,0.9422615820707823,0.3072977759902027,-0.02997411621599977,0.1296825010243809
347.0,-0.11467745682065114,0.008865638230115021,-0.057241429695402954,-5.744436589112434,0.22577304147465446,7.9366201903263285,0.0615476658798846,-0.20483648514480537,-0.008215081862800197,344.2755310193511,-35.853748395994906,-1.6391027172080475,0.94236553717652,0.30690083133381096,-0.029798273152354726,0.12988452190331948
348.0,-0.1183709864748417,0.0057916900827994465,-0.05902394065415309,-5.748911842943313,0.22783410138248866,7.932898804840587,0.020390768423813266,-0.1580130006369188,-0.009450282866883968,344.2616818403207,-35.88708085122326,-1.6578074069911204,0.9422601530963247,0.30720240428384105,-0.029745816713274142,0.12993535005649845
349.0,-0.12525473005882132,0.002207410737701847,-0.061703158367989216,-5.738948447042074,0.23165898617511538,7.939676782436028,0.054373196957776024,-0.30512766475591024,-0.018813457719830656,344.2725747911281,-35.814045933086064,-1.6601979599865122,0.9424590490021355,0.30664453308920603,-0.029502429850736207,0.12988848025956312
350.0,-0.12461904761904763,0.0003594470046082949,-0.05860906298003074,-5.743128264208909,0.23615207373271907,7.936423195084487,0.08973694316436251,-0.1754320276497696,-0.03309331797235023,344.2926603302611,-35.84423963133641,-1.6848358294930876,0.9423879548433182,0.30693406328264206,-0.029321016870967748,0.12976249547465438
351.0,-0.12956861863549513,0.0010063129893971747,-0.06380183395151925,-5.749840985725525,0.23750590086546047,7.930914943239296,0.033296218762878874,-0.1448133265894871,-0.018781728859915327,344.30277217741934,-35.90880306095687,-1.6996257516578621,0.9422497501723053,0.30741049543510923,-0.02927207123951895,0.1296225778805402
352.0,-0.12059882544677981,0.004357995204376006,-0.058106562137049955,-5.76523904124986,0.23891424075531095,7.920187310329327,0.06816020615563298,-0.19534013103667902,0.00018574847326814116,344.3086693548387,-36.0174055627365,-1.6936384806676408,0.9419692924329266,0.3083209833949738,-0.0293257220310498,0.12944510785156046
353.0,-0.12466634820726089,0.010779804053800905,-0.060734732681428205,-5.770228391592672,0.23729583005507493,7.9165775261324045,0.030526675658461653,-0.2121105897118879,-0.007744827376269155,344.3107862903226,-36.05043665233599,-1.6971972645273685,0.9418911079866247,0.3085807419595837,-0.029415453406653934,0.12940967952255444
354.0,-0.11905091603911429,0.010184256865610131,-0.05721010827619796,-5.7502432280544005,0.2340833988985053,7.93167989209846,0.022723015248585665,-0.4652286819527181,-0.06478471207523134,344.29919354838717,-35.90346933423251,-1.6871318983927166,0.94226828420299,0.3073619653305983,-0.029408290332359227,0.1295910684628901
355.0,-0.11313375295043271,0.009756490952006296,-0.05608969315499607,-5.7446077891424085,0.23510621557828498,7.935697088906373,0.1626671911880409,-0.30760474036191976,-0.0485837922895358,344.33165322580646,-35.86579956726987,-1.6934795436664043,0.9424031593111726,0.30704817782966165,-0.02922618097954366,0.1293864809464988
356.0,-0.1199893784421715,0.011644571203776552,-0.058406766325727784,-5.751355822187255,0.2375806451612905,7.93065342250197,-0.018268095987411484,-0.1375012293469709,-0.02891424075531078,344.3543346774194,-35.9097634736428,-1.7160847757671123,0.9422912534754131,0.3074669506103461,-0.029027927161683703,0.12921071465893
357.0,-0.12037756172492602,0.009383921546588738,-0.05797258439174255,-5.768885092353226,0.2429685099846391,7.917369337979098,0.17199834447941253,-0.12787479862125808,0.006745836611591921,344.37028369815664,-36.037502224532616,-1.7570919270540633,0.9419547884702331,0.308569775179405,-0.02888048074520437,0.129071757438528
358.0,-0.12206584616537411,0.005302995391705069,-0.060696264658499116,-5.778056039488966,0.25955840920160356,7.909725778352254,-0.024024308287437707,-0.1279716243302986,-0.011323924731182797,344.39806535910986,-36.106397404555835,-1.8747300705293917,0.9417897954377128,0.30926692336743655,-0.028046434310151365,0.1288113486505189
359.0,-0.12326974448315914,-0.0012742497471057664,-0.06271083885954068,-5.812686457982091,0.26024694653628555,7.885226087445211,-0.023304320744820348,0.09301040144618035,-0.029710447810123268,344.3879439698775,-36.35689411927241,-1.8890805889625715,0.9411178014625621,0.3113386601027781,-0.028204415033419514,0.12869343077864265
360.0,-0.12913379041624518,-0.0025446779813420254,-0.06483496309617473,-5.833884830092541,0.2644089768086619,7.86919073845117,0.13383490689745606,-0.13995354239256677,-0.03635588775242592,344.39976958525347,-36.50849537297216,-1.9234151961335282,0.9407045116076578,0.31265286096474465,-0.02810233477202053,0.12855620914315688
361.0,-0.12369750103030985,-0.0027436214454310435,-0.060135813570117276,-5.8551328163051215,0.26240118391967315,7.853466336967519,-0.10226527668502491,-0.09323601588550447,-0.02904537109887228,344.40154686973136,-36.6664723127646,-1.9289577947622796,0.9402945788054025,0.3139332259544416,-0.028304316371061407,0.1284346483992732
362.0,-0.12989771833202202,-0.0018646734854445316,-0.06439024390243903,-5.863288749016524,0.2562313139260424,7.84808811959087,-0.05684500393391031,-0.1547993705743509,-0.04981313926042487,344.38812942564914,-36.72398701809599,-1.9032749803304485,0.9401393027852085,0.3143489187332809,-0.028653387977970096,0.12844778708890645
363.0,-0.1221164437450826,-0.00020456333595593977,-0.05987411487018097,-5.864461054287964,0.25926042486231304,7.846184107002356,0.0474036191974823,-0.31525373721479155,0.024341070023603462,344.3973249409913,-36.7345102281668,-1.914929189614477,0.9400983882297403,0.3144455859008655,-0.02857194394964594,0.12851559409913454
364.0,-0.11469708890637292,-0.005649095200629425,-0.05445318646734855,-5.874327301337527,0.264791502753737,7.839315499606608,0.015391424075531079,-0.22118410700236035,-0.052321007081038554,344.4184205350118,-36.80084579071597,-1.9347462627852086,0.9399322833988986,0.3150291894413847,-0.028405742265932336,0.12835530022816682
365.0,-0.12047521636506686,-0.008317859952793077,-0.057765538945712055,-5.872204563335957,0.26743509047993685,7.840692368214007,0.10783831628638867,-0.2087234461054288,-0.050472069236821404,344.4284028324155,-36.79503343823761,-1.935926435877262,0.9399812650338317,0.3149660605287175,-0.028284182077104644,0.12819327717230528
366.0,-0.12794020456333594,-0.007896144767899294,-0.06361132966168373,-5.8647647521636515,0.26724626278520824,7.846254917387881,0.00029504327301337063,-0.2846085759244689,-0.042201022816679784,344.4555468135327,-36.74185680566483,-1.9368607395751378,0.9401485711282453,0.3145296811612903,-0.028151557112509842,0.12805876975452402
367.0,-0.12010542879622342,-0.00961369000786782,-0.05857513768686075,-5.871531077891423,0.2694618410700234,7.840343036978757,0.19692171518489376,-0.2711201809598741,-0.1417928796223446,344.54188630999215,-36.792505900865464,-1.9656077891424075,0.9400993930409125,0.31499456120928393,-0.02779978043351692,0.1273419877332809
368.0,-0.10801622966717286,-0.004710418458273104,-0.04867570856128667,-5.868355058276763,0.268888697784202,7.843313980934256,0.027181604852432623,-0.26084426975646346,-0.019907701773004223,344.63046996505227,-36.76186931641447,-1.9592032916765776,0.9402785416798254,0.31477528123113996,-0.027559005904552354,0.12662309364606703
369.0,-0.10068714521836034,-0.005250379885912244,-0.04258688953597285,-5.882732472752336,0.2642830585695203,7.833038167642952,0.0031085705877688923,-0.23610499614232827,-0.017897773931723343,344.66301724059065,-36.86786026047017,-1.947337727288965,0.9400291685492531,0.3156010381765456,-0.027789374253838504,0.12634559119398245
370.0,-0.10835045695221714,-0.00408830953382945,-0.04636376341472129,-5.841630005062241,0.2725545898669787,7.863040523632646,0.12809711574235022,-0.6285701760806055,0.05556171000502738,344.6596213268256,-36.56683360191093,-2.0053614285540027,0.9408296321427422,0.31318561164206904,-0.027007129494641513,0.12650575306365133
371.0,-0.10541913091513297,-0.007990653586741635,-0.041939552832459,-5.821302020627109,0.28165101641263945,7.878561174483511,0.015892578327508705,-0.344113962941955,-0.0063556516851338285,344.6769044871736,-36.414996265943664,-2.0682049078253884,0.9412443912932438,0.31202438307673874,-0.026352335150939953,0.12646312511325758
372.0,-0.11488698481240521,-0.012334036470790174,-0.05016332480332628,-5.807199397410329,0.2861319598192228,7.888913651757886,0.007442256905689836,-0.32034327179355815,-0.007436898423212077,344.68328591294164,-36.309262245875054,-2.0931246313320493,0.9415362129127511,0.31117374787707897,-0.02604543103917966,0.1264738516574353
