time,linaccel_x,linaccel_y,linaccel_z,gravity_x,gravity_y,gravity_z,gyro_x,gyro_y,gyro_z,euler_x,euler_y,euler_z,quaternion_w,quaternion_y,quaternion_x,quaternion_z
0.0,0.09483333333333334,-0.019000000000000013,-0.06799999999999998,-0.19999999999999982,-0.6899999999999998,-9.76999999999999,0.016666666666666666,0.03333333333333333,0.036458333333333336,206.75,-1.125,175.875,0.03698730000000003,0.23120117000000018,-0.9722289999999991,0.0018310500000000005
1.0,0.09924551971326165,-0.01891397849462367,-0.0678279569892473,-0.1999999999999998,-0.6899999999999997,-9.769999999999989,0.01093189964157706,-0.019802867383512546,-0.003976254480286738,206.74999999999997,-1.125,175.875,0.03698730000000002,0.23120117000000015,-0.9722289999999991,0.0018310500000000005
2.0,0.09834331797235021,-0.021344086021505386,-0.06954531490015359,-0.1999999999999998,-0.6899999999999998,-9.76999999999999,0.008851766513056835,0.005798771121351765,-0.005275537634408602,206.75,-1.125,175.875,0.03698730000000003,0.23120117000000015,-0.9722289999999991,0.0018310500000000005
3.0,0.09691577060931897,-0.021871684587813633,-0.07147670250896057,-0.1999999999999998,-0.6899999999999997,-9.769999999999989,0.00968637992831541,0.017150537634408602,-0.0035730286738351255,206.75,-1.125,175.875,0.03698730000000003,0.23120117000000018,-0.9722289999999991,0.0018310500000000003
4.0,0.09681540460472068,-0.021836378317212843,-0.07037608820502324,-0.19999999999999982,-0.6899999999999997,-9.76999999999999,-0.005360635835849498,0.017288599648590093,-0.017593506735356496,206.75,-1.125,175.875,0.03698730000000002,0.23120117000000018,-0.9722289999999991,0.0018310500000000003
5.0,0.09654497535013046,-0.02161120872497343,-0.06886652109880986,-0.19999999999999982,-0.6899999999999997,-9.76999999999999,-0.00929498387949711,0.00757784468592029,-0.009913611731859458,206.75,-1.125,175.875,0.03698730000000002,0.23120117000000018,-0.9722289999999991,0.0018310500000000003
6.0,0.09764692402608846,-0.02065177154944475,-0.07076000352547153,-0.19999999999999982,-0.6899999999999997,-9.76999999999999,-0.004239930371937247,-0.009441653446148423,0.016401154591926672,206.75,-1.125,175.875,0.03698730000000003,0.23120117000000018,-0.9722289999999991,0.0018310500000000003
7.0,0.09938597340360374,-0.019400015535976253,-0.06896688895063442,-0.19999999999999984,-0.6899999999999998,-9.76999999999999,-0.010985522412139574,-0.008404533666759285,0.023063548865126814,206.75,-1.125,175.875,0.03698730000000003,0.23120117000000018,-0.9722289999999991,0.0018310500000000003
8.0,0.09773220757259332,-0.020508486527022154,-0.06850164472210021,-0.19999999999999982,-0.6899999999999998,-9.76999999999999,0.01813616088100936,0.018629017319625824,-0.04660490369188574,206.74153886832363,-1.125,175.875,0.03698730000000002,0.23115107680063474,-0.9722393287572706,0.001826402554204125
9.0,0.09717080687904497,-0.01997541826905517,-0.06909490553943326,-0.19999999999999982,-0.6899999999999997,-9.76999999999999,-0.015591917683034664,0.07615115849519613,0.05575731342588805,206.7109099128299,-1.125,175.875,0.03698730000000002,0.23110448427440705,-0.9722422941601124,0.0018241537901093469
10.0,0.09619248963730143,-0.017851273386246258,-0.06832058867664417,-0.19999999999999982,-0.6899999999999997,-9.76999999999999,-0.011299396176260855,0.04232267073358432,0.04693272863256327,206.69819689189882,-1.125,175.875,0.03698730000000002,0.23112132778236497,-0.9722356470800558,0.0018276018950546735
11.0,0.09743817148884285,-0.017238786701936813,-0.06818924727327713,-0.19999999999999982,-0.6899999999999997,-9.76999999999999,-0.0019647540549909944,0.01948288040469098,-0.013148687243739514,206.69184038143328,-1.125,175.875,0.036987300000000015,0.23112974953634394,-0.9722323235400275,0.0018293259475273371
12.0,0.09819501543815354,-0.01805445147643337,-0.06896914075160776,-0.19999999999999982,-0.6899999999999997,-9.76999999999999,0.000877458589925112,0.013545700346292284,-0.014967972228382318,206.68866212620048,-1.125,175.875,0.036987300000000015,0.23113396041333342,-0.9722306617700134,0.0018301879737636687
13.0,0.10043013595810374,-0.016547056515583164,-0.06934443288241414,-0.19999999999999982,-0.6899999999999997,-9.76999999999999,-0.016169546749458384,0.019266239914023986,-0.005666164855597822,206.68733740894902,-1.125,175.875,0.036987300000000015,0.2311376312643083,-0.9722295081113416,0.0018307642195629558
14.0,0.10103120042305658,-0.017689053410893718,-0.07001586462189316,-0.19999999999999982,-0.6899999999999997,-9.76999999999999,-0.02264013749338974,0.021285034373347434,-0.002644103648863036,206.6875,-1.125,175.875,0.036987300000000015,0.23114014000000033,-0.9722289999999991,0.0018310500000000003
15.0,0.10059227921734529,-0.016588048651507148,-0.07150995945707737,-0.19999999999999982,-0.6899999999999997,-9.76999999999999,-0.0036775074916270047,0.00620923673541336,-0.014282566543275163,206.6875,-1.125,175.875,0.03698730000000002,0.23114014000000033,-0.9722289999999991,0.0018310500000000003
16.0,0.1044954798418574,-0.02326242099166479,-0.07184909303047854,-0.1999999999999998,-0.6884434203789043,-9.772457757296456,0.028767532925385912,0.06051839120982431,-0.011137866921843653,206.74791986687148,-1.1408730158730158,175.89752944188427,0.03687629490015362,0.2315331635739889,-0.9721304955453147,0.0018615542908346134
17.0,0.11208670547934632,-0.03222203972085415,-0.0692649023604142,-0.20166493236212274,-0.6833112003039163,-9.776390168970801,0.05595749857234649,-0.09628728517842487,0.10550101160995722,206.7562114943098,-1.1584307847315132,175.9507808499744,0.03656749335018086,0.2315414129108238,-0.9721355449006489,0.00204954335249327
18.0,0.11157460772359867,-0.034052522214938416,-0.06857271122570247,-0.2076322613679535,-0.6798558049650663,-9.778356374807974,0.01567369946790291,-0.022955145279482978,-0.22681938666813964,206.62508155360652,-1.2062315213980146,175.97740655401947,0.03645387749434287,0.23046321930231392,-0.9723877888046506,0.0024758338805477113
19.0,0.11447847255561217,-0.03347522990704616,-0.06682205101211088,-0.20897742100655756,-0.6797666121599524,-9.779339477726559,0.023651894683713485,-0.027243040646087333,-0.11190585938377898,206.46274238970648,-1.2301318897312652,175.990719406042,0.03640556939233272,0.22916357384470526,-0.9726864227894217,0.0026574780693061142
20.0,0.11523923627780608,-0.03343385151266287,-0.06913952012971133,-0.20965000082585958,-0.6797220157573953,-9.779831029185853,0.013203635513899754,-0.02423979989293614,-0.06793209635855615,206.38157280775647,-1.2420820738978908,175.99737583205325,0.03638141534132765,0.22851375111590094,-0.9728357397818074,0.0027483001636853157
21.0,0.1151886796080174,-0.03223227414846461,-0.0688595874006904,-0.2099862907355106,-0.6797483606692761,-9.779999999999985,0.0008823697450640018,-0.007037345154764681,-0.03010429283021442,206.33909989594173,-1.2475611342351716,176.0,0.036372807225195314,0.2281765577648116,-0.972913476542209,0.0027927579517863345
22.0,0.11640564746963479,-0.032065321951096695,-0.06922375832053251,-0.21010240655401974,-0.6798975934459803,-9.779999999999985,0.02548454248612895,-0.0027935164899733915,-0.036794905693636526,206.31854838709677,-1.25,176.0,0.036376418760880685,0.22801384429083443,-0.9729506479979513,0.002809588817204302
23.0,0.11473841001233917,-0.030346025030847896,-0.07016129032258063,-0.2100000000000003,-0.6799999999999997,-9.779999999999985,0.019593909747928785,-4.627181385510274e-05,-0.020413581879076326,206.3125,-1.25,176.0,0.03637694999999999,0.22796630999999984,-0.9729614299999993,0.002807620000000001
24.0,0.11320438921205715,-0.03348818967036843,-0.06817882954345142,-0.2100000000000003,-0.6799999999999997,-9.779999999999985,0.008242442270403666,-0.004382601797990481,0.011249008461131676,206.3125,-1.25,176.0,0.03637694999999999,0.22796630999999984,-0.9729614299999993,0.002807620000000001
25.0,0.11409413008989958,-0.03505323462013046,-0.06725876961043539,-0.2100000000000003,-0.6799999999999997,-9.779999999999985,0.009447161995416887,0.011047946412832717,0.004398025735942181,206.3125,-1.25,176.0,0.03637694999999999,0.22796630999999984,-0.9729614299999993,0.002807620000000001
26.0,0.1148924731182796,-0.03354301075268819,-0.06615591397849462,-0.2100000000000003,-0.6799999999999997,-9.779999999999985,0.030141129032258063,-0.008669354838709679,-0.018346774193548385,206.3125,-1.25,176.0,0.03637694999999999,0.22796630999999984,-0.9729614299999993,0.002807620000000001
27.0,0.11486092014806981,-0.03545945707738411,-0.06833985545566718,-0.2100000000000003,-0.6799999999999997,-9.779999999999985,0.022708443504318703,0.007929005817028026,-0.020236206592631763,206.3125,-1.25,176.0,0.03637694999999999,0.22796630999999984,-0.9729614299999993,0.002807620000000001
28.0,0.11444658910629299,-0.0348130618720254,-0.06975594923320994,-0.2100000000000003,-0.6799999999999997,-9.779999999999985,0.014378415300546447,0.0044349330160408955,-0.05010466243610083,206.3125,-1.25,176.0,0.03637694999999999,0.22796630999999984,-0.9729614299999993,0.002807620000000001
29.0,0.11176361713379165,-0.034022122333862176,-0.06847743698219635,-0.2100000000000003,-0.6799999999999997,-9.779999999999985,0.012599153886832363,-0.013222721664022562,-0.030563083906222456,206.3125,-1.25,176.0,0.03637694999999999,0.22796630999999984,-0.9729614299999993,0.002807620000000001
30.0,0.11266261237440509,-0.03469839591045304,-0.06633377401727478,-0.2100000000000003,-0.6799999999999997,-9.779999999999985,0.007718028380045831,0.001446545037898819,-0.024221091133439093,206.3125,-1.25,176.0,0.03637694999999999,0.22796630999999984,-0.9729614299999993,0.002807620000000001
31.0,0.1142859157412304,-0.03451683412656445,-0.06807562136435745,-0.2100000000000003,-0.6799999999999997,-9.779999999999985,0.025808655032610612,-0.004128106821787414,-0.02151969857218403,206.3125,-1.25,176.0,0.03637695,0.22796630999999984,-0.9729614299999993,0.002807620000000001
32.0,0.11337582721604272,-0.034591502418533246,-0.06728028843137428,-0.2100000000000003,-0.6799999999999997,-9.779999999999987,0.031229310262408615,0.005210312676460307,-0.018050741021251423,206.3125,-1.25,176.0,0.03637694999999999,0.22796630999999984,-0.9729614299999993,0.0028076200000000007
33.0,0.1123975910273762,-0.03506994475765372,-0.0693094990543968,-0.2100000000000003,-0.6799999999999997,-9.779999999999985,0.012288042227978501,0.011728140209197897,-0.010991096317077325,206.3125,-1.25,176.0,0.03637694999999999,0.22796630999999984,-0.9729614299999993,0.0028076200000000007
34.0,0.11341213060975722,-0.03501954844087517,-0.06758516553283914,-0.2100000000000003,-0.6799999999999997,-9.779999999999985,0.0043895481719832576,0.003178376908759004,-0.003229055562028879,206.3125,-1.25,176.0,0.03637694999999999,0.22796630999999984,-0.9729614299999993,0.002807620000000001
35.0,0.1134247326766396,-0.03614541673762425,-0.06871590376060253,-0.2100000000000003,-0.6799999999999997,-9.779999999999985,-0.008431217452876692,0.01348765487426316,0.008714002097356793,206.3125,-1.25,176.0,0.03637695,0.22796630999999984,-0.9729614299999993,0.002807620000000001
36.0,0.1121333076392188,-0.037735144469640616,-0.06893313256071727,-0.2100000000000003,-0.6799999999999997,-9.779999999999985,-0.009764921259489641,0.010134890366798424,0.02241292384085185,206.3125,-1.25,176.0,0.03637694999999999,0.22796630999999984,-0.9729614299999993,0.002807620000000001
37.0,0.1105179799048123,-0.03793698219636876,-0.0701981315000881,-0.2100000000000003,-0.6799999999999997,-9.779999999999985,-0.005463379164463246,0.01064527146130795,-0.030859994711792696,206.32466287678477,-1.25,176.0,0.03637695,0.22798076914331025,-0.9729691743892124,0.002807620000000001
38.0,0.11014877489864272,-0.03964322228098009,-0.06809906575004404,-0.2100000000000003,-0.6799999999999997,-9.779999999999985,-0.012308302485457428,-0.010554380398378282,-0.005651771549444736,206.31858143839239,-1.25,176.0,0.03637694999999999,0.22791053570068723,-0.9729968015494455,0.002807620000000001
39.0,0.11181209236735415,-0.03887132028908867,-0.06593283976731887,-0.2100000000000003,-0.6799999999999997,-9.779999999999985,-0.013631456019742638,-0.010554380398378282,0.02183919442975498,206.31554071919618,-1.25,176.0,0.03637694999999999,0.22787541897937574,-0.9730106151295621,0.002807620000000001
40.0,0.10935208088114043,-0.03748269107202767,-0.0659737892564098,-0.2100000000000003,-0.6799999999999997,-9.779999999999985,-0.017931625043357616,-0.023347186446267834,0.0028012394591244326,206.3140203595981,-1.25,176.0,0.03637694999999999,0.22785786061872,-0.9730175219196203,0.002807620000000001
41.0,0.10983195441906485,-0.03841070037472351,-0.06714012043465652,-0.2100000000000003,-0.6799999999999997,-9.779999999999985,-0.015803850156087408,-0.009086227631736067,0.004071990697304152,206.31326017979904,-1.25,176.0,0.03637694999999999,0.2278490814383921,-0.9730209753146495,0.002807620000000001
42.0,0.10993184183142563,-0.03796790967969386,-0.06592595656846523,-0.2100000000000003,-0.6799999999999997,-9.779999999999985,-0.01213249091622456,-0.010013103239453437,0.004944509362401414,206.3125,-1.25,176.0,0.03637695,0.2278442399999997,-0.9730224600000011,0.002807620000000001
43.0,0.1092917185536469,-0.03684985471645544,-0.06523263278802247,-0.2100000000000003,-0.6799999999999997,-9.779999999999985,-0.003119722454410536,-0.01721101795147359,0.0021698353263619975,206.3125,-1.25,176.0,0.03637695,0.2278442399999997,-0.9730224600000011,0.002807620000000001
44.0,0.1093396678096018,-0.03629277335198423,-0.06671681934232895,-0.2100000000000003,-0.6799999999999997,-9.779999999999985,-0.0018449375366051987,-0.01103895503886548,0.0008323595639787789,206.3125,-1.25,176.0,0.03637695,0.2278442399999997,-0.9730224600000011,0.002807620000000001
45.0,0.1117811762565179,-0.0364023700266685,-0.06816278011861504,-0.2100000000000003,-0.6799999999999997,-9.779999999999985,-0.005403478133547136,-0.009805377623491013,0.016789098616536734,206.3125,-1.25,176.0,0.03637694999999999,0.2278442399999997,-0.9730224600000011,0.002807620000000001
46.0,0.11294972791320523,-0.03571731404559232,-0.06824805672597417,-0.2100000000000003,-0.6799999999999997,-9.779999999999985,-0.012698378851719804,0.020819757424813633,-0.0003084076809789435,206.3125,-1.25,176.0,0.03637694999999999,0.2278442399999997,-0.9730224600000011,0.002807620000000001
47.0,0.11264031661008858,-0.03623338621540632,-0.06770755645019132,-0.2100000000000003,-0.6799999999999997,-9.779999999999985,-0.005696692880253379,-0.01595972433087119,-0.008528442594519597,206.3125,-1.25,176.0,0.03637694999999999,0.2278442399999997,-0.9730224600000011,0.002807620000000001
48.0,0.11311814878627113,-0.034375286444561975,-0.06623347150907238,-0.2100000000000003,-0.6799999999999997,-9.779999999999985,-0.012449747815060586,-0.011813812456286998,0.0010239860004662713,206.3125,-1.25,176.0,0.03637695,0.2278442399999997,-0.9730224600000011,0.002807620000000001
49.0,0.11234107231197013,-0.03415850690594385,-0.06711569517180986,-0.2100000000000003,-0.6799999999999997,-9.779999999999985,-0.014273130931463696,-0.0069008795198535235,0.0015710027123385815,206.3125,-1.25,176.0,0.03637694999999999,0.2278442399999997,-0.9730224600000011,0.002807620000000001
50.0,0.1128264501344797,-0.033694844850821394,-0.06564118091923826,-0.2100000000000003,-0.6799999999999997,-9.779999999999985,-0.0166627751431512,0.00046421077770764704,0.0008191035067069252,206.3125,-1.25,176.0,0.03637694999999999,0.2278442399999997,-0.9730224600000011,0.002807620000000001
51.0,0.11281107452960545,-0.033742583715733285,-0.06561091304026428,-0.2100000000000003,-0.6799999999999997,-9.779999999999985,-0.01446378004469388,-0.0048754214928666065,0.007667616269482495,206.3125,-1.25,176.0,0.03637694999999999,0.2278442399999997,-0.9730224600000011,0.002807620000000001
52.0,0.11280750925436281,-0.034131147540983627,-0.06641389035783535,-0.2100000000000003,-0.6799999999999997,-9.779999999999985,-0.001431121099947118,-0.011656090252071215,0.0009210294376872912,206.3125,-1.25,176.0,0.03637694999999999,0.2278442399999997,-0.9730224600000011,0.002807620000000001
53.0,0.11229446500969503,-0.03382971972501324,-0.06605499735589633,-0.2100000000000003,-0.6799999999999997,-9.779999999999985,-0.0014933677066807684,-0.029351753922087078,-0.03142517186673717,206.3125,-1.25,176.0,0.03637694999999999,0.22784318984946206,-0.9730224600000011,0.002807620000000001
54.0,0.11060690992420236,-0.03537722545390447,-0.06797373523708794,-0.2100000000000003,-0.6799999999999997,-9.779999999999985,-0.0257634849286092,-0.01733044685351666,-0.00499349991186321,206.3125,-1.25,176.0,0.03637694999999999,0.22779593462365588,-0.9730319113548399,0.002807620000000001
55.0,0.1128726423409131,-0.03441168693812799,-0.0674706504494976,-0.2100000000000003,-0.6799999999999997,-9.779999999999985,-0.01786753040719196,-0.015128679710911334,0.0006593733474352199,206.3125,-1.25,176.0,0.03637694999999999,0.22785158666666683,-0.9730271856774205,0.002807620000000001
56.0,0.11435201833245198,-0.03349779658029263,-0.06863599506433984,-0.2100000000000003,-0.6799999999999997,-9.779999999999985,-0.01983738762559492,0.0015600211528291903,0.006985942182266877,206.3125,-1.25,176.0,0.03637695,0.22787941268817227,-0.9730248228387108,0.002807620000000001
57.0,0.1140235325224749,-0.03296518596862332,-0.06729843116516834,-0.2100000000000003,-0.6799999999999997,-9.779999999999985,-0.018164992067689054,-0.0015941741582936719,0.007355565838180856,206.3125,-1.25,176.0,0.03637694999999999,0.227893325698925,-0.9730236414193559,0.002807620000000001
58.0,0.11550907808919446,-0.03374872201656973,-0.06768684999118632,-0.2100000000000003,-0.6799999999999997,-9.779999999999985,-0.023565022915564955,-0.009735259122157587,-0.00823417944650097,206.3125,-1.25,176.0,0.03637694999999999,0.22790031502150568,-0.9730230507096785,0.002807620000000001
59.0,0.11530900757976381,-0.03286409307244846,-0.0665616076150185,-0.2100000000000003,-0.6799999999999997,-9.779999999999985,-0.004647012162876784,-0.005312444914507315,-0.010798959985898113,206.3125,-1.25,176.0,0.03637694999999999,0.22790527000000033,-0.9730224600000011,0.002807620000000001
60.0,0.11519548739643928,-0.032984135378106835,-0.06723109465891061,-0.2100000000000003,-0.6799999999999997,-9.779999999999985,-0.004802353252247487,-0.0014002732240437155,-0.017132689934778775,206.3125,-1.25,176.0,0.03637695,0.22790527000000033,-0.9730224600000011,0.002807620000000001
61.0,0.11465573770491805,-0.03282610611669312,-0.0674165344614842,-0.2100000000000003,-0.6799999999999997,-9.779999999999985,-0.002591772430812621,0.010846884364533757,-0.01093171602326811,206.3125,-1.25,176.0,0.03637694999999999,0.22790527000000033,-0.9730224600000011,0.002807620000000001
62.0,0.1147633527234268,-0.03120068746694872,-0.0677405252952582,-0.2100000000000003,-0.6799999999999997,-9.779999999999985,-0.001581504494976203,-0.0025570685704212935,-0.005045831129913626,206.3125,-1.25,176.0,0.03637694999999999,0.22790527000000033,-0.9730224600000011,0.002807620000000001
63.0,0.11476608496386395,-0.031129913625947487,-0.06640789705623125,-0.2100000000000003,-0.6799999999999997,-9.779999999999985,-0.0137779834302838,0.001174422704036665,0.008632998413537811,206.3125,-1.25,176.0,0.03637694999999999,0.22790527000000033,-0.9730224600000011,0.002807620000000001
64.0,0.11365750044068398,-0.03129208531641109,-0.06734461484223513,-0.2100000000000003,-0.6799999999999997,-9.779999999999985,-0.006029658029261414,-0.009972677595628414,-0.008705711263881543,206.3125,-1.25,176.0,0.03637694999999999,0.22790527000000033,-0.9730224600000011,0.002807620000000001
65.0,0.11394667724308129,-0.03321875550854928,-0.0678605676009166,-0.2100000000000003,-0.6799999999999997,-9.779999999999985,0.0012983650625771198,-0.024585757095011457,-0.004518112109994712,206.3125,-1.25,176.0,0.03637695,0.22790527000000033,-0.9730224600000011,0.002807620000000001
66.0,0.11345452141723959,-0.032168517539220884,-0.06888189670368411,-0.2100000000000003,-0.6799999999999997,-9.779999999999985,0.0033541556495681295,-0.004060351665785299,-0.0011165829367177859,206.3125,-1.25,176.0,0.03637694999999999,0.22790527000000033,-0.9730224600000011,0.002807620000000001
67.0,0.11199338974087786,-0.029971355543804,-0.06689256125506786,-0.2100000000000003,-0.6799999999999997,-9.779999999999985,0.022661620835536755,-0.007692138198484046,-0.026381544156530937,206.3125,-1.25,176.0,0.03637694999999999,0.22790527000000033,-0.9730224600000011,0.002807620000000001
68.0,0.11007262471355547,-0.03242058875374583,-0.06573206416358186,-0.2100000000000003,-0.6799999999999997,-9.779999999999985,0.0011744227040366671,0.038392384981491265,0.07901683412656442,206.33100872554203,-1.25,176.0,0.03637694999999999,0.2280581332046538,-0.9729868267900585,0.002807620000000001
69.0,0.11214454433280455,-0.028261766261237452,-0.06703490216816498,-0.2100000000000003,-0.6799999999999997,-9.779999999999985,0.029586418120923677,-0.008430283800458314,0.05336241847347083,206.35401242728716,-1.25,176.0,0.03637694999999999,0.22826522160232693,-0.9729416395240612,0.002807620000000001
70.0,0.11333443077850372,-0.0292986557718224,-0.06704545299466061,-0.2100000000000003,-0.6817481789802289,-9.779167533818924,0.1619034596532528,-0.018692142463167354,-0.11534180725905963,206.34886495453847,-1.25,175.98543184183143,0.03648060227887615,0.22818788338701157,-0.9729525803759744,0.00278018266389178
71.0,0.11866439920901632,-0.029630510681610135,-0.06737846126435539,-0.2100000000000003,-0.683004145813719,-9.778600663990867,-0.013346305247618345,0.02161911054004971,0.040093753308514224,206.34450736206185,-1.25,175.96813834795103,0.03658478678971967,0.22806457984762762,-0.9729675196145107,0.0027638979320482975
72.0,0.12337485781004315,-0.0278195299750374,-0.06707764945819567,-0.2100000000000003,-0.6815020729068594,-9.779300331995426,0.024400849227063377,0.014696112206390093,-0.04472044222464294,206.32850368103095,-1.25,175.9840691739755,0.03654387226582757,0.22795342556897494,-0.9729949898072559,0.002785758966024149
73.0,0.12574612800602633,-0.028230935444067275,-0.0694002736978974,-0.2100000000000003,-0.6807510364534296,-9.779650165997705,-0.017038954903478707,0.010327079547580734,1.6607726035657022e-05,206.31992344284225,-1.25,175.99203458698776,0.03652341500388151,0.22789307145450316,-0.9730098384414392,0.002796689483012075
74.0,0.12196819060724487,-0.03378542956733368,-0.06989351180559109,-0.2100000000000003,-0.6758802008489828,-9.779825082998844,-0.080186360906474,-0.061600681523469425,0.026643427865792716,206.30948045191022,-1.25,175.99913904167286,0.036311981544604646,0.2277683693328708,-0.973034377737889,0.002856012473035691
75.0,0.11912648454979702,-0.037976925220199825,-0.06753985393933534,-0.2100000000000003,-0.6675628891861977,-9.779938556067574,-0.06690497784666256,-0.05412575955363523,0.020933374003519516,206.34276051731825,-1.25,176.03228284029532,0.035931704057942285,0.22805412837091005,-0.9729663359162908,0.0029586813952067093
76.0,0.116665648828918,-0.04121426906171282,-0.06519286603776803,-0.2100000000000003,-0.6633922996878246,-9.779999999999985,-0.03319647253828264,-0.011909909986751049,0.0014965129106179241,206.3594562955255,-1.25,176.04916753381895,0.03573992911550468,0.2281996527159211,-0.9729320191050985,0.003010096045785636
77.0,0.11685741457839344,-0.04370866811097275,-0.06663397929069786,-0.2100000000000003,-0.6613735691987507,-9.779999999999985,-0.02129152024587321,-0.003955351608922854,-0.0003754875954578283,206.36823621227887,-1.25,176.0568418314256,0.03564694810613943,0.22827396184183166,-0.9729142356815812,0.0030348657648283
78.0,0.11339618907899901,-0.048694171030859254,-0.06962474198666005,-0.21208116545265374,-0.6603642039542137,-9.779999999999985,-0.008681118256824914,0.028064814656863578,0.33461053490501125,206.4319393860562,-1.25,176.06067898022894,0.03558622975546305,0.22879634803850163,-0.9728032162695104,0.003076211373569196
79.0,0.11490768014273142,-0.05643360690858625,-0.0682891415142335,-0.20952255616086185,-0.651726755218216,-9.779999999999985,-0.013514520075954845,0.05646867163644428,0.9259474600215206,207.49905888474015,-1.2300759013282732,176.12084914611006,0.035154813249678646,0.2378177342988309,-0.9706085142333354,0.0027081345681581673
80.0,0.09486660438307001,-0.05042170964780994,-0.06798870282022795,-0.19081086883632886,-0.6434608739981309,-9.779999999999985,-0.15772423242090675,0.1560843934360031,-0.49042344987510905,207.95725091564884,-1.118709110991532,176.17400485711858,0.03451718944140167,0.2416775283819624,-0.9697007092952907,0.0017143712417102826
81.0,0.09829425038312832,-0.04053245795195971,-0.07121869158606703,-0.15465763383165412,-0.6361683646627991,-9.779999999999985,-0.05531770027692454,0.04528009994380802,0.9548753351797473,207.14217628871398,-0.904295904469373,176.21795917342732,0.033711983743183724,0.23479023771981797,-0.9713969651315163,0.00023758620736540536
82.0,0.07711569813105193,-0.05212102991274799,-0.0676917662810595,-0.15379425470384556,-0.6332639058337037,-9.779999999999983,-0.004501695949446632,-0.06406199731977838,-0.21923737207168104,208.1134268540344,-0.8969636204374515,176.23377797381045,0.03355372026790525,0.2429849096986187,-0.969376500312302,-6.768774424356446e-05
83.0,0.040373114098793086,-0.05062268189106954,-0.06489419140527922,-0.1353804780283016,-0.639515628381172,-9.779999999999983,0.01237939041331944,-0.08771498472238723,-1.7100373826271438,206.916846692555,-0.7885355736595858,176.20434622053182,0.03362733291640778,0.2328298483695534,-0.9718299083965414,-0.0007082830890832802
84.0,0.010807999174633728,-0.050014851381967415,-0.06531711467797166,-0.1162054192798054,-0.6448550627674356,-9.779999999999983,0.022674514941005072,-0.02697241171603232,-0.7764341324900425,205.49327569447485,-0.6756363826552199,176.1638577639661,0.033673527383251335,0.22073444411124726,-0.974642777957758,-0.0012594610606706715
85.0,0.0024558371735791014,-0.0498642996788158,-0.06464722105851137,-0.10441827258762743,-0.6397554810780619,-9.779999999999985,-0.05625960061443931,0.07833839547549225,0.7882010630498535,205.64663520283477,-0.6088384565703113,176.19956011730204,0.03328097930833683,0.22209865443646137,-0.9743961179288504,-0.0018453322027649768
86.0,-0.009906863771901725,-0.05183155182894272,-0.06391796968054081,-0.09624786322153493,-0.631616427216048,-9.779999999999985,-0.025542255025177225,-0.007261067916902834,-0.820815768572825,205.69135728429933,-0.5586644197635066,176.24793319820597,0.03278499740056022,0.2224830135269536,-0.9743392122139509,-0.0021797476116464185
87.0,-0.011517110143177505,-0.06008795857052497,-0.06470510968316945,-0.09904007460755568,-0.6269556092231614,-9.779999999999985,-0.05210309930423782,0.08021075915703524,1.3303301411290323,206.1692368044175,-0.5766296369170835,176.2744828503249,0.032599898615375766,0.22654378584314444,-0.9733995256832914,-0.0021709732429130014
88.0,-0.009311829753895693,-0.061937918679201884,-0.06282958318958082,-0.09971358569087457,-0.6230550284629981,-9.779999999999985,-0.0560796532689322,0.08590205602035535,0.7239902171920821,206.95540896916867,-0.5996387431897245,176.29576720717614,0.032429993233396584,0.2331486646239182,-0.97184106732796,-0.00220792654081134
89.0,-0.006060044741259162,-0.05670880668983136,-0.06369737768029987,-0.09984923236156626,-0.6210436432637569,-9.779999999999985,-0.05414549739739492,0.04545618834043881,0.19853139691849372,207.2265256591395,-0.5838107970460911,176.30715779713645,0.03233517016508541,0.23539505732259974,-0.971332181119577,-0.0022699386445096136
90.0,-0.0043082048194675975,-0.05594237988450511,-0.06428010497864203,-0.10000281754930704,-0.6202847737335402,-9.779999999999985,-0.041981855374193314,0.046789598915907296,0.0821640760961781,207.3248800094329,-0.5732470407517846,176.31108134236098,0.032301167853803714,0.2361842504354934,-0.9711537164175597,-0.002294460407298796
91.0,-0.003233956932187942,-0.05360955173858398,-0.06440570713827737,-0.10017693059628535,-0.6200830889540566,-9.779999999999985,-0.019481795808538784,0.028103053727403363,0.06443553267174494,207.37607555974492,-0.5686443932411673,176.31207233626589,0.032294007563049884,0.23659676209156072,-0.97106030854322,-0.0023044681068752054
92.0,-0.0022734915679764795,-0.05375917942619295,-0.06236461688386765,-0.10003225806451603,-0.6199999999999999,-9.779999999999985,0.009675922484845483,0.018800170952876467,-0.03710859430487422,207.38609190988223,-0.564900153609831,176.3125,0.03228822342473121,0.2366707588512544,-0.971044882018433,-0.002315394363799285
93.0,-0.00221377733695845,-0.05377981886874604,-0.06328146232876619,-0.09999999999999991,-0.6199999999999999,-9.779999999999985,0.0010026338142542241,0.020185274089165185,-0.02307048127018786,207.37564004096262,-0.5626920122887864,176.3125,0.032287600000000034,0.2365787078853046,-0.9710678086328723,-0.0023190899641577084
94.0,-0.0022211380449554483,-0.05378154017615985,-0.06448011804643386,-0.09999999999999991,-0.6199999999999999,-9.779999999999985,-0.008063876426536564,0.0011516777264120367,-0.01016895964472345,207.375,-0.5625,176.3125,0.032287600000000034,0.23657226999999995,-0.9710693399999999,-0.002319340000000002
95.0,-0.002168892831351677,-0.052233181510607685,-0.06266968321932412,-0.09999999999999991,-0.6199999999999999,-9.779999999999985,-0.018302368178639054,0.003960931236246397,-0.01042919417387398,207.375,-0.5625,176.3125,0.032287600000000034,0.23657226999999995,-0.9710693399999999,-0.002319340000000002
96.0,-0.0019016507167511072,-0.05161121441121781,-0.062294519029016886,-0.09999999999999991,-0.6199999999999999,-9.779999999999985,-0.01081449054093243,0.0072560032525318,-0.012321451925646668,207.375,-0.5625,176.3125,0.032287600000000034,0.23657226999999995,-0.9710693399999999,-0.002319340000000002
97.0,-0.001334437006295214,-0.05261964846553986,-0.06261410952194117,-0.0999999999999999,-0.6199999999999999,-9.779999999999985,-0.01058460887980173,-0.014008740028425806,-0.01028124774073325,207.375,-0.5625,176.3125,0.032287600000000034,0.23657226999999995,-0.9710693399999999,-0.002319340000000002
98.0,-0.0021173525009426934,-0.052031037114484396,-0.06395281657652865,-0.09999999999999991,-0.6199999999999999,-9.779999999999987,-0.013891523308941547,0.004097224066580149,-0.0011811906944844347,207.375,-0.5625,176.3125,0.03228760000000003,0.23657226999999995,-0.9710693399999999,-0.002319340000000002
99.0,-0.0008530332215226765,-0.051209519000769255,-0.06239302520029243,-0.09999999999999991,-0.6199999999999999,-9.779999999999985,0.03089317405116372,-0.08122865848410131,-0.03167720466813405,207.375,-0.5656729243786356,176.3125,0.03229069829719727,0.23657226999999995,-0.9710693399999999,-0.002309527625594925
100.0,0.0009842008226953868,-0.05222594758429086,-0.06281505658040357,-0.09999999999999991,-0.6199999999999999,-9.779999999999985,0.0223609180673587,-0.017628254854601337,0.02248217150693421,207.375,-0.5963445267054468,176.3125,0.03235110037440508,0.23657226999999995,-0.9710693399999999,-0.0022351526084963876
101.0,0.0011112613491231207,-0.054481297430432056,-0.06137527022568566,-0.09999999999999991,-0.6199999999999999,-9.779999999999985,0.02180727685493794,-0.06345067334656737,-0.0741926574159318,207.3385113696457,-0.6116803278688525,176.3125,0.03241385341300898,0.2363150886567952,-0.9711375079534634,-0.0022142424332804523
102.0,6.076359323228949e-05,-0.05472010444956335,-0.06309528034967896,-0.09999999999999991,-0.6199999999999999,-9.779999999999985,0.030614014645645293,-0.008970831204605824,-0.011040103732518288,207.2922395557906,-0.6193482284505551,176.3125,0.03244522993231093,0.2359711477154942,-0.9712294317186668,-0.0022037873456724846
103.0,-0.0010414242904988544,-0.05345372818614491,-0.061806980433632974,-0.09999999999999991,-0.6199999999999999,-9.779999999999985,0.02310726247135554,-0.01613454080733298,-0.006714921558258416,207.26910364886305,-0.6231821787414067,176.3125,0.0324609181919619,0.23579917724484373,-0.9712753936012685,-0.0021985598018685005
104.0,-0.0013862154063105942,-0.05386946941653446,-0.06209192667019212,-0.09999999999999991,-0.6199999999999999,-9.779999999999985,0.018444826370527058,0.003145932487220165,0.004606799753216994,207.25753569539927,-0.625,176.3125,0.03246866549999997,0.23571319200951846,-0.9712983745425694,-0.0021962526666666673
105.0,-0.0022591221575885773,-0.054760444209413006,-0.06082566543275161,-0.09999999999999991,-0.6199999999999999,-9.779999999999985,0.004261413714084258,0.0013793407368235498,-0.014225277630883128,207.25175171866738,-0.625,176.3125,0.03247069999999998,0.23567019939185585,-0.9713098650132197,-0.0021972700000000007
106.0,-0.001824960338445267,-0.05557429931253305,-0.06185122510135729,-0.09999999999999991,-0.6199999999999999,-9.779999999999985,0.017135995064339854,-0.007126961043539574,-0.034049444738233736,207.25,-0.625,176.3125,0.03247069999999998,0.2356567399999997,-0.9713134799999992,-0.0021972700000000007
107.0,-0.001488894764674775,-0.05600766790058172,-0.0627949938304248,-0.09999999999999991,-0.6199999999999999,-9.779999999999985,0.025407632645866388,0.008434139784946237,-0.021536224219989426,207.25,-0.625,176.3125,0.03247069999999998,0.2356567399999997,-0.9713134799999992,-0.0021972700000000007
108.0,-0.0013116516834126564,-0.054087167283624185,-0.06663405605499735,-0.09999999999999991,-0.6199999999999999,-9.779999999999985,0.02107075180680416,-0.0018817204301075268,-0.008046337916446326,207.25,-0.625,176.3125,0.03247069999999998,0.2356567399999997,-0.9713134799999992,-0.0021972700000000007
109.0,-0.0013058346553851577,-0.054430107526881724,-0.0641255067865327,-0.09999999999999991,-0.6199999999999999,-9.779999999999985,0.02509034020800282,-0.004911422527763089,-0.02433677066807686,207.25,-0.625,176.3125,0.03247069999999998,0.2356567399999997,-0.9713134799999992,-0.0021972700000000007
110.0,-0.001705270579940067,-0.05415582584170633,-0.06392949056936365,-0.09999999999999991,-0.6199999999999999,-9.779999999999985,0.002117486338797816,-0.027855631940772077,-0.0407742816851754,207.25,-0.625,176.3125,0.03247069999999998,0.2356567399999997,-0.9713134799999992,-0.0021972700000000007
111.0,-0.0023544861625242374,-0.05510541159880134,-0.06293513132381455,-0.09999999999999991,-0.6199999999999999,-9.779999999999985,0.016444121276220695,-0.030552617662612372,-0.03268222280980081,207.25,-0.625,176.3125,0.03247069999999998,0.2356567399999997,-0.9713134799999992,-0.0021972700000000007
112.0,-0.0012447558610964213,-0.05468614489687995,-0.06329922439626298,-0.09999999999999991,-0.6199999999999999,-9.779999999999985,0.020579940066983958,-0.029113784593689407,0.019796073506081438,207.25,-0.625,176.3125,0.03247069999999998,0.2356567399999997,-0.9713134799999992,-0.0021972700000000007
113.0,-0.0014637757800105762,-0.055404900405429225,-0.06372219284329278,-0.09999999999999991,-0.6199999999999999,-9.779999999999985,0.022924378635642517,-0.04284990304953287,0.01734091309712674,207.25,-0.625,176.3125,0.03247069999999998,0.2356567399999997,-0.9713134799999992,-0.0021972700000000007
114.0,-0.000960474915132802,-0.05620537577546157,-0.06266712156621915,-0.09999999999999991,-0.6199999999999999,-9.779999999999985,-0.013974514252571603,0.0021038393522230386,0.028028920239049713,207.25,-0.625,176.3125,0.03247069999999998,0.2356567399999997,-0.9713134799999992,-0.0021972700000000007
115.0,-0.0002709051161453971,-0.05496377833400169,-0.06354985742464977,-0.09999999999999992,-0.6199999999999999,-9.779999999999987,-0.01704493443808388,0.014967075319704275,0.019297345598466138,207.25,-0.625,176.3125,0.03247069999999998,0.2356567399999997,-0.9713134799999992,-0.0021972700000000007
116.0,0.0005890318417157732,-0.053822449716974405,-0.06487381818879237,-0.09999999999999991,-0.6199999999999999,-9.779999999999985,-0.010075878112748973,0.02281933882325774,0.04549280288913259,207.25,-0.625,176.3125,0.03247069999999998,0.2356567399999997,-0.9713134799999992,-0.0021972700000000007
117.0,3.9139576771865016e-05,-0.05390584851440118,-0.06263583382557897,-0.09999999999999991,-0.6199999999999999,-9.779999999999985,-0.008129336905836853,-0.006987508007725969,0.03129814875639425,207.25,-0.625,176.3125,0.03247069999999998,0.2356567399999997,-0.9713134799999992,-0.0021972700000000007
118.0,-0.0012438710718291213,-0.05495292425720058,-0.06348458357945613,-0.09999999999999991,-0.6199999999999999,-9.779999999999985,-0.009306603936789393,-0.0052914690576264245,0.005198805560992828,207.25,-0.625,176.3125,0.03247069999999998,0.2356567399999997,-0.9713134799999992,-0.0021972700000000007
119.0,-0.0023345612729939917,-0.05442911561455241,-0.06403885786673119,-0.09999999999999991,-0.6199999999999999,-9.779999999999985,0.0009658447537697146,-0.011979544795896111,-0.011964419626718296,207.25,-0.625,176.3125,0.03247069999999998,0.2356567399999997,-0.9713134799999992,-0.0021972700000000007
120.0,-0.0021189846641988365,-0.05542323285739467,-0.06392684646571478,-0.09999999999999991,-0.6199999999999999,-9.779999999999985,-0.004568790763264587,-0.002098757271285034,0.012160673365062578,207.25,-0.625,176.3125,0.03247069999999998,0.2356567399999997,-0.9713134799999992,-0.0021972700000000007
121.0,-0.00228494623655914,-0.0550752688172043,-0.06238172043010751,-0.09999999999999991,-0.6199999999999999,-9.779999999999985,0.0031249999999999997,-0.005275537634408602,-0.027284946236559138,207.25,-0.625,176.3125,0.03247069999999998,0.2356567399999997,-0.9713134799999992,-0.0021972700000000007
122.0,-0.0029958575709501147,-0.05551912568306011,-0.06245196545037898,-0.09999999999999991,-0.6199999999999999,-9.779999999999985,0.0074635334038427635,-0.0020497311827956987,-0.0028396571478935314,207.25,-0.625,176.3125,0.03247069999999998,0.2356567399999997,-0.9713134799999992,-0.0021972700000000007
123.0,-0.0019737352370879607,-0.05636171337916446,-0.06339264939185615,-0.09999999999999991,-0.6199999999999999,-9.779999999999985,0.004958245196545037,0.0012096774193548388,0.002662832716375815,207.25,-0.625,176.3125,0.03247069999999998,0.2356567399999997,-0.9713134799999992,-0.0021972700000000007
124.0,-0.0017072977260708618,-0.05535289970033491,-0.061881808566895805,-0.09999999999999991,-0.6199999999999999,-9.779999999999985,-0.007349506433985544,0.0030241935483870967,0.013058566895822316,207.25,-0.625,176.3125,0.03247069999999998,0.2356567399999997,-0.9713134799999992,-0.0021972700000000007
125.0,-0.0019423585404547857,-0.0540366649039309,-0.06225542041248015,-0.09999999999999991,-0.6199999999999999,-9.779999999999985,0.006170676890534108,-0.016364247311827958,0.014560197426405781,207.25,-0.625,176.3125,0.03247069999999998,0.2356567399999997,-0.9713134799999992,-0.0021972700000000007
126.0,-0.0016950467124977964,-0.053635289970033494,-0.06187308302485456,-0.09999999999999991,-0.6199999999999999,-9.779999999999985,-0.010303190551736294,0.0019830777366472777,0.0019423144720606376,207.25,-0.625,176.3125,0.03247069999999998,0.2356567399999997,-0.9713134799999992,-0.0021972700000000007
127.0,-0.001804688877137317,-0.053837740172748096,-0.06292755156002115,-0.09999999999999991,-0.6199999999999999,-9.779999999999985,0.0004836506257711974,0.004693283976731888,-0.005192909395381633,207.25,-0.625,176.3125,0.03247069999999998,0.2356567399999997,-0.9713134799999992,-0.0021972700000000007
128.0,-0.002176537986955755,-0.052577472236911685,-0.06380248545742992,-0.09999999999999991,-0.6199999999999999,-9.779999999999985,-0.0024799488806627884,-0.02137647629120395,-0.04680008372994888,207.25,-0.625,176.3125,0.03247069999999998,0.2356567399999997,-0.9713134799999992,-0.0021972700000000007
129.0,-0.0033006345848757275,-0.05371346730125154,-0.06412973735237086,-0.09999999999999991,-0.6199999999999999,-9.779999999999985,-0.008464436805922793,-0.005379098360655738,0.007429931253305131,207.25,-0.625,176.3125,0.03247069999999998,0.2356567399999997,-0.9713134799999992,-0.0021972700000000007
130.0,-0.0039379517010400145,-0.05361748633879781,-0.062021857923497244,-0.09999999999999991,-0.6199999999999999,-9.779999999999985,-0.006147540983606556,0.02582187555085493,0.008822492508372994,207.25,-0.625,176.3125,0.03247069999999998,0.2356567399999997,-0.9713134799999992,-0.0021972700000000007
131.0,-0.0032559828091292924,-0.052738964015008424,-0.06459184273039376,-0.0999999999999999,-0.6199999999999999,-9.779999999999985,-0.010341120848127721,-0.0048121637161827515,-0.011263461845164647,207.25,-0.625,176.3125,0.03247069999999998,0.2356567399999997,-0.9713134799999992,-0.0021972700000000007
132.0,-0.0023704557091653866,-0.053453917050691226,-0.063694828469022,-0.0999999999999999,-0.6199999999999999,-9.779999999999985,0.017228302611367124,0.009306195596518178,-0.002224142345110087,207.25,-0.625,176.3125,0.03247069999999998,0.2356567399999997,-0.9713134799999992,-0.0021972700000000007
133.0,-0.0026072708653353815,-0.05514362519201227,-0.06426676907322068,-0.0999999999999999,-0.6199999999999999,-9.779999999999985,-0.009043778801843318,0.011306323604710702,0.0040290578597030205,207.25,-0.625,176.3125,0.03247069999999998,0.2356567399999997,-0.9713134799999992,-0.0021972700000000007
134.0,-0.0025656888492476427,-0.05615670680342896,-0.06497712369720693,-0.09999999999999991,-0.6199999999999999,-9.779999999999985,-0.009489587978791934,0.004444568323340436,0.019250264274978116,207.25,-0.625,176.3125,0.03247069999999998,0.2356567399999997,-0.9713134799999992,-0.0021972700000000007
135.0,-0.0026726293708603808,-0.055172439423219866,-0.06506920700989377,-0.09999999999999991,-0.6199999999999999,-9.779999999999985,0.002294856548238442,-0.000801909386716879,-0.006134276464661479,207.25,-0.625,176.3125,0.03247069999999998,0.2356567399999997,-0.9713134799999992,-0.0021972700000000007
136.0,-0.004002914200258156,-0.05526305988183984,-0.06419879394756144,-0.09999999999999991,-0.6199999999999999,-9.779999999999985,-0.011304253879440247,0.008075391071459033,-0.0015134650267537792,207.25,-0.625,176.3125,0.03247069999999998,0.2356567399999997,-0.9713134799999992,-0.0021972700000000007
137.0,-0.0036976936592688628,-0.05445679875812421,-0.06317197761894199,-0.09999999999999991,-0.6199999999999999,-9.779999999999985,-0.005282503283806144,-0.0006330033890016664,0.027099450282322034,207.25,-0.625,176.3125,0.03247069999999998,0.2356567399999997,-0.9713134799999992,-0.0021972700000000007
138.0,-0.0030934704855484097,-0.05435743163712662,-0.06262631139011615,-0.09999999999999991,-0.6199999999999999,-9.779999999999985,-0.01660294519029017,0.004337396154961532,0.021496633743311556,207.25,-0.625,176.3125,0.03247069999999998,0.2356567399999997,-0.9713134799999992,-0.0021972700000000007
139.0,-0.0025040713509948084,-0.055061129970488384,-0.06346976339537025,-0.09999999999999991,-0.6199999999999999,-9.779999999999985,-0.018024417444260588,0.013127334914109275,0.01434157909850281,207.25,-0.625,176.3125,0.03247069999999998,0.2356567399999997,-0.9713134799999992,-0.0021972700000000007
140.0,-0.0024310497086667136,-0.053075717163119165,-0.0640161829552029,-0.09999999999999992,-0.6199999999999999,-9.779999999999987,-0.00212291356995242,-0.0048508122221872065,0.01531247671892518,207.25,-0.625,176.3125,0.03247069999999998,0.2356567399999997,-0.9713134799999992,-0.0021972700000000007
141.0,-0.0033785722264355047,-0.052868439772600334,-0.06353425104499197,-0.09999999999999991,-0.6199999999999999,-9.779999999999985,0.009740986025620676,-0.012558826728278571,-0.006424679741559229,207.25,-0.625,176.3125,0.03247069999999998,0.2356567399999997,-0.9713134799999992,-0.0021972700000000007
142.0,-0.0023970245232300914,-0.05205197063546285,-0.0630859603541547,-0.09999999999999991,-0.6199999999999999,-9.779999999999985,-0.012085372490450724,0.0012584854548277511,0.014951550487055746,207.25,-0.625,176.3125,0.03247069999999998,0.2356567399999997,-0.9713134799999992,-0.0021972700000000007
143.0,-0.002323642334455837,-0.05228803873431137,-0.06367244601127783,-0.09999999999999991,-0.6199999999999999,-9.779999999999985,0.004296478687136761,-0.012529251029089767,-0.013587895412039246,207.25,-0.625,176.3125,0.03247069999999998,0.2356567399999997,-0.9713134799999992,-0.0021972700000000007
144.0,-0.0028510337929649973,-0.052426711007807776,-0.0626261987253753,-0.09999999999999991,-0.6199999999999999,-9.779999999999985,0.00944640965227459,0.013286406396658726,0.003291033216630394,207.25,-0.625,176.3125,0.03247069999999998,0.2356567399999997,-0.9713134799999992,-0.0021972700000000007
145.0,-0.0028496102079459576,-0.053516800009097976,-0.06425004122527195,-0.09999999999999991,-0.6199999999999999,-9.779999999999985,-0.004638696030432781,-0.010739929661156696,0.020761153568402673,207.25,-0.625,176.3125,0.03247069999999998,0.2356567399999997,-0.9713134799999992,-0.0021972700000000007
146.0,-0.0031859913682809916,-0.05287962789216605,-0.06382377191336439,-0.09999999999999991,-0.6199999999999999,-9.779999999999985,-0.020334436464748126,0.001182454524260362,0.01758336034299426,207.25,-0.625,176.3125,0.03247069999999998,0.2356567399999997,-0.9713134799999992,-0.0021972700000000007
147.0,-0.002669145869227751,-0.05361855535274615,-0.06491558770179061,-0.09999999999999991,-0.6199999999999999,-9.779999999999985,-0.036608254721004416,-0.013389470781233117,0.025119020203226376,207.25,-0.625,176.3125,0.03247069999999998,0.2356567399999997,-0.9713134799999992,-0.0021972700000000007
148.0,-0.00840550314733628,-0.053798325969646815,-0.06382854835866555,-0.1003384452670544,-0.6203384452670545,-9.779999999999985,0.057537134729874956,-0.06075679292972371,0.013738695035340007,207.27168164992065,-0.625,176.31091353781068,0.03247844658910627,0.235852981819143,-0.9712587382548912,-0.0021962370650449505
149.0,-0.00890705264893696,-0.055243249006328786,-0.06527448923309621,-0.10315309360126917,-0.6253305129561081,-9.779999999999985,0.016957411450958984,-0.05368148786271132,0.3422356109585302,207.3293892120571,-0.625,176.2794487043892,0.03263897514939182,0.23642181768376505,-0.9711049714661553,-0.002201182484135379
150.0,-0.004162051670090599,-0.05205749239870971,-0.06434551394578518,-0.10673783712321529,-0.6278265468006348,-9.779999999999985,0.04921491284273499,-0.09489869964052103,0.16027231136764197,207.70444114980734,-0.625,176.26371628767848,0.032695847467169026,0.23962800715729476,-0.9703091672384535,-0.002261728894397439
151.0,-0.0019405471669911895,-0.049993366386659736,-0.06353331888756479,-0.10853020888418835,-0.629074563722898,-9.779999999999985,0.030883470989525666,-0.07574019269226884,0.011246327379970833,207.83205928458108,-0.625,176.25585007932312,0.03274078599164902,0.24072956841735718,-0.970023772651484,-0.002324002673005172
152.0,-0.003389628422205272,-0.04992793649845942,-0.06624048281765865,-0.10942639476467488,-0.6296985721840298,-9.779999999999985,0.004121666748067963,-0.06493910745136974,0.3689230050437665,208.1343665010954,-0.6308170280274986,176.25191697514543,0.032745696374988975,0.24332333362697564,-0.9693894363944879,-0.0022854233909711218
153.0,-0.001558731009974485,-0.04904029470789356,-0.0654838937973363,-0.10986391129032269,-0.6300000000000001,-9.779999999999985,0.024412322885756173,-0.03076741200172929,0.20379981558375526,208.33666698931026,-0.6279085140137493,176.25,0.032702464493681686,0.24505975974051042,-0.9689670785541973,-0.002272878329541616
154.0,0.00046927112906881233,-0.05017580243062578,-0.06373604724240162,-0.1100000000000001,-0.6300000000000001,-9.779999999999985,0.022087207764268885,-0.04058712639681917,0.07395865233841387,208.43635264788094,-0.6264542570068747,176.25,0.03267595307597391,0.2459132629549325,-0.9687598495064326,-0.002266435114871615
155.0,0.0012259144902566198,-0.049021056163035995,-0.0622279331070208,-0.11000000000000011,-0.6300000000000001,-9.779999999999985,0.004576609349323053,-0.017108843247300453,0.036258763924190994,208.47537678476994,-0.6257271285034374,176.25,0.032663428365943936,0.2462487092014804,-0.9686787012585919,-0.002261398704389213
156.0,0.0015410802727122814,-0.047088017377162894,-0.06267735680615025,-0.1100000000000001,-0.6300000000000001,-9.779999999999985,-0.0015922905898341322,0.014005219972364853,0.020804404564917008,208.49676097303012,-0.6253635642517186,176.25,0.03265665031200422,0.24643210524590134,-0.9686346112744566,-0.002257880481226865
157.0,0.0009332406475495129,-0.04888809471008682,-0.06317439142969243,-0.1100000000000001,-0.6300000000000001,-9.779999999999985,-0.0009536898039951554,0.02614151356453603,-0.024623357386147172,208.5,-0.625,176.25,0.03265380999999999,0.2464599599999997,-0.9686279299999986,-0.0022583000000000013
158.0,0.0008133945173231436,-0.04895480004321545,-0.06589902367183545,-0.1100000000000001,-0.6300000000000001,-9.779999999999985,-0.007163672858986825,0.031350326674741136,-0.011303614176944553,208.5,-0.625,176.25,0.03265380999999999,0.2464599599999997,-0.9686279299999986,-0.0022583000000000013
159.0,0.0006220637655447705,-0.04845464367149428,-0.06491305732302985,-0.11000000000000011,-0.6300000000000001,-9.779999999999985,-0.017927164895401533,0.013883463264018014,-0.008748500253037875,208.5,-0.625,176.25,0.03265380999999999,0.24645995999999967,-0.9686279299999986,-0.0022583000000000013
160.0,0.0006239004224879593,-0.04994931281736352,-0.06493814503334981,-0.1100000000000001,-0.6300000000000001,-9.779999999999985,-0.020091313977357375,0.02250061127127366,0.018238913244969096,208.5,-0.625,176.25,0.03265380999999999,0.2464599599999997,-0.9686279299999986,-0.0022583000000000013
161.0,0.001382812189033509,-0.049712890147444316,-0.06368800429880075,-0.1100000000000001,-0.6300000000000001,-9.779999999999985,-0.0041129494265422515,-0.009522433655743394,0.024967552867857366,208.5,-0.625,176.25,0.03265380999999999,0.2464599599999997,-0.9686279299999986,-0.0022583000000000013
162.0,0.0011188254493554642,-0.0478671977618942,-0.0627284107515509,-0.1100000000000001,-0.6300000000000001,-9.779999999999985,-0.0004267704121958566,-0.009095894247226535,-0.011508159049942285,208.5,-0.625,176.25,0.03265380999999999,0.2464599599999997,-0.9686279299999986,-0.0022583000000000013
163.0,0.0019638525443100596,-0.047035055696763965,-0.06106061536536962,-0.11000000000000011,-0.6300000000000001,-9.779999999999985,-0.011474983367735113,0.0032054781278608906,0.0046013445124898356,208.5,-0.625,176.25,0.03265380999999999,0.24645995999999967,-0.9686279299999986,-0.0022583000000000013
164.0,0.0018343369554710198,-0.04614014317963415,-0.06287647486964285,-0.1100000000000001,-0.6300000000000001,-9.779999999999985,-0.006373764663402762,-0.0010041374535860307,-0.019090890352149115,208.5,-0.625,176.25,0.03265380999999999,0.2464599599999997,-0.9686279299999986,-0.0022583000000000013
165.0,0.0021967383702086282,-0.04460770599841923,-0.06402694711224077,-0.1100000000000001,-0.6300000000000001,-9.779999999999985,-0.018963092009120736,-0.005828009587008068,0.0005015978346781299,208.5,-0.625,176.25,0.03265380999999999,0.2464599599999997,-0.9686279299999986,-0.0022583000000000013
166.0,0.0021639429555961173,-0.044945312544423785,-0.06332759306960531,-0.1100000000000001,-0.6300000000000001,-9.779999999999985,-0.014422714698373165,-0.007574237474625134,-0.003946715625231004,208.5,-0.625,176.25,0.03265380999999999,0.2464599599999997,-0.9686279299999986,-0.0022583000000000013
167.0,0.0020838664187464106,-0.04465769945923816,-0.06264956244349293,-0.1100000000000001,-0.6300000000000001,-9.779999999999985,-0.022068741008626033,0.021713883818654293,0.006731802596339195,208.5,-0.625,176.25,0.03265380999999999,0.2464599599999997,-0.9686279299999986,-0.0022583000000000013
168.0,-0.018276485104882778,-0.04287255420412481,-0.05568482284505552,-0.10645161290322588,-0.6381451612903228,-9.779999999999985,0.18135962013044243,0.13156453816322933,0.5988068482284505,208.61239919354836,-0.6048387096774193,176.2016129032258,0.033052999032258064,0.2473321726612901,-0.9683783747580639,-0.002581195887096775
169.0,0.005548404855679303,-0.03549565761883339,-0.058691552812352825,-0.09859653346172365,-0.6633455705344251,-9.779999999999985,0.20963493364089125,0.095235557077121,2.054529005882802,209.95292564395766,-0.5653285989407799,176.06210881078476,0.03418354144439096,0.25858237442886367,-0.9653040519071977,-0.0037113314197159365
170.0,0.05465958854709673,-0.030734143569925012,-0.06544035118623504,-0.11446444463897525,-0.6548057275937035,-9.779999999999985,-0.14981046573087403,0.3126761240908577,6.966322420829964,213.89557328141183,-0.6626129798222962,176.11059985993785,0.033936072007630484,0.2914280668429753,-0.9550887761735402,-0.003953741614061292
171.0,0.06107151200770707,-0.010991391317111696,-0.06837046955522905,-0.07838022990962046,-0.6487785753718046,-9.779999999999985,0.2369133271868229,0.03221489347604446,-3.0039147609042693,217.09010163121826,-0.4526300193229128,176.1409261159272,0.03296648551994427,0.31771840029055776,-0.9462087999178896,-0.0066064513193646104
172.0,0.013556506297862075,0.010165488110594173,-0.0697770009599235,-0.02331866574922524,-0.684454285278584,-9.777688974482412,0.21473064798136066,-0.1411614704423372,-4.1921426748947805,213.22884956380364,-0.13871871693155746,175.9306580507416,0.0341520391802899,0.28560001007305935,-0.9563872613287088,-0.00889014629039969
173.0,-0.020274700329643833,0.03324927029506597,-0.0720750225069237,0.006797425671367173,-0.7199865687948044,-9.773683196918622,0.2982828225613351,-0.21494836280903573,-0.1849827218058404,209.8710230437428,0.038791294519295874,175.7264102121787,0.03571313549860667,0.25747649701869296,-0.964423381709093,-0.009910940313629374
174.0,-0.019754275941764467,0.04097861964750969,-0.07333432582783245,-0.002120724317779072,-0.741175277656911,-9.771680308136725,0.19277162778399895,-0.17290810051862474,-0.22588202982677125,210.0627795456961,-0.013176436390778389,175.60622388317168,0.036914081454166095,0.2592102620160324,-0.9644926363603155,-0.009650729848522646
175.0,-0.024144977658076768,0.04612127463313901,-0.07137732909182434,-0.004129765873454544,-0.752430258574301,-9.770678863745777,0.13661675230842177,-0.1296786348145421,-0.2759664303581558,210.00644781292624,-0.026657866289230836,175.54243562193773,0.03753995257703415,0.2588017323301079,-0.9649153171097757,-0.00954696631233562
176.0,-0.025781477627471395,0.047421291047364623,-0.07283647320111201,-0.006509854473729171,-0.7581126624939816,-9.770178141550304,0.05700781990153292,-0.07136113138780603,0.07410676844704676,209.94005680494507,-0.04148061720533648,175.51035146846414,0.03787932100625899,0.25828910851087916,-0.9652445430591566,-0.009415975025238024
177.0,-0.024834247078861685,0.047501690299801724,-0.07260809376633998,-0.008856756798732667,-0.7597448242657678,-9.76999999999999,0.02766034551488137,-0.03025306609512272,0.12487736913766237,210.07743993352693,-0.05542073710531629,175.50135411651422,0.037996806880115516,0.25944728275568013,-0.9649523294857645,-0.009320562502989745
178.0,-0.023681928546652804,0.04775164758931669,-0.07236455081512314,-0.010114464099895946,-0.7599999999999999,-9.76999999999999,0.0033753902185223728,-0.023098768643773845,0.0010600936524453688,210.19062174817896,-0.06305280957336108,175.5,0.03802489999999996,0.2604025280437041,-0.9647143761030164,-0.009276323834547358
179.0,-0.024957509538675007,0.04768695802983004,-0.07269632327436698,-0.010000000000000005,-0.7599999999999999,-9.76999999999999,0.01893860561914672,-0.022540539368713145,0.010789542143600415,210.1875,-0.0625,175.5,0.03802489999999996,0.2603759799999996,-0.9647216799999987,-0.009277340000000012
180.0,-0.024320846340617423,0.04703087062088102,-0.07185570586194935,-0.010000000000000005,-0.7599999999999999,-9.76999999999999,0.01938735691987513,-0.021104318418314255,-0.004676118626430801,210.1875,-0.0625,175.5,0.03802489999999996,0.2603759799999996,-0.9647216799999987,-0.009277340000000012
181.0,-0.02300329517863338,0.044477974332292745,-0.07135969476240026,-0.010000000000000005,-0.7599999999999999,-9.76999999999999,0.017546826222684702,-0.016990764828303848,-0.017198881373569196,210.1875,-0.0625,175.5,0.03802489999999996,0.2603759799999996,-0.9647216799999987,-0.009277340000000012
182.0,-0.02848820672910165,0.04393253555324315,-0.07391103017689904,-0.010000000000000005,-0.7599999999999999,-9.76999999999999,0.012469649670482136,0.009767386403052376,-0.12914715574054803,210.15631720430108,-0.0625,175.5,0.03801020030107525,0.26013971316129025,-0.9647810087741935,-0.0092925671827957
183.0,-0.029262920568851908,0.04338293444328824,-0.071576482830385,-0.010000000000000005,-0.7599999999999999,-9.76999999999999,-0.001695282691640652,-0.013009451959764134,-0.00378728754769337,210.1073924731183,-0.0625,175.5,0.03798605079569892,0.2597842648172044,-0.964877352129033,-0.009316458107526876
184.0,-0.02911377037807841,0.04406659729448491,-0.07290322580645157,-0.010000000000000005,-0.7599999999999999,-9.76999999999999,0.008452566770724939,-0.016504075615678113,-0.027631807145334718,210.08293010752686,-0.0625,175.5,0.037973976043010754,0.2596075907956991,-0.9649255238064527,-0.009328403569892466
185.0,-0.028712105445716285,0.04442386403052376,-0.07436073534512658,-0.010000000000000005,-0.7599999999999999,-9.76999999999999,-0.0009538674991328472,0.00015391952826916341,-0.016211411723898714,210.07069892473118,-0.0625,175.5,0.037967938666666666,0.2595192537849465,-0.9649496096451626,-0.00933437630107526
186.0,-0.029488727020464813,0.045816399697491794,-0.0747877097513405,-0.010000000000000005,-0.7599999999999999,-9.76999999999999,-0.015527800759682252,0.0008171488601923086,0.01614648192058591,210.06458333333336,-0.0625,175.5,0.037964919978494625,0.2594750852795702,-0.9649616525645175,-0.009337362666666658
187.0,-0.029771245230662526,0.04526035038638031,-0.07297987638104658,-0.010000000000000005,-0.7599999999999999,-9.76999999999999,-0.012720217584142202,-0.01091535030108664,0.02097646676674457,210.0625,-0.0625,175.5,0.037963870000000004,0.25946038436559166,-0.9649658200000014,-0.00933837999999999
188.0,-0.030226756054428747,0.045120127599324475,-0.07243141536309511,-0.010000000000000005,-0.7599999999999999,-9.76999999999999,-0.01879979017758141,-0.019693419025036532,0.00012858020163422634,210.0625,-0.0625,175.5,0.037963870000000004,0.2594604500000003,-0.9649658200000014,-0.00933837999999999
189.0,-0.030046976908161487,0.047474087784241135,-0.07182496033844524,-0.010000000000000005,-0.7599999999999999,-9.76999999999999,-0.009708818085668959,0.0021125286444561957,0.005091552088841883,210.0625,-0.0625,175.5,0.037963870000000004,0.2594604500000003,-0.9649658200000014,-0.00933837999999999
190.0,-0.030569187378811938,0.04761607615018508,-0.0728855984487925,-0.010000000000000005,-0.7599999999999999,-9.76999999999999,0.00981292966684294,-0.0024215582584170632,-0.012961616428697337,210.0625,-0.0625,175.5,0.037963870000000004,0.2594604500000003,-0.9649658200000014,-0.00933837999999999
191.0,-0.028338533403842785,0.046486515071390795,-0.07161466596157234,-0.010000000000000005,-0.7599999999999999,-9.76999999999999,0.004840362242199895,-0.002813766966331747,-0.00828210382513661,210.0625,-0.0625,175.5,0.037963870000000004,0.2594604500000003,-0.9649658200000014,-0.00933837999999999
192.0,-0.02933307176609067,0.0463313602065244,-0.0710355674587605,-0.010000000000000005,-0.7599999999999999,-9.76999999999999,-0.0015909401067876693,0.010375548011804644,-0.025758616081836428,210.0625,-0.0625,175.5,0.037963870000000004,0.2594604500000003,-0.9649658200000014,-0.00933837999999999
193.0,-0.02931751420139542,0.04452474937877779,-0.07150403439040616,-0.010000000000000005,-0.7599999999999999,-9.76999999999999,-0.007273523993108271,0.005650492144453353,-0.020547208622621015,210.0625,-0.0625,175.5,0.037963870000000004,0.2594604500000003,-0.9649658200000014,-0.00933837999999999
194.0,-0.029489358193593895,0.04468701773539631,-0.07133301490364659,-0.010000000000000005,-0.7599999999999999,-9.76999999999999,-0.004174396405156286,-0.012592081620352205,0.014325373301945265,210.0625,-0.0625,175.5,0.037963870000000004,0.2594604500000003,-0.9649658200000014,-0.00933837999999999
195.0,-0.028696292000022765,0.04454243359888095,-0.0732686579894577,-0.010000000000000005,-0.7599999999999999,-9.76999999999999,-0.011680612181072768,-0.0024317934983481455,0.01840260600581134,210.0625,-0.0625,175.5,0.037963870000000004,0.2594604500000003,-0.9649658200000014,-0.00933837999999999
196.0,-0.028410000966661568,0.04384889374115078,-0.07329132904590505,-0.010000000000000005,-0.7599999999999999,-9.76999999999999,-0.00010057544793390296,-0.008450398890045091,0.009234354298516458,210.0625,-0.0625,175.5,0.037963870000000004,0.2594604500000003,-0.9649658200000014,-0.00933837999999999
197.0,-0.02852290703559022,0.04377165179713754,-0.07333008648777742,-0.010000000000000005,-0.7599999999999999,-9.76999999999999,0.004839171684777355,-0.0003523339190165068,0.0026396968094482636,210.0625,-0.0625,175.5,0.037963870000000004,0.2594604500000003,-0.9649658200000014,-0.00933837999999999
198.0,-0.028583857889379817,0.04321722022255961,-0.07361180862375825,-0.010000000000000005,-0.7599999999999999,-9.76999999999999,0.008010763349880304,-0.005014876636927608,-0.005959148598625065,210.0625,-0.0625,175.5,0.037963870000000004,0.2594604500000003,-0.9649658200000014,-0.00933837999999999
199.0,-0.02785891290379445,0.04652003263904289,-0.07068713998965102,-0.010000000000000005,-0.7599999999999999,-9.76999999999999,0.030992039968611933,-0.009440498427753422,-0.006396527410541159,210.0625,-0.0625,175.5,0.037963870000000004,0.2594604500000003,-0.9649658200000014,-0.00933837999999999
200.0,-0.02887569301103702,0.04568205933027414,-0.07034625816686853,-0.010000000000000005,-0.7599999999999999,-9.76999999999999,0.021157982349897363,-0.0026873191063498288,0.005605499735589636,210.0625,-0.0625,175.5,0.037963870000000004,0.2594604500000003,-0.9649658200000014,-0.00933837999999999
201.0,-0.027720885007079393,0.04561938554442947,-0.07170278569113457,-0.010000000000000005,-0.7599999999999999,-9.76999999999999,0.011961015108351385,-0.017765355703018824,0.017370908036369218,210.0625,-0.0625,175.5,0.037963870000000004,0.2594604500000003,-0.9649658200000014,-0.00933837999999999
202.0,-0.027677294257461786,0.04524350204420487,-0.07277700539624593,-0.010000000000000005,-0.7599999999999999,-9.76999999999999,-0.0011574705879008095,-0.01869230238879127,-0.003059874732035733,210.0625,-0.0625,175.5,0.037963870000000004,0.2594604500000003,-0.9649658200000014,-0.00933837999999999
203.0,-0.027397786913677138,0.04644970801134975,-0.07356323388091865,-0.010000000000000005,-0.7599999999999999,-9.76999999999999,-0.0050478213154557805,-0.001130425387944025,-0.017961388978921092,210.0625,-0.0625,175.5,0.037963870000000004,0.2594604500000003,-0.9649658200000014,-0.00933837999999999
204.0,-0.028161116892126276,0.046731703087062086,-0.07248196323274367,-0.010000000000000005,-0.7599999999999999,-9.76999999999999,-0.008049340964273326,-0.010739680887963926,-0.01045894033992369,210.0625,-0.0625,175.5,0.037963870000000004,0.2594604500000003,-0.9649658200000014,-0.00933837999999999
205.0,-0.028744801351051685,0.04472628693926522,-0.072084406611965,-0.010000000000000005,-0.7599999999999999,-9.76999999999999,-0.0004909361264165855,0.0014376247419866598,-0.0250814554511182,210.0625,-0.0625,175.5,0.037963870000000004,0.2594604500000003,-0.9649658200000014,-0.00933837999999999
206.0,-0.028178331997065913,0.04468884586297288,-0.07290744784292316,-0.010000000000000005,-0.7599999999999999,-9.76999999999999,-0.0013348281048316017,-0.0133290544344177,-0.022881518568431108,210.0625,-0.0625,175.5,0.037963870000000004,0.2594604500000003,-0.9649658200000014,-0.00933837999999999
207.0,-0.028180563847995332,0.045535283146540206,-0.07534888521178415,-0.010000000000000005,-0.7599999999999999,-9.76999999999999,-0.010664053837362037,-0.013351355174198097,-0.012146404445505877,210.0625,-0.0625,175.5,0.037963870000000004,0.2594604500000003,-0.9649658200000014,-0.00933837999999999
208.0,-0.027587593751954662,0.04557140501413032,-0.07475508776718238,-0.010000000000000005,-0.7599999999999999,-9.76999999999999,0.008243241898523282,-0.013916941027959264,0.00036160960520405065,210.0625,-0.0625,175.5,0.037963870000000004,0.2594604500000003,-0.9649658200000014,-0.00933837999999999
209.0,-0.029057782803334757,0.04594824813579185,-0.0741590875798071,-0.010000000000000005,-0.7599999999999998,-9.76999999999999,0.0011957562745676235,-0.001512960711029663,0.02071089292179004,210.0625,-0.0625,175.5,0.037963870000000004,0.2594604500000003,-0.9649658200000015,-0.00933837999999999
210.0,-0.02827029806480858,0.046313626976409936,-0.07416838567250536,-0.010000000000000005,-0.7599999999999999,-9.76999999999999,0.011058613198098194,-0.011547728372437092,0.03317736608014409,210.0625,-0.0625,175.5,0.037963870000000004,0.2594604500000003,-0.9649658200000015,-0.00933837999999999
211.0,-0.028243446400241762,0.04561971074345479,-0.07430886488210653,-0.010000000000000005,-0.7599999999999999,-9.76999999999999,0.0055618248092468075,0.007373088271091973,0.02059935114535855,210.0625,-0.0625,175.5,0.037963870000000004,0.2594604500000003,-0.9649658200000015,-0.00933837999999999
212.0,-0.02794699201732519,0.045804479027641384,-0.07254690555933281,-0.010000000000000005,-0.7599999999999999,-9.76999999999999,0.008476476920752436,0.005517861339847062,0.009258008906012607,210.0625,-0.0625,175.5,0.037963870000000004,0.2594604500000003,-0.9649658200000014,-0.00933837999999999
213.0,-0.028937271788673183,0.04619529433490301,-0.07112163716182751,-0.010000000000000005,-0.7599999999999999,-9.76999999999999,0.013336984714562714,-0.011300815055442236,0.012905324301411027,210.0625,-0.0625,175.5,0.037963870000000004,0.2594604500000003,-0.9649658200000014,-0.00933837999999999
214.0,-0.02861484223514897,0.046633527234267586,-0.07168905341089367,-0.010000000000000005,-0.7599999999999999,-9.76999999999999,0.013110347258945883,-0.012156266525647805,-0.002119689758505199,210.0625,-0.0625,175.5,0.037963870000000004,0.2594604500000003,-0.9649658200000014,-0.00933837999999999
215.0,-0.028916975145425718,0.047167988718491094,-0.0722407897056231,-0.010000000000000005,-0.7599999999999999,-9.76999999999999,0.01482681121099947,0.002854530230918386,-0.011431341441917854,210.0625,-0.0625,175.5,0.037963870000000004,0.2594604500000003,-0.9649658200000014,-0.00933837999999999
216.0,-0.02888542217521595,0.046085316411069985,-0.07199524061343204,-0.010000000000000005,-0.7599999999999999,-9.76999999999999,0.027305878723779306,0.007482262471355544,-0.005831350255596685,210.0625,-0.0625,175.5,0.037963870000000004,0.2594604500000003,-0.9649658200000014,-0.00933837999999999
217.0,-0.027957341794465025,0.04523038956460426,-0.0718276044420941,-0.010000000000000005,-0.7599999999999999,-9.76999999999999,0.008196721311475412,-0.003712762206945179,-0.0028820729772607084,210.0625,-0.0625,175.5,0.037963870000000004,0.2594604500000003,-0.9649658200000014,-0.00933837999999999
218.0,-0.028135201833245214,0.045047770139256114,-0.07176255949233208,-0.010000000000000005,-0.7599999999999999,-9.76999999999999,0.030770756213643575,-0.008284858099770843,-0.0006478053939714436,210.0625,-0.0625,175.5,0.037963870000000004,0.2594604500000003,-0.9649658200000014,-0.00933837999999999
219.0,-0.02816331746871146,0.04571002996650802,-0.07219804336329984,-0.010000000000000005,-0.7599999999999999,-9.76999999999999,-0.04456967213114754,0.024612198131500087,0.031124405076679004,210.08100872554206,-0.0625,175.5,0.037963870000000004,0.2595353315230039,-0.9649472302168167,-0.00933837999999999
220.0,-0.023417680239732078,0.047548563370350794,-0.07371998942358539,-0.010000000000000005,-0.7599999999999999,-9.76999999999999,-0.05911279305482108,0.027091045302309182,0.016939890710382512,210.10401242728716,-0.0625,175.5,0.037963870000000004,0.2596238985034375,-0.9649250257535691,-0.00933837999999999
221.0,-0.02065065420241894,0.04868843361025345,-0.07391159027197307,-0.010000000000000005,-0.7599999999999999,-9.76999999999999,-0.013008421327965519,0.01230332702160204,0.013672858986824972,210.1155142781597,-0.0625,175.5,0.037963870000000004,0.25966818199365427,-0.9649139235219453,-0.00933837999999999
222.0,-0.021396189078999005,0.04774188999391572,-0.07429847096887919,-0.010000000000000005,-0.7599999999999999,-9.76999999999999,-0.008454237105019248,0.01960354082439171,0.030104541603407198,210.12126520359598,-0.0625,175.5,0.037963870000000004,0.25969032373876266,-0.9649083724061334,-0.00933837999999999
223.0,-0.024004105468461254,0.04766258962942746,-0.07427333208235956,-0.010000000000000005,-0.7599999999999999,-9.76999999999999,0.01052147125887765,0.024532732865924042,0.03544932703297453,210.12414066631413,-0.0625,175.5,0.037963870000000004,0.25970139461131686,-0.9649055968482274,-0.00933837999999999
224.0,-0.025000466272041316,0.047958740610588926,-0.07285586223367052,-0.010000000000000005,-0.7599999999999999,-9.76999999999999,0.00025346434440445126,-0.011894130658523964,0.059055308677777585,210.125,-0.0625,175.5,0.037963870000000004,0.25970459000000007,-0.964904789999999,-0.00933837999999999
225.0,-0.025527114856450775,0.049076144498842844,-0.07108653326737288,-0.010000000000000005,-0.7599999999999999,-9.76999999999999,0.005570280559299,-0.02254652769485338,0.04562308444641567,210.125,-0.0625,175.5,0.037963870000000004,0.25970459000000007,-0.964904789999999,-0.00933837999999999
226.0,-0.02479009228774673,0.04762860294661186,-0.07056147683139716,-0.010000000000000005,-0.7599999999999999,-9.76999999999999,-0.04353705014698942,-0.031011817437437098,-0.004926491075439406,210.125,-0.0625,175.5,0.037963870000000004,0.25970459000000007,-0.964904789999999,-0.009333806763787715
227.0,-0.023648351273434447,0.046544602901121904,-0.07347552071783148,-0.010000000000000005,-0.7599999999999999,-9.76999999999999,-0.06256263753603657,-0.06806958754826199,-0.03652370737449037,210.125,-0.0625,175.5,0.037963870000000004,0.25970459000000007,-0.964904789999999,-0.00930458886576483
228.0,-0.0254155734861796,0.04581800037529213,-0.07407915820837808,-0.010000000000000005,-0.7599999999999999,-9.76999999999999,0.002102417791121504,-0.06513358409671165,-0.040943305300148405,210.125,-0.0625,175.5,0.037963870000000004,0.25970459000000007,-0.964904789999999,-0.009289979916753389
229.0,-0.024979071777463155,0.04607663635898398,-0.07226961612164012,-0.010000000000000005,-0.7599999999999999,-9.76999999999999,0.01871712639952691,-0.03236848427469109,-0.035543043448593506,210.125,-0.0625,175.5,0.037963870000000004,0.25970459000000007,-0.964904789999999,-0.00928267544224767
230.0,-0.02459534410308025,0.04803563000744897,-0.07308893286251229,-0.010000000000000005,-0.7599999999999999,-9.76999999999999,-0.004525184376474865,-0.025727803744960566,-0.0061126771975913066,210.125,-0.0625,175.5,0.037963870000000004,0.25970459000000007,-0.964904789999999,-0.009279023204994807
231.0,-0.025297019482711756,0.049427566498459835,-0.07495356535716313,-0.010000000000000005,-0.7599999999999999,-9.76999999999999,-0.010126487495032968,-0.02099400557801301,0.001632621964882718,210.125,-0.0625,175.5,0.037963870000000004,0.25970459000000007,-0.964904789999999,-0.00927734000000001
232.0,-0.02484474630049567,0.05124872948578905,-0.07624559988288265,-0.010000000000000005,-0.7599999999999999,-9.76999999999999,-0.014539050199129386,0.0024230240927139244,-0.0029807320283113284,210.125,-0.0625,175.5,0.037963870000000004,0.25970459000000007,-0.964904789999999,-0.00927734000000001
233.0,-0.024845121255306895,0.051971491483596095,-0.07347058770805512,-0.010000000000000005,-0.7599999999999999,-9.76999999999999,-0.019433228166724926,-0.002061392501501313,-0.008733832874723265,210.125,-0.0625,175.5,0.037963870000000004,0.25970459000000007,-0.964904789999999,-0.009277340000000012
234.0,-0.023956140743994013,0.051128527338836646,-0.07409647841246225,-0.010000000000000005,-0.7599999999999999,-9.76999999999999,-0.003916111703669178,-0.004187094981580906,-0.007110173973057032,210.125,-0.0625,175.5,0.037963870000000004,0.25970459000000007,-0.964904789999999,-0.009277340000000012
235.0,-0.024403947333040556,0.04669329592748285,-0.07413796245671588,-0.010000000000000005,-0.7599999999999999,-9.76999999999999,-0.010668173955130904,-0.007155904268509472,0.01541966182362484,210.125,-0.0625,175.5,0.037963870000000004,0.25970459000000007,-0.964904789999999,-0.009277340000000012
236.0,-0.02176784769962984,0.04622043010752688,-0.07255464480874316,-0.010000000000000005,-0.7599999999999999,-9.76999999999999,0.0018310417768376518,-0.041379671249779655,0.03561772871496562,210.125,-0.0625,175.5,0.037963870000000004,0.25970459000000007,-0.964904789999999,-0.009277340000000012
237.0,-0.0244269346025031,0.044709677419354846,-0.07167248369469414,-0.010000000000000005,-0.7599999999999999,-9.76999999999999,0.022756918737881188,-0.04308566895822316,0.027637493389740878,210.125,-0.0625,175.5,0.037963870000000004,0.25970459000000007,-0.964904789999999,-0.009277340000000012
238.0,-0.023965569790120732,0.045317258320397125,-0.07065652809289048,-0.010000000000000005,-0.7599999999999999,-9.76999999999999,0.025773364778264897,-0.03701937019156957,0.038000034117466434,210.125,-0.0625,175.5,0.037963870000000004,0.25970459000000007,-0.964904789999999,-0.009277340000000012
239.0,-0.024083084560140577,0.045677490432893784,-0.07300691731632009,-0.010000000000000005,-0.7599999999999999,-9.76999999999999,0.02075289074449998,-0.032926660241210486,0.008346482773522573,210.125,-0.0625,175.5,0.037963870000000004,0.25970459000000007,-0.964904789999999,-0.009277340000000012
240.0,-0.025920574538134816,0.047099497904618925,-0.0738448565076224,-0.010000000000000005,-0.7599999999999999,-9.76999999999999,-0.0027787965632338815,-0.021134029045336424,0.004106037085686016,210.125,-0.0625,175.5,0.037963870000000004,0.25970459000000007,-0.964904789999999,-0.009277340000000012
241.0,-0.025424591869807764,0.047431293108840394,-0.07351153454677789,-0.010000000000000005,-0.7599999999999999,-9.76999999999999,0.007385720703047257,-0.013078912989088098,0.00011951774961191375,210.125,-0.0625,175.5,0.037963870000000004,0.25970459000000007,-0.964904789999999,-0.009277340000000012
242.0,-0.023614728510260842,0.04687442497853442,-0.07334725325963962,-0.010000000000000005,-0.7599999999999999,-9.76999999999999,0.00672256244917919,-0.027003441599426824,0.0024014431688302823,210.125,-0.0625,175.5,0.037963870000000004,0.25970459000000007,-0.964904789999999,-0.009277340000000012
243.0,-0.023062324660075843,0.04640013952501739,-0.07281606300435904,-0.010000000000000005,-0.7599999999999999,-9.76999999999999,0.010029994517592998,-0.02504237848327044,0.0020930433184845254,210.125,-0.0625,175.5,0.037963870000000004,0.25970459000000007,-0.964904789999999,-0.00927734000000001
244.0,-0.023786538674123947,0.04636942460121837,-0.07381663365271715,-0.010000000000000005,-0.7599999999999999,-9.76999999999999,0.0069135187641728435,-0.013142829026581457,0.02235028510010248,210.125,-0.0625,175.5,0.037963870000000004,0.25970459000000007,-0.964904789999999,-0.00927734000000001
245.0,-0.024932984911116784,0.046962894749447204,-0.07224928109968495,-0.010000000000000005,-0.7599999999999999,-9.76999999999999,0.014802904890237651,-0.02671156799924286,0.013239506927435907,210.125,-0.0625,175.5,0.037963870000000004,0.25970459000000007,-0.964904789999999,-0.009277340000000012
246.0,-0.025520432169995208,0.048010796925225974,-0.07217434969844108,-0.010000000000000005,-0.7599999999999999,-9.76999999999999,0.00870697862174495,-0.01852831176270974,0.0018934181913752776,210.125,-0.0625,175.5,0.037963870000000004,0.25970459000000007,-0.964904789999999,-0.009277340000000012
247.0,-0.024362895443361787,0.04674363220137555,-0.07275736698741903,-0.010000000000000005,-0.7599999999999999,-9.76999999999999,0.014990497948277727,-0.01774291491537567,-0.005587532046565137,210.125,-0.0625,175.5,0.037963870000000004,0.25970459000000007,-0.964904789999999,-0.009277340000000012
248.0,-0.026183452460153658,0.04774925368042168,-0.07151518795880883,-0.010000000000000005,-0.7599999999999999,-9.76999999999999,0.0121118427412247,-0.010646106628455103,-0.013597711713094852,210.125,-0.0625,175.5,0.037963870000000004,0.25970459000000007,-0.964904789999999,-0.009277340000000012
249.0,-0.024825597197818773,0.0478154870552646,-0.07102372301166247,-0.010000000000000005,-0.7599999999999999,-9.76999999999999,0.011365061155558586,-0.013891601701324327,-0.023045495641493663,210.125,-0.0625,175.5,0.037963870000000004,0.25970459000000007,-0.964904789999999,-0.009277340000000012
250.0,-0.025952229860743886,0.04945443328045125,-0.07210646924026087,-0.010000000000000005,-0.7599999999999999,-9.76999999999999,-0.0004759386567953468,-0.015830468887713733,-0.003126652564780539,210.125,-0.0625,175.5,0.037963870000000004,0.25970459000000007,-0.964904789999999,-0.009277340000000012
251.0,-0.025114842235148965,0.049226952229860746,-0.07308337740172746,-0.010000000000000005,-0.7599999999999999,-9.76999999999999,-0.0008251806804160059,-0.02280374140666314,-0.004640401903754627,210.125,-0.0625,175.5,0.037963870000000004,0.25970459000000007,-0.964904789999999,-0.009277340000000012
252.0,-0.025345055526176642,0.04908390622245725,-0.07131588224925084,-0.010000000000000005,-0.7599999999999999,-9.76999999999999,0.005703001057641459,-0.005739908337740174,-0.00534439450026441,210.125,-0.0625,175.5,0.037963870000000004,0.25970459000000007,-0.964904789999999,-0.009277340000000012
253.0,-0.025384893354486175,0.048015071390798525,-0.07073858628591573,-0.010000000000000005,-0.7599999999999999,-9.76999999999999,-0.009127666137845936,-0.004415653093601269,-0.014164132734003172,210.125,-0.0625,175.5,0.037963870000000004,0.25970459000000007,-0.964904789999999,-0.009277340000000012
254.0,-0.02432822139961221,0.04845020271461309,-0.07171232152300369,-0.010000000000000005,-0.7599999999999999,-9.76999999999999,0.00954631588224925,0.013396791820906046,-0.018228891239203245,210.125,-0.0625,175.5,0.037963870000000004,0.25970459000000007,-0.964904789999999,-0.009277340000000012
255.0,-0.024149922170734417,0.04710972880758395,-0.06966868933126585,-0.010000000000000005,-0.7599999999999999,-9.76999999999999,0.008782168060422996,0.0168373009826505,-0.019220299396188308,210.125,-0.0625,175.5,0.037963870000000004,0.25970459000000007,-0.964904789999999,-0.00927734000000001
256.0,-0.0238975417305285,0.04487206870486725,-0.07166230165488024,-0.010000000000000005,-0.7599999999999999,-9.76999999999999,0.0017197130624695633,0.022867575222508048,0.010920764280400466,210.125,-0.0625,175.5,0.037963870000000004,0.25970459000000007,-0.964904789999999,-0.00927734000000001
257.0,-0.024990679908098737,0.04660873838909853,-0.07100574980505336,-0.010000000000000005,-0.7599999999999999,-9.76999999999999,-0.026311613590393988,0.002804645182204137,-0.014533999139545934,210.125,-0.0625,175.5,0.037963870000000004,0.25970459000000007,-0.964904789999999,-0.009277340000000012
258.0,-0.02638336216452003,0.05012959394335942,-0.0727000809663377,-0.010000000000000005,-0.7599999999999999,-9.76999999999999,-0.023891418464507763,0.00515447092531677,-0.04708775137657713,210.1096641988366,-0.0625,175.5,0.037963870000000004,0.25967515372289807,-0.964904789999999,-0.009277340000000012
259.0,-0.026149551697454802,0.051287606772490564,-0.07190988536242146,-0.010000000000000005,-0.7599999999999999,-9.76999999999999,-0.03335964365848339,0.040270034687054646,-0.06511579530753764,210.08507403490216,-0.0625,175.5,0.037963870000000004,0.2596268679904814,-0.964904789999999,-0.009277340000000012
260.0,-0.025340071532954644,0.049960193446034695,-0.07015801504580269,-0.010000000000000005,-0.7599999999999999,-9.76999999999999,-0.025124084514650605,0.018266598147421573,-0.027047438915519473,210.07277895293498,-0.0625,175.5,0.037963870000000004,0.25960272512427307,-0.964904789999999,-0.009277340000000012
261.0,-0.02493347662669238,0.05293439779828617,-0.07019191074870779,-0.010000000000000005,-0.7599999999999999,-9.76999999999999,-0.01731674655840057,0.0178362560629581,-0.003409472145931779,210.06663141195133,-0.0625,175.5,0.037963870000000004,0.25959065369116896,-0.964904789999999,-0.009277340000000012
262.0,-0.02486630502152245,0.05182662640805627,-0.07092313334811756,-0.010000000000000005,-0.7599999999999999,-9.76999999999999,0.004151136111632351,0.020628948385959526,0.015052270801703597,210.06355764145957,-0.0625,175.5,0.037963870000000004,0.25958461797461685,-0.964904789999999,-0.009277340000000012
263.0,-0.024201352757544238,0.05094380853277835,-0.0724573361082206,-0.010000000000000005,-0.7599999999999999,-9.76999999999999,-0.01585696323274367,-0.011306581685744013,0.00017993409642733105,210.0625,-0.0625,175.5,0.037963870000000004,0.25958252000000026,-0.964904789999999,-0.009277340000000012
264.0,-0.024845300034686102,0.05224072147069025,-0.0731023239680888,-0.010000000000000005,-0.7599999999999999,-9.76999999999999,-0.020176465487339576,0.01143340270551509,0.0019380853277835587,210.0625,-0.0625,175.5,0.037963870000000004,0.25958252000000026,-0.964904789999999,-0.009277340000000012
265.0,-0.024295869512063382,0.052836000181959816,-0.07174639918572981,-0.010000000000000005,-0.7599999999999999,-9.76999999999999,0.0002195068035914325,0.03273533588645707,0.011382866208355366,210.0625,-0.0625,175.5,0.037963870000000004,0.25958252000000026,-0.964904789999999,-0.009277340000000012
266.0,-0.025155478980797567,0.0529109761575772,-0.07286574208332622,-0.010000000000000005,-0.7599999999999999,-9.76999999999999,-0.012746320999869215,0.009318261942534814,-0.001408376122322491,210.0625,-0.0625,175.5,0.037963870000000004,0.25958252000000026,-0.964904789999999,-0.009277340000000012
267.0,-0.02491384771100233,0.0528602747593297,-0.07248906250888477,-0.010000000000000005,-0.7599999999999999,-9.76999999999999,-0.010909450822515251,0.006902887474909447,0.01388022921251201,210.0625,-0.0625,175.5,0.037963870000000004,0.25958252000000026,-0.964904789999999,-0.009277340000000012
268.0,-0.024720364715716224,0.05452422340117021,-0.07479291835121657,-0.010000000000000005,-0.7599999999999999,-9.76999999999999,-0.0016576824005049384,-0.0012528573378140931,0.013660544713782887,210.0625,-0.0625,175.5,0.037963870000000004,0.25958252000000026,-0.964904789999999,-0.009277340000000012
269.0,-0.024019651660667694,0.054536565394653784,-0.07325303218982959,-0.010000000000000005,-0.7599999999999999,-9.76999999999999,0.010500503232629944,-0.0053599961333538025,0.001610557649988911,210.0625,-0.0625,175.5,0.037963870000000004,0.25958252000000026,-0.964904789999999,-0.009277340000000012
270.0,-0.023387403831391495,0.052807679841694946,-0.07415956739052557,-0.010000000000000005,-0.7599999999999999,-9.76999999999999,0.021858527660735913,-0.010926296321568493,-0.011688110915883386,210.0625,-0.0625,175.5,0.037963870000000004,0.25958252000000026,-0.964904789999999,-0.009277340000000012
271.0,-0.023575942637166447,0.052472691811239425,-0.07425390787146811,-0.010000000000000005,-0.7599999999999999,-9.76999999999999,0.017249719952462998,-0.01815500560095074,0.0035070978545799865,210.0625,-0.0625,175.5,0.037963870000000004,0.25958252000000026,-0.964904789999999,-0.009277340000000012
272.0,-0.026112317542632636,0.054491962493531894,-0.07260080289771015,-0.010000000000000005,-0.7599999999999999,-9.76999999999999,0.019860168142247087,0.007234644296981174,-0.008236738256483741,210.0625,-0.0625,175.5,0.037963870000000004,0.25958252000000026,-0.964904789999999,-0.009277340000000012
273.0,-0.026338416835832455,0.05378361565536811,-0.07230577779294109,-0.010000000000000005,-0.7599999999999999,-9.76999999999999,0.03240992278080096,0.009699311395802414,-0.011846863751897783,210.0625,-0.0625,175.5,0.037963870000000004,0.25958252000000026,-0.964904789999999,-0.009277340000000012
274.0,-0.025861716222286682,0.05348389939896396,-0.07270595861551321,-0.010000000000000005,-0.7599999999999999,-9.76999999999999,0.01326206336750766,-0.008027555540392237,-0.01408550263557428,210.0625,-0.0625,175.5,0.037963870000000004,0.25958252000000026,-0.964904789999999,-0.009277340000000012
275.0,-0.0264395836531846,0.0529926107253942,-0.07211976936592687,-0.010000000000000005,-0.7599999999999999,-9.76999999999999,0.003986928034890796,-0.009070625998646673,-0.011422047986216544,210.0625,-0.0625,175.5,0.037963870000000004,0.25958252000000026,-0.964904789999999,-0.009277340000000012
276.0,-0.026082695052398755,0.052579638696030426,-0.07219429328511398,-0.010000000000000005,-0.7599999999999999,-9.76999999999999,-0.011094573616963204,-0.01918585063373194,-0.017824599261925474,210.0625,-0.0625,175.5,0.037963870000000004,0.25958252000000026,-0.964904789999999,-0.009277340000000012
277.0,-0.02552680495613064,0.05245586905716381,-0.07141972728771827,-0.010000000000000005,-0.7599999999999999,-9.76999999999999,0.0009803440746490154,-0.0027017301820166824,-0.007557196510920431,210.0625,-0.0625,175.5,0.037963870000000004,0.25958252000000026,-0.964904789999999,-0.009277340000000012
278.0,-0.026212239072459828,0.05227680637769171,-0.07135180794140891,-0.010000000000000005,-0.7599999999999999,-9.76999999999999,0.004543913443987649,-0.013169732973962687,0.0028024655555745097,210.0625,-0.0625,175.5,0.037963870000000004,0.25958252000000026,-0.964904789999999,-0.009277340000000012
279.0,-0.027665432751630546,0.05315089018156177,-0.0725189494094835,-0.010000000000000005,-0.7599999999999999,-9.76999999999999,-0.011625242376167813,0.018552793936188965,-0.002102062400846113,210.0625,-0.0625,175.5,0.037963870000000004,0.25958252000000026,-0.964904789999999,-0.009277340000000012
280.0,-0.026521007926335584,0.05311041448192,-0.07280766461412518,-0.010000000000000005,-0.7599999999999999,-9.76999999999999,0.005735165383454782,-0.029924120200653114,0.004565168191881257,210.0625,-0.0625,175.5,0.037963870000000004,0.25958252000000026,-0.964904789999999,-0.00927734000000001
281.0,-0.027230449318359058,0.05329709865643681,-0.0737353147678417,-0.010000000000000005,-0.7599999999999999,-9.76999999999999,0.006443732876814647,-0.012376347073709246,-0.003693641005416678,210.0625,-0.0625,175.5,0.037963870000000004,0.25958252000000026,-0.964904789999999,-0.00927734000000001
282.0,-0.026579264849554998,0.05406261595963035,-0.07151863570227093,-0.010000000000000005,-0.7599999999999999,-9.76999999999999,0.02839042804602234,-0.019111230120672708,0.011869467175768655,210.0625,-0.0625,175.5,0.037963870000000004,0.25958252000000026,-0.964904789999999,-0.009277340000000012
283.0,-0.026361375770449988,0.054233493772164895,-0.07065214351656822,-0.010000000000000005,-0.7599999999999999,-9.76999999999999,-0.00208254906530189,-0.011880222851628439,-0.012543144078253519,210.0625,-0.0625,175.5,0.037963870000000004,0.25958252000000026,-0.964904789999999,-0.009277340000000012
284.0,-0.02664842982070887,0.05523502645597491,-0.07276155562925184,-0.010000000000000005,-0.7599999999999999,-9.76999999999999,-0.005443156253081052,-0.00563769207097551,-0.012067943006868694,210.0625,-0.0625,175.5,0.037963870000000004,0.25958252000000026,-0.964904789999999,-0.009277340000000012
285.0,-0.02641953111228628,0.0540306716023268,-0.0730520007050943,-0.010000000000000005,-0.7599999999999999,-9.76999999999999,0.021113167636171336,-0.013954257006874669,0.00454785827604442,210.0625,-0.0625,175.5,0.037963870000000004,0.25958252000000026,-0.964904789999999,-0.009277340000000012
286.0,-0.026609730301427832,0.05393830424819319,-0.07196809448263704,-0.010000000000000005,-0.7599999999999999,-9.76999999999999,0.022823021329102765,-0.00596796227745461,-0.0023664727657324164,210.0625,-0.0625,175.5,0.037963870000000004,0.25958252000000026,-0.964904789999999,-0.009277340000000012
287.0,-0.026206555671175875,0.05314117238987165,-0.07124436351023239,-0.010000000000000005,-0.7599999999999999,-9.76999999999999,-0.0008281304197017003,-0.011432318765175163,-0.010978147762747137,210.0625,-0.0625,175.5,0.037963870000000004,0.25958252000000026,-0.964904789999999,-0.009277340000000012
288.0,-0.025584460631286866,0.050984564689559475,-0.0721732570239334,-0.010000000000000005,-0.7599999999999999,-9.76999999999999,0.0006276014568158169,-0.017997745404092956,0.006910119667013527,210.0625,-0.0625,175.5,0.037963870000000004,0.25958252000000026,-0.964904789999999,-0.009277340000000012
289.0,-0.025259972251127312,0.04979066944155393,-0.0712667360388484,-0.010000000000000005,-0.7599999999999999,-9.76999999999999,-0.001147892819979189,0.0022578477280610475,-0.02539238640305238,210.0625,-0.0625,175.5,0.037963870000000004,0.25958252000000026,-0.964904789999999,-0.009277340000000012
290.0,-0.026591866964625892,0.05027269237986387,-0.07108727247914567,-0.010000000000000005,-0.7599999999999999,-9.76999999999999,-0.011377588662765904,-0.0027152172429675374,-0.01197457324735732,210.0625,-0.0625,175.5,0.037963870000000004,0.25958252000000026,-0.964904789999999,-0.009277340000000012
291.0,-0.026196471116721555,0.05239709887810398,-0.07302213086322874,-0.010000000000000005,-0.7599999999999999,-9.76999999999999,-0.0017741437937485432,0.014737821486043112,0.003841342408579404,210.0625,-0.0625,175.5,0.037963870000000004,0.25958252000000026,-0.964904789999999,-0.009277340000000012
292.0,-0.02588136788295436,0.052513308655032606,-0.07184170632822139,-0.010000000000000005,-0.7599999999999999,-9.76999999999999,-0.008990503261061166,-0.008219306363476113,-0.0020172307421117584,210.0625,-0.0625,175.5,0.037963870000000004,0.25958252000000026,-0.964904789999999,-0.009277340000000012
293.0,-0.02600930067193099,0.05302237329963221,-0.07375928946810192,-0.010000000000000005,-0.7599999999999999,-9.76999999999999,0.010250112411751174,-0.009190697012611028,-0.015593657288314855,210.0625,-0.0625,175.5,0.037963870000000004,0.25958252000000026,-0.964904789999999,-0.00927734000000001
294.0,-0.02554695599434731,0.051530003854117185,-0.07449453103759407,-0.010000000000000005,-0.7599999999999999,-9.76999999999999,0.016809515486679395,0.016204658103953606,0.014792079341035592,210.0625,-0.0625,175.5,0.037963870000000004,0.25958252000000026,-0.964904789999999,-0.00927734000000001
295.0,-0.025269511841700367,0.05312089827819554,-0.07417746118246704,-0.010000000000000005,-0.7599999999999999,-9.76999999999999,-0.005030593922445599,0.005590430585556919,-0.00215578476099992,210.0625,-0.0625,175.5,0.037963870000000004,0.25958252000000026,-0.964904789999999,-0.009277340000000012
296.0,-0.02503529355525879,0.05165991150468917,-0.07390324672026576,-0.010000000000000005,-0.7599999999999999,-9.76999999999999,0.004339541748454619,-0.006848601911522616,-0.014821171950392432,210.0625,-0.0625,175.5,0.037963870000000004,0.25958252000000026,-0.964904789999999,-0.009277340000000012
297.0,-0.024922370909482038,0.05078765009396277,-0.07228513296704281,-0.010000000000000005,-0.7599999999999999,-9.76999999999999,-0.007243238115725095,-0.0179822949624597,-0.02340741305081758,210.0625,-0.0625,175.5,0.037963870000000004,0.25958252000000026,-0.964904789999999,-0.009277340000000012
298.0,-0.023997179622774555,0.05214560197426405,-0.07036418120923674,-0.010000000000000005,-0.7599999999999999,-9.76999999999999,-0.0013947646747752506,-0.001831041776837651,-0.024162700511193375,210.0625,-0.0625,175.5,0.037963870000000004,0.25958252000000026,-0.964904789999999,-0.009277340000000012
299.0,-0.024285739467653812,0.0529342499559316,-0.07094623655913976,-0.010000000000000005,-0.7599999999999999,-9.76999999999999,-0.004762691697514542,0.005826943416181915,0.005749823726423405,210.0625,-0.0625,175.5,0.037963870000000004,0.25958252000000026,-0.964904789999999,-0.009277340000000012
300.0,-0.0250716552088842,0.05311352018332452,-0.07204671249779655,-0.010000000000000005,-0.7599999999999999,-9.76999999999999,-0.01593017362947294,-0.011520029085140139,-0.0027416049709148614,210.0625,-0.0625,175.5,0.037963870000000004,0.25958252000000026,-0.964904789999999,-0.009277340000000012
301.0,-0.025382601797990494,0.05309977084435043,-0.07277066807685525,-0.010000000000000005,-0.7599999999999999,-9.76999999999999,-0.0017318878900052887,0.007428829543451436,-0.002026044420941301,210.0625,-0.0625,175.5,0.037963870000000004,0.25958252000000026,-0.964904789999999,-0.009277340000000012
302.0,-0.02657033315705977,0.053442358540454774,-0.07060038780186849,-0.010000000000000005,-0.7599999999999999,-9.76999999999999,-0.010240943945002643,-0.013019456196016218,-0.018250925436277102,210.0625,-0.0625,175.5,0.037963870000000004,0.25958252000000026,-0.964904789999999,-0.009277340000000012
303.0,-0.02670315529702099,0.053018508725542035,-0.07328309536400492,-0.010000000000000005,-0.7599999999999999,-9.76999999999999,-0.0194826370527058,-0.02206394323990834,0.002382998413537809,210.0625,-0.0625,175.5,0.037963870000000004,0.25958252000000026,-0.964904789999999,-0.009277340000000012
304.0,-0.027000440683941494,0.052381808566895824,-0.07127666137845937,-0.010000000000000005,-0.7599999999999999,-9.76999999999999,-0.02443261942534814,-0.014965075797637933,-0.0036174643046007413,210.0625,-0.0625,175.5,0.037963870000000004,0.25958252000000026,-0.964904789999999,-0.009277340000000012
305.0,-0.027191080557024516,0.05216939890710383,-0.07196359950643397,-0.010000000000000005,-0.7599999999999999,-9.76999999999999,-0.025220341970738587,0.011788295434514366,-0.013451877313590693,210.0625,-0.0625,175.5,0.037963870000000004,0.25958252000000026,-0.964904789999999,-0.009277340000000012
306.0,-0.02714242904988544,0.052559316058522834,-0.07363291027674951,-0.010000000000000005,-0.7599999999999999,-9.76999999999999,-0.0011777278335977446,0.011836770668076856,-0.0029905913978494625,210.0625,-0.0625,175.5,0.037963870000000004,0.25958252000000026,-0.964904789999999,-0.009277340000000012
307.0,-0.026239732064163596,0.05274352194606028,-0.07251753922087076,-0.010000000000000005,-0.7599999999999999,-9.76999999999999,-0.012978142076502733,-0.013110347258945883,-0.004642605323462013,210.0625,-0.0625,175.5,0.037963870000000004,0.25958252000000026,-0.964904789999999,-0.009277340000000012
308.0,-0.026311299136259493,0.05378318350079323,-0.07167389388330686,-0.010000000000000005,-0.7599999999999999,-9.76999999999999,0.0029470738586285907,-0.02246937246606734,0.004206328221399611,210.0625,-0.0625,175.5,0.037963870000000004,0.25958252000000026,-0.964904789999999,-0.009277340000000012
309.0,-0.026738233738762572,0.054529173276925774,-0.07282601797990479,-0.010000000000000005,-0.7599999999999999,-9.76999999999999,0.013226577648510488,-0.012731909924202364,-0.01496893178212586,210.0625,-0.0625,175.5,0.037963870000000004,0.25958252000000026,-0.964904789999999,-0.009277340000000012
310.0,-0.027551912568306032,0.05240437158469945,-0.07223021329102765,-0.010000000000000005,-0.7599999999999999,-9.76999999999999,0.0005817028027498674,-0.009642164639520535,0.011164727657324167,210.0625,-0.0625,175.5,0.037963870000000004,0.25958252000000026,-0.964904789999999,-0.009277340000000012
311.0,-0.028479464128327185,0.052530936012691695,-0.07163264586638461,-0.010000000000000005,-0.7599999999999999,-9.76999999999999,-0.013513573065397497,-0.017922615899876607,0.014606469240260885,210.0625,-0.0625,175.5,0.037963870000000004,0.25958252000000026,-0.964904789999999,-0.009277340000000012
312.0,-0.02677542746342325,0.05291010047593865,-0.07443345672483692,-0.010000000000000005,-0.7599999999999999,-9.76999999999999,-0.01905186849991186,-0.020512735765908688,-0.000513396791820905,210.0625,-0.0625,175.5,0.037963870000000004,0.25958252000000026,-0.964904789999999,-0.009277340000000012
313.0,-0.027069539925965114,0.052754715318173794,-0.07486753040719193,-0.010000000000000005,-0.7599999999999999,-9.76999999999999,-0.015183214348669132,-0.015120416887008638,0.011894059580468888,210.0625,-0.0625,175.5,0.037963870000000004,0.25958252000000026,-0.964904789999999,-0.009277340000000012
314.0,-0.027204124801692244,0.05301445443328044,-0.07245795875198305,-0.010000000000000005,-0.7599999999999999,-9.76999999999999,-0.01063260179799048,-0.02202593424995593,0.014011545919266701,210.0625,-0.0625,175.5,0.037963870000000004,0.25958252000000026,-0.964904789999999,-0.009277340000000012
315.0,-0.02761360832011283,0.05378635642517186,-0.07424810505905163,-0.010000000000000005,-0.7599999999999999,-9.76999999999999,-0.014104640401903753,-0.006169575180680416,-0.01101654768200247,210.0625,-0.0625,175.5,0.037963870000000004,0.25958252000000026,-0.964904789999999,-0.009277340000000012
316.0,-0.028309888947646765,0.05447311827956989,-0.07354362771020623,-0.010000000000000005,-0.7599999999999999,-9.76999999999999,0.008174687114401552,-3.745813502555994e-05,-0.004207429931253307,210.0625,-0.0625,175.5,0.037963870000000004,0.25958252000000026,-0.964904789999999,-0.009277340000000012
317.0,-0.02725577295963337,0.052269698572184026,-0.07312048298959985,-0.010000000000000005,-0.7599999999999999,-9.76999999999999,-0.003580557024502027,-0.012541864974440332,0.0035205138374757613,210.0625,-0.0625,175.5,0.037963870000000004,0.25958252000000026,-0.964904789999999,-0.009277340000000012
318.0,-0.02692130729264702,0.05056696155144648,-0.0727016211193671,-0.010000000000000005,-0.7599999999999999,-9.76999999999999,-0.02458563572019707,-0.01047689658417661,-0.011201345505173183,210.0625,-0.0625,175.5,0.037963870000000004,0.25958252000000026,-0.964904789999999,-0.00927734000000001
319.0,-0.02528843436199424,0.05200655498689899,-0.07151734502116777,-0.010000000000000005,-0.7599999999999999,-9.76999999999999,-0.0063917844562557695,-0.006900102178920668,-0.019056406050665206,210.0625,-0.0625,175.5,0.037963870000000004,0.25958252000000026,-0.964904789999999,-0.00927734000000001
320.0,-0.027252889840965397,0.05245489039667529,-0.07354026954918781,-0.010000000000000005,-0.7599999999999999,-9.76999999999999,-0.004501418404754008,-0.012059913596070594,0.0031800201370153595,210.0625,-0.0625,175.5,0.037963870000000004,0.25958252000000026,-0.964904789999999,-0.009277340000000012
321.0,-0.027696072983236102,0.05217773604973902,-0.0734456151200901,-0.010000000000000005,-0.7599999999999999,-9.76999999999999,-0.00755213701834739,-0.0018115097682450624,0.002615701942295799,210.0625,-0.0625,175.5,0.037963870000000004,0.25958252000000026,-0.964904789999999,-0.009277340000000012
322.0,-0.026587283803446014,0.0530646744764824,-0.07417173229122785,-0.010000000000000005,-0.7599999999999999,-9.76999999999999,0.020131861598353187,-0.0021154323034773695,0.03501080796039521,210.0625,-0.0625,175.5,0.037963870000000004,0.25958252000000026,-0.964904789999999,-0.009277340000000012
323.0,-0.027316058522827445,0.053441212762206924,-0.07307985193019567,-0.010000000000000005,-0.7599999999999999,-9.76999999999999,-0.001044420941300899,0.0001542393795170104,0.025962894412127624,210.0625,-0.0625,175.5,0.037963870000000004,0.25958252000000026,-0.964904789999999,-0.009277340000000012
324.0,-0.028166225982725206,0.05301886127269521,-0.0725499735589635,-0.010000000000000005,-0.7599999999999999,-9.76999999999999,-0.015510973030142781,-0.008846730125154238,0.013923409130971266,210.0625,-0.0625,175.5,0.037963870000000004,0.25958252000000026,-0.964904789999999,-0.009277340000000012
325.0,-0.027117838885951012,0.053440331394323984,-0.0721313238145602,-0.010000000000000005,-0.7599999999999999,-9.76999999999999,-0.013619888066278864,-0.014911642869733826,-0.0030958046888771365,210.0625,-0.0625,175.5,0.037963870000000004,0.25958252000000026,-0.964904789999999,-0.009277340000000012
326.0,-0.027384188260179812,0.053236294729420056,-0.07264630706857042,-0.010000000000000005,-0.7599999999999999,-9.76999999999999,-0.0023576590869028736,-0.010278402080028204,0.004332473999647453,210.0625,-0.0625,175.5,0.037963870000000004,0.25958252000000026,-0.964904789999999,-0.009277340000000012
327.0,-0.026310946589106307,0.05384082496033844,-0.07107597391151066,-0.010000000000000005,-0.7599999999999999,-9.76999999999999,-0.00614864269346025,0.0017858716728362412,0.0016365899876608497,210.0625,-0.0625,175.5,0.037963870000000004,0.25958252000000026,-0.964904789999999,-0.009277340000000012
328.0,-0.026467301251542404,0.05383976731887889,-0.07171002996650802,-0.010000000000000005,-0.7599999999999999,-9.76999999999999,0.005897452846818262,-0.0012912039485281157,0.010781332628239026,210.0625,-0.0625,175.5,0.037963870000000004,0.25958252000000026,-0.964904789999999,-0.009277340000000012
329.0,-0.02758618640646414,0.05404199007181726,-0.07323743766454568,-0.010000000000000005,-0.7599999999999999,-9.76999999999999,-0.011156713606614238,-0.005567579593206076,0.020982881561215264,210.0625,-0.0625,175.5,0.037963870000000004,0.25958252000000026,-0.964904789999999,-0.009277340000000012
330.0,-0.027367769711342152,0.05309640053982698,-0.07342621837665045,-0.010000000000000005,-0.7599999999999999,-9.76999999999999,-0.01359474781843378,-0.015569692840160538,0.0014991635799515343,210.0625,-0.0625,175.5,0.037963870000000004,0.25958252000000026,-0.964904789999999,-0.00927734000000001
331.0,-0.027603239694380763,0.05244604973227908,-0.07260827047864779,-0.010000000000000005,-0.7599999999999999,-9.76999999999999,-0.005318879285560977,-0.005550303409327581,-0.011800821435830684,210.0625,-0.0625,175.5,0.037963870000000004,0.25958252000000026,-0.964904789999999,-0.00927734000000001
332.0,-0.02804583267194602,0.05256682657542461,-0.07272461595442598,-0.010000000000000005,-0.7599999999999999,-9.76999999999999,0.014642380524053922,0.012618755768767233,-0.007998101818374221,210.0625,-0.0625,175.5,0.037963870000000004,0.25958252000000026,-0.964904789999999,-0.009277340000000012
333.0,-0.02795840020694076,0.053286101459755306,-0.07381929722452481,-0.010000000000000005,-0.7599999999999999,-9.76999999999999,0.008665276283532338,-7.503071776692165e-05,-0.0021677337048860356,210.0625,-0.0625,175.5,0.037963870000000004,0.25958252000000026,-0.964904789999999,-0.009277340000000012
334.0,-0.026247323585953913,0.04925283220750512,-0.07329657195600157,-0.010000000000000005,-0.7599999999999999,-9.76999999999999,-0.003276623044498139,0.01571647354156746,-0.0021092744140108286,210.0625,-0.0625,175.5,0.037963870000000004,0.25958252000000026,-0.964904789999999,-0.009277340000000012
335.0,-0.02537796182255507,0.046037202254027285,-0.07497533022864389,-0.010000000000000005,-0.7599999999999999,-9.76999999999999,-0.02570777750294263,0.00033598596634880525,-0.03355106318554784,210.0625,-0.0625,175.5,0.037963870000000004,0.25958252000000026,-0.964904789999999,-0.009277340000000012
336.0,-0.02505726048117002,0.04738688069690611,-0.07529680489926818,-0.010000000000000005,-0.7599999999999999,-9.76999999999999,0.01666560049584051,0.018917992983174405,-0.02069018213040833,210.0625,-0.0625,175.5,0.037963870000000004,0.25958252000000026,-0.964904789999999,-0.009277340000000012
337.0,-0.0246778600387802,0.047633879781420765,-0.07471946060285561,-0.010000000000000005,-0.7599999999999999,-9.76999999999999,0.0046233254010223865,0.0010389123920324355,-0.02350057288912392,210.0625,-0.0625,175.5,0.037963870000000004,0.25958252000000026,-0.964904789999999,-0.009277340000000012
338.0,-0.02616957518068043,0.05021478935307597,-0.07546456901110524,-0.010000000000000005,-0.7599999999999999,-9.76999999999999,0.008175237969328397,0.0012587035078441753,-0.010204587519830777,210.0625,-0.0625,175.5,0.037963870000000004,0.25958252000000026,-0.964904789999999,-0.009277340000000012
339.0,-0.026986250661025928,0.050179975321699266,-0.07488647981667548,-0.010000000000000005,-0.7599999999999999,-9.76999999999999,0.00010906927551559975,0.022881411951348494,-0.011431341441917856,210.0625,-0.0625,175.5,0.037963870000000004,0.25958252000000026,-0.964904789999999,-0.009277340000000012
340.0,-0.0278922087079147,0.049512867971091126,-0.07440199189141547,-0.010000000000000005,-0.7599999999999999,-9.76999999999999,-0.004023995240613432,0.003624074563722898,-0.006303983782830954,210.0625,-0.0625,175.5,0.037963870000000004,0.25958252000000026,-0.964904789999999,-0.009277340000000012
341.0,-0.027083377401727497,0.04825224748810153,-0.07439679182090604,-0.010000000000000005,-0.7599999999999999,-9.76999999999999,0.006582716375815266,0.005454565485633704,-0.010949894235854045,210.0625,-0.0625,175.5,0.037963870000000004,0.25958252000000026,-0.964904789999999,-0.009277340000000012
342.0,-0.027771373171161663,0.04778150890181561,-0.07196025030847875,-0.010000000000000005,-0.7599999999999999,-9.76999999999999,-0.007899810505905165,0.0013622642340913097,-0.012051053234620131,210.0625,-0.0625,175.5,0.037963870000000004,0.25958252000000026,-0.964904789999999,-0.009277340000000012
343.0,-0.02823514895117224,0.0490170985369293,-0.07475163053058345,-0.010000000000000005,-0.7599999999999999,-9.76999999999999,-0.008973426758328925,0.0065783095364004935,-0.00983937070333157,210.0625,-0.0625,175.5,0.037963870000000004,0.25958252000000026,-0.964904789999999,-0.009277340000000012
344.0,-0.028322125745608814,0.04959179588657078,-0.07363901446011953,-0.010000000000000005,-0.7599999999999999,-9.76999999999999,-0.0027936341072311967,-0.008347566713862494,-0.02917507164667952,210.0625,-0.0625,175.5,0.037963870000000004,0.25958252000000026,-0.964904789999999,-0.009277340000000012
345.0,-0.02789224566850334,0.05016148934113486,-0.07338939970317804,-0.010000000000000005,-0.7599999999999999,-9.76999999999999,-0.005546682645013448,-0.003921767227898989,-0.010773691737318253,210.0625,-0.0625,175.5,0.037963870000000004,0.25958252000000026,-0.964904789999999,-0.009277340000000012
346.0,-0.02745855012140133,0.04952618799861255,-0.07325771765522024,-0.010000000000000005,-0.7599999999999999,-9.76999999999999,-0.013285856746444676,-0.011232873742629206,-0.01642928373222338,210.0625,-0.0625,175.5,0.037963870000000004,0.25958252000000026,-0.964904789999999,-0.009277340000000012
347.0,-0.026777662157474867,0.048859868192854664,-0.07060197710718003,-0.010000000000000005,-0.7599999999999999,-9.76999999999999,-0.011128815469996532,-0.012555280957336108,-0.01767364724245577,210.0625,-0.0625,175.5,0.037963870000000004,0.25958252000000026,-0.964904789999999,-0.009277340000000012
348.0,-0.029012486992715934,0.04908047173083593,-0.06966389177939647,-0.010000000000000005,-0.7599999999999999,-9.76999999999999,-0.004337929240374608,-0.0016237426292056894,-0.0011923343739160593,210.0625,-0.0625,175.5,0.037963870000000004,0.25958252000000026,-0.964904789999999,-0.009277340000000012
349.0,-0.02767080909571657,0.048945355191256826,-0.07182099418297197,-0.010000000000000005,-0.7599999999999999,-9.76999999999999,-0.00010245901639344222,-0.006287458135025559,-0.01622543187026265,210.0625,-0.0625,175.5,0.037963870000000004,0.25958252000000026,-0.964904789999999,-0.009277340000000012
350.0,-0.02706927551560023,0.04911783888595099,-0.07378415300546445,-0.010000000000000005,-0.7599999999999999,-9.76999999999999,0.002771351136964569,-0.005294266701921382,-0.02597225894588401,210.0625,-0.0625,175.5,0.037963870000000004,0.25958252000000026,-0.964904789999999,-0.009277340000000012
351.0,-0.027144632469592825,0.04957773664727657,-0.07446395205358716,-0.010000000000000005,-0.7599999999999999,-9.76999999999999,0.021271263000176274,0.006628437334743521,-0.0168638727304777,210.0625,-0.0625,175.5,0.037963870000000004,0.25958252000000026,-0.964904789999999,-0.009277340000000012
352.0,-0.02846492155825843,0.049649215582584165,-0.07209501145778247,-0.010000000000000005,-0.7599999999999999,-9.76999999999999,0.025065000881367882,0.01886843380927199,-0.023465318173805746,210.0625,-0.0625,175.5,0.037963870000000004,0.25958252000000026,-0.964904789999999,-0.009277340000000012
353.0,-0.0265060814383924,0.05025841706328221,-0.07292508372994885,-0.010000000000000005,-0.7599999999999999,-9.76999999999999,0.020431209236735415,0.01827295963335096,-0.02095782654680063,210.0625,-0.0625,175.5,0.037963870000000004,0.25958252000000026,-0.964904789999999,-0.009277340000000012
354.0,-0.016268200246783014,0.05268739979686568,-0.07328336397135973,-0.00811571940604199,-0.7599999999999998,-9.76999999999999,0.035751140532010436,0.1322061267658835,0.4503508421260272,210.1551779313876,-0.05072324628776242,175.5,0.037925366610343056,0.260339068325653,-0.9647057761341518,-0.009408849513568872
355.0,-0.005403951240016819,0.05635693397618304,-0.07162968860271873,-0.023985899405254266,-0.7648436724565761,-9.76999999999999,0.027220845286683466,-0.18891658095121872,0.25104003024415505,210.44531539249283,-0.14445281421087872,175.46674937965258,0.0383289414813502,0.26271116248044435,-0.9640579564169519,-0.008835187580605775
356.0,0.012898235908283507,0.05704943473002701,-0.07218448999147041,-0.05312198196069167,-0.7675831265508692,-9.76999999999999,0.06340219948099377,-0.11590858132701072,-0.27505342485676965,210.54574237366575,-0.31920221355705225,175.4511166253102,0.03880794896648156,0.26351441422409316,-0.9638370562729922,-0.00745360201610934
357.0,0.017833007686490238,0.056943116914662945,-0.07326194527379254,-0.06269522615204197,-0.7689528535980157,-9.76999999999999,0.054147727228939596,-0.08340751988170361,-0.15265620953692952,210.336379251349,-0.3843994938753003,175.44330024813894,0.03904745270904725,0.2616795558945647,-0.9643378942082963,-0.006853378104828859
358.0,0.022821139838309464,0.059909950842312966,-0.07690613568995461,-0.06731535501150485,-0.7696377171215889,-9.76999999999999,0.03811630147803405,-0.027468566921285444,-0.08626222251921392,210.23169769019063,-0.4169981340344243,175.43939205955337,0.03916720458033009,0.26075652069997046,-0.9645898375880191,-0.00655326614918862
359.0,0.02476540862883216,0.05866055657835054,-0.07606085074308278,-0.06968430320979746,-0.7699801488833755,-9.76999999999999,0.005354873729288402,0.003930847107713652,-0.1075160318945276,210.14420265973945,-0.43366547766749375,175.43743796526053,0.03922828374689829,0.25996421696749666,-0.9648133865687158,-0.006399100499069473
360.0,0.024095690253208478,0.05813093999306278,-0.07466235258411374,-0.0703433922996878,-0.7700000000000009,-9.76999999999999,0.005070943895248006,-0.0013534350069372182,-0.049172614789282,210.09283644153226,-0.4388860887096774,175.4375,0.03924561000000003,0.2594984078609194,-0.9649454461131427,-0.00634199944556451
361.0,0.02331182795698926,0.05893929934096426,-0.07519944502254594,-0.07001040582726323,-0.7700000000000009,-9.76999999999999,0.00824445022545959,0.019235605272285815,-0.02715270551508845,210.06854838709677,-0.4375,175.4375,0.03924561000000003,0.25927746566181037,-0.9650082568317737,-0.0063476599999999946
362.0,0.023160707482529026,0.0606242273815413,-0.0757473146710792,-0.06999999999999998,-0.7700000000000009,-9.76999999999999,0.00023390010974451685,-0.0007069956443367838,-0.007271551577079886,210.06451612903226,-0.4375,175.4375,0.03924561000000003,0.2592368846935481,-0.9650205594408614,-0.0063476599999999946
363.0,0.02251314944018925,0.06173415670152333,-0.07606182937855036,-0.06999999999999998,-0.7700000000000009,-9.76999999999999,-0.015289635966633117,-0.010484546209265165,0.0015221543189869375,210.0625,-0.4375,175.4375,0.03924561000000003,0.2592167693978492,-0.9650266631075282,-0.0063476599999999946
364.0,0.020563026332997857,0.0623724546948477,-0.07535618350647948,-0.06999999999999998,-0.7700000000000009,-9.76999999999999,-0.014768473897295053,0.008064178508270644,0.0001730395250848669,210.0625,-0.4375,175.4375,0.03924561000000003,0.25921630999999973,-0.9650268600000014,-0.0063476599999999946
365.0,0.019135867123840727,0.06156230702308045,-0.07423463150293128,-0.06999999999999998,-0.7700000000000009,-9.76999999999999,-0.01328527035249029,-0.0024897576522634078,-0.008542622666507451,210.0625,-0.4375,175.4375,0.03924561000000003,0.25921630999999973,-0.9650268600000014,-0.0063476599999999946
366.0,0.019439097479287865,0.06120941300898993,-0.07329543451436629,-0.06999999999999998,-0.7700000000000009,-9.76999999999999,-0.0005244138903578357,0.0013264586638462902,-0.010145646042658205,210.0625,-0.4375,175.4375,0.03924561000000003,0.25921630999999973,-0.9650268600000014,-0.0063476599999999946
367.0,0.01898378283095365,0.06065635466243609,-0.07481605852282742,-0.06999999999999998,-0.7700000000000009,-9.76999999999999,-0.0028512251013573064,-0.004366076150185087,-0.0014911642869733831,210.0625,-0.4375,175.4375,0.03924561000000003,0.25921630999999973,-0.9650268600000014,-0.0063476599999999946
368.0,0.018427375286444572,0.06122871496562664,-0.07471179270227393,-0.06999999999999998,-0.7700000000000009,-9.76999999999999,0.0028082584170632825,-0.014783844526705447,-0.0003591574123038958,210.0625,-0.4375,175.4375,0.03924561000000003,0.25921630999999973,-0.9650268600000014,-0.0063476599999999946
369.0,0.019815231174266344,0.06048541193997599,-0.07544399902196594,-0.06999999999999998,-0.7700000000000009,-9.76999999999999,-0.00616502618515549,-0.0182345774836094,-0.013639949847324338,210.0625,-0.4375,175.4375,0.03924561000000003,0.25921630999999973,-0.9650268600000014,-0.0063476599999999946
370.0,0.02081678390449732,0.05979473207042808,-0.07424639248752665,-0.06999999999999997,-0.7700000000000007,-9.76999999999999,-0.007821452672568603,-0.020384139300651694,-0.009289298839803749,210.0625,-0.4375,175.4375,0.03924561000000003,0.2592163099999998,-0.9650268600000014,-0.0063476599999999946
371.0,0.019980928529015805,0.05850780143094822,-0.07500826587182607,-0.06999999999999997,-0.7700000000000007,-9.76999999999999,0.022772686320158497,-0.002226707408125951,0.00200527125698866,210.0625,-0.4375,175.4375,0.03924561000000003,0.25921630999999973,-0.9650268600000014,-0.0063476599999999946
372.0,0.021044227705368124,0.05830497598429131,-0.07446649852731088,-0.06999999999999997,-0.7700000000000008,-9.76999999999999,0.009857445310616882,0.0033557323174424007,0.05303556573602121,210.0625,-0.4375,175.4375,0.03924561000000003,0.2592257604946234,-0.9650231846451626,-0.0063476599999999946
373.0,0.026350897971790764,0.0563437617721291,-0.0744607099749871,-0.06865012406947889,-0.7700000000000009,-9.76999999999999,0.001833447634630195,0.09687017385102889,0.9188086741004341,210.64066377171218,-0.4176488833746898,175.4375,0.0391084535533499,0.26414116578825475,-0.9636563793052118,-0.006720836059553346
374.0,0.02815203587455304,0.050848779949540096,-0.07304721242766005,-0.06416377171215883,-0.7700000000000009,-9.76999999999999,-0.00508288596416253,0.0315906540431003,0.44942124651951987,211.1580334987593,-0.39531637717121587,175.4375,0.038956515647642714,0.26845167208767584,-0.9624514983622837,-0.007164286739454091
375.0,0.028607820379412487,0.04769612316230422,-0.07758192587849194,-0.061920595533498796,-0.7700000000000009,-9.76999999999999,0.0013757704314416074,0.03550896835561247,0.23393583740227863,211.41671836228286,-0.3841501240694789,175.4375,0.03888054669478912,0.2706069252373865,-0.9618490578908196,-0.007386012079404463
376.0,0.029564662877878296,0.04606311534459297,-0.0766242962725793,-0.06079900744416877,-0.7698279569892481,-9.76999999999999,-0.036711308332666295,0.0062121454681288175,0.019992112249526406,211.54014681555003,-0.37534119106699754,175.4385752688172,0.03883731180976016,0.2716509494896612,-0.9615593881927218,-0.007497399738626962
377.0,0.02378233143893915,0.05362564369380185,-0.07719924491048322,-0.05846401985111664,-0.7718494623655919,-9.76999999999999,-0.02435363803730089,-0.04339930361002161,-0.09042397075695723,211.47319840777502,-0.3444246277915633,175.42543682795696,0.038971071227460706,0.2711849136910672,-0.9616964779834576,-0.007665285917700575
378.0,0.024681676284173698,0.06010592659161857,-0.0769685223725286,-0.0647434017595308,-0.7760860215053769,-9.76999999999999,-0.08295375713429823,-0.01635291520827421,0.9689366348185287,211.71361345307918,-0.38327376588465295,175.39921034946235,0.039288749216031274,0.2732335632206746,-0.9610961983040077,-0.007469725380987289
379.0,0.034791836930916795,0.06459706865054564,-0.07827849021681649,-0.0778555718475073,-0.7782043010752695,-9.76999999999999,-0.09257738009390573,-0.004466982757239236,0.40705685223466814,212.50801640395895,-0.4436530119745845,175.38609711021508,0.03949458170478985,0.2799056695135631,-0.9591513412487778,-0.007109514948558155
380.0,0.04024269265900679,0.06838993217473519,-0.07644300854926847,-0.08441165689149555,-0.7792634408602157,-9.76999999999999,-0.05016973843404964,0.0030756484063266185,0.1903395820313126,212.90521787939883,-0.4738426350195503,175.3795404905914,0.03959749794916914,0.28324172266000736,-0.9581789127211628,-0.006929409732343588
381.0,0.04303263665208404,0.06908475103360415,-0.076915052661731,-0.08768969941348967,-0.7797983870967748,-9.76999999999999,-0.0234047616901431,0.01049279732144288,0.1057208662844735,213.10400342894673,-0.4890382529936461,175.37622857862902,0.03964912014662761,0.2849107993058101,-0.9576923375030544,-0.006839340718322326
382.0,0.042688393338842834,0.07042335189929055,-0.07693874912912457,-0.08938416422287382,-0.7800000000000007,-9.76999999999999,0.0023115160443293713,0.012839884643824358,0.04673104086113075,213.20741691104593,-0.49746456500488756,175.375,0.03967007571847512,0.2857762048973607,-0.9574402433382204,-0.006790800200390995
383.0,0.04234810673784761,0.068122233134396,-0.07706077241402465,-0.08999999999999991,-0.7800000000000007,-9.76999999999999,-0.03211342575105135,0.014762439878119413,-0.032316297751252804,213.25,-0.5,175.375,0.03967285000000005,0.28613281,-0.9573364299999996,-0.006774899999999988
384.0,0.042456443638622374,0.0679876104857596,-0.07701795891986267,-0.08999999999999991,-0.7800000000000007,-9.76999999999999,-0.0065214140918133535,-0.0038231692729974055,-0.04757340535368034,213.25,-0.5,175.375,0.03967285000000005,0.28613281,-0.9573364299999996,-0.006774899999999988
385.0,0.041058866980601516,0.06768197728589057,-0.07618371064272703,-0.08999999999999991,-0.7800000000000007,-9.76999999999999,-0.00851944360504646,-0.014461987862305153,-0.03252326181662511,213.25,-0.5,175.375,0.03967285000000005,0.28613280999999996,-0.9573364299999996,-0.006774899999999988
386.0,0.03927795933143846,0.06777491163982352,-0.07522123444033679,-0.08999999999999991,-0.7800000000000007,-9.76999999999999,-0.007398271056772277,-0.021027386577701312,-0.01337509778309577,213.25,-0.5,175.375,0.03967285000000005,0.28613281,-0.9573364299999995,-0.006774899999999988
387.0,0.041136381728959476,0.06700296537645781,-0.07613625663158252,-0.08999999999999991,-0.7800000000000007,-9.76999999999999,-0.009419370475881792,-0.004888677550138461,-0.004284247539277734,213.25,-0.5,175.375,0.03967285000000005,0.28613281,-0.9573364299999996,-0.006774899999999988
388.0,0.04166227688598512,0.06555793430113213,-0.07794178422976974,-0.08999999999999991,-0.7800000000000007,-9.76999999999999,0.012528217987865554,0.006964263375468403,-0.001419677533079727,213.25,-0.5,175.375,0.03967285000000005,0.28613280999999996,-0.9573364299999996,-0.006774899999999988
389.0,0.04188877990253777,0.06569805757891084,-0.07588786726031058,-0.08999999999999991,-0.7800000000000007,-9.76999999999999,-0.006146652507918095,0.010703839778691366,-0.011815074091764612,213.25,-0.5,175.375,0.03967285000000005,0.28613281,-0.9573364299999996,-0.006774899999999988
390.0,0.04213163655800253,0.06543562318395567,-0.07700386664619618,-0.08999999999999991,-0.7800000000000007,-9.76999999999999,-0.01295290936695041,-0.003251607785605841,-0.00985248460449327,213.25,-0.5,175.375,0.03967285000000005,0.28613281,-0.9573364299999996,-0.006774899999999988
391.0,0.04168496500116568,0.06625319140467292,-0.07634532562278593,-0.08999999999999991,-0.7800000000000007,-9.76999999999999,-0.013142687774005903,-0.0048451067023762805,0.0043414476041009195,213.25,-0.5,175.375,0.03967285000000005,0.28613281,-0.9573364299999995,-0.006774899999999988
392.0,0.04139703917253772,0.06594820684282651,-0.07443531044051335,-0.08999999999999991,-0.7800000000000007,-9.76999999999999,-0.01447060353798127,0.013524696781017042,-0.0038093572837947717,213.25,-0.5,175.375,0.03967285000000005,0.28613280999999996,-0.9573364299999996,-0.006774899999999988
393.0,0.04169583141422585,0.06617571632463905,-0.07524453694068678,-0.08999999999999991,-0.7800000000000007,-9.76999999999999,-0.0072016996184529995,0.016137348390508517,0.02981575146562949,213.25,-0.5,175.375,0.03967285000000005,0.28613280999999996,-0.9573364299999996,-0.006774899999999988
394.0,0.03988281787527792,0.0667155683685596,-0.07475870421862474,-0.08999999999999991,-0.7800000000000007,-9.76999999999999,-0.016441278154017615,0.004680916395148496,-0.0005766562608394039,213.25,-0.5,175.375,0.03967285000000005,0.28613281,-0.9573364299999996,-0.006774899999999988
395.0,0.03940491177791805,0.0675187503909293,-0.0754964091366575,-0.08999999999999991,-0.7800000000000007,-9.76999999999999,0.0009383014050709931,-0.006223558963511369,-0.019406903385021296,213.25,-0.5,175.375,0.03967285000000005,0.28613281,-0.9573364299999995,-0.006774899999999988
