time,linaccel_x,linaccel_y,linaccel_z,gravity_x,gravity_y,gravity_z,gyro_x,gyro_y,gyro_z,euler_x,euler_y,euler_z,quaternion_w,quaternion_y,quaternion_x,quaternion_z
0.0,-0.01600000000000001,-0.24523076923076928,-0.08569230769230769,-0.1600000000000001,-9.79,-0.42999999999999977,-0.0038461538461538464,0.022115384615384617,-0.026923076923076925,103.25,-0.9375,92.5,0.4289550800000005,0.5741577100000007,-0.43896484000000036,-0.5418701199999995
1.0,-0.016717948717948728,-0.246974358974359,-0.08620512820512821,-0.1600000000000001,-9.79,-0.42999999999999977,-0.01217948717948718,0.01698717948717949,-0.021794871794871794,103.25,-0.9375,92.5,0.4289550800000005,0.5741577100000006,-0.4389648400000003,-0.5418701199999995
2.0,-0.017987345987346,-0.24671195471195478,-0.0829190809190809,-0.1600000000000001,-9.789999999999997,-0.43666666666666654,-0.19623709623709623,0.07816766566766567,-0.005552780552780554,103.25378787878788,-0.9375,92.54274891774891,0.4288171561038963,0.5743220570995674,-0.43906894432900445,-0.5417284964502163
3.0,-0.017644094794094803,-0.2451322455322456,-0.07377890442890443,-0.1600000000000001,-9.79,-0.45586111111111083,-0.04209814491064492,-0.014042589355089355,-0.020299630924630923,103.28510101010102,-0.9375,92.66109532828283,0.42825493201515197,0.5749419063131316,-0.4393562396035354,-0.541288788426767
4.0,-0.01820464392238587,-0.2458422795842151,-0.06543833317220414,-0.1600000000000001,-9.79,-0.4631586021505373,-0.07515757651846361,-0.007818866841044261,-0.006238172669624283,103.29924242424241,-0.9375,92.70698161045942,0.4280177593621707,0.5751987030547411,-0.43946925142106563,-0.5411162989161771
5.0,-0.018913004139934346,-0.2459673912667038,-0.05849726527218595,-0.1600000000000001,-9.79,-0.467224462365591,-0.019536848707509075,0.005781460693296363,-0.0116747955647678,103.30687927663735,-0.9375,92.73252306329422,0.4278878803262469,0.5753397497531769,-0.43953207022666185,-0.5410206778451849
6.0,-0.018005209346041776,-0.24518805007183747,-0.047833280038638404,-0.1600000000000001,-9.790000000000001,-0.46992336541796703,-0.04800633758516413,-0.18880912157042537,-0.025818587248484917,103.26959468514488,-0.9375,92.74893582925378,0.42799061339933564,0.5752908716455791,-0.4397331827720198,-0.5408285670391377
7.0,-0.017463131601289754,-0.2514187934574613,-0.04080639005423053,-0.1600000000000001,-9.790000000000001,-0.48754104778834867,-0.08876004050509893,-0.08002036746956775,-0.02223279941952245,103.16291623309053,-0.9375,92.84804367802118,0.4280887146437399,0.5753986974004325,-0.44054215111405065,-0.5399762513527393
8.0,-0.016808202705406783,-0.24876207209995443,-0.02433964696003897,-0.1600000000000001,-9.79,-0.5006017210907951,-0.038195874467219205,0.08286943056053102,-0.006484603274789384,103.10867585848075,-0.9375,92.91501701270171,0.4280170917115108,0.5755823611309318,-0.44098170832532285,-0.5394896740107036
9.0,-0.016166518147378253,-0.24879219836436536,-0.016240484002292912,-0.1600000000000001,-9.79,-0.5059460218357206,-0.027970505077951638,0.032898168941299814,-0.005370437838111539,103.08155567117586,-0.9375,92.92928269989925,0.4280007592428522,0.5756369133074013,-0.44112900384008114,-0.5393400778118038
10.0,-0.016683566751204637,-0.24914675219565957,-0.01133795589310678,-0.1600000000000001,-9.79,-0.5086181722081832,0.0035369419068040295,0.01711261426889679,0.0029720611796574333,103.06799557752342,-0.9375,92.93641554349801,0.4279925930085229,0.575664189395636,-0.4412026515974603,-0.539265279712354
11.0,-0.01721558907042779,-0.24887981194432807,-0.007077863892380022,-0.1600000000000001,-9.789999999999997,-0.5099334357398879,0.003949161837266675,0.016005933470651212,0.012872823860727085,103.0625,-0.9375,92.9398681515617,0.42798327012288784,0.5756815587352788,-0.4412341722529449,-0.5392323900460838
12.0,-0.01803082670018155,-0.2482273192757064,-0.006567838523483686,-0.1600000000000001,-9.789999999999996,-0.5100768049155151,0.014919409387655354,0.015311070817623236,-0.0015844650421263321,103.0625,-0.9375,92.93871607782899,0.42797726987711215,0.5756859651664104,-0.4412277028776249,-0.53923970326677
13.0,-0.017982038123167163,-0.2485520527859238,-0.007272421798631478,-0.1600000000000001,-9.789999999999996,-0.5100000000000006,0.0018433452468230695,0.0038632927052785924,0.0005460349462365591,103.0625,-0.9375,92.9375,0.42797852,0.5756835899999997,-0.44122314000000074,-0.5392456100000009
14.0,-0.018435972629521024,-0.24851417399804498,-0.004652981427174976,-0.1600000000000001,-9.789999999999996,-0.5100000000000006,-0.030516862170087977,-0.15860215053763438,-0.003085288367546432,102.96328201368524,-0.9375,92.9375,0.4284997318866077,0.5752869522678394,-0.4416980580058658,-0.5388437174486809
15.0,-0.017072336265884662,-0.24793743890518088,-0.003528836754643207,-0.1600000000000001,-9.789999999999996,-0.5100000000000006,0.004215542521994135,-0.08128665689149558,-0.001710654936461388,102.8838587487781,-0.9375,92.9375,0.4289006640078198,0.5749812401661776,-0.4420591383577719,-0.5385406275953082
16.0,-0.01682592676141064,-0.2462140010527108,-0.004718249492443042,-0.1600000000000001,-9.79,-0.5100000000000007,0.046245958342732534,-0.03225242499436047,-0.009131795623731108,102.84414711632454,-0.9375,92.9375,0.4291011300684258,0.5748283841153466,-0.4422396785337249,-0.5383890826686217
17.0,-0.017559064591322664,-0.2468707421610648,-0.004946462140010528,-0.1600000000000001,-9.79,-0.5100000000000007,0.013853955184600345,-0.014385480111286559,-0.012246691480562448,102.82429130009774,-0.9375,92.9375,0.4292013630987288,0.5747519560899312,-0.4423299486217015,-0.5383133102052785
18.0,-0.016716971200842173,-0.24805169561621182,-0.002343710053387473,-0.1600000000000001,-9.79,-0.5100000000000007,0.001046601248214151,-0.013745159410481989,-0.020282070080457175,102.81436339198436,-0.9375,92.9375,0.4292514796138803,0.5747137420772235,-0.44237508366568973,-0.538275423973607
19.0,-0.01781351981351982,-0.2477599631551245,-0.0015384239416497483,-0.1600000000000001,-9.79,-0.5100000000000007,-0.0020121343710053385,-0.00033543405519211944,-0.017090570719602977,102.8125,-0.9375,92.9375,0.42926024999999957,0.5747070299999997,-0.44238281000000057,-0.5382690399999999
20.0,-0.016878411910669983,-0.24795378411910673,-0.00048573200992555853,-0.1600000000000001,-9.79,-0.5100000000000007,0.018529001240694787,-0.006155009305210918,0.007079714640198511,102.8125,-0.9375,92.9375,0.42926024999999957,0.5747070299999997,-0.44238281000000057,-0.5382690399999999
21.0,-0.01865260545905708,-0.24969897642679903,-0.0011014267990074446,-0.1600000000000001,-9.79,-0.5100000000000007,0.005402838089330025,0.0026141826923076926,-0.007626395781637718,102.8125,-0.9375,92.9375,0.42926024999999957,0.5747070299999997,-0.44238281000000057,-0.5382690399999999
22.0,-0.01530397022332507,-0.24893633684863525,0.004853753101736973,-0.1600000000000001,-9.79,-0.5049975186104221,-0.03771421370967742,-0.07369290865384616,0.03663345223325062,102.73160669975186,-0.9375,92.90821960297767,0.4297725225161285,0.5742747264367247,-0.4426910446401988,-0.5380693663523572
23.0,-0.012182212437515737,-0.24970517315783797,0.0021276713147768546,-0.1600000000000001,-9.789999999999997,-0.5023374689826304,-0.015395537488312292,0.5309132409892293,0.02623788524472255,102.77298836623872,-0.9375,92.89574432696803,0.4296442219943896,0.5743434131973244,-0.4424716405131802,-0.5382778631481282
24.0,-0.020722628090703136,-0.25059672147627965,0.0033442761510345657,-0.1600000000000001,-9.789999999999997,-0.5006946386946387,0.0960293016065281,0.21946606346260095,0.007474354095968312,103.22187419289452,-0.9375,92.91417837071765,0.42756211666190647,0.5758874446289652,-0.4404454626759451,-0.5399430601762147
25.0,-0.021130650555615506,-0.2523618382552464,0.015349817083337424,-0.1600000000000001,-9.789999999999996,-0.4872046018497632,0.06106984997237452,0.24872947295808442,-0.04318316676311067,103.44533958911589,-0.9375,92.83981767998247,0.4267907418060265,0.5763382370407779,-0.4391297646468679,-0.541144136187814
26.0,-0.013935422681607612,-0.2513921705627552,0.01879760770095911,-0.16423688011555126,-9.789999999999996,-0.47510687482955216,-0.020422678435908215,-0.021704853536142404,-0.019309029031716437,103.52709023268986,-0.963499037072701,92.77262610046307,0.4266605673329602,0.5765847702175486,-0.4381806459945942,-0.5417598627785483
27.0,-0.009630242358173533,-0.2536638272168614,0.01661716613335797,-0.16727973038035626,-9.79,-0.4676973580103097,-0.10918776601696156,0.06543479407560125,-0.039694837096503385,103.54403519078662,-0.9827575830524795,92.7319085837303,0.42676816511313026,0.5766219187762682,-0.43774660397248333,-0.5419849655331949
28.0,-0.0061171314642667575,-0.2527119977599034,0.02001148161740363,-0.16880115551275873,-9.79,-0.4683648080374127,-0.005300989132837955,0.010445015083616428,-0.00798439844539989,103.56533515032552,-0.9923868560423688,92.73877745689552,0.426655626883353,0.5768346568635899,-0.43757809171508666,-0.5419822290779576
29.0,-0.0048498658298850895,-0.25254368216440914,0.0196122901733157,-0.16956186807895998,-9.79,-0.4687083082220297,0.02788164130845883,0.019259042243665495,-0.0028008502490929075,103.56260403655084,-0.9972014925373134,92.74144090342332,0.4266624188644523,0.5768938481556464,-0.4375537254543172,-0.5419320812056452
30.0,-0.004161523587537379,-0.25170778217891576,0.02111625450550817,-0.1699422243620606,-9.79,-0.4692759527424907,-0.0057376235169306795,0.001649749419376343,-0.012436415885433157,103.56126902707308,-0.9996088107847857,92.74538443020629,0.4266573874234282,0.5769334820299248,-0.4375509988586344,-0.5418954923476903
31.0,-0.004422967814356992,-0.25043704291863766,0.021353306502435027,-0.16999999999999993,-9.79,-0.46972704714640157,-0.007418356660682365,0.014088290732492733,-0.0016700959680278097,103.56153846153846,-1.0,92.74829404466502,0.42664688692307623,0.5769526384367245,-0.4375587377369722,-0.5418767232754337
32.0,-0.0028713734453198556,-0.24921099724575924,0.020435478193185017,-0.16999999999999993,-9.790000000000001,-0.46999999999999953,0.030120766438729497,-0.006192767304849445,0.01983552753827858,103.5625,-1.0,92.75,0.4266357399999993,0.5769653299999999,-0.4375610399999995,-0.5418701199999993
33.0,-0.0039300063591166615,-0.250151253551195,0.019355643922501373,-0.16999999999999993,-9.790000000000001,-0.46999999999999953,-0.0013321659037791311,0.008310096362296219,0.005955510184909899,103.5625,-1.0,92.75,0.42663573999999926,0.5769653299999999,-0.43756103999999946,-0.5418701199999993
34.0,-0.003265406405364782,-0.2515700824207588,0.018568950993508755,-0.16999999999999993,-9.79,-0.46999999999999953,0.007855212411013661,0.0022491762053416576,0.010002704689229144,103.5625,-1.0,92.75,0.42663573999999926,0.5769653299999999,-0.4375610399999994,-0.5418701199999993
35.0,-0.005458485640847765,-0.250293005670477,0.026466057182498403,-0.16999999999999993,-9.79,-0.46999999999999953,0.004529193094164479,0.03200763260759359,0.006384126698252609,103.5625,-1.0,92.75,0.42663573999999926,0.5769653299999999,-0.4375610399999994,-0.5418701199999993
36.0,-0.006875311805202546,-0.25203613649906564,0.026257280325178364,-0.16999999999999993,-9.79,-0.46999999999999953,0.007832952921890226,0.029417038386373717,0.010868190984931358,103.5625,-1.0,92.75,0.4266357399999992,0.5769653299999999,-0.4375610399999994,-0.5418701199999993
37.0,-0.006542297532216889,-0.2515940938541744,0.029473356840292335,-0.16999999999999993,-9.789999999999997,-0.46999999999999953,-0.02148073840362147,0.020426304486284325,-0.006913955779883199,103.5625,-1.0,92.75,0.4266357399999992,0.5769653299999999,-0.4375610399999994,-0.5418701199999993
38.0,-0.0063501852274270455,-0.2523968436424352,0.025378553530003952,-0.16999999999999993,-9.789999999999996,-0.46999999999999953,-0.0059431666584599,0.005527956868250109,-0.004789361669966207,103.5625,-1.0,92.75,0.42663573999999915,0.5769653299999999,-0.4375610399999994,-0.5418701199999993
39.0,-0.006729512823879702,-0.2508377332826056,0.026869231554835806,-0.16999999999999993,-9.789999999999996,-0.47211143695014635,-0.010113472228301309,-0.011362766586647184,-0.013856641673204023,103.5625,-1.0,92.76221896383186,0.4266094885825995,0.5769863319159337,-0.43758824594330337,-0.5418491180840662
40.0,-0.0051982025357085555,-0.25145037276958315,0.018125720371748304,-0.16999999999999993,-9.789999999999996,-0.471055718475073,-0.0026129433477772427,-0.0012665776688405486,0.003793349965713951,103.5625,-1.0,92.75610948191593,0.4266417079374386,0.5769443316031282,-0.4375555493255129,-0.541891118396872
41.0,-0.004531652587502371,-0.2516193889564135,0.012853408347390056,-0.16999999999999993,-9.79,-0.47052785923753626,-0.025792100292581756,0.010849717406650482,-0.0043030392813734174,103.5625,-1.0,92.75305474095796,0.4266702284848485,0.5769233314467254,-0.43752679014662743,-0.5419121185532749
42.0,-0.004264848776644636,-0.2499861363159389,0.010099724701554265,-0.16999999999999993,-9.79,-0.47026392961876795,-0.022213010068089508,-0.0002875068880726084,-0.01035349911282747,103.5625,-1.0,92.75152737047898,0.42668448875855347,0.576912831368524,-0.4375124105571847,-0.5419226186314763
43.0,-0.005985337243401761,-0.25034574028122414,0.008982216708023162,-0.16999999999999993,-9.79,-0.4690835777126096,-0.0651733682983683,0.07862069046544853,0.0145256457252425,103.63457661290323,-1.0,92.74320320136852,0.42629636647605074,0.577167963587488,-0.43709372511730205,-0.5423034323802542
44.0,-0.0052560862076991115,-0.2508380472574021,0.00870874555551975,-0.16999999999999993,-9.79,-0.46947580645161247,-0.06411888402815821,0.05153003638386703,0.026047297796289733,103.66305443548387,-1.0,92.74621975806451,0.42612035488514133,0.5772865066129036,-0.43688550011485805,-0.542496955080645
45.0,-0.006745135688684078,-0.2516980582141872,0.004846040608137384,-0.16999999999999993,-9.79,-0.469737903225806,-0.006534172033163966,-0.0209979746396077,-0.0047214867905392074,103.67729334677419,-1.0,92.74810987903226,0.426030932056451,0.5773474187903231,-0.4367828344758061,-0.5425920757661287
46.0,-0.006291922683051717,-0.250899897593446,0.010436667946748595,-0.16999999999999993,-9.79,-0.46986895161290276,-0.0035152249743983623,-0.012383292530721965,0.0048818124359959044,103.68441280241936,-1.0,92.74905493951613,0.42598583280241864,0.5773778748790329,-0.4367318894959674,-0.5426396361088706
47.0,-0.005499791986687149,-0.25128160202252947,0.014119543650793657,-0.16999999999999993,-9.79,-0.4699344758064512,0.003597730254736303,0.007086453533026113,0.0022046410970302105,103.68797253024194,-1.0,92.74952746975805,0.42596328317540244,0.5773931029233879,-0.436706417006048,-0.5426634162802415
48.0,-0.004112234092072801,-0.2507064015733371,0.01404252781268911,-0.16999999999999993,-9.789999999999997,-0.4658553274682308,0.07826428164129777,-0.1885522491621282,-0.027371206302657915,103.63666911045944,-1.0,92.72360703812316,0.4263008563440856,0.5770971288954062,-0.4368826670772234,-0.5425537909970675
49.0,-0.0022164763999441414,-0.2521313509519155,0.0095341810966811,-0.16999999999999993,-9.789999999999997,-0.46276637341153504,0.020085103628450406,-0.12445841988432714,-0.006930261718568171,103.5330522971652,-1.0,92.70454545454544,0.4268571501075268,0.5766463150928649,-0.43729863966764354,-0.5422306572727275
50.0,-0.0014468780547409578,-0.2512593169599218,0.009986100928641254,-0.16999999999999993,-9.789999999999996,-0.4612218963831872,0.044921875,-0.06712697794477028,-0.014162542766373413,103.48124389051807,-1.0,92.69501466275659,0.42713529698924746,0.5764209081915941,-0.4375066259628536,-0.5420690904105574
51.0,-0.001959616324535679,-0.2516437561094819,0.007397360703812318,-0.16999999999999993,-9.789999999999996,-0.46044965786901326,0.027868783602150535,-0.02862865041544477,-0.016588198008308897,103.45533968719451,-1.0,92.69024926686217,0.42727437043010774,0.5763082047409589,-0.4376106191104587,-0.5419883069794724
52.0,-0.0011388074291300097,-0.2511876832844575,0.006935483870967742,-0.16999999999999993,-9.789999999999996,-0.4600635386119263,0.003024193548387096,-0.008858748778103616,-0.02245234604105572,103.44238758553274,-1.0,92.68786656891496,0.42734390715053794,0.5762518530156411,-0.43766261568426124,-0.5419479152639299
53.0,-0.001078802917512595,-0.2525765095119934,0.006580344386796,-0.16999999999999993,-9.79,-0.46000000000000063,0.007115666591473043,0.002985656816301978,-0.016310906835100385,103.4375,-1.0,92.6875,0.4273681600000002,0.576232910000001,-0.43768310999999926,-0.5419311500000004
54.0,-0.002437777276486954,-0.2514702609218738,0.006303857432889691,-0.16999999999999993,-9.79,-0.46000000000000063,0.032471896383186705,-0.0020419768403639373,0.006503778479584931,103.4375,-1.0,92.6875,0.4273681600000002,0.576232910000001,-0.43768310999999926,-0.5419311500000003
55.0,-0.0017777025841541972,-0.251628976758009,0.006920606275444986,-0.16999999999999993,-9.79,-0.46000000000000063,0.0443068356374808,0.001225700822475016,0.017940102012682656,103.4375,-1.0,92.6875,0.4273681600000002,0.576232910000001,-0.43768310999999926,-0.5419311500000003
56.0,-0.001976339073113267,-0.2524762674601384,0.009264310957859349,-0.16999999999999993,-9.79,-0.46000000000000063,0.05172331029185868,-0.0005479511527898624,0.002203799784444945,103.4375,-1.0,92.6875,0.4273681600000002,0.576232910000001,-0.43768310999999926,-0.5419311500000003
57.0,-0.0020292252550317066,-0.25195172121785026,0.011377023514120291,-0.16999999999999993,-9.79,-0.46000000000000063,0.07458477342549923,-0.027170969711292292,0.013137579266611524,103.4375,-1.0,92.6875,0.4273681600000002,0.576232910000001,-0.43768310999999926,-0.5419311500000003
58.0,-0.0022069203198235455,-0.2513976968372129,0.012116551459293398,-0.16999999999999993,-9.79,-0.46000000000000063,0.0234353767871913,-0.016152172200559298,-0.005845912599944858,103.4375,-1.0,92.6875,0.4273681600000002,0.576232910000001,-0.43768310999999926,-0.5419311500000003
59.0,-0.003346636338571823,-0.2521206846468943,0.0133461169207137,-0.16999999999999993,-9.79,-0.46000000000000063,-0.019439259497223207,-0.007440230020875182,-0.009839829749103943,103.4375,-1.0,92.6875,0.4273681600000002,0.576232910000001,-0.43768310999999926,-0.5419311500000003
60.0,-0.003923236709527033,-0.2508757777840439,0.012649877340401537,-0.16999999999999993,-9.789999999999997,-0.46000000000000063,-0.012097963780171443,-0.007694187532897211,-0.011721804740957966,103.4375,-1.0,92.6875,0.4273681600000002,0.576232910000001,-0.43768310999999926,-0.5419311500000004
61.0,-0.004037773046845628,-0.2511669791901647,0.012240673640875258,-0.16999999999999993,-9.789999999999997,-0.46000000000000063,-0.02408484073050605,0.0020495108889766146,0.001202231488269795,103.4375,-1.0,92.6875,0.4273681600000002,0.576232910000001,-0.43768310999999926,-0.5419311500000004
62.0,-0.0036038422889500166,-0.25094597906306504,0.01923303692876695,-0.16999999999999993,-9.789999999999996,-0.46431391429947083,-0.11706920178075617,-0.0077697141179816,0.005534942703090122,103.4375,-1.0,92.71109171882523,0.42727271472315875,0.5763560968271549,-0.43777667471834336,-0.541815016730862
63.0,-0.004031958412314695,-0.25358592330474855,0.03928530817601591,-0.16999999999999993,-9.789765395894424,-0.4879634087626386,-0.20669192386813956,0.003036517727177333,-0.005636407405786316,103.4375,-1.0,92.8522772865876,0.4267166510077182,0.5770390959453469,-0.4383212683122508,-0.5410936475101038
64.0,-0.0034298449103456327,-0.2554237609605929,0.06289184575655446,-0.16999999999999993,-9.784721407624623,-0.5152720269619641,-0.1776687493616959,0.011766679797493471,-0.007015417779139492,103.4375,-1.0,92.9956950949067,0.42609734743934313,0.5778015771662218,-0.438915747865803,-0.5402838206905356
65.0,-0.003337600852044762,-0.25578128419486146,0.07722304897798396,-0.16999999999999993,-9.782199413489725,-0.5289263360616269,-0.11852645679228492,0.0034853682467428254,-0.011373666856334164,103.4375,-1.0,93.06740399906624,0.4257876956551555,0.5781828177766593,-0.4392129876425791,-0.5398789072807515
66.0,-0.0030544309245561056,-0.25689846223428303,0.08471123123386,-0.16999999999999993,-9.780938416422273,-0.5357534906114583,-0.07586574550269182,0.0035755286981514712,0.0051880443821946,103.4375,-1.0,93.10325845114602,0.42563286976306175,0.5783734380818779,-0.4393616075309672,-0.5396764505758594
67.0,-0.002295914211236792,-0.2572876809570357,0.09158584694875016,-0.16999999999999993,-9.780307917888548,-0.5390322580645155,-0.045450727028347994,-0.007639943501838662,-0.008836201880556716,103.4375,-1.0,93.12044843597263,0.4255584394819162,0.5784648986461387,-0.4394329935777129,-0.5395788513880739
68.0,-0.0032071434389982782,-0.2570688742261322,0.0927856619187264,-0.16999999999999993,-9.779999999999985,-0.5399999999999994,-0.04163566468253968,-0.0035217708478797183,-0.014383829656007074,103.4375,-1.0,93.125,0.4255371100000003,0.5784912099999999,-0.4394531300000003,-0.5395507799999997
69.0,-0.003971291582016088,-0.2565829503410798,0.09240140788365295,-0.16999999999999993,-9.779999999999985,-0.5399999999999994,-0.02054684725628892,-0.002601924587689741,-0.011216782390202004,103.4375,-1.0,93.125,0.4255371100000003,0.5784912099999999,-0.4394531300000003,-0.5395507799999997
70.0,-0.004048005323001698,-0.25751088619645207,0.09163888149338649,-0.16999999999999993,-9.779999999999985,-0.5399999999999994,0.014981639417201917,0.0008930756655681385,-0.01170222382334003,103.4375,-1.0,93.125,0.4255371100000003,0.5784912099999999,-0.4394531300000003,-0.5395507799999997
71.0,-0.004392791683353086,-0.25621008019500024,0.09223967357707824,-0.16999999999999993,-9.779999999999985,-0.5399999999999994,0.005945188530141022,0.0024646992531794903,0.003167610447851317,103.4375,-1.0,93.125,0.4255371100000003,0.5784912099999999,-0.4394531300000003,-0.5395507799999997
72.0,-0.003419493474763771,-0.255232371085393,0.09326764908723592,-0.16999999999999993,-9.779999999999985,-0.5399999999999994,-0.010739251034964176,0.01194219634710244,0.003496701842857657,103.4375,-1.0,93.125,0.4255371100000003,0.5784912099999999,-0.4394531300000003,-0.5395507799999997
73.0,-0.00475634171946074,-0.2564385101714727,0.09240699402646485,-0.16999999999999993,-9.779999999999985,-0.5399999999999994,-0.014362201042315677,0.01414762147104226,-0.007660251229108805,103.4375,-1.0,93.125,0.4255371100000003,0.5784912099999999,-0.4394531300000003,-0.5395507799999997
74.0,-0.0035930511927168424,-0.25570104488802564,0.09423939711729068,-0.16999999999999993,-9.779999999999985,-0.5399999999999994,-0.037357999584633386,0.0005376504857812752,-0.015796826967311946,103.4375,-1.0,93.125,0.4255371100000003,0.5784912099999999,-0.4394531300000003,-0.5395507799999997
75.0,-0.003665906876104588,-0.25698986670630786,0.09089680062104619,-0.16999999999999993,-9.779999999999985,-0.5399999999999994,-0.016414986042977718,0.008771271038765835,-0.013748492806765438,103.4375,-1.0,93.125,0.4255371100000003,0.5784912099999999,-0.4394531300000003,-0.5395507799999997
76.0,-0.0031867915874159375,-0.256511062385412,0.09238928720718524,-0.16999999999999993,-9.779999999999985,-0.5399999999999994,-0.008142456601093436,0.005313154930253005,-0.018085024439082713,103.4375,-1.0,93.125,0.4255371100000003,0.5784912099999999,-0.4394531300000003,-0.5395507799999997
77.0,-0.004651148135019104,-0.2566790883847335,0.09231547126708417,-0.16999999999999993,-9.779999999999985,-0.5399999999999994,0.015722606246799792,-0.0026313837931781483,-0.02149823742565678,103.4375,-1.0,93.125,0.4255371100000003,0.5784912099999999,-0.4394531300000003,-0.5395507799999997
78.0,-0.004965335739529289,-0.25509348917211827,0.09035012030979772,-0.16999999999999993,-9.781642228738988,-0.5385141739980446,0.026738147605083088,-0.014279430666779457,-0.007512547935935033,103.4375,-1.0,93.11717986314761,0.42558102225806455,0.5784387069305961,-0.43941780816226805,-0.5396042379081134
79.0,-0.0040063726595984655,-0.25535955006015487,0.08194635169937589,-0.16999999999999993,-9.785982404692074,-0.5333137829912024,0.01626916849951124,-0.001069849589254831,0.006396921291074517,103.4375,-1.0,93.08883186705768,0.4257218282795696,0.5782706960997067,-0.43929179744868024,-0.5397894320821115
80.0,-0.0038977366719302204,-0.25512685164298066,0.07834724415369576,-0.16999999999999993,-9.788152492668615,-0.5314956011730207,-0.01835288367546432,-0.001780209038273554,-0.008342732536280924,103.4375,-1.0,93.0746578690127,0.42578698139784904,0.5781919414369501,-0.4392149514662754,-0.5398906221700881
81.0,-0.0037810361681329422,-0.25551650500037587,0.07457102037747199,-0.16999999999999993,-9.789237536656888,-0.53058651026393,0.006463831867057674,-0.0009211218888638241,0.0020349274381532443,103.4375,-1.0,93.06757086999022,0.4258195579569887,0.5781525641055718,-0.43917652847507305,-0.5399412172140765
82.0,-0.0035679374389051806,-0.25498778103616804,0.07305474095796677,-0.16999999999999993,-9.789780058651024,-0.5301319648093846,-0.026606793743890515,-0.014418377321603127,0.02207050342130987,103.4375,-1.0,93.06402737047898,0.4258358462365586,0.5781328754398827,-0.4391573169794718,-0.5399665147360706
83.0,-0.003604143168659298,-0.25529380028573573,0.07813741634709376,-0.16999999999999993,-9.789047146401984,-0.5317774268742013,-0.07939248251748252,-0.07232075719978945,0.01739522238514174,103.41715260545905,-1.0,93.07937344913151,0.4258925359743587,0.5781159481356493,-0.4393043864931948,-0.5398238593493498
84.0,-0.0030639996204512333,-0.2553419380798413,0.08620714321520774,-0.16999999999999993,-9.784362282878403,-0.5412357320099257,-0.04538969654897074,-0.03685569582747002,0.011464333717357911,103.36281017369727,-1.0,93.16771091811414,0.4258987482828782,0.5782466458957815,-0.4398242750818856,-0.5392711693349874
85.0,-0.0033257437007437013,-0.2543645174270174,0.09043983749225684,-0.16999999999999993,-9.782019851116614,-0.5459404466501242,-0.05211200369970531,-0.018901332762219857,-0.017086748097332776,103.33563895781637,-1.0,93.21187965260546,0.42590201849627773,0.5783118306898261,-0.4400846518957813,-0.5389945557965257
86.0,-0.0035397046949466305,-0.2548288862794911,0.09471160985072274,-0.16999999999999993,-9.780848635235717,-0.5482928039702235,-0.023016534596675724,-0.007434537348851864,-0.016287142377112138,103.32205334987592,-1.0,93.2339640198511,0.42590365360297744,0.5783444230868482,-0.44021484030272917,-0.5388562490272948
87.0,-0.003730537831344283,-0.25540587459135844,0.09449794202213557,-0.16999999999999993,-9.78026302729527,-0.549468982630273,-0.030251966895112056,0.010332630519122456,-0.016853878648233487,103.31526054590572,-1.0,93.24500620347393,0.42590447115632735,0.5783607192853595,-0.44027993450620306,-0.5387870956426792
88.0,-0.004346658493835914,-0.2560279993304186,0.09449959135846234,-0.16999999999999993,-9.779999999999985,-0.55,-0.0061309462267123555,-0.0056897641449052735,-0.019050388455630392,103.3125,-1.0,93.25,0.42590331999999975,0.5783691399999996,-0.4403076199999996,-0.5387573199999993
89.0,-0.003402838089330025,-0.2565795595533498,0.09409661910669974,-0.16999999999999993,-9.779999999999985,-0.55,0.017457932692307693,-0.011761883529776675,-0.02053931451612903,103.3125,-1.0,93.25,0.42590331999999975,0.5783691399999996,-0.4403076199999996,-0.5387573199999993
90.0,-0.003866780397022333,-0.2571251550868486,0.09523836848635234,-0.16999999999999993,-9.779999999999985,-0.55,-0.03201331808312655,-0.017775860732009926,-0.00011583049007444016,103.3125,-1.0,93.25,0.42590331999999975,0.5783691399999996,-0.4403076199999996,-0.5387573199999993
91.0,-0.003699209057071961,-0.2556208126550868,0.09502907878411909,-0.16999999999999993,-9.779999999999985,-0.55,-0.03398292106079405,-0.005973266904466501,-0.009747208436724566,103.3125,-1.0,93.25,0.42590331999999975,0.5783691399999996,-0.4403076199999996,-0.5387573199999993
92.0,-0.0033746898263027304,-0.25628784119106696,0.0951563275434243,-0.16999999999999993,-9.779999999999985,-0.55,-0.018858560794044663,0.006017369727047147,-0.00015508684863523546,103.3125,-1.0,93.25,0.42590331999999975,0.5783691399999996,-0.4403076199999996,-0.5387573199999993
93.0,-0.00335483870967742,-0.256213399503722,0.09640198511166254,-0.16999999999999993,-9.779999999999985,-0.55,-0.010638957816377172,-0.012965260545905705,0.01662531017369727,103.3125,-1.0,93.25,0.42590331999999975,0.5783691399999996,-0.4403076199999996,-0.5387573199999993
94.0,-0.003250620347394541,-0.2568635235732009,0.09749627791563276,-0.16999999999999993,-9.779999999999985,-0.55,-0.018556141439205955,-0.008219602977667493,0.0288151364764268,103.3125,-1.0,93.25,0.42590331999999975,0.5783691399999996,-0.4403076199999996,-0.5387573199999993
95.0,-0.0024715440646762184,-0.25589081885856074,0.09472860802049148,-0.16999999999999993,-9.779999999999985,-0.5500000000000002,0.0008696119827103169,0.002505903305851277,0.014112903225806451,103.3125,-1.0,93.25,0.42590331999999975,0.5783691399999996,-0.4403076199999997,-0.5387573199999993
96.0,-0.0033431121427999672,-0.25595853678059705,0.09270113263427518,-0.16999999999999993,-9.779999999999985,-0.5500000000000003,-0.032305528596013766,-0.0030024313615624743,0.011008664852317298,103.3125,-1.0,93.25,0.42590331999999975,0.5783691399999996,-0.4403076199999997,-0.5387573199999993
97.0,-0.0032036140238533573,-0.2551152645481469,0.09268139157928439,-0.16999999999999993,-9.779999999999985,-0.5500000000000003,-0.03948833221604098,-0.005958211598495157,0.017851746978307853,103.3125,-1.0,93.25,0.42590331999999975,0.5783691399999996,-0.4403076199999997,-0.5387573199999993
98.0,-0.0027126690946930277,-0.25653746097814767,0.09221806711758584,-0.16999999999999993,-9.779999999999985,-0.5500000000000003,0.004740545330385017,-0.007670232830385015,0.01205612643080125,103.3125,-1.0,93.25,0.42590331999999975,0.5783691399999996,-0.4403076199999997,-0.5387573199999993
99.0,-0.0018794080240490227,-0.2559332210164676,0.09146449630840889,-0.16999999999999993,-9.779999999999985,-0.5500000000000002,0.02119722759030772,0.005956510248913994,0.02843949754719786,103.3125,-1.0,93.25,0.42590331999999975,0.5783691399999996,-0.4403076199999996,-0.5387573199999993
100.0,-0.0019594750838247193,-0.2555472556695241,0.0916661711510827,-0.16999999999999993,-9.779999999999985,-0.5500000000000002,0.02443511223427977,-0.00477733800769701,0.0076673294187602214,103.3125,-1.0,93.25,0.42590331999999975,0.5783691399999996,-0.4403076199999996,-0.5387573199999993
101.0,-0.0038500649252470277,-0.2548212945281103,0.09351983015250447,-0.16999999999999993,-9.779999999999985,-0.5500000000000002,0.028146476312449258,-0.009702764897548977,-0.021094044807949595,103.3125,-1.0,93.25,0.42590331999999975,0.5783691399999996,-0.4403076199999996,-0.5387573199999993
102.0,-0.003146076247142843,-0.25519896872407277,0.10052958609202106,-0.1715086848635235,-9.779999999999985,-0.551588089330025,-0.049214953230952194,-0.17990741382634592,-0.02036652132336966,103.26783498759303,-1.0,93.25,0.42607682336476416,0.5782562173995034,-0.4405324954342431,-0.5385494075831261
103.0,-0.002152891199502898,-0.2564007563579362,0.10278292558829388,-0.1759156327543423,-9.779999999999985,-0.5611166253101739,-0.06870338300962398,-0.015164250190542627,-0.005482437902432186,103.12887717121588,-1.0,93.28225806451613,0.4264941026501242,0.5780606632158809,-0.44133361642679925,-0.5377713095980142
104.0,-0.0015207295563127287,-0.256117665780897,0.10492689622606571,-0.17811910669975173,-9.779999999999985,-0.5658808933002484,-0.05466773800044443,0.013298256025239801,-0.03427493860181104,103.05939826302729,-1.0,93.29838709677418,0.42670274229280425,0.5779628861240697,-0.44173417692307737,-0.5373822606054584
105.0,-0.001822421840717459,-0.25610372230882583,0.0992318376535998,-0.17922084367245644,-9.779999999999985,-0.5682630272952855,-0.04634772225046659,0.026924493817849615,-0.01155636211004531,103.024658808933,-1.0,93.30645161290322,0.4268070621141443,0.577913997578164,-0.4419344571712164,-0.5371877361091804
106.0,-0.0017578159282540602,-0.25486169648037726,0.0928893228421394,-0.17977171215880877,-9.779999999999985,-0.5694540942928041,-0.023639121671139005,-0.048866217637281675,-0.005980263918395839,103.00728908188584,-1.0,93.31048387096773,0.4268592220248143,0.5778895533052112,-0.44203459729528594,-0.5370904738610414
107.0,-0.004094788857427278,-0.256391146006938,0.08346699392727316,-0.17999999999999983,-9.779999999999985,-0.5700000000000002,-0.011307774235073224,0.0341431939108877,-0.0021991890311582178,103.00545905707196,-1.0,93.3125,0.4268590403771714,0.5778944296674942,-0.44205970769230807,-0.5370648181736966
108.0,-0.0029152326569274085,-0.2540405417083318,0.07496532171086814,-0.17999999999999983,-9.779999999999985,-0.5649193548387097,0.1217082939127956,-0.02054275066131108,-0.03905247126088484,103.03498759305211,-1.0,93.28175403225806,0.426896042366005,0.5777695124950375,-0.44179106062034745,-0.5373632308610421
109.0,-0.003491303499368015,-0.2529094883611013,0.07148324166872552,-0.17999999999999983,-9.779999999999985,-0.5622983870967742,0.03996564591322656,-0.0022288307570565626,0.0008939369322433811,103.04975186104218,-1.0,93.2648689516129,0.4269194656991315,0.5776991785055834,-0.4416508303101736,-0.5375208047853599
110.0,-0.0035137940016972276,-0.2522581701452669,0.06520154263299424,-0.17999999999999983,-9.779999999999985,-0.5609879032258063,0.011858666646973099,0.011572214747617972,-0.004329337217442057,103.05713399503722,-1.0,93.25642641129032,0.4269311773656947,0.5776640115108564,-0.4415807151550867,-0.5375995917475189
111.0,-0.0026804250856670214,-0.25416720823978883,0.05923025473630311,-0.17999999999999983,-9.779999999999985,-0.5603326612903224,-0.0010185574953720114,0.005259752008743943,-0.005111788692937887,103.06082506203475,-1.0,93.25220514112902,0.4269370331989763,0.5776464280134929,-0.44154565757754327,-0.5376389852285984
112.0,-0.0013997658927094414,-0.25558608550947254,0.07122678989916892,-0.17999999999999983,-9.779999999999985,-0.5600050403225805,0.018690473113356178,-0.020198908114734727,0.004485048581570759,103.0625,-1.0,93.25009450604838,0.4269406123538305,0.5776372122127019,-0.44152868917338683,-0.5376581670262102
113.0,-0.002101441569183504,-0.2561771928788057,0.08819958446571347,-0.17999999999999983,-9.779999999999985,-0.5599999999999998,-0.022384078734885186,-0.08840134999409192,-0.006005430501398245,103.0625,-1.0,93.25,0.42694091999999983,0.5776367200000003,-0.44152831999999975,-0.5376586900000004
114.0,-0.0026542104848556454,-0.25583703080074044,0.09324658808933001,-0.17999999999999983,-9.779999999999985,-0.5599999999999998,0.006849730690456494,0.0800930644176612,-0.009566089152782701,103.0625,-1.0,93.25,0.42694091999999983,0.5776367200000003,-0.44152831999999975,-0.5376586900000004
115.0,-0.0035735111662531017,-0.256225341191067,0.09933297146401984,-0.17999999999999983,-9.779999999999985,-0.5599999999999998,-0.0057323976426799025,0.023253334367245665,-0.012579482009925558,103.0625,-1.0,93.25,0.42694091999999983,0.5776367200000003,-0.44152831999999975,-0.5376586900000004
116.0,-0.0028686414392059554,-0.2565890973945409,0.10080048076923076,-0.17999999999999983,-9.779999999999985,-0.5599999999999998,0.035068044354838714,-0.004672960607940445,0.0027363135856079404,103.0625,-1.0,93.25,0.42694091999999983,0.5776367200000003,-0.44152831999999975,-0.5376586900000004
117.0,-0.0015074817655462813,-0.2574040153394992,0.10552342281374538,-0.17999999999999983,-9.779999999999985,-0.5599999999999998,0.05847996089931574,-0.20059966914805627,0.0021251597864501088,103.00287145650049,-1.0141739980449658,93.25,0.42723112019550324,0.5774290931769307,-0.4417965648484845,-0.5374386531671558
118.0,-0.0006271506271506269,-0.2596577759158404,0.1066296069521876,-0.17999999999999983,-9.779999999999985,-0.5599999999999998,0.047517580985322924,-0.08450559297333492,0.0023813104458265746,102.8713954056696,-1.039345063538612,93.25,0.4278735710654934,0.5769658717497554,-0.4423869895210161,-0.5369501322287396
119.0,0.0007869209643403192,-0.25772591029042635,0.10835698709892258,-0.17999999999999983,-9.779999999999985,-0.5599999999999998,0.008095018780502651,-0.03808096025837962,-0.0016474341071115264,102.80565738025416,-1.0519305962854348,93.25,0.4281947965004885,0.5767342610361679,-0.4426822018572819,-0.5367058717595313
120.0,0.00161237418495483,-0.2570357465115529,0.11074992212088985,-0.17999999999999983,-9.779999999999985,-0.5599999999999998,-0.011018808700260313,-0.017504627988498958,-0.000575578095739386,102.77278836754644,-1.0582233626588464,93.25,0.42835540921798604,0.5766184556793741,-0.44282980802541483,-0.5365837415249273
121.0,0.0017716510309714966,-0.2564522181282493,0.1091700633669169,-0.17999999999999983,-9.779999999999985,-0.5599999999999998,-0.001928677831804484,-0.00136585790670931,-0.005326331943366581,102.75635386119257,-1.0613697458455522,93.25,0.4284357155767349,0.5765605530009772,-0.4429036111094813,-0.5365226764076252
122.0,0.001533430598574702,-0.25704575715796624,0.106852871370653,-0.17999999999999983,-9.779999999999985,-0.5599999999999998,-0.025448087694005857,0.0030133076057851306,-0.01428645531674683,102.75,-1.0625,93.25,0.4284667999999997,0.5765380899999997,-0.4429321299999993,-0.5364990200000006
123.0,0.0011673809418884776,-0.25639794258307935,0.10548096717534183,-0.17999999999999983,-9.779999999999985,-0.5599999999999998,0.008405308431542895,0.004114820725575617,-0.019272003900052882,102.75,-1.0625,93.25,0.4284667999999997,0.5765380899999997,-0.4429321299999993,-0.5364990200000006
124.0,0.001276734825782948,-0.25721862854960414,0.1036326206844451,-0.17999999999999983,-9.779999999999985,-0.5599999999999998,-0.009941751026164035,0.018438458749884583,-0.02012617332099418,102.75,-1.0625,93.25,0.4284667999999997,0.5765380899999997,-0.4429321299999993,-0.5364990200000006
125.0,0.0010717333301283592,-0.2568695665673124,0.1045805890742432,-0.17999999999999983,-9.779999999999985,-0.5599999999999998,-0.0010695349181930355,-0.030402215488438057,-0.016905706406342643,102.75,-1.0625,93.25,0.4284667999999997,0.5765380899999997,-0.4429321299999993,-0.5364990200000006
126.0,0.0005067815249266862,-0.2575624694525903,0.10404814271749757,-0.17999999999999983,-9.779999999999985,-0.5599999999999998,-0.029520252932551318,-0.010528355632942327,-0.0004839855205278597,102.75,-1.0625,93.25,0.4284667999999997,0.5765380899999997,-0.4429321299999993,-0.5364990200000006
127.0,7.68267350928641e-05,-0.25655119745845545,0.10359069525904205,-0.17999999999999983,-9.779999999999985,-0.5599999999999999,0.006981037695503421,0.009477333822091885,-0.0057448222140762464,102.75,-1.0625,93.25,0.4284667999999997,0.5765380899999997,-0.4429321299999993,-0.5364990200000006
128.0,-0.0008476365704188286,-0.25699124699225495,0.1014890898751786,-0.17999999999999983,-9.779999999999985,-0.5599999999999998,-0.004630943233513798,0.0016664933688623198,-0.019367836045003386,102.75,-1.0625,93.25,0.4284667999999997,0.5765380899999997,-0.4429321299999993,-0.5364990200000006
129.0,0.0005063538611925709,-0.2578137453943905,0.10087059177381758,-0.17999999999999983,-9.779999999999985,-0.5599999999999998,-0.027168866080156402,0.012720411309120987,0.005535190615835775,102.75,-1.0625,93.25,0.4284667999999997,0.5765380899999997,-0.4429321299999993,-0.5364990200000006
130.0,-0.00016471163245356798,-0.25735017670501537,0.1017940446650124,-0.17999999999999983,-9.779999999999985,-0.5599999999999998,0.00495784457478006,-0.026172785547785543,-0.017179863147605084,102.75,-1.0625,93.25,0.4284667999999997,0.5765380899999997,-0.4429321299999993,-0.5364990200000006
131.0,-8.235581622678402e-05,-0.2567689299947364,0.09987062937062935,-0.17999999999999983,-9.780645161290307,-0.5546774193548387,-0.003676380742913,-0.09942864595082336,0.018383431085043988,102.75,-1.0625,93.23084677419354,0.42853718637096755,0.576430784677419,-0.4428750315322578,-0.5366038635483874
132.0,-0.001429019457245263,-0.25870111071723967,0.08374472212375436,-0.17999999999999983,-9.785483870967735,-0.5421006144393243,-0.033216925883256525,-0.041980009797550115,0.026272081413210448,102.75,-1.0625,93.15337781618024,0.42879651083013315,0.5760709073028671,-0.442629563111239,-0.5369804713287254
133.0,-0.0023521468053856187,-0.2575613133831135,0.08380488327431615,-0.17999999999999983,-9.784490114464086,-0.5381470814132102,-0.048113605821641064,-0.14628717131196645,0.03863732142380685,102.75,-1.0625,93.12832782588407,0.42885420009768893,0.575974232345502,-0.4425588074297091,-0.5371015121575987
134.0,-0.00227087823943313,-0.25839336298168236,0.08345917880679846,-0.17999999999999983,-9.782245057232036,-0.5387509600614435,-0.03760277754550485,-0.1032292034432139,0.018341367395900435,102.75,-1.0625,93.12464778390978,0.4288180071456185,0.5760041405275897,-0.44258795645679017,-0.5370837860787989
135.0,-0.001532464529342781,-0.25785435558198294,0.08660486142080835,-0.17999999999999983,-9.78112252861601,-0.5390528993855601,-0.006071324048610077,-0.05619164465235452,0.0005841341587797099,102.75,-1.0625,93.12280776292263,0.4288314151857129,0.5759875952637947,-0.44257103161549183,-0.5371064223942381
136.0,-0.0012426590636788347,-0.25636731426741827,0.08737733765829499,-0.17999999999999983,-9.780541103017676,-0.5393701996927797,0.0016513533292929752,-0.02292101036898123,-0.0055212665124215595,102.75,-1.0625,93.12248629073551,0.4288359196316673,0.5759826759232278,-0.44256435352195955,-0.5371144641910706
137.0,-0.0023247050094084435,-0.2580965721756564,0.08664959679007544,-0.17999999999999983,-9.780109261186249,-0.5398387096774186,-0.0001993735539521182,-0.011716521569539258,-0.006762612459802886,102.75,-1.0625,93.12444719042664,0.428831167752342,0.5759897857752339,-0.4425677931997918,-0.5371083542767949
138.0,-0.0022219858994052544,-0.257755642207255,0.08770120918508012,-0.17999999999999983,-9.779999999999985,-0.5399999999999994,-0.0060557721848044435,-0.00888770727480405,-0.015576135334199851,102.75,-1.0625,93.125,0.4288310409677426,0.5759907387096772,-0.44256788870967734,-0.5371074012903225
139.0,-0.0019250868427565584,-0.2581202800836887,0.08764343001993458,-0.17999999999999983,-9.779999999999985,-0.5399999999999994,-0.011246203109467433,-0.014589458179973347,-0.004883284746067607,102.75,-1.0625,93.125,0.42883301000000074,0.5759887699999998,-0.44256591999999995,-0.53710937
140.0,-0.0011843467076976947,-0.2578524409309194,0.08717692610711386,-0.17999999999999983,-9.779999999999985,-0.5399999999999994,-0.008482920946811173,-0.007607476378540413,-0.0031311410464034445,102.75,-1.0625,93.125,0.42883301000000074,0.5759887699999999,-0.44256591999999995,-0.53710937
141.0,-0.0011246945960475087,-0.25736587758253615,0.0869710482103356,-0.17999999999999983,-9.779999999999985,-0.5399999999999994,0.020545647579831496,-0.011212659912708058,0.005920894624553748,102.75,-1.0625,93.125,0.42883301000000074,0.5759887699999999,-0.44256591999999995,-0.53710937
142.0,-0.0010551663069717958,-0.25805980923265465,0.0861357233682703,-0.17999999999999983,-9.779999999999985,-0.5399999999999994,0.02695264934070904,-0.014892742468572993,0.0025802495530468567,102.75,-1.0625,93.125,0.42883301000000074,0.5759887699999999,-0.44256591999999995,-0.53710937
143.0,-0.001207483897902771,-0.25835744804064487,0.08491401553028899,-0.17999999999999983,-9.779999999999985,-0.5399999999999994,0.008730667102116308,-0.025095254608976325,0.012564938672305065,102.75,-1.0625,93.125,0.42883301000000074,0.5759887699999999,-0.44256591999999995,-0.53710937
144.0,-0.0016889239792465594,-0.25745589893976983,0.08551282051282047,-0.17999999999999983,-9.779999999999985,-0.5399999999999994,0.0006659335288367544,-0.010216463643883,0.0037108053237085497,102.75,-1.0625,93.125,0.42883301000000074,0.5759887699999998,-0.44256591999999995,-0.53710937
145.0,-0.001234152943830363,-0.25638491615910963,0.08860177456951651,-0.17999999999999983,-9.779999999999985,-0.5399999999999994,-0.004553443867959997,-0.013529682682908491,-0.012009831566283179,102.75,-1.0625,93.125,0.42883301000000074,0.5759887699999997,-0.44256591999999995,-0.53710937
146.0,-0.0014064215354537932,-0.2567921648244228,0.08822317467478756,-0.17999999999999983,-9.779999999999985,-0.5399999999999994,-0.010112132491164749,-0.018632509963155124,-0.018834827806602,102.75,-1.0625,93.125,0.42883301000000074,0.5759887699999997,-0.44256591999999995,-0.53710937
147.0,-0.0017977667493796526,-0.2584950372208436,0.08783746898263026,-0.17999999999999983,-9.779999999999985,-0.5399999999999994,-0.009049317617866006,-0.02044044665012407,-0.019823976426799006,102.75,-1.0625,93.125,0.42883301000000074,0.5759887699999997,-0.44256591999999995,-0.5371093699999999
148.0,-0.0011147642679900744,-0.2573641439205955,0.08790632754342431,-0.17999999999999983,-9.779999999999985,-0.5399999999999994,0.010022487593052111,-0.005691687344913151,-0.018193625930521092,102.75,-1.0625,93.125,0.42883301000000074,0.5759887699999997,-0.44256591999999995,-0.5371093699999999
149.0,-0.001930267313331829,-0.25740723926611014,0.0892498026167381,-0.17999999999999983,-9.779999999999985,-0.5399999999999994,-0.003662340683510037,-0.005351671178284081,-0.004620442561470787,102.75,-1.0625,93.125,0.42883301000000074,0.5759887699999998,-0.44256591999999995,-0.53710937
150.0,-0.0025704445710764915,-0.2582388220329662,0.09137187364272703,-0.17999999999999983,-9.779999999999985,-0.5399999999999994,0.016138071538175355,-0.018300488379779423,-0.0066906145995013645,102.75,-1.0625,93.125,0.42883301000000074,0.5759887699999999,-0.44256591999999995,-0.53710937
151.0,-0.002354839831970308,-0.25674053149546644,0.08774956707551795,-0.17999999999999983,-9.779999999999985,-0.5399999999999994,0.06742933482822747,0.011755639241195331,-0.022990632782399753,102.75,-1.0625,93.125,0.42883301000000074,0.5759887699999999,-0.44256591999999995,-0.53710937
152.0,-0.0018464927786064037,-0.2565691528821042,0.09040279316254277,-0.17999999999999983,-9.779999999999985,-0.5399999999999994,0.039688330847454587,0.0003694167331625203,-0.02143356362783421,102.75,-1.0625,93.125,0.42883301000000074,0.5759887699999999,-0.44256591999999995,-0.53710937
153.0,-0.002088822748427948,-0.25662369968340115,0.08843750455931484,-0.17999999999999983,-9.779999999999985,-0.5399999999999994,-0.021661304912388202,0.01716718825228695,-0.025131399454341195,102.75,-1.0625,93.125,0.42883301000000074,0.5759887699999999,-0.44256591999999995,-0.53710937
154.0,-0.0010004231044192526,-0.25738565238324496,0.09106625961103572,-0.17999999999999983,-9.779999999999985,-0.5399999999999994,-0.02618072576997709,0.012188188456544258,-0.0031265501670532953,102.75,-1.0625,93.125,0.42883301000000074,0.5759887699999999,-0.44256591999999995,-0.53710937
155.0,-0.0012561094819159326,-0.2558870967741935,0.090477761485826,-0.17999999999999983,-9.782419354838702,-0.5356451612903221,0.07254246089931574,-0.10480052541544477,-0.040727333822091885,102.73891129032259,-1.0625,93.10030241935485,0.4289969182258068,0.5758209233870968,-0.4425432770161292,-0.5371708993548387
156.0,-0.0017407950472466593,-0.2551519224503095,0.08295847297863426,-0.17999999999999983,-9.78637096774193,-0.5274999999999996,0.07128947161709259,-0.04382516844714425,-0.03765859196806777,102.71219758064517,-1.0625,93.04813508064515,0.4293559912096776,0.5754638195967743,-0.4425230939919358,-0.5372661475806453
157.0,-0.0015038053344504953,-0.2551744111623143,0.08028841118558858,-0.17999999999999983,-9.788346774193545,-0.5234274193548385,0.059014958775543455,-0.05193923320183401,-0.02721310527510124,102.69884072580645,-1.0625,93.02205141129032,0.42953552770161296,0.5752852677016131,-0.44251300247983905,-0.5373137716935485
158.0,-0.000879096262160778,-0.2556747631848437,0.07643441180235533,-0.17999999999999983,-9.789334677419355,-0.5213911290322578,0.012357290866615463,-0.020359803027393753,-0.013148341493855607,102.6921622983871,-1.0625,93.0090095766129,0.4296252959475807,0.5751959917540326,-0.4425079567237907,-0.5373375837500002
159.0,-0.0010130248335893494,-0.2551640905017921,0.07594982078853045,-0.17999999999999983,-9.789828629032257,-0.5203729838709674,-0.012790318580389143,-0.01029015857014849,0.00951160874295955,102.68882308467742,-1.0625,93.00248865927419,0.4296701800705645,0.5751513537802422,-0.44250543384576646,-0.537349489778226
160.0,-0.001207117255504352,-0.2540412186379928,0.0743458781362007,-0.17999999999999983,-9.79,-0.5199999999999998,-0.028745839733742957,-0.0001520097286226319,0.004472286226318484,102.6875,-1.0625,93.0,0.4296875,0.5751342800000003,-0.4425048800000004,-0.5373535200000001
161.0,-0.001202952065855292,-0.2540928453267163,0.07478052503052504,-0.17999999999999983,-9.79,-0.5199999999999998,0.0033335671944542938,-0.0048305245381858285,0.015203126846272008,102.6875,-1.0625,93.0,0.4296875,0.5751342800000003,-0.4425048800000004,-0.5373535200000001
162.0,-0.0012066056703153479,-0.25454258241758243,0.07100847226250451,-0.17999999999999983,-9.789999999999997,-0.5193743890518081,0.0449190062849337,-0.001471201849226043,0.011294890705172964,102.6875,-1.0625,93.0,0.4296917960703811,0.5751299839296191,-0.44250488000000043,-0.5373582926295212
163.0,-0.0009109879815524971,-0.2542828817687688,0.06975178070137747,-0.17999999999999983,-9.789999999999997,-0.5145259042033237,0.059692431504427476,-0.006303957299421009,-0.010481586905478034,102.6875,-1.0625,93.0,0.42972115255131926,0.575100627448681,-0.44250488000000043,-0.5373874056695995
164.0,-0.0011413851605383864,-0.25487988523573196,0.06884018770208285,-0.17999999999999983,-9.789999999999996,-0.5121016617790815,-0.002781326955974134,0.003690641096135048,-0.013572963075231221,102.6875,-1.0625,93.0,0.4297358307917884,0.575085949208212,-0.44250488000000043,-0.5374019621896388
165.0,-0.0011642846000092027,-0.25593563201362907,0.07198633271719454,-0.17999999999999983,-9.789999999999996,-0.5108895405669605,-0.011850038101843588,0.015279049709718944,-0.019257283400278102,102.6875,-1.0625,93.0,0.42974316991202294,0.5750786100879774,-0.44250488000000043,-0.5374092404496584
166.0,-0.0012661035000948338,-0.2554814636494944,0.07176901416670312,-0.17999999999999983,-9.789999999999996,-0.5102834799608998,-0.01482324448140529,0.003380276039159044,-0.008061324608628411,102.6875,-1.0625,93.0,0.4297468394721402,0.5750749405278601,-0.44250488000000043,-0.5374128795796682
167.0,-0.0014737164616798705,-0.2550061277191753,0.06951598313418245,-0.17999999999999983,-9.789999999999996,-0.5100000000000006,0.01223036211902365,-0.011506342918836902,-0.002182544024744313,102.6875,-1.0625,93.0,0.4297485399999994,0.5750732400000009,-0.44250488000000043,-0.5374145500000005
168.0,-0.001838745590791811,-0.2530723171869055,0.07017700803449475,-0.17999999999999983,-9.79,-0.5100000000000007,-0.02828096714712025,0.007318065099721334,-0.011505353898228236,102.6875,-1.0625,93.0,0.42974853999999946,0.5750732400000009,-0.4425048800000004,-0.5374145500000005
169.0,-0.0009780238217888674,-0.2553191497957987,0.06777911985302451,-0.17999999999999983,-9.79,-0.5100000000000007,-0.05090429100269014,0.0009250393924804131,-0.016092975091831614,102.6875,-1.0625,93.0,0.4297485399999995,0.5750732400000009,-0.4425048800000004,-0.5374145500000005
170.0,-0.000872979171366268,-0.2541617414843221,0.06985609820287238,-0.17999999999999983,-9.79,-0.5100000000000007,-0.027122222535528984,0.01062591642228739,-0.01773594349199188,102.6875,-1.0625,93.0,0.4297485399999995,0.5750732400000009,-0.4425048800000004,-0.5374145500000005
171.0,-0.0016241728701406118,-0.25538732235506423,0.07264310286487705,-0.17999999999999983,-9.79,-0.5100000000000007,-0.021365974415369575,0.00797058284457478,-0.002880679468381081,102.6875,-1.0625,93.0,0.4297485399999995,0.5750732400000009,-0.4425048800000004,-0.5374145500000005
172.0,-0.000704559553349876,-0.2552009925558312,0.07418812034739453,-0.17999999999999983,-9.79,-0.5108870967741941,-0.04006959522332506,-0.09338457661290323,0.013619533188585609,102.66784274193549,-1.0625,93.0,0.4298243413709676,0.5750161429838716,-0.4425777283064518,-0.5373515455645164
173.0,8.568548387096771e-05,-0.2555645161290322,0.07587197580645158,-0.17999999999999983,-9.79,-0.5156048387096775,-0.054782006048387094,0.00481980846774193,-0.0029296875,102.61315524193549,-1.0625,93.0,0.4300384561693549,0.5748556798790323,-0.442793319637097,-0.5371625316532259
174.0,-0.0030191532258064518,-0.2580645161290322,0.07389616935483867,-0.17999999999999983,-9.79,-0.5153830645161294,-0.01008064516129032,0.04684349798387097,-0.01776713709677419,102.58581149193549,-1.0625,93.0,0.43014206776209707,0.5747788941330645,-0.44288192038306434,-0.5370872227620964
175.0,-0.002044385386119257,-0.2553894794721407,0.07222812805474092,-0.17999999999999983,-9.789999999999997,-0.512691532258065,-0.030881521871945254,0.027001046248778107,-0.0188324780058651,102.57213961693549,-1.0625,93.0,0.4301973193649197,0.5747370554536289,-0.4429139163205641,-0.5370618747681445
176.0,-0.0017784349387171964,-0.25719435201894875,0.07372813040454168,-0.17999999999999983,-9.79,-0.5113457661290328,-0.0072482981568163,0.004985043518309647,-0.020523365243627342,102.56530367943549,-1.0625,93.0,0.4302249451663309,0.574716136113911,-0.44292991428931394,-0.5370492007711685
177.0,-0.000415310831641477,-0.2562162827092262,0.07550786948266784,-0.17999999999999983,-9.79,-0.5106451612903232,0.03548705788499135,0.03234722476783969,-0.020163493260771485,102.5625,-1.0625,93.0,0.43023638927419383,0.5747074607258061,-0.4429356367641123,-0.5370448326612894
178.0,-0.0010143008872847581,-0.2567469053124294,0.07795558641627189,-0.17999999999999983,-9.79,-0.5101612903225813,0.06154175125949319,0.015543814384540193,-0.007781614806564403,102.5625,-1.0625,93.0,0.430236604637097,0.5747072453629029,-0.4429328990272171,-0.5370475708467732
179.0,-0.0010565456049327015,-0.25626911797879537,0.07903071659523273,-0.17999999999999983,-9.79,-0.5100000000000007,0.04437974659748853,0.0028575926761410637,-0.013451669298443492,102.5625,-1.0625,93.0,0.4302368200000003,0.5747070299999997,-0.4429321299999993,-0.537048339999999
180.0,-0.0013304186852573945,-0.2553025522864232,0.07999457442199376,-0.17999999999999983,-9.79,-0.5100000000000007,0.009174494859978732,-0.007909983161999291,-0.005381021308440663,102.5625,-1.0625,93.0,0.4302368200000003,0.5747070299999997,-0.4429321299999993,-0.537048339999999
181.0,-0.0021969750679428097,-0.2543916361416361,0.08040191126078222,-0.17999999999999983,-9.79,-0.5100000000000007,0.014067731104021425,0.009621508084209696,-0.00951777836858482,102.5625,-1.0625,93.0,0.4302368200000003,0.5747070299999997,-0.4429321299999993,-0.537048339999999
182.0,-0.0016961021981833635,-0.254192616277814,0.08124458006007174,-0.17999999999999983,-9.79,-0.5100000000000007,-0.008208169987891633,0.013338529596415261,0.013745973538832541,102.5625,-1.0625,93.0,0.4302368200000003,0.5747070299999997,-0.4429321299999993,-0.537048339999999
183.0,-0.001560564392250136,-0.2549289915844936,0.07693069130617908,-0.17999999999999983,-9.79,-0.5100000000000007,0.004802823509736881,0.0004938541873131495,-0.004965801682275406,102.5625,-1.0625,93.0,0.4302368200000003,0.5747070299999997,-0.4429321299999993,-0.537048339999999
184.0,-0.001243991873544423,-0.2547074393406339,0.07387109162083147,-0.17999999999999983,-9.79,-0.5100000000000007,0.0009523190129329569,0.011949926085592059,-0.010736429066944154,102.5625,-1.0625,93.0,0.4302368200000003,0.5747070299999997,-0.4429321299999993,-0.537048339999999
185.0,-0.0019462702287884395,-0.2549843471073959,0.07279627289694926,-0.17999999999999983,-9.79,-0.5100000000000007,0.023240693359710008,0.022640152691856645,-0.009866717822297946,102.5625,-1.0625,93.0,0.4302368200000003,0.5747070299999997,-0.4429321299999993,-0.537048339999999
186.0,-0.0023321166346660623,-0.2540755185241397,0.07239962599835127,-0.17999999999999983,-9.79,-0.5100000000000007,0.016203912755356563,0.007482739847301502,0.0006669995117900944,102.5625,-1.0625,93.0,0.4302368200000003,0.5747070299999997,-0.4429321299999993,-0.537048339999999
187.0,-0.001465465985627276,-0.25483128363571905,0.0716425409268151,-0.17999999999999983,-9.79,-0.5100000000000007,0.00903723013098013,0.012381708513260932,0.01663788020894876,102.5625,-1.0625,93.0,0.4302368200000003,0.5747070299999997,-0.4429321299999993,-0.537048339999999
188.0,-0.002273718888638244,-0.253887503289721,0.07163540256786222,-0.17999999999999983,-9.789999999999997,-0.5100000000000007,0.025703970928265284,0.01566927905763591,0.016995859063651402,102.5625,-1.0625,93.0,0.4302368200000003,0.5747070299999997,-0.4429321299999993,-0.537048339999999
189.0,-0.002392209940597037,-0.2536175652304684,0.0703236333558914,-0.17999999999999983,-9.79,-0.5100000000000007,0.012883487480261673,-0.020815474847732912,0.00926197458455523,102.5625,-1.0625,93.0,0.4302368200000003,0.5747070299999997,-0.4429321299999993,-0.537048339999999
190.0,-0.0032184374765019926,-0.2542653582976163,0.06854146928340474,-0.17999999999999983,-9.79,-0.5100000000000007,-0.05132810737649447,-0.0014902436273404006,0.013703567937438906,102.5625,-1.0625,93.0,0.4302368200000003,0.5747070299999997,-0.4429321299999993,-0.537048339999999
191.0,-0.0028555530491014367,-0.2544200691781337,0.06826633581472288,-0.17999999999999983,-9.79,-0.5100000000000007,-0.020776468155500414,-0.024327722009173623,0.010211999022482893,102.5625,-1.0625,93.0,0.4302486322580643,0.5746952177419355,-0.4429439422580641,-0.537036525806451
192.0,-0.0011759154823670955,-0.25316909166102713,0.07161331679073613,-0.17999999999999983,-9.79,-0.5100000000000007,-0.023508581472291148,0.027879563313031056,0.003066607451688097,102.5625,-1.0625,93.0,0.4302742254838707,0.5746696245161294,-0.44296953548387086,-0.5370109283870965
193.0,0.0011258504762667095,-0.2517854098295045,0.07435938125350194,-0.17999999999999983,-9.79,-0.5103329864724251,-0.0644554700632354,0.05006997668694469,0.011159186644520931,102.56354058272632,-1.0625,93.00104058272632,0.43027787645681553,0.5746619084443292,-0.4429767435015609,-0.537001178834547
194.0,-0.0029769771071800214,-0.25433447230449047,0.08060248739294004,-0.17999999999999983,-9.790000000000001,-0.5160770031217483,-0.0889394936164252,0.0384059760966141,0.011807580995357399,102.6264958376691,-1.0625,93.03277835587929,0.4298950729318418,0.5750091425208121,-0.44284570218262254,-0.5370654055775232
195.0,-0.002161299613497845,-0.2570033462786779,0.08583730261962573,-0.17999999999999983,-9.790000000000001,-0.5209852501527842,-0.10310611492038715,0.046558092621153555,0.03173830544509687,102.6590140478668,-1.0625,93.06503229109889,0.4296579186113384,0.5752366096398225,-0.44285641167758893,-0.5370093686003332
196.0,-0.0019560400252712955,-0.2556762471507853,0.09060237919742994,-0.17999999999999983,-9.790000000000001,-0.5258152057215536,-0.03141920437746726,0.008410602794707891,0.02928647110834448,102.67527315296566,-1.0625,93.0970322745817,0.4294744685597017,0.5754132160497503,-0.44292540106056877,-0.5369032157517792
197.0,-0.0030823546900550025,-0.25707955502700547,0.09320693556645693,-0.17999999999999983,-9.790000000000001,-0.530246312538196,-0.05007830178550782,0.04276376913928943,0.021746940191269014,102.68340270551509,-1.0625,93.1130322663231,0.42938212831210915,0.575514440928101,-0.44295928053028455,-0.5368384481984703
198.0,-0.0020696332803512825,-0.25710517413561107,0.0974519029068977,-0.17999999999999983,-9.79,-0.5355966214095763,-0.029368575370461426,0.010814466815702507,0.02148266124267685,102.6874349635796,-1.0625,93.12099974398362,0.4293362439895616,0.5755840926648828,-0.44297639490874285,-0.5367867710711396
199.0,-0.002252377262002652,-0.2572751929392147,0.09707024243821853,-0.17999999999999983,-9.79,-0.5380974782386068,-0.058366590684000935,0.04607273336055204,-0.003627776684813625,102.6875,-1.0625,93.12400793650794,0.42932532148489544,0.5756079469047616,-0.4429891597644652,-0.5367587730849976
200.0,-0.0025324275533692804,-0.2572159965641364,0.09495928128843063,-0.17999999999999983,-9.79,-0.5392842741935477,-0.027295174502266723,0.015720698477511043,-0.011066665135506186,102.6875,-1.0625,93.125,0.4293212900000004,0.575618191209677,-0.4429931600000002,-0.5367475287903227
201.0,-0.0019414100684261972,-0.2570568205316189,0.09201579301075269,-0.17999999999999983,-9.789999999999997,-0.5398034274193542,-0.01183789958361531,0.017634534903940145,-0.014753723259267614,102.6875,-1.0625,93.125,0.4293212900000004,0.5756213601209673,-0.4429931600000002,-0.5367443598790325
202.0,-0.003324535679374389,-0.2574270997819384,0.08906989247311825,-0.17999999999999983,-9.79,-0.5399999999999994,-0.018441001203097978,0.026222131363260397,-0.01062156929092413,102.6875,-1.0625,93.125,0.4293212900000004,0.5756225599999996,-0.4429931600000002,-0.5367431600000002
203.0,-0.0032602827280246638,-0.25844059703737116,0.08403618693134818,-0.17999999999999983,-9.79,-0.5399999999999994,-0.0150827834799609,0.008869440371456502,-0.009684233776975712,102.6875,-1.0625,93.125,0.4293212900000004,0.5756225599999996,-0.4429931600000002,-0.5367431600000002
204.0,-0.003362790435371081,-0.2575682946086171,0.07739932513722833,-0.17999999999999983,-9.79,-0.5399999999999994,0.018576643450635387,0.014240438660801566,-0.004399179449582675,102.6875,-1.0625,93.125,0.4293212900000004,0.5756225599999996,-0.4429931600000002,-0.5367431600000002
205.0,-0.003521010799236606,-0.25809148512777536,0.07497092177535723,-0.17999999999999983,-9.79,-0.5399999999999994,0.030793698069403713,-0.0018947576281245632,0.01649723764139087,102.6875,-1.0625,93.125,0.4293212900000004,0.5756225599999996,-0.4429931600000002,-0.5367431600000002
206.0,-0.003351414490527394,-0.25562932027649765,0.07596542178699434,-0.17999999999999983,-9.79,-0.5399999999999994,-0.0124012936827957,0.021947904665898618,0.0196122551843318,102.6875,-1.0625,93.125,0.4293212900000004,0.5756225599999996,-0.4429931600000002,-0.5367431600000002
207.0,-0.0039822364015912395,-0.2569764932647996,0.07914985574461376,-0.17999999999999983,-9.79,-0.5399999999999994,-0.010241870864350702,-0.0030083386875221566,0.00245646490606168,102.6875,-1.0625,93.125,0.4293212900000004,0.5756225599999996,-0.4429931600000002,-0.5367431600000002
208.0,-0.005037489168537555,-0.2560367888160226,0.07656259846784036,-0.17999999999999983,-9.79,-0.5399999999999994,0.008963858302315964,-0.018235859402694083,0.00830213133640553,102.6875,-1.0625,93.125,0.4293212900000004,0.5756225599999996,-0.4429931600000002,-0.5367431600000002
209.0,-0.004527817164913938,-0.25513335253456215,0.07111217702548345,-0.17999999999999983,-9.79,-0.5399999999999994,0.014628243899917287,-0.0015240052286423257,-0.005278214728819569,102.6875,-1.0625,93.125,0.4293212900000004,0.5756225599999996,-0.4429931600000002,-0.5367431600000002
210.0,-0.005411280923377697,-0.2561038917399804,0.0637013661741484,-0.17999999999999983,-9.789999999999997,-0.5385923753665685,0.02277111119727047,0.011256221097450936,-0.012012798189713512,102.6875,-1.0625,93.125,0.4293212900000004,0.5756139678592372,-0.4429931600000002,-0.5367517521407625
211.0,-0.004640348898413415,-0.2553811564779306,0.06077690051883598,-0.17999999999999983,-9.79,-0.5341348973607039,-0.009088089330024812,-0.031821001579066095,0.029379088653282204,102.6875,-1.0625,93.125,0.4293212900000004,0.5755867594134898,-0.4429931600000002,-0.5367789605865101
212.0,-0.004072035491390331,-0.2563679975938039,0.061852470110534616,-0.17999999999999983,-9.79,-0.5319061583577716,0.03132754342431762,-0.05023122039251071,0.0144258966839612,102.6875,-1.0625,93.125,0.4293212900000004,0.5755731551906162,-0.4429931600000002,-0.5367925648093839
213.0,-0.002906985487630649,-0.25608350251898626,0.0745689149560117,-0.17999999999999983,-9.785564516129023,-0.5353885630498532,-0.09061724565756824,0.00464555605684638,0.01606840739905256,102.6875,-1.0625,93.125,0.42929470806451614,0.5756209893695017,-0.4430202341935483,-0.5367447306304981
214.0,-0.003027481479094382,-0.2578058617010229,0.07972472688601719,-0.17999999999999983,-9.782620967741924,-0.5376942815249263,-0.0174880115404309,-0.003557721400463334,0.014985294723197947,102.6875,-1.0625,93.125,0.4292764945161288,0.5756532740395894,-0.443038201612903,-0.53671244596041
215.0,-0.0029952309801425307,-0.256868197460419,0.08448184125967684,-0.17999999999999983,-9.781149193548373,-0.5388911290322576,-0.0451481420865526,0.01970680763767392,0.0020443690530188956,102.6875,-1.0625,93.125,0.4292673877419352,0.5756696848790323,-0.44304718532258036,-0.5366960351209672
216.0,-0.00468219885675661,-0.2586041939835513,0.08666739945798216,-0.17999999999999983,-9.780413306451598,-0.539606854838709,-0.029191276678431986,0.011521337861901076,-0.005817645778461336,102.6875,-1.0625,93.125,0.42926283435483836,0.5756786063104838,-0.44305167717741906,-0.5366871136895155
217.0,-0.0036992199758849086,-0.25726311516195094,0.08975945815370892,-0.17999999999999983,-9.780045362903211,-0.5399647177419348,-0.009468767291429231,0.010488316413540788,-0.009136810562327602,102.6875,-1.0625,93.125,0.42926055766129,0.5756830670262096,-0.4430539231048384,-0.5366826529737897
218.0,-0.002568587615413838,-0.25703466957369137,0.08759922699568902,-0.17999999999999983,-9.779999999999985,-0.5399999999999994,0.02302702211651223,-0.012318723882199428,-0.012656293873775662,102.6875,-1.0625,93.125,0.4292602499999997,0.5756835899999999,-0.4430541999999997,-0.5366821299999993
219.0,-0.0030879292403746096,-0.25836628511966697,0.08961758584807492,-0.17999999999999983,-9.779999999999985,-0.5399999999999994,-0.0710197710718002,-0.027152705515088447,-0.0266974505723205,102.6875,-1.0625,93.13961693548387,0.4292326859677416,0.5757249374193547,-0.44308176403225763,-0.536640782580645
220.0,-0.0010913111342351716,-0.25747398543184175,0.09274063475546306,-0.17999999999999983,-9.779999999999985,-0.5399999999999994,0.02559183142559833,0.0154786680541103,-0.02526664932362123,102.6875,-1.0625,93.16456653225806,0.42918346411290287,0.5757987720967739,-0.4431309858870963,-0.536566947903226
221.0,-0.002588119346834227,-0.2580197510605939,0.09672423557192028,-0.17999999999999983,-9.779999999999985,-0.5399999999999994,-0.016753131753782118,-0.004683872968862564,-0.021387476987112783,102.6875,-1.0625,93.17704133064515,0.4291588531854835,0.5758356894354835,-0.44315559681451566,-0.5365300305645166
222.0,-0.0031266677521230076,-0.2575108845802133,0.0964589550451283,-0.17999999999999983,-9.779999999999985,-0.5399999999999994,0.02466390648460107,0.025892245869808303,-0.015386214765116951,102.6875,-1.0625,93.1832787298387,0.42914654772177385,0.5758541481048383,-0.44316790227822533,-0.5365115718951619
223.0,-0.004001459226257614,-0.25777521336190684,0.09457278977742685,-0.17999999999999983,-9.779999999999985,-0.5399999999999994,0.028441224434167984,0.022895694695089855,0.0049577270847432145,102.6875,-1.0625,93.18639742943549,0.42914039498991907,0.5758633774395157,-0.44317405501008017,-0.5365023425604845
224.0,-0.0029593836942627266,-0.257406821001579,0.09288932438529211,-0.17999999999999983,-9.779999999999985,-0.5399999999999994,0.02996875646195203,-0.0035308840185352287,-0.004711232987442664,102.6875,-1.0625,93.1875,0.4291381799999997,0.5758666999999995,-0.4431762699999995,-0.5364990200000006
225.0,-0.004229340551921198,-0.256569215730506,0.08924249943604781,-0.17999999999999983,-9.779999999999985,-0.5399999999999994,-0.0313670200766975,0.007080419580419581,-0.005398902173095721,102.6875,-1.0625,93.1875,0.4291381799999997,0.5758666999999995,-0.4431762699999995,-0.5364990200000006
226.0,-0.003159335288367546,-0.25521016617790804,0.08691405368824723,-0.17999999999999983,-9.779999999999985,-0.5399999999999994,0.002120460184976315,0.010379539815023686,-0.011849575156026769,102.6875,-1.0625,93.1875,0.4291381799999997,0.5758666999999995,-0.4431762699999995,-0.5364990200000006
227.0,-0.0048274682306940365,-0.2563636363636363,0.08448830739153318,-0.17999999999999983,-9.779999999999985,-0.5399999999999994,-0.019635639897736673,0.01337647567486277,-0.014844631175276336,102.6875,-1.0625,93.1875,0.4291381799999997,0.5758666999999995,-0.4431762699999995,-0.5364990200000006
228.0,-0.004917456199714263,-0.25732697947214067,0.07986574178509662,-0.17999999999999983,-9.779999999999985,-0.5399999999999994,-0.021937857169712006,0.04419599217986315,-0.0022656778705165796,102.6875,-1.0625,93.1875,0.4291381799999997,0.5758666999999995,-0.4431762699999995,-0.5364990200000006
229.0,-0.0037979265358297617,-0.25459701857282496,0.07676815926009473,-0.17999999999999983,-9.779999999999985,-0.5399999999999994,-0.052207931517407324,0.00796981915933529,-0.004416685465072562,102.6875,-1.0625,93.1875,0.4291381799999997,0.5758666999999995,-0.4431762699999995,-0.5364990200000006
230.0,-0.0031242344125408644,-0.25490917818740394,0.07656834160463191,-0.17999999999999983,-9.779999999999985,-0.5399999999999994,-0.010889173830202055,0.02518481182795699,0.00045873705147898717,102.6875,-1.0625,93.1875,0.4291381799999997,0.5758666999999995,-0.4431762699999995,-0.5364990200000006
231.0,-0.0008614048073270237,-0.25588643092512753,0.07828553156434268,-0.17999999999999983,-9.779999999999985,-0.5399999999999994,0.021083268684034488,-0.006339696063128685,0.0015646162644731842,102.6875,-1.0625,93.1875,0.4291381799999997,0.5758666999999995,-0.44317626999999954,-0.5364990200000006
232.0,-0.0009008524932692469,-0.2556077059899575,0.08180597622763984,-0.17999999999999983,-9.779999999999985,-0.5399999999999994,-0.02417433748017938,0.01088355138599838,0.005162088438176173,102.6875,-1.0625,93.1875,0.4291381799999997,0.5758666999999995,-0.44317626999999954,-0.5364990200000006
233.0,-0.0003697810853443009,-0.2555735102530432,0.08064845182349734,-0.17999999999999983,-9.779999999999985,-0.5399999999999994,0.013980749606684502,0.00678061137848306,0.010472299259410667,102.6875,-1.0625,93.1875,0.4291381799999997,0.5758666999999995,-0.44317626999999954,-0.5364990200000006
234.0,-0.0005452736071882795,-0.2575927027071667,0.08162714929884543,-0.17999999999999983,-9.779999999999985,-0.5399999999999994,-0.01945556773698033,0.014431762342467336,-0.002214077184810796,102.6875,-1.0625,93.1875,0.4291381799999997,0.5758666999999995,-0.44317626999999954,-0.5364990200000006
235.0,0.00024475261702108726,-0.25815851607058676,0.07856460856174695,-0.17999999999999983,-9.779999999999985,-0.5399999999999994,0.01961686341970551,0.0015810590041534364,-0.01160887994102094,102.6875,-1.0625,93.1875,0.4291381799999997,0.5758666999999995,-0.4431762699999995,-0.5364990200000006
236.0,-0.00029545767852219476,-0.2580196246405923,0.08102660108708495,-0.17999999999999983,-9.779999999999985,-0.5399999999999994,0.02831779695438969,-0.04775565636200717,-0.01377740483083225,102.6875,-1.0625,93.1875,0.4291381799999997,0.5758666999999995,-0.4431762699999995,-0.5364990200000006
237.0,-5.040322580645166e-05,-0.25670192307692297,0.08336678039702232,-0.17999999999999983,-9.779999999999985,-0.5399999999999994,-0.008062092897022331,0.03622004885235732,-0.021408770161290322,102.6875,-1.0625,93.1875,0.4291381799999997,0.5758666999999995,-0.4431762699999995,-0.5364990200000006
238.0,-0.0023279311414392064,-0.2575480769230768,0.0829639423076923,-0.17999999999999983,-9.779999999999985,-0.5399999999999994,-0.005826903691066997,0.02944566144540943,-0.027829850341191068,102.6875,-1.0625,93.1875,0.4291381799999997,0.5758666999999995,-0.4431762699999995,-0.5364990200000006
239.0,-0.0020248138957816375,-0.2588635235732009,0.08152357320099254,-0.17999999999999983,-9.779999999999985,-0.5399999999999994,-0.01941687344913151,0.03176178660049628,-0.031048387096774193,102.6875,-1.0625,93.1875,0.4291381799999997,0.5758666999999995,-0.4431762699999995,-0.5364990200000006
240.0,-0.0007815195557131041,-0.2570782622395525,0.08099759738469416,-0.17999999999999983,-9.779999999999985,-0.5399999999999994,-0.011150990586474455,-0.0182702154476348,0.007330930718027489,102.6875,-1.0625,93.1875,0.4291381799999997,0.5758666999999995,-0.4431762699999995,-0.5364990200000006
241.0,-0.0012795305053369568,-0.2598846744653196,0.081099610067352,-0.17999999999999983,-9.779999999999985,-0.5399999999999994,0.05833579502934341,-0.01630430501398243,0.0008414076962464053,102.6875,-1.0625,93.1875,0.4291381799999997,0.5758666999999995,-0.4431762699999995,-0.5364990200000006
242.0,-0.0004783961558155104,-0.2580505730828311,0.08324345188861318,-0.17999999999999983,-9.779999999999985,-0.5399999999999994,0.01299972429004687,0.029894344007247234,-0.013978494623655913,102.6875,-1.0625,93.1875,0.4291381799999997,0.5758666999999995,-0.4431762699999995,-0.5364990200000006
243.0,-0.0005768639962188348,-0.25765985269211067,0.08199164992713379,-0.17999999999999983,-9.779999999999985,-0.5399999999999994,-0.0006375792666115246,0.029439422584583874,-0.02079886958919217,102.6875,-1.0625,93.1875,0.4291381799999997,0.5758666999999995,-0.4431762699999995,-0.5364990200000006
244.0,-0.0017357910906298003,-0.25702508960573467,0.08541730670762929,-0.17999999999999983,-9.779999999999985,-0.5399999999999994,-0.00028801843317972356,0.000864055299539172,-0.018561187916026622,102.6875,-1.0625,93.1875,0.4291381799999997,0.5758666999999995,-0.4431762699999995,-0.5364990200000006
245.0,-0.0019406041986687146,-0.25850486431131586,0.0859805427547363,-0.17999999999999983,-9.779999999999985,-0.5399999999999994,0.032642089093702,-0.02921786994367639,-0.009984639016897081,102.6864759344598,-1.0625,93.1875,0.4291381799999997,0.5758656998566303,-0.44317726997951823,-0.5364990200000006
246.0,-0.0033663827212214318,-0.2591332681655262,0.09876646650840198,-0.17999999999999983,-9.781876832844564,-0.5376539589442813,0.03190022343248149,-0.13212772890192245,-0.0034300377042312522,102.5828823953824,-1.0625,93.16452834799608,0.4296250306744869,0.5754452178755294,-0.44350992737001327,-0.5362751663147609
247.0,-0.004769679045076253,-0.25500602698002794,0.09661443515560031,-0.17999999999999983,-9.78609970674486,-0.528196262091303,-0.1351829040803523,0.2750087104624899,-0.017139289587532244,102.62556192470132,-1.0586482908040442,93.09801706277995,0.4296604230165885,0.5753000328905812,-0.44305299765467443,-0.5367745224111117
248.0,-0.006762987186675198,-0.2572383995397958,0.0762000498832468,-0.17999999999999983,-9.788211143695008,-0.5166113712960128,-0.1679933404476014,0.3180706577432625,-0.027380162099709518,102.7913407842091,-1.0528707270101108,93.02479993726382,0.42914211556703274,0.575582894996085,-0.44195564074115523,-0.5377816591015596
249.0,-0.008727803518366831,-0.2551319509143294,0.05916543521743329,-0.17999999999999983,-9.789266862170084,-0.5076605243576838,-0.09216555124114102,0.4175158716263675,-0.035083927867991416,103.0388907820901,-1.0254272989889264,92.95256306444318,0.4282595037777386,0.5761517215615953,-0.4405752158038947,-0.5389966100948337
250.0,-0.007927882581228753,-0.254753286354153,0.05110298945156913,-0.17999999999999983,-9.78979472140762,-0.5031851008885193,-0.026090223369953747,0.21851565121606045,-0.01363189550779825,103.18580803825446,-1.011705584978334,92.90874120964095,0.42775378382435286,0.5764817736481809,-0.4397965787493614,-0.5396694408538685
251.0,-0.008423863089245854,-0.2533126158065975,0.04574211056156169,-0.17999999999999983,-9.789999999999996,-0.5010207029369282,-0.038521651274419685,0.11098375424928145,-0.0029517004420711677,103.26248796340876,-1.0048447279730381,92.88754814636495,0.42748570976408223,0.576659924126143,-0.4393968803033218,-0.5400128516610496
252.0,-0.008338512715017291,-0.2545329073109525,0.03996396317532571,-0.17999999999999983,-9.789999999999996,-0.5001974000962928,0.0006300973140164288,0.03355290993711793,0.021014794064866282,103.29787554164659,-1.0015346653827635,92.8786711603274,0.42735817376504515,0.5767469663649488,-0.4392165079056328,-0.5401654544727973
253.0,-0.0072578456690156265,-0.2523567280897565,0.037537349907354724,-0.17999999999999983,-9.79,-0.5,0.039749930698414086,0.04236925708699902,0.018165678207204446,103.31105560905152,-1.0,92.87548146364949,0.4273111558786705,0.576779379528165,-0.4391534745835336,-0.5402180852961
254.0,-0.006041055718475075,-0.2525794232649071,0.038952834799608996,-0.17999999999999983,-9.79,-0.5,-0.007591031280547413,0.05344269305962854,0.022360703812316716,103.3125,-1.0,92.875,0.4273066377419349,0.5767827221774187,-0.4391479499999997,-0.5402226621774193
255.0,-0.0057384984075931015,-0.24988445195976414,0.046564756566707666,-0.17567117585848063,-9.79,-0.5,0.05382034772806104,-0.031305921467536975,0.02978865134172106,103.36296826222684,-1.0,92.875,0.4269949127575441,0.577016706099115,-0.43887814987512985,-0.5404571541532257
256.0,-0.00551296749267613,-0.25293924688012875,0.047992497912828294,-0.17783558792924026,-9.79,-0.5,0.05738703347395464,-0.1994116303795349,0.03986174176730889,103.27833832978213,-1.010752688172043,92.875,0.42733303338082007,0.5767714590377809,-0.43921056194985364,-0.5402001531365208
257.0,-0.004455944535288968,-0.2542095881233173,0.05596405395751779,-0.17891779396462004,-9.790000000000001,-0.5,0.025098283709512247,-0.10195597679541814,0.017682680078621806,103.19864497134267,-1.0376344086021505,92.875,0.4277296094323454,0.576493324518891,-0.43958878371686216,-0.5398961422134219
258.0,-0.007530391622483194,-0.254435943255207,0.06450168423682341,-0.17752341311134223,-9.790000000000001,-0.5,0.10516506927411096,0.17889222329583931,0.03735066463608509,103.24095555018746,-1.0329301075268817,92.875,0.4275301839097212,0.5766392517755745,-0.4394047919390763,-0.5400473428809044
259.0,-0.00602326032737063,-0.2530597054985712,0.08740457195712135,-0.17360041623309044,-9.79,-0.5,0.0232069045967329,0.09927474068017772,0.03138639582610706,103.40878422670663,-1.016465053763441,92.87651209677419,0.4267650067734091,0.5771999876040168,-0.438686693872764,-0.5406269611405531
260.0,-0.0102618903093669,-0.2540714760583387,0.08436565746659397,-0.17177419354838702,-9.79,-0.5,0.06371388414019788,-0.005513514155228515,-0.021686484709214943,103.53194804467486,-1.0082325268817205,92.88886088709677,0.42613225853238623,0.5776566508077313,-0.4381042400451225,-0.5411014135541476
261.0,-0.00837888717681902,-0.2538467191627311,0.07585071640118464,-0.17072580645161284,-9.79,-0.5,0.04383210848074922,-0.055076905567117584,-0.0007091783898983441,103.52879478132755,-1.003780241935484,92.88193044354838,0.4261387300834367,0.5776605885564514,-0.4380858434074132,-0.5411057229649504
262.0,-0.007059510527387876,-0.25507034577423054,0.07465493870597384,-0.17020161290322575,-9.789999999999997,-0.5,0.0422350821497352,0.024540916887337505,0.005953215563775415,103.52044577776054,-1.000882056451613,92.87846522177419,0.42617412667628735,0.5776374411607484,-0.43809959777737084,-0.5410870751512281
263.0,-0.014062991743769841,-0.2540560161034341,0.07973555758828102,-0.16999999999999993,-9.789999999999997,-0.5,-0.035417459518111524,0.2232728155356991,-0.0059857158068219694,103.78505111023938,-1.0,92.9004517759725,0.42492564904971863,0.5785356518167359,-0.43692245328992474,-0.5420512718148218
264.0,-0.012979916570809654,-0.2545027300702899,0.07542587996716102,-0.16999999999999993,-9.789999999999996,-0.5,-0.024095047574305032,0.13768284746726303,-0.01953141637115292,103.93174556520034,-1.0,92.91993669947819,0.4242781946382665,0.5789982372742957,-0.4363210200219785,-0.5425389287073101
265.0,-0.013964041999896887,-0.25325171861001256,0.07554842234997433,-0.16999999999999993,-9.789999999999996,-0.5,-0.029621182083373023,0.060029087356043655,-0.011023202844339098,104.00381696102758,-1.0,92.92931688804555,0.42396258910088724,0.5792237925156762,-0.43602754826451745,-0.5427767582951872
266.0,-0.013915925804820994,-0.2526611251144656,0.07423394498955968,-0.16999999999999993,-9.789999999999996,-0.5,-0.026455263573455817,0.038182920999624954,-0.005364033935892385,104.04198292220113,-1.0,92.9344165085389,0.42379421499957504,0.5793439361933221,-0.4358718300801495,-0.5429033172145912
267.0,-0.012809788816826689,-0.25341909350950953,0.07394325165615767,-0.16999999999999993,-9.789999999999996,-0.5,-0.02607851665855645,0.017955279236043346,-0.0038551286821026827,104.06131404174573,-1.0,92.93696631878558,0.4237088007400378,0.579404944781784,-0.4357930466698292,-0.5429674181499051
268.0,-0.010755317704282563,-0.2535654437041052,0.07435952540478295,-0.16999999999999993,-9.79,-0.5,0.0035242451738600033,0.013076493799892933,0.0013021192817774425,104.0625,-1.0,92.9375,0.42370604999999983,0.5794067400000003,-0.43579102,-0.54296875
269.0,-0.011303630729726063,-0.2538484410790621,0.07682796933446906,-0.16999999999999993,-9.79,-0.5,0.01241306438706535,0.021098082225910825,0.00611787105528078,104.0625,-1.0,92.9375,0.42370604999999983,0.5794067400000003,-0.43579102,-0.54296875
270.0,-0.012749793217535159,-0.25439051808406643,0.07815880893300245,-0.16999999999999993,-9.79,-0.5,0.014767557711106098,0.0023114989848860828,-0.006442448680351907,104.0625,-1.0,92.9375,0.42370604999999983,0.5794067400000003,-0.43579102,-0.54296875
271.0,-0.013301357244905639,-0.2549402022708474,0.07665576359124743,-0.16999999999999993,-9.79,-0.5,0.025601079028498383,0.01336413922099406,-0.014154612188886383,104.0625,-1.0,92.9375,0.42370604999999983,0.5794067400000001,-0.43579102,-0.54296875
272.0,-0.011868176178660053,-0.2558694168734491,0.08334987593052107,-0.16999999999999993,-9.79,-0.50241935483871,-0.029156327543424315,-0.06137755893300248,0.004041950992555832,104.00453629032259,-1.0,92.92691532258064,0.42390048008064507,0.5793082960483872,-0.4360627225,-0.542732977419355
273.0,-0.011345998759305215,-0.25756001861042177,0.08366004962779156,-0.16999999999999993,-9.79,-0.506370967741936,0.024658808933002485,-0.03797786135235732,0.00043908964019851154,103.96900201612902,-1.0,92.93220766129032,0.4239922818145161,0.5792945141532257,-0.43627338995967746,-0.5425358443548389
274.0,-0.01087782681028649,-0.25582444873674703,0.08606778705165802,-0.16999999999999993,-9.789999999999997,-0.508346774193549,0.009559929317993836,-0.04928397165670351,-0.00873319598748026,103.95123487903226,-1.0,92.93485383064515,0.4240381826814516,0.5792876232056452,-0.43637872368951613,-0.5424372778225809
275.0,-0.010605473155876385,-0.253616113053613,0.08429519606737348,-0.16999999999999993,-9.789999999999997,-0.5093346774193555,0.0035504314234152947,-0.031705596990375215,-0.009932431479810513,103.94235131048387,-1.0,92.93617691532259,0.42406113311491933,0.5792841777318547,-0.43643139055443547,-0.5423879945564518
276.0,-0.010558319704489064,-0.25450036421911415,0.08182998016768178,-0.16999999999999993,-9.79,-0.5098286290322587,0.005683404297315588,-0.04700974638600647,-0.002143635094743965,103.93790952620967,-1.0,92.9368384576613,0.4240726083316532,0.5792824549949596,-0.43645772398689514,-0.5423633529233873
277.0,-0.010819008948041211,-0.25315843296488455,0.07857162192646064,-0.16999999999999993,-9.789999999999997,-0.5100000000000007,-0.009031694112339273,-0.04581641476802767,-0.009727235130460936,103.9375,-1.0,92.9375,0.42407227,0.57928467,-0.4364624,-0.5423584000000002
278.0,-0.01024069478908189,-0.25268403639371373,0.08102488908940522,-0.16999999999999993,-9.789999999999996,-0.5100000000000006,-0.01406543725092112,-0.03784260094743966,0.023042146026016994,103.9375,-1.0,92.9375,0.42407227,0.57928467,-0.4364624,-0.5423584000000002
279.0,-0.02436108507576023,-0.25374763960861185,0.0715117836880672,-0.16963652885052244,-9.789999999999996,-0.47837800999545677,0.28881829778581253,0.08196496162477533,0.03905633591003877,104.25644593366651,-0.9963652885052249,92.76939459336666,0.4232026348886869,0.5796382902089959,-0.43419603096774195,-0.5444264399818264
280.0,-0.0031105650632743155,-0.2539438185292836,0.046245075404745914,-0.17101508536962773,-9.789999999999996,-0.43352514338014997,0.01166737278682442,0.47178662144734873,-0.05462234842901734,104.47284954467337,-1.0033252342479373,92.51730891426163,0.42311515589455384,0.5793258836575602,-0.4320625945208041,-0.546503357587921
281.0,0.00017251297035189312,-0.2536874159801485,0.014880976396295518,-0.17050754268481383,-9.789999999999997,-0.410646340251263,0.09376374468637373,0.20971711237005666,-0.018684160547172417,104.68904574007863,-1.0016626171239686,92.40482381196952,0.4226036490865501,0.5795067888410688,-0.43058576353792405,-0.5478786002481337
282.0,0.0017630924830317153,-0.2526444048651728,0.0032217135631400326,-0.17025377134240688,-9.79,-0.3983876862546639,0.0743494132570077,0.11758894277727756,0.004445148150088625,104.79714383778125,-1.0008313085619842,92.34858126082347,0.4223613969626302,0.5795847410334374,-0.4298383475754139,-0.5485837233498734
283.0,3.8989561290082896e-05,-0.251616088220749,0.0007638066759351031,-0.17012688567120343,-9.79,-0.3922583592563644,0.037954650973094396,0.050423003063346315,0.009156343349474357,104.85119288663256,-1.000415654280992,92.32045998525044,0.4222402709006702,0.5796237171296217,-0.4294646395941588,-0.5489362849007432
284.0,-0.0007277438068822372,-0.2530999233604918,-0.003423445944400373,-0.17007480130902286,-9.790000000000003,-0.3901818829448566,0.018195499416430037,0.007809761636990415,-0.025887674699116733,104.86825035063113,-1.0003214118747077,92.31165264142122,0.42220688396691874,0.5796321545461829,-0.4293486096357893,-0.549047939426746
285.0,-0.001807491924856009,-0.25298294966076135,-0.00424546650626042,-0.16999999999999993,-9.790000000000003,-0.39005120327701004,0.03353824798145093,-0.01839554220100441,-0.035594891505102866,104.875,-1.0,92.3125,0.42217933616999537,0.5796516612749613,-0.4293218525294423,-0.549071176139273
286.0,-0.0016077910213117732,-0.25184477744174777,-0.0032978484605034816,-0.16999999999999993,-9.790000000000001,-0.39000000000000035,0.07085258533225132,-0.03753558472057389,-0.017557430391568325,104.875,-1.0,92.3125,0.4221801800000005,0.5796308771326163,-0.4293012871326165,-0.5490922695903742
287.0,-0.0012539475397922032,-0.2508963741527157,-0.0031681750106887854,-0.16999999999999993,-9.79,-0.39000000000000035,0.06633485145904969,-0.005532880809818683,-0.010713548702547952,104.875,-1.0,92.3125,0.4221801800000005,0.5796093740501791,-0.42927978405017897,-0.5491137691500261
288.0,-0.0012511582338308254,-0.25158473465411246,-0.003893603056275136,-0.16999999999999993,-9.79,-0.39000000000000035,0.007037495349464396,-0.02143524811182839,-0.016353349099799817,104.875,-1.0,92.3125,0.4221801800000005,0.5795986225089604,-0.42926903250896026,-0.5491245189298519
289.0,-0.000900891324538567,-0.25151237708990043,-0.002494781839735013,-0.16999999999999993,-9.79,-0.39000000000000035,-0.017589335146729786,-0.021189545709089153,-0.018665630332351198,104.875,-1.0,92.3125,0.4221801800000005,0.5795932467383511,-0.4292636567383509,-0.549129893819765
290.0,-0.0013668788648627359,-0.2510269801882705,-0.0022120111071723967,-0.16999999999999993,-9.79,-0.39000000000000035,-0.017865497237977077,-0.025206705536846667,0.003358291853755562,104.875,-1.0,92.3125,0.4221801800000005,0.5795905588530464,-0.4292609688530462,-0.5491325812647214
291.0,-0.001741436696495074,-0.2508088260105592,-0.0026031664465102113,-0.16999999999999993,-9.789999999999997,-0.39000000000000035,-0.015523498785208131,-0.023727885634049123,0.022847545480568623,104.875,-1.0,92.3125,0.42218018000000057,0.5795898399999998,-0.42926024999999957,-0.5491333000000005
292.0,-0.0016401312270354156,-0.25173383627018675,-0.0034408183161192298,-0.16999999999999993,-9.789999999999997,-0.39000000000000035,0.003464900931198476,-0.014733012801139906,0.02026867972342214,104.875,-1.0,92.3125,0.4221801800000006,0.5795898399999997,-0.42926024999999957,-0.5491333000000005
293.0,-0.0013554155682225012,-0.2508310758411866,-0.003157409433769568,-0.16999999999999993,-9.79,-0.39000000000000035,0.012474061005596875,-0.004293078931981194,0.020892197595375257,104.875,-1.0,92.3125,0.42218018000000057,0.5795898399999998,-0.42926024999999957,-0.5491333000000005
294.0,-0.000354976751702799,-0.24890489802285665,-0.002497270022546864,-0.16999999999999993,-9.789999999999997,-0.39000000000000035,0.009820946586714521,-0.011580519464486724,0.0024939031438790706,104.875,-1.0,92.3125,0.4221801800000006,0.5795898399999997,-0.42926024999999957,-0.5491333000000005
295.0,0.00016509377318236302,-0.25045914124392704,-0.0058302576896703045,-0.16999999999999993,-9.789999999999996,-0.39000000000000035,0.01592680910808017,-0.024386582764050264,0.009183638540884569,104.8246578690127,-1.0,92.3125,0.4223314845552303,0.5794905613294231,-0.4294115549462366,-0.5490068131964811
296.0,0.0016249342055793669,-0.251331603879991,-0.007472441536957667,-0.16999999999999993,-9.79,-0.39000000000000035,0.004639916535077824,-0.0013953116775697414,0.009885141739980449,104.78531280547409,-1.0,92.3125,0.4224448438905186,0.5794141929227761,-0.4295249140860218,-0.5489125443401761
297.0,0.0012339273629596208,-0.25181532446048577,-0.005652906233551396,-0.16999999999999993,-9.79,-0.39000000000000035,-0.004513497255432739,-0.037345853071659524,-0.002280246635085345,104.76564027370479,-1.0,92.3125,0.42250152355816284,0.5793760087194526,-0.42958159365591436,-0.5488654099120235
298.0,0.0016827205053011503,-0.25187540416572674,-0.004553500263177683,-0.16999999999999993,-9.79,-0.39000000000000035,0.009025819610497029,-0.02127063125046996,0.006094678171291074,104.75580400782013,-1.0,92.3125,0.42252986339198484,0.5793569166177908,-0.4296099334408606,-0.5488418426979471
299.0,0.0011592860544473447,-0.25057450792934666,-0.00519673337415273,-0.16999999999999993,-9.79,-0.39000000000000035,0.0044212675765095116,-0.012377972609827448,-0.00181333563390015,104.75088587487781,-1.0,92.3125,0.4225440333088959,0.5793473705669598,-0.4296241033333338,-0.548830059090909
300.0,0.0007337183425893102,-0.25099281184765054,-0.00466616448068061,-0.16999999999999993,-9.79,-0.39000000000000035,-0.04728053364646106,-0.03785137633423924,0.00958636737366576,104.75,-1.0,92.3125,0.4225463900000005,0.5793457,-0.4296264600000005,-0.5488281199999999
301.0,7.393703966284608e-05,-0.25119899365867104,-0.005793872346291702,-0.16999999999999993,-9.79,-0.39000000000000035,-0.09419222830261137,-0.04741317290460435,0.01228757101992989,104.75,-1.0,92.3125,0.4225463900000005,0.5793457,-0.4296264600000005,-0.5488281199999999
302.0,0.0018269169226830515,-0.251135752688172,-0.006603462621607784,-0.16999999999999993,-9.79,-0.39000000000000035,-0.0648156482014849,0.004066760272657448,0.011993267569124423,104.75,-1.0,92.3125,0.4225463900000005,0.5793457,-0.4296264600000005,-0.5488281199999999
303.0,0.0018637992831541214,-0.25274961597542245,-0.008079877112135179,-0.16999999999999993,-9.79,-0.39000000000000035,-0.02304147465437788,0.008256528417818737,0.011904761904761904,104.75,-1.0,92.3125,0.4225463900000005,0.5793457,-0.4296264600000005,-0.5488281199999999
304.0,0.0005939580133128519,-0.25245263696876596,-0.010829493087557606,-0.16999999999999993,-9.79,-0.39000000000000035,0.012544802867383511,-0.028065796210957502,0.004576292882744495,104.75,-1.0,92.3125,0.4225463900000005,0.5793457,-0.4296264600000005,-0.5488281199999999
305.0,0.0015821812596006138,-0.2500742447516641,-0.011958525345622126,-0.16999999999999993,-9.79,-0.39000000000000035,-0.032514080901177675,-0.03570628520225294,0.003968253968253968,104.75,-1.0,92.3125,0.4225463900000005,0.5793457,-0.4296264600000005,-0.5488281199999999
306.0,0.001658986175115207,-0.2504832891123214,-0.012435530419401392,-0.16999999999999993,-9.789999999999997,-0.39000000000000035,-0.03213296560070753,-0.021860671810268583,-0.0070535423358004,104.75,-1.0,92.3125,0.4225463900000005,0.5793456999999999,-0.4296264600000005,-0.54882812
307.0,0.0024406632793729567,-0.2503031278757085,-0.011737714794166411,-0.16999999999999993,-9.79,-0.39000000000000035,-0.020469226114387402,-0.005310776253316577,-0.005191616179519405,104.75,-1.0,92.3125,0.4225463900000005,0.5793457,-0.4296264600000005,-0.5488281199999999
308.0,0.0020767064476741896,-0.2506469556429234,-0.010395227084743218,-0.16999999999999993,-9.79,-0.39000000000000035,0.02222346425975458,-0.0043594971896383184,-0.0007716913462881203,104.75,-1.0,92.3125,0.4225463900000005,0.5793457,-0.4296264600000005,-0.5488281199999999
309.0,0.0019220430107526883,-0.24949615102639297,-0.009667423302503952,-0.16999999999999993,-9.79,-0.39000000000000035,-0.0030398197232874655,0.019671988377885558,-0.006789455504173246,104.75,-1.0,92.3125,0.4225463900000005,0.5793457,-0.4296264600000005,-0.5488281199999999
310.0,0.0012383167907361456,-0.25033918903676966,-0.010979415745544781,-0.16999999999999993,-9.79,-0.39000000000000035,-0.011177943360403038,0.011041067467478759,0.0024976032032483645,104.75,-1.0,92.3125,0.4225463900000005,0.5793457,-0.4296264600000005,-0.5488281199999999
311.0,0.00010840570719602982,-0.24983235111662533,-0.010203784119106704,-0.16999999999999993,-9.79,-0.39000000000000035,-0.01762465105459057,0.01323375465260546,0.014124534739454093,104.75,-1.0,92.3125,0.4225463900000005,0.5793457,-0.4296264600000005,-0.5488281199999999
312.0,-0.0003204869727047142,-0.25088143610421837,-0.009925713399503724,-0.16999999999999993,-9.79,-0.39000000000000035,0.0004153419665012398,-0.023322638802729525,0.011141051488833747,104.75,-1.0,92.3125,0.4225463900000005,0.5793457,-0.4296264600000005,-0.5488281199999999
313.0,-2.411477411477393e-05,-0.25083270313915473,-0.0102237533971405,-0.16999999999999993,-9.79,-0.39000000000000035,-0.0008161445409429289,-0.01724642684824136,-0.003197035379495056,104.75,-1.0,92.3125,0.4225463900000005,0.5793457,-0.4296264600000005,-0.5488281199999999
314.0,-0.001432081807081806,-0.2522435208161014,-0.013321849521446301,-0.16999999999999993,-9.79,-0.3863133640552997,0.022540104105124262,-0.007226447107999526,-0.006517232487494584,104.74846390168972,-1.0,92.26590501792114,0.422743401121352,0.5791516885714282,-0.42961646167946776,-0.5489051279262673
315.0,-0.0003163402457757292,-0.250448988735279,-0.013671834997439843,-0.16999999999999993,-9.79,-0.38299539170506913,-0.003237707213261649,-0.030254436283922166,-0.013173343093958012,104.74923195084486,-1.0,92.22468637992831,0.4228969110445469,0.5789966788018428,-0.42958996148489526,-0.5489926368663596
316.0,0.0009219790066564262,-0.251135752688172,-0.013809683819764471,-0.16999999999999993,-9.79,-0.38133640552995385,-0.029386880760368665,0.06860989103302612,0.006332405273937531,104.74961597542242,-1.0,92.2040770609319,0.4229706655760369,0.5789211742037883,-0.4295737109575015,-0.5490363913364057
317.0,-0.0013031233998975927,-0.25061827956989247,-0.016103430619559655,-0.16999999999999993,-9.79,-0.3805069124423962,0.027865783410138248,-0.018697196620583716,0.0030401945724526365,104.74980798771121,-1.0,92.19377240143369,0.4229982368202764,0.5788917590373777,-0.429535112898106,-0.5490607294585255
318.0,-0.0013018433179723498,-0.2504576292882744,-0.01917306707629289,-0.16999999999999993,-9.79,-0.3800921658986174,0.03762240783410138,0.001916122631848441,0.011872759856630824,104.74990399385561,-1.0,92.18862007168458,0.4230243288940091,0.5788667140348174,-0.4295177825780856,-0.5490704376324886
319.0,-0.0006868033400291465,-0.2509665357044389,-0.02433284099413133,-0.16999999999999993,-9.79,-0.3799999999999999,0.038950831314742605,0.036626067145220376,0.0011336110126432706,104.75,-1.0,92.1875,0.42303121833333324,0.5788602543906802,-0.42950942986559204,-0.5490728852217743
320.0,-0.001626673953286856,-0.250741962562527,-0.0248840541179251,-0.16999999999999993,-9.79,-0.3799999999999999,0.027383614089763284,0.015671141414588995,-0.007565899602189926,104.75,-1.0,92.1875,0.42303294416666654,0.5788588371953398,-0.4295059254166673,-0.5490725776108873
321.0,-0.0014818548387096771,-0.24907234801488834,-0.02516222084367247,-0.16999999999999993,-9.79,-0.3799999999999999,0.010105362127791565,0.02456624147022332,-0.020079869727047145,104.75,-1.0,92.1875,0.42303390084677406,0.5788580660887088,-0.4295042669556459,-0.5490724238054437
322.0,-0.0026705955334987595,-0.24953365384615384,-0.020149813895781646,-0.16999999999999993,-9.79,-0.3799999999999999,-0.000752655862282878,-0.07387271246898264,-0.009543656947890819,104.74503722084367,-1.0,92.1875,0.4230463014044664,0.578845788595533,-0.42951650624813964,-0.5490659691761788
323.0,-0.003504774795097376,-0.25070020302278373,-0.01801142943078428,-0.16999999999999993,-9.789999999999997,-0.3799999999999999,-0.03386344837957741,-0.028973983006241072,-0.006553124295059779,104.7152605459057,-1.0,92.1875,0.42310348957320076,0.5787886004267988,-0.4296049565111666,-0.5490061157171217
324.0,-0.003829828973786605,-0.25178893711007333,-0.021170338247853908,-0.16999999999999993,-9.789999999999997,-0.3799999999999999,-0.023360652747990252,-0.005011416524416045,-0.008899039092828211,104.70037220843672,-1.0,92.1875,0.42313208365756794,0.5787600063424316,-0.42964918164268007,-0.548976188987593
325.0,-0.005394273837220395,-0.25049601754368245,-0.023474935271757626,-0.16999999999999993,-9.789999999999996,-0.3799999999999999,-0.023154403372265674,0.008355540703879654,-0.01640483573560126,104.69292803970222,-1.0,92.1875,0.4231463806997515,0.5787457093002482,-0.42967129420843675,-0.5489612256228289
326.0,-0.004945125489179414,-0.24919289184575658,-0.0230632064132305,-0.16999999999999993,-9.789999999999996,-0.3799999999999999,-0.04076313671884206,0.010904309941382641,-0.007217381398893195,104.68920595533498,-1.0,92.1875,0.42315352922084326,0.5787385607791563,-0.4296823504913152,-0.5489537439404467
327.0,-0.003839808402157945,-0.25110513078640184,-0.021052695018029647,-0.16999999999999993,-9.79,-0.3799999999999999,-0.041085662652225005,0.024078085491783134,-0.0125572018656997,104.6875,-1.0,92.1875,0.4231567399999996,0.5787353499999999,-0.4296875,-0.5489502000000002
328.0,-0.0021690958696254795,-0.2508408577460094,-0.023289637981982726,-0.16999999999999993,-9.79,-0.3799999999999999,0.00876834808587336,-0.01154567227027506,0.0036927784941747383,104.70089950372208,-1.0,92.1875,0.42313153757816346,0.5787634606898262,-0.4296666600595533,-0.548959890362283
329.0,-0.002148582600195503,-0.2510198511166253,-0.02100808331453494,-0.16999999999999993,-9.79,-0.3799999999999999,0.009605045492142264,-0.007615939168358522,0.01664387359951876,104.69419975186105,-1.0,92.1875,0.4232071426600492,0.5787179059900744,-0.42974008390074425,-0.5488920361488834
330.0,-0.0023570497602755664,-0.25044021927892895,-0.02295086007182783,-0.16999999999999993,-9.79,-0.3799999999999999,0.014882440588085749,-0.00619212216994475,0.005119550028824223,104.69084987593052,-1.0,92.1875,0.4232449452009922,0.5786951286401985,-0.42977679582133976,-0.5488581090421836
331.0,-0.0024184587813620064,-0.25090972468391826,-0.019301385442514484,-0.16999999999999993,-9.79,-0.3799999999999999,-0.008539438831777543,-0.002813133886722596,-0.008720219632518018,104.68917493796526,-1.0,92.1875,0.42326384647146365,0.5786837399652605,-0.4297951517816375,-0.5488411454888337
332.0,-0.002330017031760008,-0.2514899219753538,-0.016088457869740395,-0.16999999999999993,-9.79,-0.37999999999999995,-0.0015371891989672958,0.00017832059365943329,-0.018128820294126616,104.68833746898262,-1.0,92.1875,0.42327329710669936,0.5786780456277916,-0.4298043297617864,-0.5488326637121588
333.0,-0.0029865085559024167,-0.2515675016104256,-0.018292848161637194,-0.16999999999999993,-9.790000000000001,-0.37999999999999995,0.011354694442379796,0.011744187111846124,-0.018219537018111093,104.6875,-1.0,92.1875,0.4232788099999997,0.5786743200000001,-0.42980956999999975,-0.5488281199999998
334.0,-0.002873164527691063,-0.24968138347951047,-0.020246271245230672,-0.16999999999999993,-9.790000000000003,-0.37999999999999995,0.012803916224831936,0.0189266306592009,-0.023614414548337542,104.6875,-1.0,92.1875,0.4232788099999997,0.5786743200000001,-0.42980956999999975,-0.5488281199999998
335.0,-0.002621938126620749,-0.24918784995788118,-0.02438580843367525,-0.16999999999999993,-9.790000000000001,-0.3799999999999999,0.024531118378673007,0.006455122805278891,-0.022959921047850287,104.6875,-1.0,92.1875,0.4232788099999997,0.57867432,-0.42980956999999975,-0.5488281199999998
336.0,-0.0029085113060139077,-0.24875419123598105,-0.023734122854830467,-0.16999999999999993,-9.79,-0.3799999999999999,-0.0020553573493219696,0.03905385428538394,-0.022392658936623552,104.6875,-1.0,92.1875,0.4232788099999997,0.57867432,-0.42980956999999975,-0.5488281199999999
337.0,-0.0035617558531190158,-0.25053434367690347,-0.025790338462554917,-0.16999999999999993,-9.79,-0.3799999999999999,0.009825399048864189,-0.001878059649911886,-0.028623338593421838,104.6875,-1.0,92.1875,0.4232788099999997,0.57867432,-0.42980956999999975,-0.5488281199999999
338.0,-0.0042236458766115375,-0.2504830927541645,-0.026191215016917426,-0.16999999999999993,-9.79,-0.3799999999999999,-0.010614745844974773,-0.0542038581288061,-0.023107845155191667,104.6875,-1.0,92.1875,0.4232788099999997,0.57867432,-0.42980956999999975,-0.5488281199999999
339.0,-0.0019881937059356416,-0.24987834298318168,-0.025046900232384116,-0.16999999999999993,-9.79,-0.3799999999999999,-0.015460558706526448,0.019141717377604468,0.01369896904171098,104.6875,-1.0,92.1875,0.4232788099999997,0.57867432,-0.42980956999999975,-0.5488281199999999
340.0,-0.004631158715836136,-0.25027245827649053,-0.03138091881237043,-0.16999999999999993,-9.789999999999997,-0.3799999999999999,0.019064162763759537,-0.01672609704363737,0.011111575476494832,104.6875,-1.0,92.1875,0.4232788099999997,0.57867432,-0.42980956999999975,-0.54882812
341.0,-0.0023425774494322893,-0.2509438444619896,-0.025409772351304614,-0.16999999999999993,-9.789999999999997,-0.3799999999999999,0.026613901891119632,-0.27243522186818564,-0.01755260028949545,104.55602394916912,-1.0,92.1875,0.423951328709677,0.5781721947996089,-0.4304400889442815,-0.5483455694623656
342.0,-0.00337213089330025,-0.25137311780960975,-0.02055254389427777,-0.16999999999999993,-9.789999999999996,-0.3799999999999999,-0.002185755272952854,-0.14728094276355366,-0.01750440000187984,104.42821358748779,-1.0,92.1875,0.42462313129032225,0.5776672057869011,-0.4310698926979474,-0.547862302795699
343.0,-0.0036411760282728032,-0.25114820663207765,-0.020798556282427258,-0.16999999999999993,-9.789999999999996,-0.3799999999999999,-0.015771862546056094,0.0565568839762388,-0.028019023986765923,104.38728005865102,-1.0,92.1875,0.4248077288074289,0.5775349917888563,-0.4312439882404695,-0.5477266295796679
344.0,0.000559064591322656,-0.253683284457478,-0.020893074667268224,-0.17436724565756812,-9.79,-0.37595037220843697,0.14081133919843597,-0.04762106173396496,0.0015922249793217519,104.3220054139409,-1.0,92.16516749379653,0.4251904268429205,0.5772114502964134,-0.43143403700609084,-0.5476332833158887
345.0,-0.0007276290796627356,-0.2535522971652004,-0.017472654040676484,-0.17435286079044832,-9.789999999999997,-0.3619677059733163,0.10180840664711632,-0.4703910804015993,-0.09049017252032679,104.17048435727432,-1.0093501636278637,92.10106492969396,0.42619230833263366,0.5763043222309557,-0.4318823409504507,-0.547450002265705
346.0,-0.006678173828432356,-0.2504421295283116,-0.012272786949431775,-0.16824768701534937,-9.789999999999996,-0.359351691214872,0.021978542040530485,-0.23131145986931925,0.001708561921217086,103.94585959193722,-0.9724170172978027,92.098543418145,0.42730523021711114,0.5751512925087316,-0.4333172623311583,-0.5466636747418236
347.0,-0.0077843459562494145,-0.2503530295735399,-0.012087028860835146,-0.16912384350767465,-9.79,-0.3645145552848553,0.010958723610685575,-0.14250690295518748,-0.004399873487094292,103.74208302177507,-0.9539504441327724,92.11076364455637,0.4282384420440396,0.574353263835011,-0.4346210829397727,-0.5457524102741376
348.0,-0.00761895694684416,-0.25008120686888136,-0.014572351185060783,-0.1695619217538373,-9.79,-0.36709598731984705,0.04425929826673086,-0.04704462938570714,0.018068269512562334,103.60570671127854,-0.9447171575502571,92.11687375776205,0.4288028051520296,0.5738840421838787,-0.4353586078775112,-0.545216190012435
349.0,-0.0046779648257794,-0.25097608730540844,-0.008534314550346768,-0.16964448445011962,-9.79,-0.36851325420582925,0.03188461191252176,-0.0638759127077419,-0.035646386335530245,103.54043089906358,-0.9401005142589995,92.12062670518375,0.4290291498737814,0.5736924253797806,-0.4356744364846614,-0.5449946544776811
350.0,-0.005610370912188438,-0.2522084737602311,-0.015641631328469324,-0.16975445353875776,-9.79,-0.36935363505055363,0.06634553176271249,-0.12229121722343617,0.007203104167438244,103.50848391610495,-0.9375,92.12415743861338,0.42913914317555363,0.5736002204423449,-0.43583213975355106,-0.5448812644174283
351.0,-0.01050612358072036,-0.25145796676441834,-0.01606799618392361,-0.16999999999999993,-9.789999999999997,-0.35971285434995126,0.10541921326321527,-0.004314204780434615,0.01437612496710279,103.48614102211633,-0.9375,92.09274193548387,0.4294242734075635,0.5733069095240712,-0.4358497778735953,-0.5449395543181815
352.0,-0.011211639502970154,-0.2519751649560117,-0.014408860628618698,-0.16999999999999993,-9.789999999999997,-0.35453384652981446,-0.067020487912625,-0.07510908949921047,0.045484490727686296,103.45442803793988,-0.9516739980449658,92.07661290322581,0.4296907697548572,0.5730691008275293,-0.435960723472477,-0.5448734372421796
353.0,-0.014577405873295386,-0.25276188886943574,-0.02364363048282163,-0.16999999999999993,-9.789999999999996,-0.3517132400679887,-0.05926196669343335,-0.20020838743135777,0.028868447142249502,103.30441582182561,-0.9768450635386119,92.06614106884929,0.43045493295319126,0.5724831754600301,-0.4365917656002477,-0.5443889869218241
354.0,-0.007498493146437902,-0.2522871027924891,-0.02647404473234999,-0.16999999999999993,-9.789999999999996,-0.34537274906625237,0.014396293140237233,-0.20874112130421937,0.007505601118308749,103.14707594610341,-0.989430596285435,91.99928509942953,0.4314465970631058,0.5716410849343161,-0.4371182835576995,-0.5440717202644312
355.0,-0.008330783483888927,-0.25180274804636865,-0.04749446653490948,-0.16999999999999993,-9.792699751861036,-0.3326815280691062,0.13065357848699208,-0.15024161563039753,-0.0386275887088357,103.04670940217702,-0.9957233626588465,91.91722939835,0.4322787486492251,0.5708617292803947,-0.4373193898827967,-0.5440690845470733
356.0,-0.007225020285443975,-0.2509722440134091,-0.07017929582854954,-0.16999999999999993,-9.796511166253099,-0.32069071515869774,0.06864118318288996,-0.10915062208694852,-0.004070636974163697,102.98347505788226,-0.9988697458455522,91.82857437659436,0.43293660745999873,0.5702279745473333,-0.43737364379281585,-0.5441787574788155
357.0,-0.006889636242428731,-0.25068895680631353,-0.07899727254770583,-0.16999999999999993,-9.798416873449131,-0.31470019628902623,0.03554248797463169,-0.01295446549117709,0.0088701067328595,102.95259102356478,-1.0,91.78424686571654,0.4332607935955909,0.5699141697907733,-0.4373965048191842,-0.5442375764837873
358.0,-0.009550923538826767,-0.2502891100834649,-0.07526913095864707,-0.16999999999999993,-9.799369727047146,-0.3117121588089329,-0.010647291216847668,0.04261295380246993,0.03801857584619681,102.94137435145498,-1.0,91.76215833897285,0.4333720674622157,0.5697719267105047,-0.43735885722182166,-0.5443121797031356
359.0,-0.009192093524754816,-0.2492959770963803,-0.06945367826617825,-0.16999999999999993,-9.799846153846154,-0.30914332978849113,0.01735198745027374,-0.06998300198905037,0.0371900878579306,102.90403127338611,-1.0,91.75303970223325,0.43352571009078744,0.5696339255505932,-0.4374494977415023,-0.5442667757769506
360.0,-0.009111455391209555,-0.2504581222230481,-0.07052320509802949,-0.16999999999999993,-9.8,-0.3042242703533029,-0.04361929163466462,-0.09537081340947756,0.033425348899748936,102.84282348909039,-1.0,91.75,0.4337493656649405,0.5694538589328245,-0.4376358091617944,-0.5441026794256565
361.0,-0.00761577257073485,-0.25114225374940125,-0.07642469763226135,-0.16999999999999993,-9.8,-0.3009518854367972,0.055020214842137,-0.10755143167872422,-0.021236584947888278,102.78974551145467,-1.0,91.75,0.43398549798335484,0.5692634928326973,-0.43779902691700545,-0.5439693113257316
362.0,-0.006844680640206135,-0.2491925986488942,-0.07901123994516293,-0.16999999999999993,-9.8,-0.29515336207323706,0.0905928947194556,-0.1255688105974266,-0.036701961828782846,102.73459049766282,-1.0,91.75,0.4343901476005483,0.5688842820615101,-0.437998021583503,-0.5438568854410917
363.0,-0.00612587334621674,-0.24822533158251164,-0.08506501577391275,-0.16999999999999993,-9.8,-0.292254100391457,0.047720602505657135,-0.07625726756189816,-0.003782048502717076,102.70701299076688,-1.0,91.75,0.4345934415422095,0.5686946766759164,-0.4380984880498163,-0.5437997033657072
364.0,-0.005386226286720563,-0.2484236272312495,-0.09075457256063393,-0.16999999999999993,-9.8,-0.29084287200832426,0.02211569729048267,-0.07635951132634275,0.010948443628431923,102.69429630593132,-1.0,91.75,0.43469143196670124,0.5686024991623311,-0.4381450959885541,-0.5437737687617068
365.0,-0.0032512438783900803,-0.24895119494189477,-0.09630695234786024,-0.16999999999999993,-9.799999999999999,-0.2908075552612489,-0.04265977110060422,0.10647257539979962,0.004562726528371041,102.70786132658532,-1.0,91.75,0.43464386703197416,0.5686356458479176,-0.4380757526487564,-0.5438404812365594
366.0,-0.004531099753039449,-0.24883070797462048,-0.0993588437170677,-0.16999999999999993,-9.799999999999997,-0.29543499511241444,-0.013625496465548973,0.10569228619338453,-0.01388067255049757,102.82581867057672,-1.0,91.75,0.4340761444784875,0.5690856286753916,-0.43749766549525104,-0.544305358053282
367.0,0.0034632349475271964,-0.24844157893843444,-0.08417760428766383,-0.16999999999999993,-9.799999999999997,-0.2978787878787881,-0.05765747956830723,0.09659576125407252,0.020255927012874382,102.87933773216031,-1.0,91.75,0.43377137570942953,0.5693223834872563,-0.4372207137104798,-0.5445382901458982
368.0,0.008174700600314468,-0.24894601434514774,-0.07008868582869543,-0.16999999999999993,-9.799999999999997,-0.29830663959696235,-0.08942189851554319,0.06406052020520003,0.06323769714477466,102.86232705466577,-1.0,91.7455334987593,0.43384317863883376,0.5692842860364322,-0.4373330503664062,-0.5444458825890781
369.0,0.01243872294185246,-0.2489218629762684,-0.0640639970952922,-0.16999999999999993,-9.799999999999999,-0.29931461012106203,-0.09588320889777316,0.09783360997853054,0.06294614582710394,102.87168772088127,-1.0,91.74776674937965,0.4338257677065135,0.5693229107601514,-0.43740569631223536,-0.544387561133249
370.0,0.011644581412275205,-0.25100052093094943,-0.06258185192008012,-0.16999999999999993,-9.799999999999999,-0.29980148883374724,-0.12030841774311923,0.15231978641644023,0.01485528210221277,102.86772313707797,-1.0,91.74888337468983,0.43378005735765557,0.5693674288502615,-0.43740146411652836,-0.5443836097064094
371.0,0.011159391683585231,-0.24978219182251438,-0.06356618560650817,-0.16999999999999993,-9.8,-0.29990074441687387,-0.11372157748165812,0.061267238585786976,-0.00585559713583907,102.87035350402286,-1.0,91.7494416873449,0.4336879322705466,0.5694431903423189,-0.43733356962205827,-0.5444351380356792
372.0,0.004194065343258892,-0.25032609102367165,-0.07816383571625506,-0.16999999999999993,-9.8,-0.2999503722084371,-0.06440599890700696,-0.10322512948521013,-0.10052677217495766,102.87589950372208,-0.9984879032258065,91.74972084367246,0.4337027857344914,0.5694169942400746,-0.43739511101581885,-0.5443934961854837
373.0,-0.006113033622211525,-0.25063517617366315,-0.09300966127503804,-0.16884448724121326,-9.799999999999999,-0.2871352912855081,0.25808578614702987,0.12797407093755492,-0.1848222913132112,102.85482366393836,-0.990577605922003,91.67585459797785,0.4341109626974,0.5688723544995788,-0.43734133910944273,-0.5446774944610614
374.0,-0.009400793889614909,-0.24802448371621155,-0.08814979322855766,-0.16372171401059224,-9.799999999999997,-0.2761579200770341,0.1571234962022644,0.08748847985972594,-0.24650864968790837,103.12634659364468,-0.9586975655994222,91.60652383245065,0.43308108610796814,0.5693984783812291,-0.4359668751204412,-0.5460381081934581
375.0,-0.03399367171439271,-0.2512500730793039,-0.09055322322718204,-0.15875025792695516,-9.799999999999997,-0.2812218171813742,0.17672968084882806,-0.1702255541369573,-0.2264211775225256,103.22995757101589,-0.9272750500808171,91.63863057981979,0.43246707039355786,0.5697569715700788,-0.43583968433952636,-0.5462531234620805
376.0,-0.012834310632052537,-0.2496613607467541,-0.07708197892180464,-0.15374894300522332,-9.799999999999997,-0.277935386769055,0.17873862434658505,-0.9011104126818638,-0.2911466825536184,102.54204235287037,-0.8976982461030272,91.62031149484348,0.4358053679956405,0.5668208932992709,-0.4394445680710912,-0.5437200201086494
377.0,-0.020895481928929503,-0.24772130537337705,-0.07528242091251522,-0.15155189085745047,-9.799999999999997,-0.28098382241678543,0.2534633141894216,-0.47816672347802863,-0.18992817998648664,102.09347581353197,-0.884380247043449,91.63525655387335,0.43791874978663065,0.565030133892579,-0.44192417075429546,-0.5418841103895061
378.0,-0.026212560132382278,-0.24816309682274446,-0.07311885071794726,-0.15428454097093833,-9.799999999999997,-0.2819375766194776,0.14997732392186533,-0.06112413038157005,-0.08796516620610688,101.91089612421763,-0.8983432997657417,91.64276315756202,0.4387060478206143,0.5645443374894938,-0.44265020433633656,-0.5411748283340376
379.0,-0.01838099756031445,-0.25044409053944156,-0.06748624288425045,-0.16232041203578207,-9.799999999999997,-0.2892358023854701,0.08459757895093521,-0.6162741003659529,-0.08853390146381132,101.61153344402277,-0.9460456763350501,91.68689833796421,0.4399406854892247,0.5639641908399634,-0.44382526295960945,-0.5398175997868324
380.0,-0.01021584440227704,-0.2496667457305503,-0.07113021821631876,-0.16641366223908916,-9.799999999999997,-0.2896708965844399,0.08416226873814042,-0.4447009902751423,-0.0359864207779886,101.10405301233396,-0.9746501423149905,91.68742958372866,0.44227223723078773,0.5623324191550049,-0.445936183002846,-0.5378789712090843
381.0,-0.012259250474383305,-0.2488964658444023,-0.07453806925996204,-0.16853889943074,-9.799999999999999,-0.29007026802656505,0.07257508598197343,-0.26387385851518025,-0.05677404530360532,100.84418732210627,-0.9893856736242884,91.68876934594402,0.4434536361841799,0.5615089798265538,-0.4469868488875707,-0.5368912062046372
382.0,-0.009038655051463403,-0.24896634753608188,-0.07673918981082167,-0.16959203036053125,-9.799999999999997,-0.2901233396584436,0.042898670648611345,-0.09722027557357255,-0.042546701598527976,100.71751956831119,-0.9967089658444023,91.68868595825427,0.44403039425640484,0.5611074076577328,-0.44749092682281727,-0.5364151819959679
383.0,-0.008554532516819048,-0.24997372922776145,-0.07716825513196479,-0.16999999999999993,-9.799999999999997,-0.2901802656546485,0.016531202381979183,-0.054347210841814736,-0.027716158860905067,100.65290708017078,-0.9997331593927894,91.68871560721061,0.4443267936201383,0.5608943459541038,-0.4477590959398713,-0.5361703575658208
384.0,-0.010910007331378306,-0.24900812561094815,-0.08699932795698924,-0.16999999999999993,-9.799999999999997,-0.28999999999999954,0.012827048203812318,-0.032355434384164224,-0.0025411626344086034,100.62682711693549,-1.0,91.6875,0.44444991907762177,0.5607975726260086,-0.447869119682459,-0.5360780865272179
385.0,-0.009444147586284687,-0.24808990337619366,-0.08127253928866829,-0.17222332506203464,-9.799999999999997,-0.28999999999999954,0.08689754046356868,-0.1586026939290548,-0.0019243693134822163,100.58579404466501,-1.0,91.6875,0.4446591380992557,0.5606407784913154,-0.4480678990868484,-0.5359074848535983
386.0,-0.0088576584705617,-0.24891390330100005,-0.0782572373862696,-0.1762729528535979,-9.799999999999999,-0.28999999999999954,0.03636081660275208,-0.030331462891946756,0.0034480976013234075,100.50862282878413,-1.0,91.6875,0.4450311056625308,0.5603693753746898,-0.44841296664019853,-0.5356116092009933
387.0,-0.014236700575410256,-0.24808132906520008,-0.0721025981187271,-0.17829776674937953,-9.799999999999999,-0.27492575524833573,0.18832075182881633,-0.04284532112153079,0.008357200595103819,100.48949446610737,-1.0,91.59533410138249,0.4455296065563038,0.5598136457979439,-0.4481699739447791,-0.5359787015436609
388.0,-0.005706138843235619,-0.2475173169124782,-0.07339309167534971,-0.17796029776674926,-9.8,-0.25078049549017295,0.22778132485793778,0.39942101189581025,-0.052694801837946996,100.49868643900902,-1.0,91.449853775257,0.44609976909204774,0.5591246388046791,-0.44758970229248873,-0.536714405635354
389.0,-0.00912893871361613,-0.24340549549017293,-0.06412902733467249,-0.17420134704005663,-9.799999999999997,-0.2238649021229666,0.2681158055654024,1.3663422612893381,-0.010984672249793215,101.59041464807594,-0.9963133640552996,91.30277827011697,0.44153284855063224,0.5624878889783764,-0.44180416015085267,-0.5416314266056955
390.0,-0.009820406967584384,-0.2475584726653275,-0.06137149700657765,-0.17313718539524983,-9.799999999999997,-0.2123241561306079,0.10154505272952856,1.5402962635762536,-0.06308051407597778,103.04579886958919,-1.0004608294930875,91.23338798298477,0.43486612304525585,0.5676731828266571,-0.4343848516638701,-0.5474900891943757
391.0,-0.007120155829833245,-0.24925348486638813,-0.06208100143584014,-0.17625578722352903,-9.799999999999997,-0.21159218559218568,0.08077581021129408,0.6885268853010789,-0.07757806709419612,103.97038843772714,-1.02906716938975,91.23121623000655,0.43049262190385973,0.5713165632070725,-0.42956732362763417,-0.5509970621142944
392.0,-0.0016622087589829501,-0.2487968160871387,-0.0669728336179949,-0.17812789361176445,-9.799999999999997,-0.20481555004135643,0.035059564091822155,0.31879276637341153,-0.05287682747360167,104.42914263156197,-1.0467916492110039,91.20417378320604,0.42844120382443385,0.5730081876404026,-0.4270651078225218,-0.5528547331385603
393.0,0.0035866713931230073,-0.2472559161268839,-0.0784974702716638,-0.17910613042871093,-9.799999999999997,-0.20194623655913962,0.017268014243820694,0.12473964207835177,-0.03736263736263737,104.6579335986594,-1.055653889121631,91.19375872783131,0.42741453576385985,0.5738577785690548,-0.4258374046443233,-0.5537572457195921
394.0,0.0036138185358214254,-0.247486579701794,-0.09165086045394183,-0.17970744309453973,-9.799999999999997,-0.20097542242703512,0.0014023801186776631,0.12559846468729471,-0.045651450739919684,104.77205865571597,-1.0602002164502164,91.19087417958386,0.4268702638464732,0.5742956705221984,-0.42522306303514046,-0.5541938963733115
395.0,0.0011016629013740238,-0.24744747276475737,-0.10648937918124243,-0.17998044965786886,-9.799999999999997,-0.2004301075268815,0.007592584954765985,0.004395740674026663,-0.039387893040998476,104.86380870573817,-1.0622861681329423,91.1893022971652,0.42637287165134685,0.5746634024869053,-0.4247162816074318,-0.5545656678825088
396.0,0.0011799764991868994,-0.24807383789377055,-0.11964002006659684,-0.17999999999999983,-9.799999999999999,-0.1999999999999998,0.07283978258942148,-0.011178135377702063,-0.010814049535763544,104.90358690418873,-1.0625,91.1875,0.4261564148359369,0.5748146247307445,-0.42449726868005977,-0.5547337110551357
397.0,0.0006991693910326554,-0.24842897850023515,-0.12353713162138777,-0.17999999999999983,-9.799999999999999,-0.1999999999999998,0.035923613379077984,0.07662247077268743,0.01140438962417778,104.92356764564275,-1.0625,91.1875,0.42601748093906,0.5749228202487473,-0.4243649172159603,-0.5548406290412157
398.0,0.0026718269693715062,-0.2480124439835562,-0.1233714306877523,-0.17999999999999983,-9.8,-0.1999999999999998,0.04066840117032702,-0.028014240213325443,0.0006402540646642712,104.93355801636976,-1.0625,91.1875,0.4259215591747709,0.5750014343223585,-0.424272286714492,-0.5549200570865527
399.0,0.0040645161290322595,-0.24793548387096778,-0.12608436724565755,-0.17999999999999983,-9.8,-0.1999999999999998,0.05812655086848635,-0.00471464019851117,-0.009770471464019851,104.95437344913151,-1.0625,91.1875,0.4258662163374687,0.5750497982878413,-0.42420324356823824,-0.5549688687791565
400.0,0.0059112625458316356,-0.24723565793859487,-0.12158845968667827,-0.17999999999999983,-9.799999999999999,-0.2013095811266249,0.039469371504759085,-0.3085385726454576,0.06068617828969297,104.91512305099812,-1.0625,91.1875,0.42610570858279306,0.5748862322806565,-0.42444084517603053,-0.5547777427405651
401.0,0.005753510812730841,-0.24715185408396773,-0.10967482236909293,-0.17999999999999983,-9.799999999999997,-0.2120721903678091,-0.0621196829971505,-0.18407603871012634,0.06383479904784671,104.66580321660365,-1.0625,91.24908357771261,0.42714237661788734,0.5741631303094386,-0.4260114796701265,-0.5535230447964803
402.0,0.0027153898901611942,-0.24859577815860917,-0.0998091383820801,-0.17999999999999983,-9.799999999999997,-0.22151996615164665,0.01880903962030587,-0.18744556879487068,0.01723161487846129,104.4893348927593,-1.0625,91.29404936461387,0.4277956499307949,0.5737458106526514,-0.42708161163775504,-0.5526318689905407
