time,linaccel_x,linaccel_y,linaccel_z,gravity_x,gravity_y,gravity_z,gyro_x,gyro_y,gyro_z,euler_x,euler_y,euler_z,quaternion_w,quaternion_y,quaternion_x,quaternion_z
0.0,0.011639344262295088,0.01934426229508198,-0.12081967213114753,-0.16999999999999996,-0.9200000000000013,-9.759999999999994,0.0020491803278688526,-0.0020491803278688526,-0.018442622950819672,264.75,-1.0,174.5,0.04095458999999999,0.6735839799999992,-0.7375488300000009,-0.02551269999999996
1.0,0.010218579234972682,0.020437158469945364,-0.1207103825136612,-0.16999999999999996,-0.9200000000000013,-9.759999999999994,-0.0006830601092896175,0.019808743169398905,-0.006830601092896175,264.75,-1.0,174.5,0.04095458999999999,0.6735839799999992,-0.7375488300000009,-0.025512699999999958
2.0,0.00980796252927401,0.02180640124902421,-0.11897111631537861,-0.16999999999999996,-0.9200000000000012,-9.759999999999994,0.0038739266198282592,0.017418032786885244,-0.011260733801717408,264.75,-1.0,174.5,0.040954589999999985,0.6735839799999992,-0.7375488300000009,-0.025512699999999958
3.0,0.010697267759562847,0.02075555555555557,-0.12214280510018216,-0.16999999999999996,-0.9200000000000013,-9.759999999999994,-0.012946265938069215,-0.025751366120218576,-0.013451730418943535,264.75,-1.0,174.5,0.04095459,0.6735839799999993,-0.7375488300000009,-0.025512699999999965
4.0,0.0111835007932311,0.022057817733121817,-0.12154450907808922,-0.16999999999999993,-0.9200000000000013,-9.759999999999994,-0.011023708796051471,-0.008758593336858807,-0.014441212762206944,264.75,-1.0,174.5,0.040954589999999985,0.6735839799999992,-0.7375488300000008,-0.025512699999999958
5.0,0.010057641459545219,0.02197020976555615,-0.1208436453375639,-0.16999999999999993,-0.9200000000000013,-9.759999999999994,-0.015063678829543452,0.01839304600740349,-0.018028380045831127,264.75,-1.0,174.5,0.040954589999999985,0.6735839799999992,-0.7375488300000008,-0.025512699999999958
6.0,0.010205975674246436,0.021561519478230224,-0.12151119337211352,-0.16999999999999993,-0.9200000000000013,-9.759999999999994,0.014182861801515952,-0.00451976467477525,-0.003709457077384101,264.75,-1.0,174.5,0.040954589999999985,0.6735839799999992,-0.7375488300000008,-0.025512699999999958
7.0,0.010860271916207507,0.02198376008597603,-0.1222084236024633,-0.16999999999999993,-0.9200000000000013,-9.759999999999994,0.02310285563194077,-0.006153938008563483,-0.0073427184797256965,264.75,-1.0,174.5,0.040954589999999985,0.6735839799999992,-0.7375488300000008,-0.025512699999999958
8.0,0.009460102466124203,0.020392373609002472,-0.12111091019714212,-0.16999999999999993,-0.9200000000000013,-9.759999999999994,0.00823417944650097,0.010313212557502147,0.007866848057863222,264.75,-1.0,174.5,0.040954589999999985,0.6735839799999992,-0.7375488300000008,-0.025512699999999958
9.0,0.010295889413918792,0.019720248147705895,-0.12121648101078683,-0.16999999999999993,-0.9200000000000013,-9.759999999999994,-0.020059933016040893,0.006627388933431137,-4.925709216833593e-05,264.75,-1.0,174.5,0.040954589999999985,0.6735839799999992,-0.7375488300000008,-0.025512699999999958
10.0,0.011228837490654932,0.020486440879439988,-0.12273565272534925,-0.16999999999999993,-0.9200000000000013,-9.759999999999994,-0.009732504847523355,0.021548304104683218,-0.011454343654408478,264.75,-1.0,174.5,0.04095458999999999,0.6735839799999991,-0.7375488300000008,-0.025512699999999958
11.0,0.011018756754107573,0.021289739875980315,-0.12125152777202383,-0.16999999999999993,-0.9200000000000013,-9.759999999999994,-0.017320557696020412,0.02193998141951947,-0.015621050937106615,264.75,-1.0,174.5,0.04095459,0.673583979999999,-0.7375488300000008,-0.025512699999999958
12.0,0.010324674943130791,0.02157359002123678,-0.12058153912014302,-0.16999999999999993,-0.9200000000000013,-9.759999999999994,0.0004123017971510833,0.011083804445451722,-0.012167965635046542,264.75,-1.0,174.5,0.04095459,0.673583979999999,-0.7375488300000008,-0.025512699999999958
13.0,0.009208804445451725,0.023509145241033147,-0.12102540857696859,-0.16999999999999993,-0.9200000000000013,-9.759999999999994,-0.004284536505418313,0.021540526134656224,-0.015141362489822298,264.75,-1.0,174.5,0.04095459,0.673583979999999,-0.7375488300000008,-0.025512699999999958
14.0,0.009343958013312855,0.02192908346134154,-0.12129800307219663,-0.16999999999999993,-0.9200000000000013,-9.759999999999994,0.0001300083205325142,0.0066884280593958005,-0.011974766385048642,264.75,-1.0,174.5,0.04095459,0.673583979999999,-0.7375488300000008,-0.025512699999999958
15.0,0.009956314742605069,0.021658700618378053,-0.12034422387648193,-0.16999999999999993,-0.9200000000000013,-9.759999999999994,0.014953341629248888,-0.008662215920280436,-0.011574694626609948,264.75,-1.0,174.5,0.04095459,0.673583979999999,-0.7375488300000008,-0.025512699999999958
16.0,0.011077019083067475,0.02127249497814015,-0.1189042006380716,-0.16999999999999993,-0.9200000000000013,-9.759999999999994,-0.010021310594647288,0.002280761353341998,-0.011438662843652763,264.75,-1.0,174.5,0.04095459,0.673583979999999,-0.7375488300000008,-0.025512699999999958
17.0,0.010301614380243417,0.020364070069715242,-0.11808113257710033,-0.16999999999999993,-0.9200000000000013,-9.759999999999994,-0.018414763160226867,0.01777344519280003,-0.008097733639568316,264.75,-1.0,174.5,0.04095459,0.673583979999999,-0.7375488300000008,-0.025512699999999958
18.0,0.010340338089330029,0.02168563895781639,-0.12028799627791564,-0.16999999999999993,-0.9200000000000013,-9.759999999999994,0.0038398534429280404,0.02475186104218362,0.00366731932382134,264.75,-1.0,174.5,0.04095459,0.673583979999999,-0.7375488300000008,-0.025512699999999958
19.0,0.009939516129032263,0.021790632754342443,-0.1199599875930521,-0.16999999999999993,-0.9200000000000013,-9.759999999999994,-0.02095611042183623,0.04922650434243176,-0.0039799162531017375,264.75,-1.0,174.5,0.04095459,0.673583979999999,-0.7375488300000008,-0.025512699999999958
20.0,0.01035685483870968,0.022619882133995052,-0.12046386476426799,-0.16999999999999993,-0.9200000000000013,-9.759999999999994,-0.00945448200992556,0.012066726116625308,0.0036552031637717124,264.75,-1.0,174.5,0.04095459,0.673583979999999,-0.7375488300000008,-0.025512699999999958
21.0,0.010858328163771717,0.022247906327543438,-0.11971580334987594,-0.16999999999999993,-0.9200000000000013,-9.759999999999994,0.0012901287220843669,-0.002124205179900745,0.018390877016129032,264.75,-1.0,174.5,0.04095459,0.673583979999999,-0.7375488300000008,-0.025512699999999958
22.0,0.010436724565756828,0.021052109181141455,-0.12053598014888338,-0.16999999999999993,-0.9200000000000013,-9.759999999999994,0.0010545905707196027,0.014795285359801487,0.00629652605459057,264.75,-1.0,174.5,0.04095459,0.673583979999999,-0.7375488300000008,-0.025512699999999958
23.0,0.009260545905707199,0.019920595533498772,-0.12070471464019852,-0.16999999999999993,-0.9200000000000013,-9.759999999999994,0.0006203473945409429,0.0108560794044665,-0.004032258064516129,264.75,-1.0,174.5,0.04095459,0.673583979999999,-0.7375488300000008,-0.025512699999999958
24.0,0.009558312655086852,0.02080397022332507,-0.12083374689826304,-0.16999999999999993,-0.9200000000000013,-9.759999999999994,-0.009398263027295286,-0.03194789081885856,-0.0038151364764267993,264.75,-1.0,174.5,0.04095459,0.673583979999999,-0.7375488300000008,-0.025512699999999958
25.0,0.011137717121588096,0.02099255583126552,-0.12096650124069477,-0.16999999999999993,-0.9200000000000013,-9.759999999999994,-0.011298076923076923,-0.025147332506203476,-0.014678970223325061,264.75,-1.0,174.5,0.04095459,0.673583979999999,-0.7375488300000008,-0.025512699999999958
26.0,0.010943548387096779,0.02165756823821341,-0.1204212158808933,-0.16999999999999993,-0.9200000000000013,-9.759999999999994,-0.007804745657568238,-0.03565058933002481,-0.007851271712158808,264.75,-1.0,174.5,0.04095459,0.673583979999999,-0.7375488300000008,-0.025512699999999958
27.0,0.008963089330024817,0.02226054590570721,-0.12050837468982631,-0.16999999999999993,-0.9200000000000013,-9.759999999999994,-0.003902372828784119,2.5201612903227172e-05,-0.007802807071960297,264.75,-1.0,174.5,0.04095459,0.673583979999999,-0.7375488300000008,-0.025512699999999958
28.0,0.011124224565756829,0.022760545905707207,-0.12152962158808935,-0.16999999999999993,-0.9200000000000013,-9.759999999999994,-0.0180957273573201,-0.014728404156327542,-0.004692346464019851,264.75,-1.0,174.5,0.04095459,0.673583979999999,-0.7375488300000008,-0.025512699999999958
29.0,0.011120424937965265,0.022782258064516142,-0.12059111352357321,-0.16999999999999993,-0.9200000000000013,-9.759999999999994,-0.004255680055831265,-0.008713457661290322,-0.013698530552109182,264.75,-1.0,174.5,0.04095459,0.673583979999999,-0.7375488300000008,-0.025512699999999958
30.0,0.011867245657568243,0.02264143920595535,-0.12107196029776676,-0.16999999999999993,-0.9200000000000013,-9.759999999999994,-0.012344913151364765,0.010830877791563276,-0.00447037841191067,264.75,-1.0,174.5133995037221,0.04095459,0.673583979999999,-0.7375488300000008,-0.025499613508684855
31.0,0.016000580960258384,0.023987031785418896,-0.12045653629524597,-0.16999999999999993,-0.9192626728110608,-9.759999999999994,-0.04195271574303832,0.03481818220981527,-0.012987877377998345,264.75,-0.9989759344598055,174.54356611130805,0.04090358653865846,0.6735784801126465,-0.7375543298873535,-0.025435149606364955
32.0,0.015080672463736986,0.019133601613440333,-0.11943632890407081,-0.1685141739980449,-0.9144700460829489,-9.759999999999994,0.024966946136300978,0.021234096744429404,-0.008813661976464396,264.75,-0.9750500395661685,174.57994532349372,0.040667525493180645,0.6735497307014843,-0.7375830792985151,-0.025280135399467926
33.0,0.014344771715739463,0.01572607500026856,-0.11903268058106767,-0.16409579667644186,-0.912073732718893,-9.759999999999994,0.023068150487505327,-0.015639882071333686,-0.0023591999398451012,264.75,-0.9552669552669553,174.6044887907791,0.04049603839175163,0.6735353559959031,-0.7375974540040959,-0.025207400925540427
34.0,0.01288082258243549,0.013866759584501526,-0.11952130306969015,-0.1618866080156403,-0.910875576036865,-9.759999999999994,0.008874335789658372,-0.010262558901671806,-0.02300031957290022,264.75,-0.9453754131173486,174.6167605244218,0.040410294841037114,0.6735281686431125,-0.7376046413568863,-0.025171033688576677
35.0,0.01672080831355026,0.003909806591258207,-0.11691325699390215,-0.16078201368523956,-0.8975345622119808,-9.759999999999994,-0.13787827875529488,-0.06003202386770935,-0.0009775171065493655,264.75,-0.9404296420425453,174.69354620513894,0.03985403750116372,0.6735477073054268,-0.7376412151139273,-0.024669409426174183
36.0,0.016427480449657878,-0.004097324046920822,-0.11676564027370478,-0.1602297165200392,-0.882983870967741,-9.759999999999994,-0.0698351967253177,-0.048049166055718476,-0.0026728983382209195,264.75,-0.9379887585532747,174.7569113514174,0.03933483664100683,0.6735660155241927,-0.7376893539112905,-0.024211214331622665
37.0,0.01548891129032259,-0.00817036290322581,-0.11510080645161291,-0.1600000000000001,-0.8758467741935475,-9.759999999999994,-0.047946068548387094,0.0035597278225806446,-0.009828629032258064,264.75,-0.9375,174.78792842741933,0.0390818161895161,0.6735759821169345,-0.7377126108266132,-0.023985953729838694
38.0,0.01615423387096775,-0.011466733870967746,-0.11539314516129034,-0.1600000000000001,-0.8722782258064508,-9.759999999999994,-0.02025579637096774,0.0016066028225806455,-0.004977318548387097,264.75,-0.9375,174.80323840725805,0.03895697648185481,0.6735809654133056,-0.7377242392842747,-0.02387317428427417
39.0,0.015184491807475685,-0.012732254864311322,-0.1147472638248848,-0.1600000000000001,-0.8704939516129022,-9.759999999999994,-0.03974704381080389,0.028019793266769073,-0.009988139240911418,264.75,-0.9375,174.8108933971774,0.038894556628024164,0.6735834570614909,-0.7377300535131053,-0.023816784561491916
40.0,0.014392121095750136,-0.012673131080389151,-0.11606910842293906,-0.1600000000000001,-0.869999999999999,-9.759999999999994,0.01581801235279058,0.01571100550435228,-0.019149725582437275,264.75,-0.9375,174.8125,0.03887938999999997,0.673583979999999,-0.7377319300000005,-0.023803709999999978
41.0,0.014143385176651313,-0.013369575652841787,-0.11554779505888377,-0.1600000000000001,-0.869999999999999,-9.759999999999994,0.01667656730030722,-0.015674503168202764,0.0012565804211469526,264.75,-0.9375,174.8125,0.03887938999999997,0.673583979999999,-0.7377319300000005,-0.023803709999999978
42.0,0.01457925307219663,-0.01432339669738864,-0.11553851446492577,-0.1600000000000001,-0.869999999999999,-9.759999999999994,-0.015492991551459293,-0.02130436347926267,-0.011200716845878136,264.75,-0.9375,174.8125,0.03887938999999997,0.673583979999999,-0.7377319300000005,-0.023803709999999978
43.0,0.014761904761904771,-0.015012325950151138,-0.11475717671737443,-0.1600000000000001,-0.869999999999999,-9.759999999999994,-0.003189881571775432,-0.01686417608146276,0.005325760203491732,264.75,-0.9375,174.8125,0.03887938999999997,0.6735839799999991,-0.7377319300000004,-0.023803709999999985
44.0,0.01256016385048644,-0.013356137373437067,-0.11362026782617313,-0.1600000000000001,-0.869999999999999,-9.759999999999994,-0.001178914160183671,-0.03232161697058289,0.01776784681961581,264.75,-0.9375,174.8125,0.03887938999999997,0.6735839799999991,-0.7377319300000005,-0.023803709999999978
45.0,0.012283666154633902,-0.012950470120410293,-0.11472360037494014,-0.1600000000000001,-0.869999999999999,-9.759999999999994,0.010723266934245081,-0.03356992266859918,0.006755787209091059,264.75,-0.9375,174.8125,0.03887938999999997,0.673583979999999,-0.7377319300000005,-0.023803709999999978
46.0,0.01271633384536611,-0.011575081450374121,-0.11481955748393705,-0.1600000000000001,-0.869999999999999,-9.759999999999994,0.021474664701121516,-0.03549015846691607,-0.002590488371900963,264.75,-0.9375,174.8125,0.03887938999999997,0.673583979999999,-0.7377319300000005,-0.023803709999999978
47.0,0.01275217613927292,-0.01283443172621113,-0.11510703136613648,-0.1600000000000001,-0.869999999999999,-9.759999999999994,0.005861020266587386,-0.021447566192623425,-0.003477383842888525,264.75,-0.9375,174.8125,0.03887938999999997,0.673583979999999,-0.7377319300000005,-0.023803709999999978
48.0,0.012544142179938232,-0.012158631055613371,-0.11481938456964474,-0.1600000000000001,-0.869999999999999,-9.759999999999994,0.00018272137158713677,-0.008447508382471961,-0.0036410072180103397,264.75,-0.9375,174.8125,0.03887938999999997,0.6735839799999991,-0.7377319300000004,-0.023803709999999985
49.0,0.01298482070594454,-0.012116181887253694,-0.1167107675536396,-0.1600000000000001,-0.869999999999999,-9.759999999999994,0.014444279272583122,0.0052008489833671925,-0.008428926548073269,264.75,-0.9375,174.8125,0.03887938999999997,0.6735839799999991,-0.7377319300000005,-0.023803709999999978
50.0,0.013015707844011702,-0.012246006970252552,-0.11620996647011217,-0.1600000000000001,-0.869999999999999,-9.759999999999994,0.022711130931734467,-0.00043977008076904025,-0.012326982475265513,264.75,-0.9375,174.8125,0.03887938999999997,0.673583979999999,-0.7377319300000005,-0.023803709999999978
51.0,0.012030127347505085,-0.012510612292089926,-0.1168761045868226,-0.1600000000000001,-0.869999999999999,-9.759999999999994,0.020572155327618386,0.0080686454255653,-0.012131873214079249,264.75,-0.9375,174.8125,0.03887938999999997,0.673583979999999,-0.7377319300000005,-0.023803709999999978
52.0,0.012607485588755105,-0.013073022479890332,-0.11834844655864428,-0.1600000000000001,-0.869999999999999,-9.759999999999994,-0.00797109079497217,0.013378920767058124,-0.008034062567101069,264.75,-0.9375,174.8125,0.03887938999999997,0.673583979999999,-0.7377319300000005,-0.023803709999999978
53.0,0.01110087045570917,-0.01265745007680492,-0.11623143881208398,-0.1600000000000001,-0.869999999999999,-9.759999999999994,-0.012608806963645674,0.017889144905273935,-0.007040450588837685,264.75,-0.9375,174.8125,0.03887938999999997,0.673583979999999,-0.7377319300000005,-0.023803709999999978
54.0,0.010579918405100513,-0.013126868506681209,-0.1142287299935583,-0.1600000000000001,-0.869999999999999,-9.759999999999994,-0.029645252134846308,0.02532187866475067,-0.0017673389161422456,264.75,-0.9375,174.8125,0.03887938999999997,0.6735839799999991,-0.7377319300000004,-0.023803709999999985
55.0,0.01175000095291459,-0.015336446187642867,-0.11464254649270256,-0.16119106699751867,-0.869999999999999,-9.759999999999994,0.01445801712451036,0.023691060644754715,0.41674207397412394,264.7921836228288,-0.9424627791563275,174.81547766749378,0.038889083141439185,0.6738447202084362,-0.7374905764714641,-0.023787717066997505
56.0,0.021950001813856326,-0.01455055490634102,-0.11743927005187818,-0.1681448835228325,-0.869999999999999,-9.759999999999994,-0.018592584318196628,-0.004282785471923029,-0.058167812544084097,265.08500611088476,-0.9789799451872153,174.83324737972669,0.038954765834080196,0.6756740597623787,-0.7358001241842151,-0.023704499282174718
57.0,0.022939926662176507,-0.01608736142654481,-0.11904733599880135,-0.17439502240657745,-0.869999999999999,-9.759999999999994,0.00992893825564823,-0.073497959556238,-0.003818289272554086,265.078793378023,-1.0227561016258657,174.82287368986331,0.03916909856220137,0.6755425785908664,-0.7359154722533973,-0.023470584641087346
58.0,0.023491212691047297,-0.01704009648388173,-0.1190538779328364,-0.17752009184844997,-0.869999999999999,-9.759999999999994,0.009268744601454427,-0.035084873275302825,-0.013405880427367671,265.07568701159215,-1.0446441798451909,174.81768684493164,0.03927626492626196,0.6754768380051104,-0.7359731462879884,-0.023353627320543663
59.0,0.025263230183126685,-0.0163301997045377,-0.11899380549103708,-0.17908262656938617,-0.869999999999999,-9.759999999999994,-0.001818685856285157,-0.004749875978285342,-0.0512985685274443,265.0741338283767,-1.0555882189548536,174.81509342246582,0.03932984810829225,0.6754439677122323,-0.736001983305284,-0.023295148660271818
60.0,0.026616726754094367,-0.017078251217033123,-0.11788275882492301,-0.17982667308618183,-0.869999999999999,-9.759999999999994,-0.0013358317618894766,-0.0072524193787208355,-0.043228378556526115,265.0720389985556,-1.0609051516610495,174.81370365912372,0.039356336788637425,0.6754193844342795,-0.7360239441116985,-0.023266409109292223
61.0,0.027235903097798275,-0.018962813620071694,-0.11651961725550436,-0.17999999999999983,-0.869999999999999,-9.759999999999994,0.010714185707885304,-0.02127486159114183,-0.013782882104454684,265.0625,-1.0625,174.8125,0.03936767999999996,0.6753539999999993,-0.7360839799999989,-0.023254389999999972
62.0,0.027656250000000014,-0.018292850742447526,-0.11734855030721966,-0.17999999999999983,-0.869999999999999,-9.759999999999994,0.022183419738863286,-0.02582565284178187,-0.014847450236815156,265.0625,-1.0625,174.8125,0.03936767999999996,0.6753539999999993,-0.7360839799999989,-0.023254389999999972
63.0,0.028125000000000018,-0.018536546338965704,-0.11627256144393242,-0.17999999999999983,-0.869999999999999,-9.759999999999994,0.010461669546850998,-0.01952824980798771,-0.006557419674859191,265.0625,-1.0625,174.8125,0.03936767999999996,0.6753539999999993,-0.7360839799999989,-0.023254389999999972
64.0,0.028960014671708237,-0.01830769969278035,-0.11656867270274526,-0.17999999999999983,-0.869999999999999,-9.759999999999994,-0.004470709202312025,-0.011668985276596162,-0.009330789478218913,265.0625,-1.0625,174.8125,0.03936767999999996,0.6753539999999993,-0.7360839799999989,-0.023254389999999972
65.0,0.029996756715506733,-0.01760104277442988,-0.1159551257434322,-0.17999999999999983,-0.869999999999999,-9.759999999999994,-0.04046450511294262,-0.018595959372169048,-0.00799758107595809,265.0625,-1.0625,174.8125,0.03936767999999996,0.6753539999999993,-0.7360839799999989,-0.023254389999999972
66.0,0.028821463035172728,-0.015080763322698816,-0.11644026448461933,-0.17999999999999983,-0.869999999999999,-9.759999999999994,-0.008970281790342274,-0.04250110468608452,-0.009527394368624207,265.0625,-1.0625,174.8125,0.03936767999999996,0.6753539999999993,-0.7360839799999989,-0.023254389999999972
67.0,0.027141284119106716,-0.014640818858560802,-0.11745424937965258,-0.17999999999999983,-0.869999999999999,-9.759999999999994,-0.00453289779776675,-0.013262348790322578,-0.005035960763027296,265.0625,-1.0625,174.8125,0.03936767999999996,0.6753539999999993,-0.7360839799999989,-0.023254389999999972
68.0,0.0257732630272953,-0.013308312655086856,-0.11791563275434244,-0.17999999999999983,-0.869999999999999,-9.759999999999994,-0.012835375310173697,-0.001386088709677419,-0.0025337313895781636,265.0625,-1.0625,174.8125,0.03936767999999996,0.6753539999999993,-0.7360839799999989,-0.023254389999999972
69.0,0.02555288461538463,-0.014267059553349884,-0.11739454094292803,-0.17999999999999983,-0.869999999999999,-9.759999999999994,-0.012659933312655086,0.011954288151364763,-0.006074558002481389,265.0625,-1.0625,174.8125,0.03936767999999996,0.6753539999999993,-0.7360839799999989,-0.023254389999999972
70.0,0.025503489454094308,-0.015005738213399511,-0.11828784119106699,-0.17999999999999983,-0.869999999999999,-9.759999999999994,-0.009672088244416873,0.011924724720843672,-0.006960976271712159,265.0625,-1.0625,174.8125,0.03936767999999996,0.6753539999999993,-0.7360839799999989,-0.023254389999999972
71.0,0.02643967121588091,-0.016427729528535988,-0.1164151674937965,-0.17999999999999983,-0.869999999999999,-9.759999999999994,0.016141633064516128,0.006025124069478908,-0.0018183933002481386,265.0625,-1.0625,174.8125,0.03936767999999996,0.6753539999999993,-0.7360839799999989,-0.023254389999999972
72.0,0.02627566687344915,-0.015483095533498768,-0.11694207506203473,-0.17999999999999983,-0.869999999999999,-9.759999999999994,0.0025109530086848617,0.0184049317617866,0.003138570099255583,265.0625,-1.0625,174.8125,0.03936767999999996,0.6753539999999993,-0.7360839799999989,-0.023254389999999972
73.0,0.027816412865808042,-0.014262845129780623,-0.11825298357556423,-0.17999999999999983,-0.869999999999999,-9.759999999999994,0.002098280443794556,0.010581054110539997,0.008737743830989797,265.0625,-1.0625,174.8125,0.03936767999999996,0.6753539999999993,-0.7360839799999989,-0.023254389999999972
74.0,0.02929890897632835,-0.01466608447556029,-0.11917689501358858,-0.17999999999999983,-0.869999999999999,-9.759999999999994,0.004231570820532514,-0.004532528543365238,-0.003414064653984009,265.0625,-1.0625,174.8125,0.03936767999999996,0.6753539999999993,-0.7360839799999989,-0.023254389999999972
75.0,0.02881884132892199,-0.015025254539367452,-0.11870239079916498,-0.17999999999999983,-0.869999999999999,-9.759999999999994,-0.0069590453789042505,0.0016567368003859934,-0.009261515813935167,265.0625,-1.0625,174.8125,0.03936767999999996,0.6753539999999993,-0.7360839799999989,-0.023254389999999972
76.0,0.028725797835676886,-0.013517590048840056,-0.1175832053251408,-0.17999999999999983,-0.869999999999999,-9.759999999999994,-0.0056584929127771865,-0.002164807778467053,-0.013749864606719444,265.0625,-1.0625,174.8125,0.03936767999999996,0.6753539999999993,-0.7360839799999989,-0.023254389999999972
77.0,0.0287599300052474,-0.015015575071246257,-0.11841569215268488,-0.17999999999999983,-0.869999999999999,-9.759999999999994,-5.452855186205852e-05,0.007274268034543788,-0.007000940367875851,265.0625,-1.0625,174.8125,0.03936767999999997,0.6753539999999993,-0.736083979999999,-0.023254389999999972
78.0,0.029638541551522835,-0.015162677448577563,-0.1173312459739359,-0.17999999999999983,-0.869999999999999,-9.759999999999994,-0.017964412253401587,0.0005169343244915566,-0.012429041612509354,265.0625,-1.0625,174.8125,0.03936767999999997,0.6753539999999993,-0.7360839799999989,-0.023254389999999972
79.0,0.026204634515963873,-0.01405603248930513,-0.11628979093371654,-0.17999999999999983,-0.869999999999999,-9.759999999999994,0.008333855947425795,-0.006103293836611994,-0.004942316308243727,265.0625,-1.0625,174.8125,0.03936767999999996,0.6753539999999993,-0.7360839799999989,-0.023254389999999972
80.0,0.026983525655319376,-0.015381830888789794,-0.11555144948631552,-0.17999999999999983,-0.869999999999999,-9.759999999999994,0.0018947825564061896,-0.009324048351997752,-0.00632740495391705,265.0625,-1.0625,174.8125,0.03936767999999996,0.6753539999999993,-0.7360839799999989,-0.023254389999999972
81.0,0.02684951191714981,-0.01506978511140843,-0.11716771550798605,-0.17999999999999983,-0.869999999999999,-9.759999999999994,-0.003167686602910328,-0.0040472267644484075,-0.013806302958228035,265.0625,-1.0625,174.8125,0.03936767999999997,0.6753539999999993,-0.736083979999999,-0.023254389999999972
82.0,0.025531935979386567,-0.013846026790875914,-0.11751465900269231,-0.17999999999999983,-0.869999999999999,-9.759999999999994,-0.020395627900830812,0.003943478189055712,0.0003809276051731829,265.0625,-1.0625,174.8125,0.039367679999999974,0.6753539999999993,-0.736083979999999,-0.023254389999999972
83.0,0.025792081660968254,-0.01339510760946766,-0.1160307550005781,-0.17999999999999983,-0.869999999999999,-9.759999999999994,-0.011173876418413357,-0.0010044513816626194,-0.003633780949077515,265.0625,-1.0625,174.8125,0.03936767999999997,0.6753539999999993,-0.736083979999999,-0.023254389999999972
84.0,0.024731678311282902,-0.012877789339808078,-0.11735229506301303,-0.17999999999999983,-0.869999999999999,-9.759999999999994,-0.019955857820061772,0.004826115322993575,0.017608352741027036,265.0625,-1.0625,174.8125,0.03936767999999996,0.6753539999999993,-0.736083979999999,-0.023254389999999972
85.0,0.025517400855590257,-0.01296987265249493,-0.1172834183968419,-0.17999999999999983,-0.869999999999999,-9.759999999999994,-0.018090448111259767,0.0051652338007697005,0.015076577804205273,265.0625,-1.0625,174.8125,0.03936767999999996,0.6753539999999993,-0.7360839799999989,-0.023254389999999972
86.0,0.024849333477384876,-0.012932497780333885,-0.11561651344945728,-0.17999999999999983,-0.8699999999999991,-9.759999999999994,-0.007328689025521217,0.009969848012102494,0.011581475217586849,265.0625,-1.0625,174.8125,0.03936767999999997,0.6753539999999993,-0.736083979999999,-0.023254389999999972
87.0,0.024074857512192273,-0.011667799853944756,-0.11759629993368757,-0.17999999999999983,-0.8699999999999991,-9.759999999999994,-0.0015429184189099576,-0.006986938967372599,0.0009548152065338737,265.0625,-1.0625,174.8125,0.03936767999999997,0.6753539999999993,-0.7360839799999989,-0.023254389999999972
88.0,0.02349416198702292,-0.010867182057028704,-0.1179840178623891,-0.17999999999999983,-0.869999999999999,-9.759999999999994,0.010541264804881937,-0.027975036303962794,0.001629481335985831,265.0625,-1.0625,174.8125,0.03936767999999996,0.6753539999999993,-0.7360839799999989,-0.023254389999999972
89.0,0.02321120092669539,-0.011748969638974932,-0.11757665802086742,-0.17999999999999983,-0.8699999999999991,-9.759999999999994,0.013106150269027053,-0.019964556420135476,-0.0013797604358154333,265.0625,-1.0625,174.8125,0.03936767999999997,0.6753539999999993,-0.736083979999999,-0.023254389999999972
90.0,0.02266864656281419,-0.013154186849449644,-0.11708623297951355,-0.17999999999999983,-0.8699999999999991,-9.759999999999994,-0.004637318470032004,0.0013841266591987332,0.011084808846063344,265.0625,-1.0625,174.8125,0.039367679999999974,0.6753539999999993,-0.736083979999999,-0.023254389999999972
91.0,0.0224501350212273,-0.012206390093154228,-0.11719991183613437,-0.17999999999999983,-0.8699999999999991,-9.759999999999994,-0.01241583004411172,0.0036336286389594937,0.011243752915892594,265.0625,-1.0625,174.8125,0.039367679999999974,0.6753539999999993,-0.736083979999999,-0.023254389999999972
92.0,0.024168182321574465,-0.010096555137751984,-0.1185243897915125,-0.17999999999999983,-0.8699999999999991,-9.759999999999994,-0.0015732958257821368,0.017273287404724943,0.005765885674536158,265.0625,-1.0625,174.8125,0.039367679999999974,0.6753539999999993,-0.736083979999999,-0.023254389999999972
93.0,0.026114532334828834,-0.010378703877450064,-0.11754217771788265,-0.17999999999999983,-0.869999999999999,-9.759999999999994,0.014470070452568191,0.01616848057863223,0.019500264410364884,265.0625,-1.0625,174.8125,0.039367679999999974,0.6753539999999993,-0.736083979999999,-0.023254389999999972
94.0,0.026309513655515957,-0.009131710479179819,-0.11949292915508093,-0.17999999999999983,-0.8699999999999991,-9.759999999999994,0.011234241995189437,0.010910126064038482,0.0304237176097303,265.0625,-1.0625,174.8125,0.039367679999999974,0.6753539999999993,-0.736083979999999,-0.023254389999999972
95.0,0.02753040719196194,-0.009659507684959318,-0.11938486208014193,-0.17999999999999983,-0.8699999999999991,-9.759999999999994,0.022624144930997424,-0.008430212722403234,0.032527805735146104,265.0625,-1.0625,174.8125,0.039367679999999974,0.6753539999999993,-0.736083979999999,-0.023254389999999972
96.0,0.026641817778611777,-0.010141587485713314,-0.11932114771157096,-0.17999999999999983,-0.869999999999999,-9.759999999999994,0.021511595673905252,-0.01836212705344501,0.021285034373347434,265.0625,-1.0625,174.8125,0.039367679999999974,0.6753539999999993,-0.736083979999999,-0.023254389999999972
97.0,0.02655712116818206,-0.010851230787601716,-0.12066213472987498,-0.17999999999999983,-0.869999999999999,-9.759999999999994,0.00020363862779549866,-0.042430933453881714,0.01948747036045103,265.0625,-1.0625,174.8125,0.039367679999999974,0.6753539999999993,-0.736083979999999,-0.023254389999999972
98.0,0.02716542611767874,-0.010906761025830988,-0.11841949212089609,-0.17999999999999983,-0.869999999999999,-9.759999999999994,-0.006018314310138059,-0.043444244207409284,0.005639214426381142,265.0625,-1.0625,174.8125,0.039367679999999974,0.6753539999999993,-0.736083979999999,-0.023254389999999972
99.0,0.025855425069785127,-0.01073088548634855,-0.1180416398262392,-0.17999999999999983,-0.869999999999999,-9.759999999999994,0.0009548998232661089,-0.004395636159423882,-0.0049933518325818,265.0625,-1.0625,174.8125,0.03936767999999997,0.6753539999999993,-0.736083979999999,-0.023254389999999972
100.0,0.026558396511570305,-0.011097567018482739,-0.11837842525147418,-0.17999999999999983,-0.869999999999999,-9.759999999999994,-0.0036270708422113202,0.006929475744512163,-0.009705911500916702,265.0625,-1.0625,174.8125,0.03936767999999996,0.6753539999999993,-0.7360839799999989,-0.023254389999999972
101.0,0.026383231752638635,-0.009719125249822444,-0.11780949077515153,-0.17999999999999983,-0.869999999999999,-9.759999999999994,-0.0036585567282757707,-0.012481314933187982,-0.009111808962225194,265.0625,-1.0625,174.8125,0.03936767999999996,0.6753539999999993,-0.7360839799999989,-0.023254389999999972
102.0,0.027119815668202783,-0.01007808499743984,-0.11830901177675371,-0.17999999999999983,-0.869999999999999,-9.759999999999994,0.004544290834613415,-0.011264720942140297,-0.01491295442908346,265.0625,-1.0625,174.8125,0.03936767999999996,0.6753539999999993,-0.7360839799999989,-0.023254389999999972
103.0,0.028119323329000766,-0.009706063649612042,-0.11818369175627239,-0.17999999999999983,-0.869999999999999,-9.759999999999994,0.006418380007089684,-0.0019666489424553946,-0.004366802552286423,265.0625,-1.0625,174.8125,0.03936767999999996,0.6753539999999993,-0.7360839799999989,-0.023254389999999972
104.0,0.027937029816062095,-0.010490512623577145,-0.11719220430107528,-0.17999999999999983,-0.869999999999999,-9.759999999999994,-0.0029672052857536726,0.014097640710543936,0.003584967899484029,265.0625,-1.0625,174.8125,0.03936767999999996,0.6753539999999993,-0.7360839799999989,-0.023254389999999972
105.0,0.02796365059671513,-0.010383505159714843,-0.11643916410650283,-0.17999999999999983,-0.869999999999999,-9.759999999999994,-0.004899821280869668,0.005264706171964237,-0.006568051124502736,265.0625,-1.0625,174.8125,0.03936767999999996,0.6753539999999993,-0.7360839799999989,-0.023254389999999972
106.0,0.028156172456575698,-0.010781870347394546,-0.11753729838709678,-0.17999999999999983,-0.869999999999999,-9.759999999999994,-0.012482552729528536,0.0006242245657568242,-0.0021479528535980146,265.0625,-1.0625,174.8125,0.03936767999999996,0.6753539999999993,-0.7360839799999989,-0.023254389999999972
107.0,0.028468207196029792,-0.009899503722084372,-0.11596370967741937,-0.17999999999999983,-0.869999999999999,-9.759999999999994,-0.023567385235732007,0.010581769540942927,-0.007311375620347393,265.0625,-1.0625,174.8125,0.03936767999999996,0.6753539999999993,-0.7360839799999989,-0.023254389999999972
108.0,0.027797379032258082,-0.01076612903225807,-0.11623991935483871,-0.17999999999999983,-0.869999999999999,-9.759999999999994,-0.009387600806451612,0.005701864919354838,-0.0007245463709677417,265.0625,-1.0625,174.8125,0.03936767999999996,0.6753539999999993,-0.7360839799999989,-0.023254389999999972
109.0,0.027888104838709696,-0.011169354838709684,-0.11818044354838708,-0.17999999999999983,-0.869999999999999,-9.759999999999994,-0.01508946572580645,-0.015278477822580645,0.004000756048387096,265.0625,-1.0625,174.8125,0.03936767999999996,0.6753539999999993,-0.7360839799999989,-0.023254389999999972
110.0,0.0277063430521092,-0.012167726426799013,-0.11804660359801486,-0.17999999999999983,-0.869999999999999,-9.759999999999994,-0.03969254032258064,-0.0075919858870967735,-0.009146246898263028,265.0625,-1.0625,174.8125,0.03936767999999996,0.6753539999999993,-0.7360839799999989,-0.023254389999999972
111.0,0.02911910669975188,-0.010986817617866011,-0.11809312965260543,-0.17999999999999983,-0.869999999999999,-9.759999999999994,-0.03888608870967741,-0.001235848325062034,-0.0021232358870967747,265.0625,-1.0625,174.8125,0.03936767999999996,0.6753539999999993,-0.7360839799999989,-0.023254389999999972
112.0,0.027594602977667512,-0.010508529776674942,-0.12080226426799004,-0.17999999999999983,-0.869999999999999,-9.759999999999994,-0.01890751008064516,-0.02723567385235732,-0.009789857320099255,265.0625,-1.0625,174.8125,0.03936767999999996,0.6753539999999993,-0.7360839799999989,-0.023254389999999972
113.0,0.027810406327543443,-0.009593827543424322,-0.12188585607940444,-0.17999999999999983,-0.869999999999999,-9.759999999999994,-0.010028787996277915,-0.022566590415632755,-0.011937325527295286,265.0625,-1.0625,174.8125,0.03936767999999996,0.6753539999999993,-0.7360839799999989,-0.023254389999999972
114.0,0.02846153846153848,-0.008898263027295288,-0.12070471464019852,-0.17999999999999983,-0.869999999999999,-9.759999999999994,-0.006668734491315135,0.007133995037220845,0.004807692307692308,265.0625,-1.0625,174.8125,0.03936767999999996,0.6753539999999993,-0.7360839799999989,-0.023254389999999972
115.0,0.029189826302729545,-0.008270471464019855,-0.11941935483870968,-0.17999999999999983,-0.869999999999999,-9.759999999999994,0.00876240694789082,0.0075992555831265515,0.002760545905707196,265.0625,-1.0625,174.8125,0.03936767999999996,0.6753539999999993,-0.7360839799999989,-0.023254389999999972
116.0,0.029269851116625327,-0.008502481389578166,-0.11775434243176178,-0.17999999999999983,-0.869999999999999,-9.759999999999994,0.0054823200992555835,-0.0032258064516129032,-0.011600496277915633,265.0625,-1.0625,174.8125,0.03936767999999996,0.6753539999999993,-0.7360839799999989,-0.023254389999999972
117.0,0.029617555831265525,-0.009013027295285362,-0.11795161290322581,-0.17999999999999983,-0.869999999999999,-9.759999999999994,0.0022448821339950374,0.00020161290322580653,-0.016935483870967744,265.0625,-1.0625,174.8125,0.03936767999999996,0.6753539999999993,-0.7360839799999989,-0.023254389999999972
118.0,0.029357165012406965,-0.009445719602977671,-0.11949565756823821,-0.17999999999999983,-0.869999999999999,-9.759999999999994,-0.0023902760545905706,-0.017261166253101735,-0.00976271712158809,265.0625,-1.0625,174.8125,0.03936767999999996,0.6753539999999993,-0.7360839799999989,-0.023254389999999972
119.0,0.02786716811414394,-0.009988368486352362,-0.11800837468982632,-0.17999999999999983,-0.869999999999999,-9.759999999999994,-0.006592160359801489,-0.008692617866004962,-0.001748604218362283,265.0625,-1.0625,174.8125,0.03936767999999996,0.6753539999999993,-0.7360839799999989,-0.023254389999999972
120.0,0.028142059553349894,-0.009632444168734496,-0.12101954094292805,-0.17999999999999983,-0.869999999999999,-9.759999999999994,-0.030441609801488835,0.01289741004962779,0.012525201612903226,265.0625,-1.0625,174.8125,0.03936767999999996,0.6753539999999993,-0.7360839799999989,-0.023254389999999972
121.0,0.027951923076923096,-0.008465105459057074,-0.11855567617866006,-0.17999999999999983,-0.869999999999999,-9.759999999999994,-0.023804861972704715,-0.013999495967741936,-0.005430947580645161,265.0625,-1.0625,174.8125,0.03936767999999996,0.6753539999999993,-0.7360839799999989,-0.023254389999999972
122.0,0.028502016129032276,-0.008525356699751865,-0.11890811104218361,-0.17999999999999983,-0.869999999999999,-9.759999999999994,-0.002953919820099257,-0.010008432847394541,-0.011291776519851117,265.0625,-1.0625,174.8125,0.03936767999999996,0.6753539999999993,-0.7360839799999989,-0.023254389999999972
123.0,0.028692652329749123,-0.007872469376501637,-0.11640518039308362,-0.17999999999999983,-0.869999999999999,-9.759999999999994,0.021162739030682574,0.002203494869825514,0.01744283941864587,265.0625,-1.0625,174.8125,0.03936767999999996,0.6753539999999993,-0.7360839799999989,-0.023254389999999972
124.0,0.028321192089792523,-0.009095283755728609,-0.11667549502324477,-0.17999999999999983,-0.869999999999999,-9.759999999999994,0.025320123217414447,-0.019725415776485625,0.005491110736298042,265.0625,-1.0625,174.8125,0.03938698605619145,0.6753539999999993,-0.736083979999999,-0.023235083943808535
125.0,0.025522558744007773,-0.01047576162492266,-0.11669402702815163,-0.17999999999999983,-0.869999999999999,-9.759999999999994,0.004652577417560182,-0.011966385947956251,-0.003916675481126573,265.0625,-1.0625,174.8125,0.03940883238293444,0.6753539999999993,-0.736083979999999,-0.023213237617065577
126.0,0.025850501344505214,-0.010280723554396815,-0.1166331798942979,-0.17999999999999983,-0.8699999999999991,-9.759999999999994,-0.001636509992303992,-0.0016356565349247157,-0.01585847325087529,265.0625,-1.0625,174.8125,0.039419755546305925,0.6753539999999993,-0.736083979999999,-0.023202314453694098
127.0,0.028786252177357773,-0.00940119243252933,-0.11587526870889488,-0.17999999999999983,-0.8699999999999992,-9.759999999999994,-0.004799156432103669,-0.01711821878123204,-0.019812957082664184,265.0625,-1.0625,174.8125,0.03942521712799167,0.6753539999999993,-0.736083979999999,-0.02319685287200836
128.0,0.028034703149610794,-0.009916162012475624,-0.11820440342766814,-0.17999999999999983,-0.8699999999999992,-9.759999999999994,0.023778097155171925,-0.02865959582174761,0.006040142042385267,265.0625,-1.0625,174.8125,0.03942794791883454,0.6753539999999993,-0.736083979999999,-0.02319412208116549
129.0,0.029558838413992726,-0.008429874390861071,-0.11762862569158947,-0.17999999999999983,-0.8699999999999992,-9.759999999999994,0.01725082166231669,0.0011275467267134066,-0.002699402375712913,265.0625,-1.0625,174.8125,0.03942870999999999,0.6753539999999993,-0.736083979999999,-0.023193360000000034
130.0,0.029216992772783376,-0.007663317468711442,-0.11886374052529525,-0.17999999999999983,-0.8699999999999992,-9.759999999999994,0.010488277807156707,0.010660144544332804,-0.011731006522122332,265.0625,-1.0625,174.8125,0.03942870999999999,0.6753539999999993,-0.736083979999999,-0.023193360000000034
131.0,0.02863705270579942,-0.00857359421822669,-0.11991750396615547,-0.17999999999999983,-0.8699999999999992,-9.759999999999994,-0.005376344086021504,-0.00930173629472942,-0.012946192490745636,265.0625,-1.0625,174.8125,0.03942870999999999,0.6753539999999993,-0.736083979999999,-0.023193360000000034
132.0,0.028603913273400335,-0.008536400493566017,-0.11797091485986248,-0.17999999999999983,-0.8699999999999992,-9.759999999999994,-0.010099374228803103,0.00016250220341970743,-0.00017902785122510083,265.0625,-1.0625,174.8125,0.03942870999999999,0.6753539999999993,-0.736083979999999,-0.023193360000000034
133.0,0.029006522122333882,-0.009347435219460607,-0.11813396791820903,-0.17999999999999983,-0.8699999999999992,-9.759999999999994,-0.003245637228979376,-0.004585316411069979,-0.0006103472589458841,265.0625,-1.0625,174.8125,0.03942870999999999,0.6753539999999993,-0.736083979999999,-0.023193360000000034
134.0,0.0275949233209942,-0.010495505023796939,-0.1159317821258593,-0.17999999999999983,-0.8699999999999992,-9.759999999999994,0.001958840119866032,-0.025873655913978492,0.01976908161466596,265.0625,-1.0625,174.8125,0.03942870999999999,0.6753539999999993,-0.736083979999999,-0.023193360000000034
135.0,0.02636918857388703,-0.010120387383592222,-0.11525402665614998,-0.17999999999999983,-0.8699999999999992,-9.759999999999994,0.0348281482012626,-0.04824261406244865,0.01896300346273009,265.0625,-1.0625,174.8125,0.03942870999999999,0.6753539999999993,-0.7360839799999991,-0.023193360000000034
136.0,0.027455350500587096,-0.009222145040288971,-0.11642901403316927,-0.17999999999999983,-0.8699999999999992,-9.759999999999994,0.0447199528244106,-0.015206546322604545,0.009716716785128487,265.0625,-1.0625,174.8125,0.03942870999999999,0.6753539999999993,-0.736083979999999,-0.023193360000000034
137.0,0.02926530965889571,-0.00808687897175739,-0.11698870056497171,-0.17999999999999983,-0.8699999999999992,-9.759999999999994,0.010229600068119281,-0.021716176387108724,0.0019853745215965015,265.0625,-1.0625,174.8125,0.03942870999999999,0.6753539999999993,-0.736083979999999,-0.023193360000000034
138.0,0.0276125596417165,-0.00794084826430281,-0.11750545551781108,-0.17999999999999983,-0.8699999999999992,-9.759999999999994,0.0008016059568518143,-0.011750473175045637,-0.004295520036927819,265.0625,-1.0625,174.8125,0.03942870999999999,0.6753539999999993,-0.736083979999999,-0.023193360000000034
139.0,0.026580914053186834,-0.00835395136641899,-0.11919063539155139,-0.17999999999999983,-0.8699999999999992,-9.759999999999994,-0.005533832575954491,-0.008854535459371928,-0.008057607101136215,265.0625,-1.0625,174.8125,0.03942870999999999,0.6753539999999993,-0.736083979999999,-0.023193360000000034
140.0,0.026785315842445555,-0.009182443151771552,-0.11992980331280598,-0.17999999999999983,-0.8699999999999991,-9.759999999999994,-0.002785655595548808,-0.021543971727992814,-0.01262683878928484,265.0625,-1.0625,174.8125,0.03942870999999999,0.6753539999999993,-0.736083979999999,-0.023193360000000034
141.0,0.02750074205489502,-0.0076197437778270614,-0.1179207536548336,-0.17999999999999983,-0.869999999999999,-9.759999999999994,-0.007958840830646583,-0.008434939413065853,-0.008394584847295905,265.0625,-1.0625,174.8125,0.03942870999999999,0.6753539999999993,-0.736083979999999,-0.023193360000000034
142.0,0.02623684345200527,-0.00835877927705089,-0.11766875351836376,-0.17999999999999983,-0.869999999999999,-9.759999999999994,0.03855060473209259,0.011828099145357464,-0.000991538868323638,265.0625,-1.0625,174.8125,0.03942870999999999,0.6753539999999993,-0.736083979999999,-0.023193360000000034
143.0,0.026849934323877125,-0.008131556950580852,-0.1172844202589516,-0.17999999999999983,-0.869999999999999,-9.759999999999994,0.025130712543286533,-0.009661640026611623,0.0007100697702188635,265.0625,-1.0625,174.8125,0.03942870999999999,0.6753539999999993,-0.736083979999999,-0.023193360000000034
144.0,0.0274973985431842,-0.008584807492195631,-0.11804890738813736,-0.17999999999999983,-0.869999999999999,-9.759999999999994,0.028355879292403744,-0.008357180020811655,0.017169614984391256,265.0625,-1.0625,174.8125,0.03942870999999999,0.6753539999999993,-0.736083979999999,-0.023193360000000034
145.0,0.027882414151925092,-0.008626430801248704,-0.11835067637877214,-0.17999999999999983,-0.869999999999999,-9.759999999999994,0.009983090530697191,3.251821019771084e-05,0.0036420395421435997,265.0625,-1.0625,174.8125,0.03942870999999999,0.6753539999999993,-0.736083979999999,-0.023193360000000034
146.0,0.027276274713839768,-0.008730489073881378,-0.11674037460978147,-0.17999999999999983,-0.869999999999999,-9.759999999999994,0.0011381373569198747,0.01152770551508845,-0.003658298647242457,265.0625,-1.0625,174.8125,0.03942871,0.6753539999999993,-0.736083979999999,-0.023193360000000034
147.0,0.02814270435888544,-0.00823389987281767,-0.11611790380390795,-0.17999999999999983,-0.869999999999999,-9.759999999999994,0.005908507176717374,0.021661128247691723,0.009338016987925935,265.0625,-1.0625,174.8125,0.03942871,0.6753539999999993,-0.736083979999999,-0.023193360000000034
148.0,0.0273387819401087,-0.00866689790727252,-0.1174632182911319,-0.17999999999999983,-0.869999999999999,-9.759999999999994,-0.005793144954825496,0.005773982438101845,0.01068487738053945,265.0625,-1.0625,174.8125,0.039428710000000006,0.6753539999999993,-0.7360839799999989,-0.023193360000000034
149.0,0.025555447161521576,-0.009026477049369873,-0.11633046450456702,-0.17999999999999983,-0.869999999999999,-9.759999999999994,0.020305170498653848,-0.050930646658160314,0.026999566681945066,265.0625,-1.0625,174.8125,0.039428710000000006,0.6753539999999993,-0.7360839799999989,-0.023193360000000034
150.0,0.027806339605734785,-0.009372759856630827,-0.11528281810035843,-0.17999999999999983,-0.869999999999999,-9.759999999999994,0.0027221742191500253,-0.028099298355094726,0.0020696324564772155,265.0625,-1.0625,174.8125,0.039428710000000006,0.6753539999999993,-0.7360839799999989,-0.023193360000000034
151.0,0.027988351254480306,-0.00986783154121864,-0.11594534050179212,-0.17999999999999983,-0.869999999999999,-9.759999999999994,-0.005569356438812084,-0.021972406233998976,-0.00988063236047107,265.0625,-1.0625,174.8125,0.039428710000000006,0.6753539999999993,-0.7360839799999989,-0.023193360000000034
152.0,0.028773883374689845,-0.010366780397022338,-0.1173297146401985,-0.17999999999999983,-0.869999999999999,-9.759999999999994,-0.0029926915322580645,-0.019438682537220843,-0.014721619106699753,265.0625,-1.0625,174.8125,0.039428710000000006,0.6753539999999993,-0.7360839799999989,-0.023193360000000034
153.0,0.029764965880893317,-0.009392059553349881,-0.1191688895781638,-0.17999999999999983,-0.869999999999999,-9.759999999999994,0.0022996471774193545,-0.03273156405086849,-0.015110305521091813,265.0625,-1.0625,174.8125,0.039428710000000006,0.6753539999999993,-0.7360839799999989,-0.023193360000000034
154.0,0.03061600496277917,-0.008912065756823826,-0.1195012406947891,-0.17999999999999983,-0.869999999999999,-9.759999999999994,-0.01646392292183623,-0.008228811259305212,-0.015196087934243176,265.0625,-1.0625,174.8125,0.039428710000000006,0.6753539999999993,-0.7360839799999989,-0.023193360000000034
155.0,0.030943238213399518,-0.009143455334987598,-0.11992075062034743,-0.17999999999999983,-0.869999999999999,-9.759999999999994,-0.009484530086848637,-0.007509595998759306,-0.008228326612903226,265.0625,-1.0625,174.8125,0.039428710000000006,0.6753539999999993,-0.7360839799999989,-0.023193360000000034
156.0,0.03089888337468984,-0.009646091811414396,-0.12017462779156328,-0.17999999999999983,-0.869999999999999,-9.759999999999994,-0.027350535049627794,0.006407025434243176,-0.007241586538461539,265.0625,-1.0625,174.8125,0.039428710000000006,0.6753539999999993,-0.7360839799999989,-0.023193360000000034
157.0,0.031012717121588106,-0.009810638957816382,-0.11931560173697271,-0.17999999999999983,-0.869999999999999,-9.759999999999994,-0.013675267524813897,0.016354877481389578,-0.012755408653846154,265.0625,-1.0625,174.8125,0.039428710000000006,0.6753539999999993,-0.7360839799999989,-0.023193360000000034
158.0,0.030657568238213417,-0.010172456575682387,-0.11851364764267988,-0.17999999999999983,-0.869999999999999,-9.759999999999994,-0.012492245657568238,-0.001682692307692307,-0.008661600496277917,265.0625,-1.0625,174.8125,0.039428710000000006,0.6753539999999993,-0.7360839799999989,-0.023193360000000034
159.0,0.030147642679900763,-0.01003039702233251,-0.118697270471464,-0.17999999999999983,-0.869999999999999,-9.759999999999994,-0.0037026985111662533,-0.005579249379652605,-0.008145936724565758,265.0625,-1.0625,174.8125,0.039428710000000006,0.6753539999999993,-0.7360839799999989,-0.023193360000000034
160.0,0.031165632754342445,-0.009231079404466505,-0.1218076923076923,-0.17999999999999983,-0.869999999999999,-9.759999999999994,0.0021654001240694787,0.013199829404466502,-0.011982397642679901,265.0625,-1.0625,174.8125,0.039428710000000006,0.6753539999999993,-0.7360839799999989,-0.023193360000000034
161.0,0.032454690023238426,-0.009940759285517355,-0.12048925715861197,-0.17999999999999983,-0.869999999999999,-9.759999999999994,-0.007420490295994328,-0.00702311101756666,-0.009978900188073575,265.0625,-1.0625,174.8125,0.039428710000000006,0.6753539999999993,-0.7360839799999989,-0.023193360000000034
162.0,0.030645459155539817,-0.010373605449210293,-0.12018879731379731,-0.17999999999999983,-0.869999999999999,-9.759999999999994,-0.007742503212513293,-0.012483329702331717,-0.005702849597758872,265.0625,-1.0625,174.8125,0.039428710000000006,0.6753539999999993,-0.7360839799999989,-0.023193360000000034
163.0,0.031136941687344932,-0.009523840295009654,-0.12045738188782543,-0.17999999999999983,-0.869999999999999,-9.759999999999994,-0.013938645919492693,-0.013079352463173027,-0.0048208008389459996,265.0625,-1.0625,174.8125,0.039428710000000006,0.6753539999999993,-0.7360839799999989,-0.023193360000000034
164.0,0.030654156327543442,-0.009845085470085474,-0.11984310626649336,-0.17999999999999983,-0.869999999999999,-9.759999999999994,-0.0014879721532947334,-0.022022917159005867,0.004772059257946355,265.0625,-1.0625,174.8125,0.039428710000000006,0.6753539999999993,-0.7360839799999989,-0.023193360000000034
165.0,0.031275441628264226,-0.01027505760368664,-0.11910730286738355,-0.17999999999999983,-0.869999999999999,-9.759999999999994,0.0016921082949308756,-0.0028031794034818237,-0.0040222574244751655,265.0625,-1.0625,174.8125,0.039428710000000006,0.6753539999999993,-0.7360839799999989,-0.023193360000000034
166.0,0.030496911802355368,-0.010700764848950337,-0.11800987263184844,-0.17999999999999983,-0.869999999999999,-9.759999999999994,-0.0029621895801331287,0.005670862935227853,-0.014683939772145415,265.0625,-1.0625,174.8125,0.039428710000000006,0.6753539999999993,-0.7360839799999989,-0.023193360000000034
167.0,0.029282994111623162,-0.008945052483358938,-0.11859783026113671,-0.17999999999999983,-0.869999999999999,-9.759999999999994,0.007861503136200716,0.006687427995391704,-0.0006540418586789554,265.0625,-1.0625,174.8125,0.039428710000000006,0.6753539999999993,-0.7360839799999989,-0.023193360000000034
168.0,0.02994359639016899,-0.008100278417818744,-0.11805979582693292,-0.17999999999999983,-0.869999999999999,-9.759999999999994,0.020123787922427035,0.0025436627944188423,0.019706261200716845,265.0625,-1.0625,174.8125,0.039428710000000006,0.6753539999999993,-0.7360839799999989,-0.023193360000000034
169.0,0.028576548899129563,-0.006999487967229905,-0.1175678443420379,-0.17999999999999983,-0.869999999999999,-9.759999999999994,0.037538402457757296,-0.028449820788530464,0.02243343573988735,265.0625,-1.0625,174.8125,0.039428710000000006,0.6753539999999993,-0.7360839799999989,-0.023193360000000034
170.0,0.02750937350313002,-0.006991064202302498,-0.1185572237913549,-0.17999999999999983,-0.869999999999999,-9.759999999999994,-0.0026427497811472855,-0.012936053713889301,0.004140652098508499,265.0625,-1.0625,174.8125,0.03942871,0.6753539999999993,-0.736083979999999,-0.023193360000000034
171.0,0.027645584384398136,-0.008239397554694123,-0.1177391656788119,-0.17999999999999983,-0.869999999999999,-9.759999999999994,-0.01707425999829746,0.020619245190004812,-0.02333609996201047,265.0625,-1.0625,174.8125,0.03942871,0.6753539999999993,-0.7360839799999989,-0.023193360000000034
172.0,0.030573944265931796,-0.007688567184925148,-0.11626077587576028,-0.17999999999999983,-0.869999999999999,-9.759999999999994,-0.006264984581842021,0.0025171238750843327,-0.02109265315560841,265.0625,-1.0625,174.8125,0.039428710000000006,0.6753539999999993,-0.7360839799999989,-0.023193360000000034
173.0,0.030438021800144606,-0.008484580571469233,-0.11897524200854065,-0.17999999999999983,-0.869999999999999,-9.759999999999994,-0.006148685327275337,0.015907499469544215,-0.016210689097005432,265.0625,-1.0625,174.8125,0.039428710000000006,0.6753539999999993,-0.7360839799999989,-0.023193360000000034
174.0,0.03050830941517728,-0.008077415733763292,-0.1195337039535791,-0.17999999999999983,-0.869999999999999,-9.759999999999994,-0.010082791204344273,-0.029504647602657485,0.011975940653750227,265.0625,-1.0625,174.8125,0.039428710000000006,0.6753539999999993,-0.7360839799999989,-0.023193360000000034
175.0,0.030147494978140156,-0.009408114734727642,-0.11872626925046278,-0.17999999999999983,-0.869999999999999,-9.759999999999994,-0.0063909013253771315,-0.017825294665012405,0.004199468766001024,265.0625,-1.0625,174.8125,0.039428710000000006,0.6753539999999993,-0.7360839799999989,-0.023193360000000034
176.0,0.028361588680137086,-0.007329367541061092,-0.11877752668478475,-0.17999999999999983,-0.869999999999999,-9.759999999999994,-0.007165673987750601,0.014551992866004962,-0.003545426907322069,265.0625,-1.0625,174.8125,0.039428710000000006,0.6753539999999993,-0.7360839799999989,-0.023193360000000034
177.0,0.027594772834692208,-0.0079849602682264,-0.12019649503722082,-0.17999999999999983,-0.869999999999999,-9.759999999999994,-0.01827977759807397,0.008524076310114617,0.0005314340117767535,265.0625,-1.0625,174.8125,0.039428710000000006,0.6753539999999993,-0.7360839799999989,-0.023193360000000034
178.0,0.02910996396077043,-0.007814013943046205,-0.11919959677419356,-0.17999999999999983,-0.869999999999999,-9.759999999999994,-0.0016169650242230877,-0.023490026438615145,-0.009502331226121548,265.0625,-1.0625,174.8125,0.039428710000000006,0.6753539999999993,-0.7360839799999989,-0.023193360000000034
179.0,0.029467897022332525,-0.007436724565756826,-0.11920277605459056,-0.17999999999999983,-0.869999999999999,-9.759999999999994,-0.008556916873449132,-0.01749282723325062,-0.006880040322580645,265.0625,-1.0625,174.8125,0.039428710000000006,0.6753539999999993,-0.7360839799999989,-0.023193360000000034
180.0,0.028944944168734506,-0.007437810173697273,-0.11979295905707196,-0.17999999999999983,-0.869999999999999,-9.759999999999994,0.019605885545905706,-0.020066299627791565,0.0035708746898263028,265.0625,-1.0625,174.8125,0.039428710000000006,0.6753539999999993,-0.7360839799999989,-0.023193360000000034
181.0,0.029606467121588105,-0.006331808312655089,-0.12015454404466502,-0.17999999999999983,-0.869999999999999,-9.759999999999994,0.004979741780397022,-0.010296797456575683,-0.006449674317617867,265.0625,-1.0625,174.8125,0.039428710000000006,0.6753539999999993,-0.7360839799999989,-0.023193360000000034
182.0,0.02977047146401987,-0.006414392059553352,-0.11916749379652605,-0.17999999999999983,-0.869999999999999,-9.759999999999994,0.004962779156327543,-0.006691997518610422,-0.007824131513647643,265.0625,-1.0625,174.8125,0.039428710000000006,0.6753539999999993,-0.7360839799999989,-0.023193360000000034
183.0,0.030272332506203495,-0.007529776674937968,-0.11619665012406946,-0.17999999999999983,-0.869999999999999,-9.759999999999994,0.007211538461538462,-0.028795750620347393,0.018730614143920594,265.0625,-1.0625,174.8125,0.039428710000000006,0.6753539999999993,-0.7360839799999989,-0.023193360000000034
184.0,0.030864454094292823,-0.006876550868486354,-0.11762686104218363,-0.17999999999999983,-0.869999999999999,-9.759999999999994,-0.0021944789081885857,-0.02022914081885856,0.006387639578163772,265.0625,-1.0625,174.8125,0.039428710000000006,0.6753539999999993,-0.7360839799999989,-0.023193360000000034
185.0,0.0301394230769231,-0.006572270471464022,-0.11777620967741934,-0.17999999999999983,-0.869999999999999,-9.759999999999994,-0.029633219602977667,0.02944808467741935,-0.007445138027295286,265.0625,-1.0625,174.8125,0.039428710000000006,0.6753539999999993,-0.7360839799999989,-0.023193360000000034
186.0,0.03113225831068575,-0.007052254421206036,-0.11683252958958604,-0.17999999999999983,-0.869999999999999,-9.759999999999994,-0.006981031401394305,-0.013453268701504591,0.021118651593701993,265.0625,-1.0625,174.8125,0.039428710000000006,0.6753539999999993,-0.7360839799999989,-0.023193360000000034
187.0,0.033026406613100176,-0.00792616881326559,-0.11606815451573516,-0.17999999999999983,-0.869999999999999,-9.759999999999994,0.025120315392492806,0.011753798396943557,0.006604822708653351,265.0625,-1.0625,174.8125,0.039428710000000006,0.6753539999999993,-0.7360839799999989,-0.023193360000000034
188.0,0.03183378283108384,-0.008569183822305575,-0.11464441904927075,-0.17999999999999983,-0.869999999999999,-9.759999999999994,0.006681865852814081,-0.007349007309172502,-0.0025983930961656,265.0625,-1.0625,174.8125,0.03942871,0.6753539999999993,-0.736083979999999,-0.023193360000000034
189.0,0.031148043914219877,-0.0076528494468481876,-0.11615277205768668,-0.17999999999999983,-0.8699999999999991,-9.759999999999994,-0.004402365923407871,0.019782620552182655,-0.008079359986739594,265.0625,-1.0625,174.8125,0.03942870999999999,0.6753539999999993,-0.736083979999999,-0.023193360000000034
190.0,0.03066855883218622,-0.0066014725206823615,-0.11590874985750543,-0.17999999999999983,-0.8699999999999992,-9.759999999999994,-0.010322649015480936,0.019771359497097712,-0.007415742719644052,265.0625,-1.0625,174.8125,0.03942870999999999,0.6753539999999993,-0.736083979999999,-0.023193360000000034
191.0,0.031231721770436587,-0.007410974397549177,-0.1160723187394517,-0.17999999999999983,-0.8699999999999992,-9.759999999999994,-0.0027572362198605353,-0.016732941876022,-0.0023606375958775266,265.0625,-1.0625,174.8125,0.03942870999999999,0.6753539999999993,-0.736083979999999,-0.023193360000000034
192.0,0.03053905596970371,-0.008133689292233163,-0.11548745330171782,-0.17999999999999983,-0.8699999999999992,-9.759999999999994,0.015176408624895518,-0.01000014926391566,0.003178255232766415,265.0625,-1.0625,174.8125,0.03942870999999999,0.6753539999999993,-0.736083979999999,-0.023193360000000034
193.0,0.03094729420059935,-0.008477701392561258,-0.11656266525647806,-0.17999999999999983,-0.8699999999999992,-9.759999999999994,0.002390710382513663,-0.004561078794288735,0.007128062753393265,265.0625,-1.0625,174.8125,0.03942870999999999,0.6753539999999993,-0.736083979999999,-0.023193360000000034
194.0,0.0314810505905165,-0.007684117750749166,-0.11637228979375991,-0.17999999999999983,-0.8699999999999992,-9.759999999999994,0.0030297020976555625,-0.010411158117398202,0.03286400493566015,265.0625,-1.0625,174.8125,0.03942870999999999,0.6753539999999993,-0.736083979999999,-0.023193360000000034
195.0,0.03209166225982727,-0.009336506257711973,-0.11656266525647807,-0.17999999999999983,-0.8699999999999992,-9.759999999999994,0.007083994359245549,-0.017186673717609728,0.01972060638110347,265.0625,-1.0625,174.8125,0.03942870999999999,0.6753539999999993,-0.736083979999999,-0.023193360000000034
196.0,0.03033985545566721,-0.009951172219284335,-0.11800370174510842,-0.17999999999999983,-0.8699999999999992,-9.759999999999994,-0.016106998060990658,-0.019368059227921734,0.001861889652741056,265.0625,-1.0625,174.8125,0.03942870999999999,0.6753539999999993,-0.736083979999999,-0.023193360000000034
197.0,0.03067759562841532,-0.0084710911334391,-0.11806848228450555,-0.17999999999999983,-0.8699999999999992,-9.759999999999994,-0.009127666137845936,0.006213643574828131,-0.007662392032434338,265.0625,-1.0625,174.8125,0.03942870999999999,0.6753539999999993,-0.736083979999999,-0.023193360000000034
198.0,0.03141723955579061,-0.008831306187202542,-0.11662083553675304,-0.17999999999999983,-0.8699999999999992,-9.759999999999994,-0.005982284505552617,-0.011700158646218933,0.0065772078265468,265.0625,-1.0625,174.8125,0.03942870999999999,0.6753539999999993,-0.736083979999999,-0.023193360000000034
199.0,0.03250831613244402,-0.008966411354292833,-0.11595708022722233,-0.17999999999999983,-0.8699999999999991,-9.759999999999994,-0.004081301922519234,-0.013423090701284522,-0.008546425342454068,265.0625,-1.0625,174.8125,0.03942870999999999,0.6753539999999993,-0.736083979999999,-0.023193360000000034
200.0,0.03137570289427134,-0.009224209429255406,-0.11590136586298372,-0.17999999999999983,-0.869999999999999,-9.759999999999994,-0.010398431760870136,-0.00020358785775616024,-0.010516759799226831,265.0625,-1.0625,174.8125,0.03942871,0.6753539999999993,-0.736083979999999,-0.023193360000000034
201.0,0.032563842986003996,-0.008555785306906923,-0.11497738837834537,-0.17999999999999983,-0.869999999999999,-9.759999999999994,0.02363803953997741,-0.004778552257804574,-0.002490333892209926,265.0625,-1.0625,174.8125,0.03942871,0.6753539999999993,-0.736083979999999,-0.023193360000000034
202.0,0.03158863751627012,-0.0073900026481652555,-0.11606881052973325,-0.17999999999999983,-0.869999999999999,-9.759999999999994,0.001250867998439261,0.030381083469193958,2.7307934910372712e-05,265.0625,-1.0625,174.8125,0.039428710000000006,0.6753539999999993,-0.7360839799999989,-0.023193360000000034
203.0,0.031082526055861138,-0.007821125068133396,-0.11520785846423205,-0.17999999999999983,-0.869999999999999,-9.759999999999994,0.028900817394248716,0.03329438890540607,-0.011405568666072048,265.0625,-1.0625,174.8125,0.039428710000000006,0.6753539999999993,-0.7360839799999989,-0.023193360000000034
204.0,0.031595693508999975,-0.007973317676946713,-0.11497961961873251,-0.17999999999999983,-0.869999999999999,-9.759999999999994,0.023415929388711648,0.020365026438615146,-0.018264568932411674,265.0625,-1.0625,174.8125,0.039428710000000006,0.6753539999999993,-0.7360839799999989,-0.023193360000000034
205.0,0.03158677109181143,-0.008279699131513652,-0.11700054280397022,-0.17999999999999983,-0.869999999999999,-9.759999999999994,0.008986313585607942,0.012968168424317618,-0.008443994261786603,265.0625,-1.0625,174.8125,0.039428710000000006,0.6753539999999993,-0.7360839799999989,-0.023193360000000034
206.0,0.031299937965260566,-0.007640353598014892,-0.11754513027295288,-0.17999999999999983,-0.869999999999999,-9.759999999999994,0.006131261631513648,0.012689981389578164,0.0022516671836228276,265.0625,-1.0625,174.8125,0.039428710000000006,0.6753539999999993,-0.7360839799999989,-0.023193360000000034
207.0,0.03040167493796528,-0.0079278070719603,-0.11802388337468986,-0.17999999999999983,-0.869999999999999,-9.759999999999994,0.003892679900744417,0.005801702078163772,0.0010943315756823816,265.0625,-1.0625,174.8125,0.039428710000000006,0.6753539999999993,-0.7360839799999989,-0.023193360000000034
208.0,0.02893953492743817,-0.007975007519362361,-0.11785144559741331,-0.17999999999999983,-0.869999999999999,-9.759999999999994,0.0030193177118580344,0.016034805248514927,0.01213513469057824,265.0625,-1.0625,174.8125,0.039428710000000006,0.6753539999999993,-0.7360839799999987,-0.023193360000000034
209.0,0.02975760865478609,-0.007323732047522373,-0.11659073520565455,-0.17999999999999983,-0.869999999999999,-9.759999999999994,-0.0038098200522595684,0.00236448699150312,-0.0010896907192270095,265.0625,-1.0625,174.8125,0.039428710000000006,0.6753539999999993,-0.7360839799999989,-0.023193360000000034
210.0,0.031442079761636224,-0.007096109199939847,-0.11585119886833598,-0.17999999999999983,-0.869999999999999,-9.759999999999994,-0.01868530704846229,0.012999861361756522,-0.009989634441499362,265.0625,-1.0625,174.8125,0.039428710000000006,0.6753539999999993,-0.7360839799999989,-0.023193360000000034
211.0,0.03215501165501167,-0.007789486051582829,-0.1161841679825551,-0.17999999999999983,-0.869999999999999,-9.759999999999994,-0.011941569854876306,0.0012705960034589065,-0.0016713545191367773,265.0625,-1.0625,174.8125,0.039428710000000006,0.6753539999999993,-0.7360839799999989,-0.023193360000000034
212.0,0.03140753064140162,-0.007230971313632607,-0.11722980111286563,-0.17999999999999983,-0.869999999999999,-9.759999999999994,-0.005986293612301677,-0.024581823586359876,-0.004363903066020002,265.0625,-1.0625,174.8125,0.039428710000000006,0.6753539999999993,-0.7360839799999989,-0.023193360000000034
213.0,0.03221752038284298,-0.007500301557761238,-0.11603239345779669,-0.17999999999999983,-0.869999999999999,-9.759999999999994,-0.005102372705699319,-0.015790772147879002,-0.0015091812029816064,265.0625,-1.0625,174.8125,0.039428710000000006,0.6753539999999993,-0.7360839799999989,-0.023193360000000034
214.0,0.03134061503013118,-0.007432106424041911,-0.1141401886643822,-0.17999999999999983,-0.869999999999999,-9.759999999999994,-0.001889644014139982,-0.008226157243294339,-0.0070707448353617705,265.0625,-1.0625,174.8125,0.039428710000000006,0.6753539999999993,-0.7360839799999989,-0.023193360000000034
215.0,0.029871460160547068,-0.008349447913053537,-0.1138171526848686,-0.17999999999999983,-0.869999999999999,-9.759999999999994,-0.00822189716916076,0.005400248841732323,-0.002200124678947194,265.0625,-1.0625,174.8125,0.03942871,0.6753539999999993,-0.736083979999999,-0.023193360000000034
216.0,0.029562666204185475,-0.008380673137274338,-0.1154893655129412,-0.17999999999999983,-0.869999999999999,-9.759999999999994,-0.005568291854549659,-0.0022626931994615394,-0.0012103193959252102,265.0625,-1.0625,174.8125,0.03942871,0.6753539999999993,-0.7360839799999989,-0.023193360000000034
217.0,0.02885553965776392,-0.007744820829823435,-0.11585773231422294,-0.17999999999999983,-0.869999999999999,-9.759999999999994,0.0076216813359926,-0.005026418464975306,-0.007778981725798192,265.0625,-1.0625,174.8125,0.03942871,0.6753539999999993,-0.736083979999999,-0.023193360000000034
218.0,0.028715713934724094,-0.008159033145863274,-0.11526365300282444,-0.17999999999999983,-0.869999999999999,-9.759999999999994,0.011679215211709032,-0.006579533993401384,-0.0007997447320499482,265.0625,-1.0625,174.8125,0.03942870999999999,0.6753539999999993,-0.736083979999999,-0.023193360000000034
219.0,0.02874308585730513,-0.007300727436309246,-0.11512406835783219,-0.17999999999999985,-0.8699999999999993,-9.759999999999994,-0.005561342643196717,-0.003906527057579882,0.006762512497194508,265.0625,-1.0625,174.8125,0.03942870999999998,0.6753539999999995,-0.7360839799999992,-0.02319336000000003
220.0,0.028778257747774812,-0.00675951268471315,-0.11526255038956268,-0.17999999999999988,-0.8699999999999996,-9.759999999999994,-0.006707404605963094,0.005999989312408973,0.012935233927077594,265.0625,-1.0625,174.8125,0.03942870999999998,0.6753539999999996,-0.7360839799999994,-0.023193360000000027
221.0,0.028773183571035088,-0.0064192732243782006,-0.11550152006692374,-0.17999999999999994,-0.8699999999999997,-9.759999999999994,-0.0002617397114933408,0.020316867641957923,0.018682986982514128,265.0625,-1.0625,174.8125,0.039428709999999985,0.6753539999999998,-0.7360839799999995,-0.02319336000000002
222.0,0.02877953418620311,-0.006188151639427883,-0.11586245944787907,-0.17999999999999997,-0.8699999999999998,-9.759999999999994,0.00980248694170696,0.03635631541898757,0.02441336511191365,265.0625,-1.0625,174.8125,0.03942870999999999,0.675354,-0.7360839799999996,-0.023193360000000017
223.0,0.028765417457305514,-0.005966951296647691,-0.11629664769133463,-0.18,-0.8699999999999999,-9.759999999999994,0.02213047517394054,0.05325446710942441,0.029582246204933584,265.0625,-1.0625,174.8125,0.039428710000000006,0.6753540000000001,-0.7360839799999999,-0.02319336000000001
224.0,0.027845104439625325,-0.006811522996295293,-0.1177389988253366,-0.17999999999999994,-0.8699999999999994,-9.759999999999994,0.02319777877548869,0.03535155661727056,0.01508573019261468,265.0625,-1.0625,174.8125,0.039428710000000006,0.6753539999999998,-0.7360839799999994,-0.023193360000000024
225.0,0.026119243396283257,-0.007336224812505648,-0.11660590042468602,-0.17999999999999988,-0.8699999999999992,-9.759999999999994,-0.006919972289991267,0.008849036926598594,-0.00434945483569772,265.0625,-1.0625,174.8125,0.039428710000000006,0.6753539999999996,-0.7360839799999991,-0.02319336000000003
226.0,0.02708023059206341,-0.007897711373831533,-0.11628977969960097,-0.17999999999999988,-0.8699999999999991,-9.759999999999994,-0.00043336170099326707,0.0038883665025149835,-0.0035970404572685816,265.0625,-1.0625,174.8125,0.03942871,0.6753539999999993,-0.736083979999999,-0.02319336000000003
227.0,0.028107235331652075,-0.007383609257274302,-0.11603259416752079,-0.17999999999999988,-0.8699999999999992,-9.759999999999994,-0.0033669149732204256,0.009053105714555205,0.0005672519238175216,265.0625,-1.0625,174.8125,0.03942870999999999,0.6753539999999995,-0.7360839799999992,-0.02319336000000003
228.0,0.030481403589579705,-0.0073513842962813335,-0.11713164410233323,-0.17999999999999994,-0.8699999999999996,-9.759999999999994,-0.011027146391791053,0.053287855398822075,-0.00906006294327208,265.0625,-1.0625,174.8125,0.03942871,0.6753539999999999,-0.7360839799999995,-0.023193360000000017
229.0,0.026676441682142643,-0.006133449444607641,-0.11032311851814051,-0.18,-0.8699999999999997,-9.759999999999998,0.013473241960274466,0.04895255545158718,-0.023900871205378996,265.0625,-1.0625,174.8125,0.03942871,0.675354,-0.7360839799999997,-0.023193360000000003
230.0,0.029364842908520004,-0.005286757713506167,-0.11054256182505268,-0.18000000000000002,-0.8699999999999998,-9.759999999999998,0.027847267516060988,0.05113700673972321,-0.002790508458261346,265.0625,-1.0625,174.8125,0.039428710000000006,0.6753540000000002,-0.7360839799999999,-0.023193360000000003
231.0,0.02455234861346916,-0.007153264392653187,-0.11378793023614756,-0.18000000000000005,-0.8699999999999999,-9.759999999999998,0.010600272675824458,0.07072979369244226,0.01154048978751865,265.0625,-1.0625,174.8125,0.03940666045161291,0.6753540000000002,-0.7360839799999999,-0.0232154095483871
232.0,0.027806451612903228,-0.006563049853372434,-0.11489736070381232,-0.18000000000000005,-0.8699999999999999,-9.759999999999998,0.021517595307917886,0.08027859237536655,0.0282624633431085,265.0625,-1.0625,174.8125,0.039386185870967746,0.6753540000000002,-0.73608398,-0.023235884129032262
233.0,0.026794721407624636,-0.007293255131964809,-0.11283284457478007,-0.18000000000000005,-0.8699999999999999,-9.759999999999998,-0.014772727272727272,0.06116202346041055,0.004728739002932551,265.0625,-1.0625,174.8125,0.039375948580645165,0.6753540000000002,-0.73608398,-0.023246121419354844
234.0,0.028510263929618772,-0.009196480938416421,-0.1133900293255132,-0.18000000000000005,-0.8699999999999999,-9.759999999999998,0.0125366568914956,0.026942815249266863,-0.002895894428152492,265.0625,-1.0625,174.8125,0.03937082993548388,0.6753540000000002,-0.73608398,-0.023251240064516135
235.0,0.026645161290322582,-0.008653958944281524,-0.1127126099706745,-0.18000000000000005,-0.8699999999999999,-9.759999999999998,0.0282074780058651,-0.016385630498533726,-0.021077712609970673,265.0625,-1.0625,174.8125,0.03936827061290323,0.6753540000000002,-0.73608398,-0.02325379938709678
236.0,0.026607038123167157,-0.009343108504398828,-0.11452785923753667,-0.18000000000000005,-0.8699999999999999,-9.759999999999998,0.014204545454545454,-0.04772727272727273,-0.010942082111436949,265.0625,-1.0625,174.8125,0.03936768,0.6753540000000002,-0.73608398,-0.023254390000000007
237.0,0.028287390029325524,-0.008703812316715544,-0.11268328445747802,-0.18000000000000005,-0.8699999999999999,-9.759999999999998,0.009824046920821113,-0.012371700879765397,0.006726539589442816,265.0625,-1.0625,174.8125,0.03936768,0.6753540000000002,-0.73608398,-0.023254390000000007
238.0,0.026111436950146633,-0.01041642228739003,-0.1133900293255132,-0.18000000000000005,-0.8699999999999999,-9.759999999999998,0.012170087976539588,-0.006891495601173021,0.0036656891495601175,265.0625,-1.0625,174.8125,0.03936768,0.6753540000000002,-0.73608398,-0.023254390000000007
239.0,0.0299325513196481,-0.00972434017595308,-0.11398240469208212,-0.18000000000000005,-0.8699999999999999,-9.759999999999998,-0.00042155425219941346,-0.015084310850439884,-0.006781524926686216,265.0625,-1.0625,174.8125,0.03936768,0.6753540000000002,-0.73608398,-0.023254390000000007
240.0,0.032111436950146635,-0.008346041055718477,-0.11866862170087977,-0.18000000000000005,-0.8699999999999999,-9.759999999999998,-0.020271260997067445,-0.0001832844574780057,0.0068914956011730194,265.0625,-1.0625,174.8125,0.03936768,0.6753540000000002,-0.73608398,-0.023254390000000007
241.0,0.03017595307917889,-0.006826979472140763,-0.12080058651026393,-0.18000000000000005,-0.8699999999999999,-9.759999999999998,-0.013068181818181816,0.001099706744868035,-0.014149560117302052,265.0625,-1.0625,174.8125,0.03936768,0.6753540000000002,-0.73608398,-0.023254390000000007
242.0,0.029571847507331377,-0.0063812316715542525,-0.11641642228739005,-0.18000000000000005,-0.8699999999999999,-9.759999999999998,0.006268328445747802,0.0033724340175953077,-0.0010263929618768318,265.0625,-1.0625,174.8125,0.03936768,0.6753540000000002,-0.73608398,-0.023254390000000007
243.0,0.027302052785923757,-0.007126099706744867,-0.11830498533724343,-0.18000000000000005,-0.8699999999999999,-9.759999999999998,0.01906158357771261,-0.017668621700879763,-0.006964809384164222,265.0625,-1.0625,174.8125,0.03936768,0.6753540000000002,-0.73608398,-0.023254390000000007
244.0,0.026011730205278596,-0.008061583577712611,-0.11769208211143697,-0.18000000000000005,-0.8699999999999999,-9.759999999999998,0.016165689149560118,-0.0020161290322580636,0.012921554252199412,265.0625,-1.0625,174.8125,0.03936768,0.6753540000000002,-0.73608398,-0.023254390000000007
245.0,0.025126099706744877,-0.008609970674486805,-0.11692082111436952,-0.18000000000000005,-0.8699999999999999,-9.759999999999998,-0.00010997067448680238,0.007587976539589442,-0.005571847507331378,265.0625,-1.0625,174.8125,0.03936768,0.6753540000000002,-0.73608398,-0.023254390000000007
246.0,0.026560117302052794,-0.008346041055718477,-0.11531964809384165,-0.18000000000000005,-0.8699999999999999,-9.759999999999998,0.003262463343108505,0.003793988269794721,0.01066715542521994,265.0625,-1.0625,174.8125,0.03936768,0.6753540000000002,-0.73608398,-0.023254390000000007
247.0,0.026419354838709684,-0.008768328445747802,-0.1201348973607038,-0.18000000000000005,-0.8699999999999999,-9.759999999999998,0.021755865102639296,-0.0011363636363636363,0.005131964809384164,265.0625,-1.0625,174.8125,0.03936768,0.6753540000000002,-0.73608398,-0.023254390000000007
248.0,0.029322580645161297,-0.008384164222873903,-0.12006744868035193,-0.18000000000000005,-0.8699999999999999,-9.759999999999998,-0.0057551319648093836,0.016165689149560118,-0.010135630498533724,265.0625,-1.0625,174.8125,0.03936768,0.6753540000000002,-0.73608398,-0.023254390000000007
249.0,0.027865102639296195,-0.008269794721407625,-0.12242815249266864,-0.18000000000000005,-0.8699999999999999,-9.759999999999998,-0.0001466275659824049,0.01374633431085044,-0.014369501466275659,265.0625,-1.0625,174.8125,0.03936768,0.6753540000000002,-0.73608398,-0.023254390000000007
250.0,0.029938090583251885,-0.009493646138807432,-0.12046985988921477,-0.18,-0.8699999999999999,-9.759999999999994,0.0009184587813620072,0.011616161616161615,-0.015420332355816226,265.0625,-1.0625,174.8125,0.03936768,0.6753539999999999,-0.7360839799999999,-0.023254389999999993
251.0,0.028572022959119748,-0.008905632002406197,-0.12064932200416076,-0.1799999999999999,-0.8699999999999994,-9.759999999999994,-0.0006341328921974083,-0.005606311251472543,-0.015061282803218288,265.0625,-1.0625,174.8125,0.03936767999999999,0.6753539999999996,-0.7360839799999994,-0.023254389999999986
252.0,0.028947640173446643,-0.007958793894277769,-0.12072777401809662,-0.17999999999999988,-0.8699999999999992,-9.759999999999994,-0.008899008697395794,-0.0027115133969972684,-0.007034363485976389,265.0625,-1.0625,174.8125,0.039367679999999974,0.6753539999999995,-0.7360839799999991,-0.02325438999999998
253.0,0.02889415244253956,-0.008620648169035268,-0.12247532395919493,-0.17999999999999988,-0.8699999999999991,-9.759999999999994,0.0019196305486628065,0.006449106449106449,-0.006535265809459357,265.0625,-1.0625,174.8125,0.03936767999999997,0.6753539999999993,-0.736083979999999,-0.02325438999999998
254.0,0.027441211118630487,-0.008148582600195506,-0.12037030353159389,-0.17999999999999985,-0.869999999999999,-9.759999999999994,-0.007568551520164424,-0.009365679123743642,-0.011925708699902247,265.0625,-1.0625,174.8125,0.03936767999999996,0.6753539999999993,-0.7360839799999989,-0.023254389999999972
255.0,0.02710384239416499,-0.008428302879915785,-0.12052785923753669,-0.17999999999999983,-0.869999999999999,-9.759999999999994,0.03192533273178434,-0.009306150838408904,-0.009664260470712083,265.0625,-1.0625,174.8125,0.03936767999999996,0.6753539999999993,-0.7360839799999989,-0.023254389999999972
256.0,0.027579968418678113,-0.008537634408602154,-0.12158342732536287,-0.17999999999999983,-0.869999999999999,-9.759999999999994,0.026746371907662228,0.004990036844875555,0.008581472291149712,265.0625,-1.0625,174.8125,0.03936767999999996,0.6753539999999993,-0.7360839799999987,-0.023254389999999972
257.0,0.02697608842770135,-0.0083631100082713,-0.12022099405970377,-0.17999999999999983,-0.869999999999999,-9.759999999999994,0.01908038198360779,1.3628844274005646e-05,-0.002176385442514475,265.0625,-1.0625,174.8125,0.03936767999999996,0.6753539999999993,-0.7360839799999989,-0.023254389999999972
258.0,0.02678472065568841,-0.007004135649296942,-0.12176494473268668,-0.17999999999999983,-0.869999999999999,-9.759999999999994,0.026463455898939767,0.0012134371005338748,0.0019512745319196934,265.0625,-1.0625,174.8125,0.03936767999999996,0.6753539999999993,-0.7360839799999987,-0.023254389999999972
259.0,0.028853898789382673,-0.006474772539288671,-0.1196368147981051,-0.17999999999999983,-0.869999999999999,-9.759999999999994,0.021435822242273854,0.005460936912549816,0.0017510715091360253,265.0625,-1.0625,174.8125,0.03936767999999996,0.6753539999999993,-0.7360839799999989,-0.023254389999999972
260.0,0.028992706218512687,-0.008257237386269649,-0.11819557861493345,-0.17999999999999983,-0.869999999999999,-9.759999999999994,0.01816983419806,-0.01275495337995338,-0.0010165237987818632,265.0625,-1.0625,174.8125,0.03936767999999996,0.6753539999999993,-0.7360839799999989,-0.023254389999999972
261.0,0.02896360628618695,-0.009957064440935415,-0.11800785773366418,-0.17999999999999983,-0.869999999999999,-9.759999999999994,-0.0038519108579592454,-0.004651548048725468,0.007143864200315813,265.0625,-1.0625,174.8125,0.03936767999999996,0.6753539999999993,-0.7360839799999989,-0.023254389999999972
262.0,0.030194277049115776,-0.010663710841130202,-0.11754664421599906,-0.17999999999999983,-0.869999999999999,-9.759999999999994,0.0014876784282026215,-0.0027602633701424026,0.003261512233286427,265.0625,-1.0625,174.8125,0.03936767999999996,0.6753539999999993,-0.7360839799999989,-0.023254389999999972
263.0,0.029331649533262456,-0.00900755248335894,-0.11667142758675014,-0.17999999999999983,-0.869999999999999,-9.759999999999994,-0.004399035384418449,0.026223816785812752,-0.00511731212336051,265.0625,-1.0625,174.8125,0.03936767999999996,0.6753539999999993,-0.7360839799999989,-0.023254389999999972
264.0,0.028834165386584756,-0.009486367127496165,-0.11599958397337432,-0.17999999999999983,-0.869999999999999,-9.759999999999994,0.010353162602406553,0.006315904217869943,-0.01179075460829493,265.0625,-1.0625,174.8125,0.03936767999999996,0.6753539999999993,-0.7360839799999989,-0.023254389999999972
265.0,0.02900914707721624,-0.010420074097857019,-0.11678102546103937,-0.17999999999999983,-0.8699999999999991,-9.759999999999994,-0.004609958971800426,0.009992082116206256,-0.009005297650525042,265.0625,-1.0625,174.8125,0.03936767999999997,0.6753539999999993,-0.736083979999999,-0.023254389999999972
266.0,0.027965635046544635,-0.009283657760654061,-0.11793172336800048,-0.17999999999999983,-0.8699999999999991,-9.759999999999994,-0.0008871387440927371,0.006981168106234208,-0.009874992655267641,265.0625,-1.0625,174.8125,0.03936767999999997,0.6753539999999993,-0.7360839799999989,-0.023254389999999972
267.0,0.02794700041130503,-0.01055207205392293,-0.11731971829803667,-0.17999999999999983,-0.8699999999999991,-9.759999999999994,0.002617347838130493,-0.005483367328951675,-0.0022773916547052463,265.0625,-1.0625,174.8125,0.03936767999999997,0.6753539999999993,-0.736083979999999,-0.023254389999999972
268.0,0.02899910184415739,-0.010996449346528674,-0.11643935769266281,-0.17999999999999983,-0.8699999999999992,-9.759999999999994,0.01361555992042507,-0.00677866334265065,0.008059269891633719,265.0625,-1.0625,174.8125,0.039367679999999974,0.6753539999999993,-0.736083979999999,-0.023254389999999972
269.0,0.02919216608815901,-0.009418578801735012,-0.11804418374367709,-0.17999999999999983,-0.8699999999999991,-9.759999999999994,0.017854164348168205,0.00878538299428424,0.002236487926343098,265.0625,-1.0625,174.8125,0.039367679999999974,0.6753539999999993,-0.736083979999999,-0.023254389999999972
270.0,0.029953389583829204,-0.008569857001784129,-0.11648110826528117,-0.17999999999999983,-0.8699999999999991,-9.759999999999994,0.008686909425979043,0.009033093400896747,-0.0046965806446197435,265.0625,-1.0625,174.8125,0.039367679999999974,0.6753539999999993,-0.736083979999999,-0.023254389999999972
271.0,0.029697636932211592,-0.008575763114307324,-0.1168631859810789,-0.17999999999999983,-0.8699999999999991,-9.759999999999994,-0.0018329405763089926,0.020325558477202084,-0.012428935483600193,265.0625,-1.0625,174.8125,0.039367679999999974,0.6753539999999993,-0.736083979999999,-0.023254389999999972
272.0,0.028509579967956673,-0.008855570610564557,-0.11759737828932315,-0.17999999999999983,-0.869999999999999,-9.759999999999994,0.0035206661475937844,0.0154840378319379,-0.007809192755020615,265.0625,-1.0625,174.8125,0.03936767999999997,0.6753539999999993,-0.736083979999999,-0.023254389999999972
273.0,0.02877091901623641,-0.00892276150834944,-0.11685395091092282,-0.17999999999999983,-0.869999999999999,-9.759999999999994,0.002892339948466379,-0.004759633648811589,-0.005697629164395554,265.0625,-1.0625,174.8125,0.03936767999999996,0.6753539999999993,-0.7360839799999989,-0.023254389999999972
274.0,0.02729909114183309,-0.008043586789554535,-0.1173863927291347,-0.17999999999999983,-0.869999999999999,-9.759999999999994,-0.011512336789554531,-0.005777969790066564,-0.01387248783922171,265.0625,-1.0625,174.8125,0.03936767999999996,0.6753539999999993,-0.7360839799999989,-0.023254389999999972
275.0,0.027924152684233344,-0.008103886033321519,-0.11829741472685021,-0.17999999999999983,-0.869999999999999,-9.759999999999994,-0.002761699825711922,-0.01693597621016976,-0.019158379982472724,265.0625,-1.0625,174.8125,0.03936767999999996,0.6753539999999993,-0.7360839799999989,-0.023254389999999972
276.0,0.02792392990074443,-0.008510468362282881,-0.11870835918114142,-0.17999999999999983,-0.869999999999999,-9.759999999999994,0.003347452698511166,-0.029629342431761786,-0.0057309437034739445,265.0625,-1.0625,174.8125,0.03936767999999996,0.6753539999999993,-0.7360839799999989,-0.023254389999999972
277.0,0.02900480769230771,-0.008955029513497258,-0.11938190136476429,-0.17999999999999983,-0.869999999999999,-9.759999999999994,0.01668348242819009,-0.010084595763779233,-0.005262011593916836,265.0625,-1.0625,174.8125,0.03936767999999996,0.6753539999999993,-0.7360839799999987,-0.023254389999999972
278.0,0.02764069196932102,-0.010822058989397705,-0.12014496155725995,-0.17999999999999983,-0.869999999999999,-9.759999999999994,0.00927200529645086,0.01294678523761185,-0.007960096858786375,265.0625,-1.0625,174.8125,0.03936767999999996,0.6753539999999993,-0.7360839799999987,-0.023254389999999972
279.0,0.02840944337920146,-0.010138774531919699,-0.1203434562749079,-0.17999999999999983,-0.869999999999999,-9.759999999999994,-0.0163101725223701,0.014508345317317092,-0.012070250817730657,265.0625,-1.0625,174.8125,0.03936767999999996,0.6753539999999993,-0.7360839799999989,-0.023254389999999972
280.0,0.028054033667944976,-0.009160747518610426,-0.12003021373787506,-0.17999999999999983,-0.869999999999999,-9.759999999999994,0.0005495155885780895,0.014042277027408075,-0.000271064201255734,265.0625,-1.0625,174.8125,0.03936767999999996,0.6753539999999993,-0.7360839799999987,-0.023254389999999972
281.0,0.02608812692683662,-0.008503195729002183,-0.11987382509963156,-0.17999999999999983,-0.869999999999999,-9.759999999999994,0.0035543085946311754,0.0076669298443491985,-0.0026895819234528913,265.0625,-1.0625,174.8125,0.03936767999999996,0.6753539999999993,-0.7360839799999987,-0.023254389999999972
282.0,0.028123467929919564,-0.00949958643507031,-0.11811060982028725,-0.17999999999999983,-0.869999999999999,-9.759999999999994,0.0013036694488307392,0.013110008271298594,-0.006727479509737575,265.0625,-1.0625,174.8125,0.03936767999999996,0.6753539999999993,-0.7360839799999989,-0.023254389999999972
283.0,0.029755620723362675,-0.009708248740506808,-0.11721678321678322,-0.17999999999999983,-0.869999999999999,-9.759999999999994,-0.010296826829084893,-0.012853410030829387,0.0002782164072486653,265.0625,-1.0625,174.8125,0.03936767999999996,0.6753539999999993,-0.7360839799999989,-0.023254389999999972
284.0,0.02901924956763668,-0.00883179186404993,-0.11820392510715094,-0.17999999999999983,-0.869999999999999,-9.759999999999994,-0.011429430784269494,-0.0017120648169035267,0.004372979171366268,265.0625,-1.0625,174.8125,0.03936767999999996,0.6753539999999993,-0.7360839799999989,-0.023254389999999972
285.0,0.028355214677795337,-0.010318670576735097,-0.1177569742085871,-0.17999999999999983,-0.869999999999999,-9.759999999999994,0.0118763628844274,0.005893300248138958,-0.0024480224076998272,265.0625,-1.0625,174.8125,0.03936767999999996,0.6753539999999993,-0.7360839799999989,-0.023254389999999972
286.0,0.028544665012406968,-0.011645161290322587,-0.11767369727047146,-0.17999999999999983,-0.869999999999999,-9.759999999999994,0.006335297766749379,-0.0031017369727047144,0.0059088089330024815,265.0625,-1.0625,174.8125,0.03936767999999996,0.6753539999999993,-0.7360839799999989,-0.023254389999999972
287.0,0.029431141439205975,-0.010331265508684868,-0.1185713399503722,-0.17999999999999983,-0.869999999999999,-9.759999999999994,0.015264423076923076,-0.020998759305210918,0.004133064516129032,265.0625,-1.0625,174.8125,0.03936767999999996,0.6753539999999993,-0.7360839799999989,-0.023254389999999972
288.0,0.029050558312655107,-0.009843052109181145,-0.11813306451612902,-0.17999999999999983,-0.869999999999999,-9.759999999999994,0.0024290477667493794,-0.006381823821339949,0.012038616625310174,265.0625,-1.0625,174.8125,0.03936767999999996,0.6753539999999993,-0.7360839799999989,-0.023254389999999972
289.0,0.02761709057071962,-0.010115074441687348,-0.11827248759305212,-0.17999999999999983,-0.869999999999999,-9.759999999999994,-0.0010885158188585612,0.007238678660049627,-0.011745890198511164,265.0625,-1.0625,174.8125,0.03936767999999996,0.6753539999999993,-0.7360839799999989,-0.023254389999999972
290.0,0.02803931451612905,-0.009465725806451617,-0.11675907258064519,-0.17999999999999983,-0.869999999999999,-9.759999999999994,0.008474042338709678,0.00894657258064516,0.006867439516129032,265.0625,-1.0625,174.8125,0.03936767999999996,0.6753539999999993,-0.7360839799999989,-0.023254389999999972
291.0,0.025786755583126566,-0.009687500000000005,-0.11873495657568241,-0.17999999999999983,-0.869999999999999,-9.759999999999994,0.0012436026674937962,-0.013699984491315136,-0.013163965570719603,265.0625,-1.0625,174.8125,0.03936767999999996,0.6753539999999993,-0.7360839799999989,-0.023254389999999972
292.0,0.025348654929300104,-0.010350422427035334,-0.11757520358226001,-0.17999999999999983,-0.869999999999999,-9.759999999999994,0.003315973760782228,-0.015468043800957107,-0.010197714192169836,265.0625,-1.0625,174.8125,0.03936767999999996,0.6753539999999993,-0.7360839799999989,-0.023254389999999972
293.0,0.02704932746465006,-0.010346582181259605,-0.11729314614596872,-0.17999999999999983,-0.869999999999999,-9.759999999999994,0.004351409259423372,-0.002299924118220489,-0.0033977482251171766,265.0625,-1.0625,174.8125,0.03936767999999996,0.6753539999999993,-0.7360839799999989,-0.023254389999999972
294.0,0.025881614577179107,-0.01074172747055812,-0.11899947565874985,-0.17999999999999983,-0.869999999999999,-9.759999999999994,0.03604862249645516,-0.02708237173332939,0.004484771640769623,265.0625,-1.0625,174.8125,0.03936767999999996,0.6753539999999993,-0.7360839799999989,-0.023254389999999972
295.0,0.027240202449879885,-0.012082053251408095,-0.11876889105518137,-0.17999999999999983,-0.869999999999999,-9.759999999999994,-0.002436248227578871,-0.015226543729567922,0.005880868683288038,265.0625,-1.0625,174.8125,0.03936767999999996,0.6753539999999993,-0.7360839799999989,-0.023254389999999972
296.0,0.026837557603686654,-0.013908410138248856,-0.11650713645673322,-0.17999999999999983,-0.869999999999999,-9.759999999999994,-0.004709301395289297,-0.01881620423707117,0.004476286482334869,265.0625,-1.0625,174.8125,0.03936767999999996,0.6753539999999993,-0.7360839799999989,-0.023254389999999972
297.0,0.027449756784434218,-0.013229166666666674,-0.11726150473630309,-0.17999999999999983,-0.869999999999999,-9.759999999999994,0.0035977302547363036,-0.0065999223950332815,0.008398537506400409,265.0625,-1.0625,174.8125,0.03936767999999996,0.6753539999999993,-0.7360839799999989,-0.023254389999999972
298.0,0.027024609575012817,-0.011937243983614959,-0.11876056067588323,-0.17999999999999983,-0.869999999999999,-9.759999999999994,-0.005960381464413722,-0.024978598630312338,-0.0009840629800307223,265.0625,-1.0625,174.8125,0.03936767999999996,0.6753539999999993,-0.7360839799999989,-0.023254389999999972
299.0,0.026500016001024078,-0.012563604070660529,-0.11848294290834613,-0.17999999999999983,-0.869999999999999,-9.759999999999994,0.028221806195596517,-0.03336263520865335,0.00790050563236047,265.0625,-1.0625,174.8125,0.03936767999999996,0.6753539999999993,-0.7360839799999989,-0.023254389999999972
300.0,0.028756560419866885,-0.011632104454685106,-0.12007312467997949,-0.17999999999999983,-0.869999999999999,-9.759999999999994,0.03994255632360471,-0.03326712909626216,-0.007264464925755249,265.0625,-1.0625,174.8125,0.03936767999999996,0.6753539999999993,-0.7360839799999989,-0.023254389999999972
301.0,0.02816669251447479,-0.011838109023592901,-0.12052319040726298,-0.17999999999999983,-0.869999999999999,-9.759999999999994,-0.0017529429575800538,-0.011799039753928868,-0.00416051242664146,265.0625,-1.0625,174.8125,0.03936767999999996,0.6753539999999993,-0.7360839799999989,-0.023254389999999972
302.0,0.02927739867659224,-0.011120667415022259,-0.11843951859072825,-0.17999999999999983,-0.869999999999999,-9.759999999999994,-0.008121935188467447,-0.013034726530190239,-0.0027733005681594394,265.0625,-1.0625,174.8125,0.03936767999999996,0.6753539999999993,-0.7360839799999989,-0.023254389999999972
303.0,0.028024968982630287,-0.01189996898263028,-0.11699387406947892,-0.17999999999999983,-0.869999999999999,-9.759999999999994,-0.009280009305210918,-0.012793211073200993,-0.001722917959057072,265.0625,-1.0625,174.8125,0.03936767999999996,0.6753539999999993,-0.7360839799999989,-0.023254389999999972
304.0,0.029884460297766764,-0.011464097394540948,-0.11723433622828786,-0.17999999999999983,-0.869999999999999,-9.759999999999994,-0.00464000465260546,-0.03243302186724566,0.02356835452853598,265.0625,-1.0625,174.8125,0.03936767999999996,0.6753539999999993,-0.7360839799999989,-0.023254389999999972
305.0,0.028974255583126565,-0.012148728287841198,-0.11652745037220844,-0.17999999999999983,-0.869999999999999,-9.759999999999994,-0.01501822270471464,-0.002297223945409429,0.009649309863523574,265.0625,-1.0625,174.8125,0.03936767999999996,0.6753539999999993,-0.7360839799999989,-0.023254389999999972
306.0,0.02928861662531019,-0.011277838089330031,-0.11483692617866005,-0.17999999999999983,-0.869999999999999,-9.759999999999994,-0.010300674627791565,-0.005754691377171216,-0.005085394696029777,265.0625,-1.0625,174.8125,0.03936767999999996,0.6753539999999993,-0.7360839799999989,-0.023254389999999972
307.0,0.02932646251597866,-0.010709559929317998,-0.11536498984886083,-0.17999999999999983,-0.869999999999999,-9.759999999999994,-0.00786237452064065,0.0017419954037897582,-0.004970739106323783,265.0625,-1.0625,174.8125,0.03936767999999996,0.6753539999999993,-0.7360839799999987,-0.023254389999999972
308.0,0.02987414937213326,-0.009915574009324014,-0.11719614256711032,-0.17999999999999983,-0.869999999999999,-9.759999999999994,-0.0032643138111888115,-0.0063560494445071055,-0.00495125044646214,265.0625,-1.0625,174.8125,0.03936767999999996,0.6753539999999993,-0.7360839799999989,-0.023254389999999972
309.0,0.028817053913828126,-0.01111316640348899,-0.11676156101962554,-0.17999999999999983,-0.869999999999999,-9.759999999999994,-0.007528761561019626,-0.006253289721031657,-0.008623768704413864,265.0625,-1.0625,174.8125,0.03936767999999996,0.6753539999999993,-0.7360839799999987,-0.023254389999999972
310.0,0.02787427626137305,-0.011919542822768636,-0.11711587337393789,-0.17999999999999983,-0.869999999999999,-9.759999999999994,-0.007302240769982706,-0.01820813595007143,-0.011565719227009549,265.0625,-1.0625,174.8125,0.03936767999999996,0.6753539999999993,-0.7360839799999987,-0.023254389999999972
311.0,0.027753515301902412,-0.010555304910143625,-0.11834701857282502,-0.17999999999999983,-0.869999999999999,-9.759999999999994,0.003405331227911873,-0.020378881870817357,-0.0109317429881946,265.0625,-1.0625,174.8125,0.03936767999999996,0.6753539999999993,-0.7360839799999989,-0.023254389999999972
312.0,0.02721903902549065,-0.010672230994811646,-0.1182866380930897,-0.17999999999999983,-0.869999999999999,-9.759999999999994,0.00973475449281901,-0.0023864576283931134,-0.009359726295210166,265.0625,-1.0625,174.8125,0.03936767999999996,0.6753539999999993,-0.7360839799999989,-0.023254389999999972
313.0,0.028286938867584044,-0.00979269117978796,-0.11924009324009324,-0.17999999999999983,-0.869999999999999,-9.759999999999994,-0.0011034664260470709,-0.0034419881194074744,-0.007579987217083991,265.0625,-1.0625,174.8125,0.03936767999999996,0.6753539999999993,-0.7360839799999989,-0.023254389999999972
314.0,0.02829058575832771,-0.009456462891946769,-0.11903353635611702,-0.17999999999999983,-0.869999999999999,-9.759999999999994,-0.027082158432964885,0.020074582675389124,-0.0036219828558538237,265.0625,-1.0625,174.8125,0.03936767999999996,0.6753539999999993,-0.7360839799999989,-0.023254389999999972
315.0,0.027146037654102187,-0.009930018905825363,-0.11931253692544014,-0.17999999999999983,-0.869999999999999,-9.759999999999994,0.010134617846311393,-0.00025718569065343207,0.01121893339635275,265.0625,-1.0625,174.8125,0.03936767999999996,0.6753539999999993,-0.7360839799999989,-0.023254389999999972
316.0,0.0280367629682146,-0.010141266887234636,-0.11851924061601479,-0.17999999999999983,-0.869999999999999,-9.759999999999994,0.002802056254677221,0.013540958929063766,-0.00036433100949229916,265.0625,-1.0625,174.8125,0.03936767999999996,0.6753539999999993,-0.7360839799999989,-0.023254389999999972
317.0,0.028562822764667047,-0.010058226495726501,-0.12199695911938113,-0.17999999999999983,-0.8699999999999991,-9.759999999999994,-0.00730824250683948,0.0028205953983072565,-0.004817482593791425,265.0625,-1.0625,174.8125,0.03936767999999997,0.6753539999999993,-0.736083979999999,-0.023254389999999972
318.0,0.030373542976026,-0.01012972959301654,-0.12049651846147556,-0.17999999999999983,-0.8699999999999991,-9.759999999999994,-0.003988308398220829,-0.0063165293239793256,-0.0002345237350610853,265.0625,-1.0625,174.8125,0.039367679999999974,0.6753539999999993,-0.736083979999999,-0.023254389999999972
319.0,0.029132287226826745,-0.010327205457278305,-0.12018517390295422,-0.17999999999999983,-0.869999999999999,-9.759999999999994,0.010287059217903113,0.00032677289654311527,0.004045069037776429,265.0625,-1.0625,174.8125,0.039367679999999974,0.6753539999999993,-0.736083979999999,-0.023254389999999972
320.0,0.02771547549323433,-0.010488908709512253,-0.11960078773439176,-0.17999999999999983,-0.869999999999999,-9.759999999999994,-0.017965046114088265,0.009864652490588589,-0.0020195306248938904,265.0625,-1.0625,174.8125,0.039367679999999974,0.6753539999999993,-0.736083979999999,-0.023254389999999972
321.0,0.028706436260043343,-0.009900888760000687,-0.12051312669521164,-0.17999999999999983,-0.8699999999999991,-9.759999999999994,7.143344535234797e-05,0.012448610566179354,0.0002398884358847512,265.0625,-1.0625,174.8125,0.039367679999999974,0.6753539999999993,-0.736083979999999,-0.023254389999999972
322.0,0.02632307534842464,-0.01045811228058205,-0.1201719520308422,-0.17999999999999983,-0.8699999999999992,-9.759999999999994,-0.017679777724706164,0.031194559117039965,-0.01929769195339554,265.0625,-1.0625,174.8125,0.039367679999999974,0.6753539999999993,-0.736083979999999,-0.023254389999999972
323.0,0.027212005936439174,-0.010559441155899768,-0.11868639224851163,-0.17999999999999983,-0.8699999999999991,-9.759999999999994,0.016150355674587606,0.01167883522969584,-0.011795047849746677,265.0625,-1.0625,174.8125,0.039367679999999974,0.6753539999999993,-0.736083979999999,-0.023254389999999972
324.0,0.02564294365500419,-0.012269835042049784,-0.11942904419917777,-0.17999999999999983,-0.869999999999999,-9.759999999999994,-0.013614468364579246,0.022358668395284963,-0.0034261399498473235,265.0625,-1.0625,174.8125,0.039367679999999974,0.6753539999999993,-0.736083979999999,-0.023254389999999972
325.0,0.024816789205233634,-0.012656769758277758,-0.1183591630985483,-0.17999999999999983,-0.869999999999999,-9.759999999999994,-0.0141726087920711,0.018447154176830828,-0.006135546561812319,265.0625,-1.0625,174.8125,0.039367679999999974,0.6753539999999993,-0.736083979999999,-0.023254389999999972
326.0,0.024955925513447576,-0.013469017617339044,-0.11768377434220306,-0.17999999999999983,-0.869999999999999,-9.759999999999994,-0.00429504378814353,0.04123375688746354,-0.006173021197100665,265.0625,-1.0625,174.8125,0.03936767999999997,0.6753539999999993,-0.736083979999999,-0.023254389999999972
327.0,0.025960247262276415,-0.011637999025486023,-0.11763220975174671,-0.17999999999999983,-0.869999999999999,-9.759999999999994,-0.03585984341707547,0.0032071084807492184,-0.001971029371686239,265.0625,-1.0625,174.8125,0.03936767999999996,0.6753539999999993,-0.7360839799999989,-0.023254389999999972
328.0,0.02681767265859359,-0.011920256216497116,-0.11743104924471992,-0.17999999999999983,-0.869999999999999,-9.759999999999994,0.01106631618468247,-0.012162154556551669,0.002553467143981582,265.0625,-1.0625,174.8125,0.03936767999999996,0.6753539999999993,-0.7360839799999989,-0.023254389999999972
329.0,0.025960360705335445,-0.010512522225073387,-0.11732630785500009,-0.17999999999999983,-0.869999999999999,-9.759999999999994,0.007162708700383231,0.009286931791878077,0.0026398289949799035,265.0625,-1.0625,174.8125,0.03936767999999996,0.6753539999999993,-0.7360839799999987,-0.023254389999999972
330.0,0.027606738270556295,-0.009504565731305023,-0.11745477477305233,-0.17999999999999983,-0.869999999999999,-9.759999999999994,0.000412060606301098,0.01613740605356367,-0.013201083028169872,265.0625,-1.0625,174.8125,0.03936767999999996,0.6753539999999993,-0.7360839799999987,-0.023254389999999972
331.0,0.02770715352293351,-0.009138309025872222,-0.11908627580993073,-0.17999999999999983,-0.869999999999999,-9.759999999999994,-0.011620181119835067,0.03100980762111224,-0.016768464988460022,265.0625,-1.0625,174.8125,0.03936767999999996,0.6753539999999993,-0.7360839799999987,-0.023254389999999972
332.0,0.02723648619074716,-0.009571674674226437,-0.11838987332680159,-0.17999999999999983,-0.869999999999999,-9.759999999999994,-0.013175746577287262,0.007587962510928326,-0.015347874321153088,265.0625,-1.0625,174.82689205955333,0.03936767999999996,0.6753539999999993,-0.7360839799999989,-0.02324033644168734
333.0,0.028116224651612245,-0.010675508090048299,-0.11800705473310191,-0.17999999999999983,-0.869999999999999,-9.759999999999994,0.03822065232151896,-0.016956176146113555,0.024475566561507824,265.0625,-1.0625,174.85195409429278,0.03936767999999996,0.6753539999999993,-0.7360839799999987,-0.02321586386600498
334.0,0.027260720983397938,-0.011053602952977054,-0.1188122549894336,-0.17999999999999983,-0.869999999999999,-9.759999999999994,0.024945337321962267,-0.011418390227971354,0.009748853297240394,265.0625,-1.0625,174.86448511166253,0.03936767999999996,0.6753539999999993,-0.7360839799999987,-0.0232036275781638
335.0,0.02808919198278853,-0.011104626876894575,-0.11658666738493412,-0.17999999999999983,-0.869999999999999,-9.759999999999994,0.004142860028753146,-0.005579486113308935,0.0008661365516204229,265.0625,-1.0625,174.8707506203474,0.03936767999999996,0.6753539999999993,-0.7360839799999989,-0.02319750943424321
336.0,0.02728262140683904,-0.012055245989766941,-0.11804895441582972,-0.17999999999999983,-0.869999999999999,-9.759999999999994,0.014168204207924959,0.0008606723881158158,-0.011953906308745018,265.0625,-1.0625,174.8738833746898,0.03936767999999996,0.6753539999999993,-0.7360839799999987,-0.023194450362282914
337.0,0.02766116182004484,-0.01293333019091325,-0.11675896852305133,-0.17999999999999983,-0.869999999999999,-9.759999999999994,0.019754697637461238,-0.007246462813386261,-0.008241221144446951,265.0625,-1.0625,174.875,0.03936767999999996,0.6753539999999993,-0.7360839799999989,-0.023193360000000034
338.0,0.02723452891194828,-0.012405519211970834,-0.11486961425671104,-0.17999999999999983,-0.869999999999999,-9.759999999999994,0.00996010038348748,0.006615394014587563,0.005960034589066849,265.0625,-1.0625,174.875,0.03936767999999996,0.6753539999999993,-0.7360839799999989,-0.023193360000000034
339.0,0.02585333483720582,-0.013196894503346124,-0.11381310624859012,-0.17999999999999983,-0.869999999999999,-9.759999999999994,0.010845152831039928,-0.00820867640424092,0.02019348259267614,265.0625,-1.0625,174.875,0.03936767999999996,0.6753539999999993,-0.7360839799999989,-0.023193360000000034
340.0,0.025524682306940386,-0.014403658169787208,-0.11602814121362506,-0.17999999999999983,-0.869999999999999,-9.759999999999994,-0.016491195296638846,0.009993056338822467,-0.010933035378599893,265.0625,-1.0625,174.875,0.03936767999999996,0.6753539999999993,-0.7360839799999989,-0.023193360000000034
341.0,0.02568849206349208,-0.013220425184134868,-0.11564556993186026,-0.17999999999999983,-0.869999999999999,-9.759999999999994,-0.015268592574540154,0.02329224454980503,-0.01940631892748828,265.0625,-1.0625,174.875,0.03936767999999996,0.6753539999999993,-0.7360839799999989,-0.023193360000000034
342.0,0.02410794290834615,-0.012779537890424993,-0.1164200908858167,-0.17999999999999983,-0.869999999999999,-9.759999999999994,-0.015190472190220173,0.011382228462621609,-0.006041386648745518,265.0625,-1.0625,174.875,0.03936767999999996,0.6753539999999993,-0.7360839799999989,-0.023193360000000034
343.0,0.02702244943676397,-0.012014928955453155,-0.11414274513568869,-0.17999999999999983,-0.869999999999999,-9.759999999999994,-0.03222006208397337,0.007439976158474143,-0.008487543202764977,265.0625,-1.0625,174.875,0.03936767999999996,0.6753539999999993,-0.7360839799999989,-0.023193360000000034
344.0,0.028845206093189982,-0.009469806067588332,-0.11358006912442398,-0.17999999999999983,-0.869999999999999,-9.759999999999994,8.600550435228227e-05,-0.009742623527905784,-0.009899633576548899,265.0625,-1.0625,174.84325396825398,0.039428683748079854,0.6753539999999993,-0.7360839799999989,-0.023284863123399908
345.0,0.02802355350742449,-0.008499743983614954,-0.11411674347158218,-0.17999999999999983,-0.869999999999999,-9.759999999999994,-0.0494431643625192,0.03462621607782898,-0.045762928827444954,265.0625,-1.0625,174.82686891961083,0.03946118574500767,0.6753539999999993,-0.7360839799999989,-0.023333614787506396
346.0,0.028191244239631354,-0.007684331797235025,-0.11664874551971327,-0.17999999999999983,-0.869999999999999,-9.759999999999994,-0.043162762416794676,0.028329813108038913,-0.0395705325140809,265.0625,-1.0625,174.8186763952893,0.03947743674347158,0.6753539999999993,-0.7360839799999989,-0.023357990619559642
347.0,0.02582629288274451,-0.007432795698924733,-0.11449948796722992,-0.17999999999999983,-0.869999999999999,-9.759999999999994,-0.022365431387608804,0.005612359190988224,-0.025441628264208913,265.0625,-1.0625,174.81458013312852,0.039485562242703526,0.6753539999999993,-0.7360839799999989,-0.023370178535586268
348.0,0.02561297707668677,-0.006631400409626217,-0.1145217515459451,-0.17999999999999983,-0.869999999999999,-9.759999999999994,-0.016370001526251527,-0.009168494475954154,-0.011071970144550788,265.0625,-1.0625,174.8125320020481,0.039489624992319505,0.6753539999999993,-0.7360839799999989,-0.023376272493599574
349.0,0.026911711272598386,-0.006184363799283155,-0.11600255524045847,-0.17999999999999983,-0.869999999999999,-9.759999999999994,-0.016761549662255307,0.028609877185986055,-0.024529200638071604,265.0625,-1.0625,174.8125,0.03948975,0.6753539999999993,-0.7360839799999989,-0.023376459999999988
350.0,0.027641723531844516,-0.006642198191593354,-0.11620893018272052,-0.17999999999999983,-0.869999999999999,-9.759999999999994,-0.015121569878374314,0.07855050485468831,-0.013901068689375143,265.0625,-1.061033724340176,174.8125,0.03948402221896383,0.6753539999999993,-0.7360825482111426,-0.023383619882697937
351.0,0.031230717535153028,-0.006701488363786753,-0.11637268779607489,-0.17460049627791555,-0.869999999999999,-9.759999999999994,0.04116096017557711,0.10541421993664937,-0.01286661297371983,265.0625,-1.023057184750733,174.8125,0.03929447908218664,0.675361270272952,-0.7360517647507322,-0.023598618998420934
352.0,0.025713983587027645,-0.0068529032454465785,-0.1183073116399729,-0.16813318025258323,-0.8733124699085214,-9.759999999999994,-0.0227197463505841,-0.0900198267944341,-1.5917198431834176,264.65758907077515,-0.9825956361885586,174.81875902744343,0.03915420155120406,0.6728012719973331,-0.7383759850763771,-0.023678904737534978
353.0,-0.007516968212324738,-0.006517533216651182,-0.12129232170817797,-0.16860169449061796,-0.8891135404571064,-9.759999999999994,0.08702357449658066,-0.05222783778781696,0.04564952958330215,263.5080521255204,-0.9850715372593647,174.73545873573312,0.039993244769909425,0.6653529692054976,-0.7449919891416039,-0.023793599256813028
354.0,0.011792846831191533,0.0007989487376304631,-0.12263383763062007,-0.19704044518827302,-0.8963122634496838,-9.759999999999994,0.17840615961855683,-0.257619267844937,0.3558216200686497,263.74717414597666,-1.1495454694244462,174.69310045248554,0.04116136880150451,0.6669293545232724,-0.7435772461322792,-0.02304767198464774
355.0,0.0036937036179993093,0.0013492472398404748,-0.12198278046788893,-0.2266985907155786,-0.9038012930151638,-9.759999999999994,0.09800163222144562,-0.05400621548764589,0.6884388849006351,264.0983854600851,-1.3204898081985093,174.65602603269437,0.04235947015861552,0.6691904069770063,-0.7415132379992946,-0.02228346266344687
356.0,0.002617962418819943,-0.000936625346167438,-0.1208895780676162,-0.23964706210716896,-0.9075458077979036,-9.759999999999994,0.06851309146977236,-0.06280561169148818,0.014509031893132796,264.47291584832215,-1.3930955883612288,174.6374888227988,0.04286751804817761,0.6716051858330402,-0.7393131734913386,-0.02203987896688398
357.0,-0.0017219470983599358,-0.00027324347223695446,-0.12175559292525717,-0.24623903418309817,-0.9093145505046323,-9.759999999999994,0.031002367318213785,-0.0069649433150794395,0.036318823823464554,264.55967526678745,-1.4232268986582264,174.6280246232434,0.043170693321151886,0.6721973945129545,-0.7387735249262714,-0.021883138997163716
358.0,0.00025439195185915733,-0.0009381789181310673,-0.11958487606866455,-0.2494193273382284,-0.9097568957456741,-9.759999999999994,0.016016746066865692,0.036693276060902495,0.06712960482760831,264.637259567221,-1.4375829702019784,174.62599345488545,0.043269869512184304,0.6727317602775837,-0.738289262444951,-0.021826442714109988
359.0,-0.006189730046466292,6.242281858980154e-05,-0.1181750823496554,-0.2501280834914611,-0.9099999999999984,-9.759999999999994,0.029402437905758586,0.07982465958035218,-0.11404742737759813,264.5292658730159,-1.4396598815479271,174.625,0.04326256020801671,0.6720397501331152,-0.7389247642986796,-0.021883200670263225
360.0,-0.008693152725410793,0.00025089605734767036,-0.11980589303169947,-0.25,-0.9099999999999984,-9.759999999999994,0.03849991854024112,0.020101650141972727,-0.09550429409300376,264.45062083973374,-1.4379276637341154,174.625,0.04323422163152256,0.6715527116177913,-0.7393734173248618,-0.02193430026160221
361.0,-0.011963563087392437,0.0015944039773384206,-0.1193251077746395,-0.25,-0.9099999999999986,-9.759999999999994,0.012349693606197247,0.01890908114893547,-0.04732793221346811,264.40508192524317,-1.4375,174.625,0.04322307848438296,0.6712690523655918,-0.739634275089606,-0.02195531481310805
362.0,-0.013925969971755619,0.002515071932345605,-0.11945774077928084,-0.25,-0.9099999999999986,-9.759999999999994,-0.012626356473911105,0.0001259435442578019,-0.03019238392547445,264.38584869431645,-1.4375,174.625,0.043216015371223715,0.6711489506861243,-0.7397449072043014,-0.02196694079365081
363.0,-0.010391457311332446,0.0017019308590588505,-0.12168194506383892,-0.25,-0.9099999999999986,-9.759999999999994,-0.028797714021439307,0.044080240490230085,0.10013750557455031,264.42395487504746,-1.4375,174.625,0.04323203488148914,0.6713537205747987,-0.7395577101873054,-0.02194202357233703
364.0,-0.009437920155922241,-7.069355664569019e-05,-0.1216269428340188,-0.25,-0.9099999999999986,-9.759999999999994,-0.02236736699535867,0.027512470475529786,0.030803519812364767,264.46344953173775,-1.4375,174.625,0.043253795057232,0.671592684557753,-0.7393386620291372,-0.021926165431841844
365.0,-0.011926924156892945,0.0021008933256591944,-0.12166387907386866,-0.24849131513647643,-0.9099999999999986,-9.759999999999994,-0.025831513266476844,0.038617887921998224,-0.14816218510937554,264.4465200512287,-1.4375,174.625,0.04325369929288399,0.6714606988992238,-0.7394594884909955,-0.02192420973825343
366.0,-0.014113826282400689,0.002377189638896195,-0.12044692392819345,-0.24408436724565769,-0.9099999999999985,-9.759999999999994,-0.019777098984955385,-0.011176878099354689,-0.06570765342877727,264.2817277675498,-1.4375,174.625,0.043233294646441975,0.6704205646109019,-0.7403893556971106,-0.021979934223965422
367.0,-0.015354404180626873,0.003392895894716915,-0.12135761454986221,-0.24188089330024828,-0.9099999999999985,-9.759999999999994,-0.010808608376246254,-0.008340615188950257,-0.03565400592585816,264.1993316257104,-1.4375,174.625,0.04322309232322097,0.6699004974667411,-0.740854289300168,-0.022007796466821418
368.0,-0.015635058489897206,0.0036995696955374377,-0.11973187699397378,-0.2407791563275436,-0.9099999999999985,-9.759999999999994,-0.021338227185001377,-0.030282430383236834,-0.01746930265075426,264.15663771712155,-1.4375,174.625,0.04321740362779153,0.6696321438114139,-0.7410943776079404,-0.022022664466501238
369.0,-0.01744602977667495,0.0052129342431761795,-0.12000170595533499,-0.24022828784119127,-0.9099999999999985,-9.759999999999994,-0.005978598014888338,-0.012883839950372209,-0.028345998759305206,264.134770471464,-1.4375,174.625,0.043214162297766714,0.6694944738411905,-0.7412176291265506,-0.022030146104218357
370.0,-0.01595626550868487,0.0062714795285359805,-0.11870308622828785,-0.2400000000000002,-0.9099999999999985,-9.759999999999994,-0.02588011786600496,-0.013653458436724566,0.007833824441687346,264.125,-1.4375,174.625,0.04321288999999996,0.6694335899999995,-0.7412719699999997,-0.022033689999999995
371.0,-0.014832360515828265,0.007002965448529966,-0.11866033160388001,-0.24109481915933545,-0.9099999999999984,-9.759999999999994,-0.01614085469302203,-0.018100632566358372,0.1009278481934732,264.1401515151515,-1.4375,174.625,0.043231505288367514,0.6695128228445745,-0.7412056256011731,-0.022007438504398825
372.0,-0.0064452308444243964,0.0031963141025641035,-0.11906027943830366,-0.2550146627565981,-0.9078885630498521,-9.75929618768328,-0.030994826326227534,-0.13163420710673734,0.3501674233025039,264.2699169110459,-1.5059261974584555,174.63770772238513,0.04352862720430106,0.6703299673216027,-0.7404727282795698,-0.021429663685239485
373.0,0.016981254341870606,0.0009188795476710744,-0.1203282033325365,-0.27824397076202556,-0.903782991202345,-9.757028931588389,-0.01257031164951242,-0.19263317127424012,0.07240594624441517,264.3943770881662,-1.6339663486088618,174.6636119257087,0.04406568258866955,0.6710939031480427,-0.7397834157936127,-0.02037756086765587
374.0,0.029917426178379475,-0.0015504857844771175,-0.11896807188959332,-0.29525101763907724,-0.9017302052785914,-9.753353175471613,0.014418938468047763,-0.12071174692744265,0.03386116170781553,264.42097886666375,-1.729281561401205,174.6765640273705,0.04452134048788318,0.6712403091546667,-0.7396456387032584,-0.0196620280144731
375.0,0.03607533839936344,-0.0035122155969531995,-0.11952373817804729,-0.3037545410776031,-0.9007038123167146,-9.751515297413228,-0.01042390545580242,-0.052710091826004196,0.048661350084676994,264.4342797559125,-1.7769391677973765,174.68304007820137,0.04474916943748999,0.6713135121579787,-0.7395767501580812,-0.01930426158788172
376.0,0.04084069950271202,-0.003975071630343658,-0.12026773419166292,-0.3079720896981368,-0.9001906158357762,-9.750596358384033,-0.004601004536307858,-0.043614332325514316,0.020283143273032534,264.4404567156884,-1.8007679709954623,174.68627810361681,0.044894991216789984,0.6713476376332417,-0.7395443791479559,-0.019093220104791295
377.0,0.044894003337912824,-0.0038644850308307216,-0.11760151593444804,-0.3096629754453538,-0.899999999999999,-9.750158883004332,-0.0026067036832263116,-0.025141925041870874,0.00282692168073728,264.4397267693789,-1.8105440539239286,174.6875,0.044989427910447785,0.6713404026191625,-0.7395500600529618,-0.01897531940479056
378.0,0.04509027531608177,-0.005517694670920477,-0.11885861002796486,-0.30999999999999994,-0.899999999999999,-9.75,0.00886207486509906,-0.00039131735200283527,0.014858858659261884,264.4375,-1.8125,174.6875,0.045024505806451634,0.6713256800000003,-0.7395629900000008,-0.01894021953629032
379.0,0.045610374190499056,-0.005363185764980771,-0.11580367466098475,-0.30999999999999994,-0.899999999999999,-9.75,0.008982586299915253,-0.0035980640229957336,0.028334135965346945,264.4375,-1.8125,174.6875,0.045036196935483885,0.6713256800000003,-0.7395629900000007,-0.018928590897177418
380.0,0.0459928274119221,-0.005057464322877955,-0.11634525770939663,-0.30999999999999994,-0.899999999999999,-9.75,0.0050651144899079995,-0.001007596744256148,0.011110872386155294,264.4375,-1.8125,174.6875,0.04504204250000002,0.6713256800000003,-0.7395629900000007,-0.018922776577620964
381.0,0.045981937238483525,-0.005932271955198893,-0.11561916838404789,-0.30999999999999994,-0.899999999999999,-9.75,0.012564400102569019,0.005335694207856061,-0.004989476386245461,264.4375,-1.8125,174.6875,0.04504395000000001,0.6713256800000003,-0.7395629900000007,-0.018920899999999997
382.0,0.04523975778765019,-0.006799372780164648,-0.1172966700540437,-0.30999999999999994,-0.899999999999999,-9.75,0.003670098450552555,0.022987049172204663,-0.0036163837489301054,264.4375,-1.8125,174.6875,0.04504395000000001,0.6713256800000003,-0.7395629900000007,-0.018920899999999997
383.0,0.04486885895758143,-0.006866643759224918,-0.11839603500885297,-0.30999999999999994,-0.899999999999999,-9.75,-0.00316759352450487,0.010196925474726946,0.011399363086471801,264.4375,-1.8125,174.6875,0.04504395000000001,0.6713256800000003,-0.7395629900000007,-0.018920899999999997
384.0,0.044876515079514005,-0.0059730260811784504,-0.11762025526905008,-0.30999999999999994,-0.899999999999999,-9.75,0.013589413350164616,0.002055611199518673,0.005578138069054294,264.4375,-1.8125,174.6875,0.04504395000000001,0.6713256800000003,-0.7395629900000007,-0.018920899999999997
385.0,0.04348536455460594,-0.005039764448679343,-0.11984187366627105,-0.30999999999999994,-0.899999999999999,-9.75,0.01754739484712532,0.05629534272213516,-0.08060826839506835,264.4154825908858,-1.8125,174.6875,0.04504395000000001,0.6711791726779315,-0.7397049970865333,-0.018920899999999997
386.0,0.042646453963217576,-0.0034936800101160997,-0.11991701332449525,-0.30999999999999994,-0.899999999999999,-9.75,0.010540875567913659,0.029022997609340385,-0.050379448504693725,264.3942332309268,-1.8125,174.6875,0.04504395000000001,0.6710319153712236,-0.739854504511008,-0.018920899999999997
387.0,0.04023385627827722,-0.00340204888924631,-0.11913090222015352,-0.30999999999999994,-0.899999999999999,-9.75,0.004295424563438585,-0.003038739164658204,-0.018282003469692183,264.3836085509472,-1.8125,174.6875,0.04504395000000001,0.6709582867178698,-0.7399292582232454,-0.018920899999999997
388.0,0.040126012591511315,-0.004456545314087833,-0.11801667585942846,-0.30999999999999994,-0.899999999999999,-9.75,-0.011530840565017736,0.020018524971954627,-0.02390065603014034,264.3782962109575,-1.8125,174.6875,0.04504395000000001,0.6709214723911929,-0.7399666350793641,-0.018920899999999997
389.0,0.0392690429877786,-0.0038137992404552175,-0.11882300660318779,-0.30999999999999994,-0.899999999999999,-9.75,-0.0022744407438032585,0.005145637216482134,-0.02040357822863239,264.3756400409626,-1.8125,174.6875,0.04504395000000001,0.6709030652278545,-0.7399853235074234,-0.018920899999999997
390.0,0.040082550167724426,-0.004017754714953672,-0.11849368456119454,-0.30999999999999994,-0.899999999999999,-9.75,0.014151758122722027,0.0008447080091627261,0.0009749261954636306,264.375,-1.8125,174.6875,0.04504395000000001,0.67089844,-0.739990229999999,-0.018920899999999997
391.0,0.041652286341075345,-0.004321099474589692,-0.1186238327892215,-0.3099999999999999,-0.899999999999999,-9.75,0.0177635308130086,0.03411417597033673,-0.05734962263997827,264.375,-1.8125,174.6875,0.04504395000000002,0.67089844,-0.7399902299999989,-0.01892089999999999
392.0,0.04126109822077564,-0.005975991302604207,-0.11853190581819616,-0.3099999999999999,-0.899999999999999,-9.75,-0.028887602652723623,0.04732381194074742,-0.02233722538662055,264.3150201612903,-1.8125,174.6875,0.04501539903225807,0.670631655564516,-0.7402255149193548,-0.018949446290322587
393.0,0.038208634107827655,-0.005559680239115725,-0.11858878957064439,-0.30999999999999994,-0.899999999999999,-9.75,-0.017539999483043838,0.023997927475750053,-0.013744777567862246,264.28049395161287,-1.8125,174.6875,0.04499817,0.6704815277822579,-0.7403598931048393,-0.01896667250000001
394.0,0.038266434506353864,-0.005542980205278594,-0.11836342253176929,-0.3099999999999999,-0.899999999999999,-9.75,-0.012804137646627566,-0.017660221163245355,0.012452842436461388,264.26323084677415,-1.8125,174.6875,0.04498955548387096,0.6704064638911288,-0.7404270821975816,-0.018975285604838726
395.0,0.03768881588841266,-0.005085579742837807,-0.11666849011203849,-0.3099999999999999,-0.899999999999999,-9.75,-0.00986801756711031,0.009035894381156479,-0.014388740459809007,264.2545992943548,-1.8125,174.6875,0.04498524822580644,0.6703689319455642,-0.7404606767439527,-0.01897959215725808
396.0,0.03918409513873224,-0.0045809130385743285,-0.1170243721332431,-0.3099999999999999,-0.899999999999999,-9.75,-0.009668857268403639,0.04403102148187833,-0.02492714149090157,264.2502835181451,-1.8125,174.6875,0.04498309459677419,0.670350165972782,-0.7404774740171383,-0.01898174543346776
397.0,0.03862659316489962,-0.004631027238890142,-0.11853738767952476,-0.3099999999999999,-0.899999999999999,-9.75,-0.010104715932588916,0.007190419627415595,-0.0027427755376344086,264.25,-1.8125,174.6875,0.04498290999999999,0.6703491199999998,-0.7404785200000011,-0.01898193000000002
398.0,0.03716557635912475,-0.004296864425896685,-0.1199266110233852,-0.3099999999999999,-0.899999999999999,-9.75,0.007464846980976015,0.017459489435295884,-0.012194995864350702,264.25,-1.8125,174.6875,0.044982909999999994,0.6703491199999998,-0.7404785200000011,-0.01898193000000002
399.0,0.037238702158057,-0.0043185201894879325,-0.11781521167005038,-0.30999999999999994,-0.899999999999999,-9.75,0.012927193773967966,0.022766279419505223,-0.017781882096398225,264.25,-1.8125,174.6875,0.044982909999999994,0.6703491199999998,-0.7404785200000011,-0.01898193000000002
