time,linaccel_x,linaccel_y,linaccel_z,gravity_x,gravity_y,gravity_z,gyro_x,gyro_y,gyro_z,euler_x,euler_y,euler_z,quaternion_w,quaternion_y,quaternion_x,quaternion_z
0.0,0.12707692307692303,-0.05153846153846153,0.06876923076923078,-0.06999999999999998,-1.2600000000000007,-9.720000000000015,0.009615384615384616,0.04038461538461539,-0.016346153846153847,160.9375,-0.4375,172.5625,0.06329346000000005,-0.16503905999999985,-0.9841308600000004,0.01470947
1.0,0.12902564102564096,-0.052533022533022514,0.06948873348873347,-0.06999999999999998,-1.2600000000000007,-9.720000000000013,-0.02331002331002331,0.03113830613830614,-0.004186091686091686,160.9375,-0.43749999999999994,172.5625,0.06329346000000004,-0.16503905999999985,-0.9841308600000003,0.01470947
2.0,0.12949313186813186,-0.0524248667998668,0.06737017149517147,-0.06999999999999998,-1.2600000000000007,-9.720000000000013,-0.02059268856143856,0.016135166916416917,0.0015541749916749914,160.9375,-0.4375,172.5625,0.06329346000000005,-0.16503905999999982,-0.9841308600000003,0.014709469999999999
3.0,0.13074807692307694,-0.05162391219891219,0.0672958236208236,-0.06999999999999998,-1.2600000000000007,-9.720000000000015,-0.010635562354312351,0.012657949689199689,-0.01055676961926962,160.9375,-0.4375,172.5625,0.06329346000000005,-0.16503905999999985,-0.9841308600000003,0.014709470000000002
4.0,0.13155303970223325,-0.05173861756523046,0.0671034382284382,-0.06999999999999998,-1.2600000000000007,-9.720000000000015,-0.005146239848860816,0.0006657572937814873,-0.0011378910068426196,160.9375,-0.4375,172.5625,0.06329346000000005,-0.16503905999999985,-0.9841308600000004,0.014709469999999999
5.0,0.1311412841191067,-0.0512415172193398,0.06666586303481464,-0.06999999999999998,-1.2600000000000007,-9.720000000000015,-0.0022319288574328897,0.016058685098503646,0.00416120337995338,160.9375,-0.4375,172.5625,0.06329346000000005,-0.16503905999999985,-0.9841308600000004,0.014709469999999999
6.0,0.13057064205955338,-0.050975108560794034,0.06559343982630272,-0.06999999999999998,-1.2600000000000007,-9.720000000000015,0.004061821495037221,0.018186356234491316,0.0030581187965260546,160.9375,-0.4375,172.5625,0.06329346000000005,-0.16503905999999985,-0.9841308600000004,0.014709469999999999
7.0,0.1290967741935484,-0.05195843672456575,0.06587965260545905,-0.06999999999999998,-1.2600000000000007,-9.720000000000015,0.00729295905707196,0.005540477667493796,0.004412220843672456,160.9375,-0.4375,172.5625,0.06329346000000005,-0.16503905999999985,-0.9841308600000004,0.014709469999999999
8.0,0.12808933002481387,-0.051281947890818844,0.06560235732009925,-0.06999999999999998,-1.2600000000000007,-9.720000000000015,0.003677496898263027,0.012044432382133995,0.0030435794044665013,160.9375,-0.4375,172.5625,0.06329346000000005,-0.16503905999999985,-0.9841308600000004,0.014709469999999999
9.0,0.12933514514159675,-0.050775047756902586,0.06531112391193035,-0.06999999999999998,-1.2600000000000007,-9.720000000000015,0.0008146829089369411,0.027186155298554494,0.004981949614006065,160.9375,-0.4375,172.5625,0.06329346000000005,-0.16503905999999985,-0.9841308600000004,0.014709469999999999
10.0,0.1296576470124857,-0.05045331829908442,0.06505626877602683,-0.06999999999999998,-1.2600000000000007,-9.720000000000015,0.01358831370802137,0.004283637089836688,0.011149050602175602,160.9375,-0.4375,172.5625,0.06329346000000005,-0.16503905999999985,-0.9841308600000003,0.014709469999999999
11.0,0.12998763243924533,-0.05196095660611789,0.06539049480984963,-0.06999999999999998,-1.2600000000000007,-9.720000000000015,-0.011213607181349117,-0.020025180912277687,0.012490914103817329,160.9375,-0.4375,172.5625,0.06329346000000005,-0.16503905999999985,-0.9841308600000003,0.014709469999999999
12.0,0.13035361770845644,-0.05230429964300931,0.06904760472502407,-0.06999999999999998,-1.2600000000000007,-9.720000000000015,-0.0032417291489872132,0.004712905821776789,0.002120146878211394,160.9375,-0.4375,172.5625,0.06329346000000005,-0.16503905999999985,-0.9841308600000004,0.014709469999999999
13.0,0.1300650711295873,-0.05129862700023989,0.06795601531085402,-0.06999999999999998,-1.2600000000000007,-9.720000000000015,0.00619927227790131,0.008904407644327,0.012774770032834549,160.9375,-0.4375,172.5625,0.06329346000000005,-0.16503905999999985,-0.9841308600000003,0.014709469999999999
14.0,0.12986100458681107,-0.05177322543048349,0.06817027596059852,-0.06999999999999998,-1.2600000000000007,-9.720000000000015,0.03236550915482367,0.015388903770960222,0.030468926235055267,160.9375,-0.4375,172.5625,0.06329346000000005,-0.16503905999999985,-0.9841308600000003,0.014709469999999999
15.0,0.13032752462591174,-0.05080476445597412,0.0659126438078051,-0.06999999999999998,-1.2600000000000007,-9.720000000000015,0.016266642463719075,-0.0034450134878562313,0.02438881682833296,160.9375,-0.4375,172.5625,0.06329346000000005,-0.16503905999999985,-0.9841308600000004,0.014709469999999999
16.0,0.13101901458756293,-0.05206822176479433,0.06567975975637264,-0.06999999999999998,-1.2600000000000007,-9.720000000000015,0.00038273848127678804,0.004336219476088427,0.024196250657944205,160.9375,-0.4375,172.5625,0.06329346000000005,-0.16503905999999985,-0.9841308600000003,0.014709469999999999
17.0,0.13090265245507177,-0.051555784269493934,0.06497697665237986,-0.06999999999999998,-1.2600000000000007,-9.720000000000015,0.006161001297090006,0.015824233729979698,0.01524832694187533,160.9375,-0.4375,172.5625,0.06329346000000005,-0.16503905999999985,-0.9841308600000003,0.014709469999999999
18.0,0.12990038254755995,-0.05244049834574027,0.06356958464922174,-0.06999999999999998,-1.2600000000000007,-9.720000000000015,0.0008510097093766449,0.0017429500103391228,0.013709207459207458,160.9375,-0.4375,172.5625,0.06329346000000005,-0.16503905999999985,-0.9841308600000004,0.014709469999999999
19.0,0.13043165839536808,-0.0517407981803143,0.0646685935032709,-0.06999999999999998,-1.2600000000000007,-9.720000000000015,0.003978447627641176,-0.004949855252274607,0.011557612414467254,160.9375,-0.4375,172.5625,0.06329346000000005,-0.16503905999999985,-0.9841308600000004,0.014709469999999999
20.0,0.1301227770885029,-0.052808364350703046,0.066145711143695,-0.06999999999999998,-1.2600000000000007,-9.720000000000015,0.003485811903150613,-0.0006061311000827132,0.004980108936762163,160.9375,-0.4375,172.5625,0.06329346000000005,-0.16503905999999985,-0.9841308600000004,0.014709469999999999
21.0,0.13003450682382134,-0.05206505893300248,0.06504939516129031,-0.06999999999999998,-1.2600000000000007,-9.720000000000015,-0.00047883064516129024,-0.005930133374689827,0.0065747130893300245,160.9375,-0.4375,172.5625,0.06329346000000005,-0.16503905999999985,-0.9841308600000004,0.014709469999999999
22.0,0.12833715880893298,-0.051729528535980146,0.06666004962779154,-0.06999999999999998,-1.2600000000000007,-9.720000000000015,0.006023185483870968,-0.0004284274193548385,0.009148185483870967,160.9375,-0.4375,172.5625,0.06329346000000005,-0.16503905999999985,-0.9841308600000004,0.014709469999999999
23.0,0.12863853955184598,-0.05081265508684863,0.06642085871118127,-0.06999999999999998,-1.2600000000000007,-9.720000000000015,0.005517420247762989,0.005348234594706369,0.010726341031280548,160.9375,-0.4375,172.5625,0.06329346000000005,-0.16503905999999985,-0.9841308600000003,0.014709469999999999
24.0,0.12993961717046393,-0.05078598014888337,0.06788040454169485,-0.06999999999999998,-1.2600000000000007,-9.720000000000015,0.007581911116437326,0.00582238032464847,0.013133021632265584,160.9375,-0.4375,172.5625,0.06329346000000005,-0.16503905999999985,-0.9841308600000003,0.014709469999999999
25.0,0.13013113767952478,-0.05255583126550868,0.06771005338747273,-0.06999999999999998,-1.2600000000000007,-9.720000000000015,0.0037437025340251147,-0.010535566583953682,0.008567373486728326,160.9375,-0.4375,172.5625,0.06329346000000005,-0.16503905999999985,-0.9841308600000004,0.014709469999999999
26.0,0.13119460109782688,-0.052868486352357316,0.06653244604857507,-0.06999999999999998,-1.2600000000000007,-9.720000000000015,0.016566330175201142,-0.007617349048800662,0.01321668922475374,160.9375,-0.4375,172.5625,0.06329346000000005,-0.16503905999999985,-0.9841308600000004,0.014709469999999999
27.0,0.1308840138356267,-0.05149011203849913,0.06594995864350701,-0.06999999999999998,-1.2600000000000007,-9.720000000000015,0.014924171930220317,-0.0019466924204827431,0.01130982592676141,160.9375,-0.4375,172.5625,0.06329346000000005,-0.16503905999999985,-0.9841308600000003,0.014709469999999999
28.0,0.13045911346717795,-0.05285649296939618,0.06428485224452965,-0.06999999999999998,-1.2600000000000007,-9.720000000000015,0.01178454442063313,-0.004073908282577638,0.021585387059177383,160.9375,-0.4375,172.5625,0.06329346000000005,-0.16503905999999985,-0.9841308600000003,0.014709469999999999
29.0,0.12996392988731692,-0.05223509196896293,0.0641235990711797,-0.06999999999999998,-1.2600000000000007,-9.720000000000015,-0.005527535580458966,0.007598616381378477,0.01361675119235603,160.9375,-0.4375,172.5625,0.06329346000000005,-0.16503905999999985,-0.9841308600000003,0.014709469999999999
30.0,0.1304534289635096,-0.052397943006813955,0.06606924370432435,-0.06999999999999998,-1.2600000000000007,-9.720000000000015,0.0031915671973635693,0.0037217647663716205,0.005753785025458412,160.9375,-0.4375,172.5625,0.06329346000000005,-0.16503905999999985,-0.9841308600000004,0.014709469999999999
31.0,0.1291748144328789,-0.053494609333318996,0.0688140390075874,-0.06999999999999998,-1.2600000000000007,-9.720000000000015,-0.007658649594133464,-0.017121946154204218,-0.0013166940586295424,160.9375,-0.4375,172.5625,0.06329346000000005,-0.16503905999999985,-0.9841308600000003,0.014709469999999999
32.0,0.1296620010813559,-0.05256411330604878,0.06775990317925801,-0.06999999999999998,-1.2600000000000007,-9.720000000000015,-0.018380074226848418,-0.009646133436456017,0.006869407474246183,160.9375,-0.4375,172.5625,0.06329346000000005,-0.16503905999999985,-0.9841308600000003,0.014709469999999999
33.0,0.1303868318061866,-0.0512160742483323,0.06574167051586405,-0.06999999999999998,-1.2600000000000007,-9.720000000000015,-0.00436472130020517,-0.0032425907425907424,0.00690089480412061,160.9375,-0.4375,172.5625,0.06329346000000005,-0.16503905999999985,-0.9841308600000004,0.014709469999999999
34.0,0.13124948349141896,-0.05130824193727419,0.06869136777201293,-0.06999999999999998,-1.2600000000000007,-9.720000000000015,-0.001830338120660701,0.003115007752104526,0.009402828354441258,160.9375,-0.4375,172.5625,0.06329346000000005,-0.16503905999999985,-0.9841308600000004,0.014709469999999999
35.0,0.12973640427672686,-0.05299407134084552,0.06866330175201141,-0.06999999999999998,-1.2600000000000007,-9.720000000000015,0.0008838383838383839,-0.00487860034231002,0.010687766534540729,160.9375,-0.4375,172.5625,0.06329346000000005,-0.16503905999999985,-0.9841308600000004,0.014709469999999999
36.0,0.1282064230572295,-0.05392372188743155,0.06680965674110835,-0.06999999999999998,-1.2600000000000007,-9.720000000000015,0.007773297491039426,-0.019484754716609553,0.003953976131395486,160.9375,-0.4375,172.5625,0.06329346000000005,-0.16503905999999985,-0.9841308600000004,0.014709469999999999
37.0,0.12761482536280924,-0.05334388393864199,0.06650355759831567,-0.06999999999999998,-1.2600000000000007,-9.720000000000015,0.007755987292277614,-0.01264292662982179,0.01248966087675765,160.9375,-0.4375,172.5625,0.06329346000000005,-0.16503905999999985,-0.9841308600000003,0.014709469999999999
38.0,0.12824263337468983,-0.05339237207684787,0.06616387745319195,-0.06999999999999998,-1.2600000000000007,-9.720000000000015,0.009099250883525076,0.00047463037634408716,0.013452139258590871,160.9375,-0.4375,172.5625,0.06329346000000005,-0.16503905999999985,-0.9841308600000003,0.014709469999999999
39.0,0.1293343303202174,-0.05347585993755348,0.06609305143780947,-0.06999999999999998,-1.2600000000000007,-9.720000000000015,0.004037592671665252,-0.010672883064516128,0.012681450773688676,160.9375,-0.4375,172.5625,0.06329346000000005,-0.16503905999999985,-0.9841308600000003,0.014709469999999999
40.0,0.13055467549923194,-0.053540321126006596,0.06627022674905737,-0.06999999999999998,-1.2600000000000007,-9.720000000000015,0.0029342787029278962,-0.009533655608504398,0.005665862615207374,160.9375,-0.4375,172.5625,0.06329346000000005,-0.16503905999999985,-0.9841308600000003,0.014709469999999999
41.0,0.13041090629800306,-0.05265977749848716,0.06845517385839965,-0.06999999999999998,-1.2600000000000007,-9.720000000000015,0.008807109109528465,-0.00875183284457478,0.006912442396313364,160.9375,-0.4375,172.5625,0.06329346000000005,-0.16503905999999985,-0.9841308600000003,0.014709469999999999
42.0,0.12993426734555763,-0.05231815854396498,0.06920927728185791,-0.06999999999999998,-1.2600000000000007,-9.720000000000015,0.014718474849523239,-0.014706110421836229,0.00808297884910788,160.9375,-0.4375,172.5625,0.06329346000000005,-0.16503905999999985,-0.9841308600000004,0.014709469999999999
43.0,0.12869391764149826,-0.05416983196015452,0.06765693580612936,-0.06999999999999998,-1.2600000000000007,-9.720000000000015,-0.010449902360184615,-0.020671725787653205,0.01187689998173869,160.9375,-0.4375,172.5625,0.06329346000000005,-0.16503905999999985,-0.9841308600000004,0.014709469999999999
44.0,0.12941868279569893,-0.054172512970900054,0.06896931630197758,-0.06999999999999998,-1.2600000000000007,-9.720000000000015,-0.00421639432476126,-0.04424301756711031,0.006242715617715618,160.9375,-0.4375,172.5625,0.06329346000000005,-0.16503905999999985,-0.9841308600000004,0.014709469999999999
45.0,0.12831149193548386,-0.053963089330024805,0.06962151054590571,-0.06999999999999998,-1.2600000000000007,-9.720000000000015,0.00038141671836228316,-0.036096948666253105,0.004648728287841191,160.9375,-0.4375,172.5625,0.06329346000000005,-0.16503905999999985,-0.9841308600000004,0.014709469999999999
46.0,0.12850806451612903,-0.05235452853598015,0.06939996898263026,-0.06999999999999998,-1.2600000000000007,-9.720000000000015,0.012051217431761787,0.0022545750620347367,0.00824674317617866,160.9375,-0.4375,172.5625,0.06329346000000005,-0.16503905999999985,-0.9841308600000004,0.014709469999999999
47.0,0.1299677701330927,-0.05568068557786299,0.06907685493270169,-0.07516129032258062,-1.2600000000000007,-9.720000000000015,-0.024603103969283405,-0.06110812490600797,-0.03708743373561922,160.9375,-0.4531402737047898,172.5625,0.06326148056695992,-0.16505481225806443,-0.9841308600000003,0.014878436177908124
48.0,0.13065944337920143,-0.05210934092788931,0.06777512876908035,-0.08290322580645157,-1.2600000000000007,-9.720000000000015,-0.027134882086999025,-0.031137092074592074,-0.07437885954771035,160.9375,-0.4775782013685239,172.5625,0.06321446641251219,-0.16507844064516128,-0.9841308600000003,0.015140476959921816
49.0,0.13128009389803744,-0.05273457120836152,0.068885082994962,-0.08677419354838703,-1.2600000000000007,-9.720000000000015,-0.03890863211049703,-0.02789795050379728,-0.057056055084028875,160.9375,-0.48979716520039096,172.5625,0.06319095933528833,-0.1650902548387097,-0.9841308600000004,0.015271497350928661
50.0,0.1325091924204827,-0.05194203746522293,0.06602562927663733,-0.08870967741935476,-1.2600000000000007,-9.720000000000015,-0.00414845571095571,-0.0035823887134371016,-0.0360194493006993,160.9375,-0.4959066471163245,172.5625,0.0631792057966764,-0.16509616193548393,-0.9841308600000004,0.015337007546432083
51.0,0.13401669298443492,-0.052410030829385654,0.06721896383186704,-0.08967741935483864,-1.2600000000000007,-9.720000000000015,0.002084038273554403,-0.0034292991954282277,-0.03029551094067223,160.9375,-0.4989613880742913,172.5625,0.06317332902737043,-0.16509911548387102,-0.9841308600000004,0.015369762644183795
52.0,0.13484491315136476,-0.05392183622828783,0.06719975186104218,-0.08999999999999991,-1.2600000000000007,-9.720000000000015,0.005462934243176179,0.005699441687344913,-0.004435483870967741,160.9375,-0.5,172.5625,0.06317138999999995,-0.16510010000000006,-0.9841308600000004,0.015380860000000022
53.0,0.13568706293706295,-0.05354479660124821,0.06810953831115121,-0.08999999999999991,-1.2600000000000007,-9.720000000000015,-0.017804381438454017,-0.009338225618467554,0.02737846830588766,160.9375,-0.5,172.5625,0.06317138999999995,-0.16510010000000006,-0.9841308600000003,0.015380860000000022
54.0,0.1349105289871419,-0.05397587224603353,0.06816767238138206,-0.08999999999999991,-1.2600000000000007,-9.720000000000015,-0.009623344565380856,-0.007778604124370253,0.013805549289420257,160.9375,-0.5,172.5625,0.06317138999999995,-0.16510010000000006,-0.9841308600000003,0.015380860000000022
55.0,0.13573318012632535,-0.05442962346792991,0.06688780641401608,-0.08999999999999991,-1.2600000000000007,-9.720000000000015,-0.013232888163583728,0.0002670254812391906,0.029467911121136926,160.9375,-0.5,172.5625,0.06317138999999995,-0.16510010000000006,-0.9841308600000004,0.015380860000000022
56.0,0.13629996616286938,-0.05404628167531392,0.06432443228814196,-0.08999999999999991,-1.2600000000000007,-9.720000000000015,-0.011157030133844649,0.0026088075231220395,0.011690669881194073,160.9375,-0.5,172.5625,0.06317138999999995,-0.16510010000000006,-0.9841308600000003,0.015380860000000022
57.0,0.1365544495826754,-0.05280725994435671,0.06665104989096923,-0.08999999999999991,-1.2600000000000007,-9.720000000000015,0.0022533707891570793,-0.009784305915858335,0.01150600491578314,160.9375,-0.5,172.5625,0.06317138999999995,-0.16510010000000006,-0.9841308600000003,0.015380860000000022
58.0,0.13631974678547262,-0.05377410895556056,0.0664877927851718,-0.08999999999999991,-1.2600000000000007,-9.720000000000015,0.010856035345702683,0.019683238048913452,0.0043783690268065275,160.9375,-0.5,172.5625,0.06317138999999995,-0.16510010000000006,-0.9841308600000004,0.015380860000000022
59.0,0.13598779983457404,-0.05306771185803443,0.06709859763892022,-0.08999999999999991,-1.2600000000000007,-9.720000000000015,0.007430304910143619,0.014839461613655163,-0.0026826500112790436,160.9375,-0.5,172.5625,0.06317138999999995,-0.16510010000000006,-0.9841308600000003,0.015380860000000022
60.0,0.13781636777201298,-0.054272182118956305,0.06627521806150838,-0.08999999999999991,-1.2600000000000007,-9.720000000000015,0.01080591115873374,0.0009262914504849992,-0.001061698717948718,160.9375,-0.5,172.5625,0.06317138999999995,-0.16510010000000006,-0.9841308600000003,0.015380860000000022
61.0,0.13674752196728004,-0.053715944897396506,0.06564552226447387,-0.08999999999999991,-1.2600000000000007,-9.720000000000015,0.019365303715102103,-0.0037094849594849592,-0.010664588827391247,160.9375,-0.5,172.5625,0.06317138999999995,-0.16510010000000006,-0.9841308600000003,0.015380860000000022
62.0,0.13662723868873067,-0.05362930863938928,0.06369545832751478,-0.08999999999999991,-1.2600000000000007,-9.720000000000015,-0.015980931870548803,0.01657051505841828,0.012565667839105336,160.9375,-0.5,172.5625,0.06317138999999995,-0.16510010000000006,-0.9841308600000003,0.015380860000000022
63.0,0.13575627598208245,-0.05293011647850356,0.06309427848137525,-0.08999999999999991,-1.2600000000000007,-9.720000000000015,-0.006288872417904675,0.024898936189258765,0.026149701552927358,160.9375,-0.5,172.5625,0.06317138999999995,-0.16510010000000006,-0.9841308600000003,0.015380860000000022
64.0,0.13609416927158863,-0.05061950594208658,0.06400315097089289,-0.08999999999999991,-1.2600000000000007,-9.720000000000015,-0.0006853697377890923,0.015824956853182658,0.030364684598555562,160.9375,-0.5,172.5625,0.06317138999999995,-0.16510010000000006,-0.9841308600000004,0.015380860000000022
65.0,0.13711599959180606,-0.05147299832783702,0.06519805642386285,-0.08999999999999991,-1.2600000000000007,-9.720000000000015,-0.013264239121093958,0.011532346461781945,0.013685519229874066,160.9375,-0.5,172.5625,0.06317138999999995,-0.16510010000000006,-0.9841308600000003,0.015380860000000022
66.0,0.13685293067147908,-0.05108852169336039,0.0638099857132115,-0.08999999999999991,-1.2600000000000007,-9.720000000000015,-0.0055520504361230155,0.0003498265847056165,0.0006103607414091284,160.9375,-0.5,172.5625,0.06317138999999995,-0.16510010000000006,-0.9841308600000003,0.015380860000000022
67.0,0.13617994304083017,-0.05207614294307841,0.06631987367471237,-0.08999999999999991,-1.2600000000000007,-9.720000000000015,-0.0004929588220918867,0.004076287455823746,-0.013659450428603656,160.9375,-0.5,172.5625,0.06317138999999995,-0.16510010000000006,-0.9841308600000004,0.015380860000000022
68.0,0.13590401768929997,-0.051470058839010444,0.06710602300924881,-0.08999999999999991,-1.2600000000000007,-9.720000000000015,0.004090312828972103,0.010781752269907512,-0.005983796949018724,160.9375,-0.5,172.5625,0.06317138999999995,-0.16510010000000006,-0.9841308600000003,0.015380860000000022
69.0,0.1358799162307227,-0.052562586383150894,0.06830595569305245,-0.08999999999999991,-1.2600000000000007,-9.720000000000015,0.00043030306387161214,0.0006723241476265674,0.00312899326256181,160.9375,-0.5,172.5625,0.06317138999999995,-0.16510010000000006,-0.9841308600000003,0.015380860000000022
70.0,0.13622238536553055,-0.052433259504832075,0.06825877527490429,-0.08999999999999991,-1.2600000000000007,-9.720000000000015,-0.016261181275042162,0.01213991611547055,0.007565652733243458,160.9375,-0.5,172.5625,0.06317138999999995,-0.16510010000000006,-0.9841308600000004,0.015380860000000022
71.0,0.13582059517543393,-0.052846257684967354,0.06964136222200737,-0.08999999999999991,-1.2600000000000007,-9.720000000000015,-0.005734050895341219,-0.006464503238696786,0.007897657897657898,160.9375,-0.5,172.5625,0.06317138999999995,-0.16510010000000006,-0.9841308600000003,0.015380860000000022
72.0,0.13628870949838695,-0.05290575911543652,0.0703268845849491,-0.08999999999999991,-1.2600000000000007,-9.720000000000015,0.00011064204612591666,-0.0346218297831201,0.0038635311820795696,160.9375,-0.5,172.5625,0.06317138999999995,-0.16510010000000006,-0.9841308600000003,0.015380860000000022
73.0,0.13652167635232149,-0.05288982970434583,0.06632913144203464,-0.08999999999999991,-1.2600000000000007,-9.720000000000015,0.001429954454148002,-0.03574627657288947,0.0074302993153799604,160.9375,-0.5,172.5625,0.06317138999999995,-0.16510010000000006,-0.9841308600000004,0.015380860000000022
74.0,0.135903160012031,-0.05162319535303406,0.06747099405970372,-0.08999999999999991,-1.2600000000000007,-9.720000000000015,0.022268356643356642,-0.03141436856154598,0.00839472187758478,160.9375,-0.5,172.5625,0.06317138999999995,-0.16510010000000006,-0.9841308600000003,0.015380860000000022
75.0,0.1338771383186706,-0.050615567899842076,0.06725658884126626,-0.08999999999999991,-1.2600000000000007,-9.720000000000015,0.011661473607038121,-0.01310172522370103,0.0010335892266335814,160.9375,-0.5,172.5625,0.06317138999999995,-0.16510010000000006,-0.9841308600000003,0.015380860000000022
76.0,0.13402801197458455,-0.050498399785698166,0.06716446255357544,-0.08999999999999991,-1.2600000000000007,-9.720000000000015,0.005754368279569892,-0.012706165642153544,0.0019067017491916686,160.9375,-0.5,172.5625,0.06317138999999995,-0.16510010000000006,-0.9841308600000004,0.015380860000000022
77.0,0.13378247189638318,-0.05160894146176402,0.06848890894052181,-0.08999999999999991,-1.2600000000000007,-9.720000000000015,0.005226470857771261,-0.020528035472591924,0.00732296307523122,160.9375,-0.5,172.5625,0.06317138999999995,-0.16510010000000006,-0.9841308600000003,0.015380860000000022
78.0,0.13440321640724864,-0.05044148996165123,0.06579222121964057,-0.08999999999999991,-1.2600000000000007,-9.720000000000015,0.01149898488608166,-0.009696981445973382,-0.003459670369952628,160.9375,-0.5,172.5625,0.06317138999999995,-0.16510010000000006,-0.9841308600000003,0.015380860000000022
79.0,0.13378356925332735,-0.050054604669524015,0.06664763328069778,-0.08999999999999991,-1.2600000000000007,-9.720000000000015,0.006070005263553651,-0.0004506036638093087,0.006554152332882172,160.9375,-0.5,172.5625,0.06317138999999995,-0.16510010000000006,-0.9841308600000004,0.015380860000000022
80.0,0.13503570522219718,-0.048682389183397234,0.06535359331528684,-0.08999999999999991,-1.2600000000000007,-9.720000000000015,0.016930784269493945,-0.03307269637284758,0.02570263447909617,160.9375,-0.5,172.5625,0.06317138999999995,-0.16510010000000006,-0.9841308600000004,0.015380860000000022
81.0,0.13522896458380335,-0.0463162643807805,0.06676930596285433,-0.08999999999999991,-1.2600000000000007,-9.720000000000015,0.005984002556583201,0.011459978193849162,0.005856173396495976,160.9375,-0.5,172.5625,0.06317138999999995,-0.16510010000000006,-0.9841308600000004,0.015380860000000022
82.0,0.1356838860064667,-0.0470975261297842,0.06619745845552297,-0.08999999999999991,-1.2600000000000007,-9.720000000000015,-0.022499812015941048,-0.017256936611775322,0.02472366343334085,160.9375,-0.5,172.5625,0.06317138999999995,-0.16509150785923757,-0.9841308600000003,0.015380860000000022
83.0,0.13440228588615688,-0.04973170915106399,0.06508233701782089,-0.08999999999999991,-1.2600000000000007,-9.720000000000015,-0.07164636438829987,0.040247387021580566,-0.03629690202270847,160.9375,-0.5,172.5625,0.06317138999999995,-0.16506429941348966,-0.9841308600000003,0.015380860000000022
84.0,0.13481032408451765,-0.050515978645010895,0.0670163546131288,-0.08999999999999991,-1.2600000000000007,-9.720000000000015,-0.006620328596135049,0.028064140160914353,0.0264467723137078,160.9375,-0.5,172.5625,0.06317138999999995,-0.16505069519061571,-0.9841308600000003,0.015380860000000022
85.0,0.1351284871042936,-0.05280017294533422,0.0674734378524701,-0.08999999999999991,-1.2600000000000007,-9.720000000000015,-0.013825052635536506,0.015559675539514248,-0.025276924016843373,160.9375,-0.5,172.5625,0.06317138999999995,-0.16504389307917874,-0.9841308600000004,0.015380860000000022
86.0,0.13438310211294086,-0.05284425520715843,0.06765483307015564,-0.08999999999999991,-1.2600000000000007,-9.720000000000015,-0.005842427062185126,-0.008969541882848335,0.005940942458079555,160.9375,-0.5,172.5625,0.06317138999999995,-0.16504049202346027,-0.9841308600000004,0.015380860000000022
87.0,0.1349970251522671,-0.05411518723212271,0.0665571330551169,-0.08999999999999991,-1.2600000000000007,-9.720000000000015,-0.0006148841078276561,0.006833044307842694,-0.019894264841341457,160.9375,-0.5,172.5625,0.06317138999999995,-0.16503905999999985,-0.9841308600000004,0.015380860000000022
88.0,0.1354310638957817,-0.05468222704714639,0.06668276985111662,-0.08999999999999991,-1.2600000000000007,-9.720000000000015,0.0025792881513647644,0.005921409739454094,0.006701205800248139,160.9375,-0.5,172.5625,0.06317138999999995,-0.16503905999999985,-0.9841308600000004,0.015380860000000022
89.0,0.13545494727047147,-0.053288694168734475,0.06803644540942927,-0.08999999999999991,-1.2600000000000007,-9.720000000000015,0.009448666253101735,0.01934175325682382,-0.015188333591811414,160.9375,-0.5,172.5625,0.06317138999999995,-0.16503905999999985,-0.9841308600000004,0.015380860000000022
90.0,0.13557723325062038,-0.05386895161290321,0.06754482009925555,-0.08999999999999991,-1.2600000000000007,-9.720000000000015,0.014964911600496277,0.0032035127171215873,0.0015276054590570723,160.9375,-0.5,172.5625,0.06317138999999995,-0.16503905999999985,-0.9841308600000004,0.015380860000000022
91.0,0.13682532543621256,-0.05271154461577848,0.06716864463941075,-0.08999999999999991,-1.2600000000000007,-9.720000000000015,0.0028431434996455153,0.0031220998143881204,0.0042862435503564535,160.9375,-0.5,172.5625,0.06317138999999995,-0.16503905999999985,-0.9841308600000004,0.015380860000000022
92.0,0.13606387239552564,-0.05296615537240537,0.0681735360293828,-0.08999999999999991,-1.2600000000000007,-9.720000000000015,0.0023823832417582415,0.004254472286226318,0.0028361661300169367,160.9375,-0.5,172.5625,0.06317138999999995,-0.16503905999999985,-0.9841308600000004,0.015380860000000022
93.0,0.1366483676493757,-0.05398055752491236,0.06841388495017527,-0.08999999999999991,-1.2600000000000007,-9.720000000000015,0.004687915411201701,-0.0020310299859190987,0.0074979721779116935,160.9375,-0.5,172.5625,0.06317138999999995,-0.16503905999999985,-0.9841308600000004,0.015380860000000022
94.0,0.13601513450707003,-0.05227765469297727,0.06731131592421916,-0.08999999999999991,-1.2600000000000007,-9.720000000000015,-0.00141350584898972,-0.014438524065540194,0.012224967013273465,160.9375,-0.5,172.5625,0.06317138999999995,-0.16503905999999985,-0.9841308600000004,0.015380860000000022
95.0,0.13512773740596323,-0.05344269910197329,0.06919435582338808,-0.08999999999999991,-1.2600000000000007,-9.720000000000015,0.0005191716885265269,0.027800579237071167,-0.013080867944779237,160.9375,-0.5,172.5625,0.06317138999999995,-0.16503905999999985,-0.9841308600000004,0.015380860000000022
96.0,0.13600906150301312,-0.05471311763952892,0.0685367186576864,-0.08999999999999991,-1.2600000000000007,-9.720000000000015,0.00784776379534444,0.00046878384832013675,-0.0022019409242191503,160.9375,-0.5,172.5625,0.06317138999999995,-0.16503905999999985,-0.9841308600000004,0.015380860000000022
97.0,0.13635970548268933,-0.0545714751198622,0.06803225840020195,-0.08999999999999991,-1.2600000000000007,-9.720000000000015,-1.7688544654270548e-05,0.01089257404781598,0.003297856517362565,160.9375,-0.5,172.5625,0.06317138999999995,-0.16503905999999985,-0.9841308600000003,0.015380860000000022
98.0,0.1372421127259837,-0.054498999208676624,0.06731838054418698,-0.08999999999999991,-1.2600000000000007,-9.720000000000015,-0.0006311340988760343,0.04039052345503958,0.008100591165107293,160.9375,-0.5,172.5625,0.06317138999999995,-0.16503905999999985,-0.9841308600000003,0.015380860000000022
99.0,0.13684065934065937,-0.054981509529896624,0.0675897113639049,-0.08999999999999991,-1.2600000000000007,-9.720000000000015,-0.0037352320618449647,0.006485584308164953,-0.012830907891391762,160.9375,-0.5,172.5625,0.06317138999999995,-0.16503905999999985,-0.9841308600000004,0.015380860000000022
100.0,0.13786733427862463,-0.054271348722961625,0.06603755921497856,-0.08999999999999991,-1.2600000000000007,-9.720000000000015,-0.008972070716022329,0.016267625743432195,-0.003807287023012829,160.9375,-0.5,172.5625,0.06317138999999995,-0.16503905999999985,-0.9841308600000004,0.015380860000000022
101.0,0.13707758773484582,-0.05466172895205153,0.06606840739905255,-0.08999999999999991,-1.2600000000000007,-9.720000000000015,-0.008688888956026052,0.008552547363031234,0.005897224974845943,160.9375,-0.5,172.5625,0.06317138999999995,-0.16503905999999985,-0.9841308600000004,0.015380860000000022
102.0,0.13670827671432512,-0.05414427507975894,0.06610709854661466,-0.08999999999999991,-1.2600000000000007,-9.720000000000015,-0.00883054977056993,-0.012444796466973888,0.008443509615384615,160.9375,-0.5,172.5625,0.06317138999999995,-0.16503905999999985,-0.9841308600000004,0.015380860000000022
103.0,0.1370554370584613,-0.05395548716516459,0.0670906949233562,-0.08999999999999991,-1.2600000000000007,-9.720000000000015,-4.468817472857295e-07,-0.008287984976493041,0.008901327027587107,160.9375,-0.5,172.5625,0.06317138999999995,-0.16503905999999985,-0.9841308600000003,0.015380860000000022
104.0,0.1361241437773696,-0.054988832292259704,0.06564266445919671,-0.08999999999999991,-1.2600000000000007,-9.720000000000015,-0.0028676338782185557,0.0012598148938874746,0.015392283008210429,160.9375,-0.5,172.5625,0.06317138999999995,-0.16503905999999985,-0.9841308600000003,0.015380860000000022
105.0,0.13743707188868481,-0.05485580727516211,0.06468121126185641,-0.08999999999999991,-1.2600000000000007,-9.720000000000015,0.007355245560890721,0.01530984696307277,0.009649266504105214,160.9375,-0.5,172.5625,0.06317138999999995,-0.16503905999999985,-0.9841308600000004,0.015380860000000022
106.0,0.1386167989716377,-0.05363634036214681,0.06361231778973714,-0.08999999999999991,-1.2600000000000007,-9.720000000000015,0.004809756775482581,-0.003937818453947486,0.00961681687488139,160.9375,-0.5,172.5625,0.06317138999999995,-0.16503905999999985,-0.9841308600000004,0.015380860000000022
107.0,0.13841442965636513,-0.05390320700804571,0.06480308669824797,-0.08999999999999991,-1.2600000000000007,-9.720000000000015,0.005030277182494924,0.003009624783818332,0.01009145424468005,160.9375,-0.5,172.5625,0.06317138999999995,-0.16503905999999985,-0.9841308600000004,0.015380860000000022
108.0,0.13787779156327545,-0.05350341191066996,0.06517524813895781,-0.08999999999999991,-1.2600000000000007,-9.720000000000015,0.003889772022332506,0.004055521091811414,0.007917183622828783,160.9375,-0.5,172.5625,0.06317138999999995,-0.16503905999999985,-0.9841308600000004,0.015380860000000022
109.0,0.13748356079404467,-0.05536460918114143,0.0642923387096774,-0.08999999999999991,-1.2600000000000007,-9.720000000000015,0.011110518765508684,0.016993641439205957,0.011193393300248138,160.9375,-0.5,172.5625,0.06317138999999995,-0.16503905999999985,-0.9841308600000004,0.015380860000000022
110.0,0.13819742555831266,-0.05518734491315135,0.0661985887096774,-0.08999999999999991,-1.2600000000000007,-9.720000000000015,0.01133587934243176,0.0009678388647642684,0.015614337779156327,160.9375,-0.5,172.5625,0.06317138999999995,-0.16503905999999985,-0.9841308600000004,0.015380860000000022
111.0,0.1379126861042184,-0.054697270471464006,0.06535918114143918,-0.08999999999999991,-1.2600000000000007,-9.720000000000015,0.0011699364143920596,0.0013424705334987596,0.010627326302729528,160.9375,-0.5,172.5625,0.06317138999999995,-0.16503905999999985,-0.9841308600000004,0.015380860000000022
112.0,0.13922805521091813,-0.05349131513647641,0.06637313895781635,-0.08999999999999991,-1.2600000000000007,-9.720000000000015,0.0015154892990074439,0.003051818393300248,0.008671293424317618,160.9375,-0.5,172.5625,0.06317138999999995,-0.16503905999999985,-0.9841308600000004,0.015380860000000022
113.0,0.1384471929280397,-0.055727512406947885,0.0671281017369727,-0.08999999999999991,-1.2600000000000007,-9.720000000000015,0.0037346851736972703,-0.010649620037220843,-0.0053354722394540945,160.9375,-0.5,172.5625,0.06317138999999995,-0.16503905999999985,-0.9841308600000004,0.015380860000000022
114.0,0.13768339019851117,-0.05584460297766749,0.06874930210918112,-0.08999999999999991,-1.2600000000000007,-9.720000000000015,-0.0004012872208436725,-0.027633568548387097,-0.00637794665012407,160.9375,-0.5,172.5625,0.06317138999999995,-0.16503905999999985,-0.9841308600000004,0.015380860000000022
115.0,0.13806529156327546,-0.05554140818858559,0.06908979528535977,-0.08999999999999991,-1.2600000000000007,-9.720000000000015,0.0006029001240694788,-0.031462275124069475,0.0004662298387096775,160.9375,-0.5,172.5625,0.06317138999999995,-0.16503905999999985,-0.9841308600000004,0.015380860000000022
116.0,0.1368578850584899,-0.05507953862893378,0.06725839561424238,-0.08999999999999991,-1.2600000000000007,-9.720000000000015,-0.0010950700844854068,0.0011504351663121845,0.004236324970951987,160.9375,-0.5,172.5625,0.06317138999999995,-0.16503905999999985,-0.9841308600000004,0.015380860000000022
117.0,0.13659507931584547,-0.05456648302414431,0.06652811995352317,-0.08999999999999991,-1.2600000000000007,-9.720000000000015,0.0023986304354247905,0.020347579168143684,0.004489295007188152,160.9375,-0.5,172.5625,0.06317138999999995,-0.16503905999999985,-0.9841308600000004,0.015380860000000022
118.0,0.136826657213754,-0.05358651384457835,0.06726708417030997,-0.08999999999999991,-1.2600000000000007,-9.720000000000015,0.0011048091693252984,-0.0008625782819331219,0.006514139981881917,160.9375,-0.5,172.5625,0.06317138999999995,-0.16503905999999985,-0.9841308600000004,0.015380860000000022
119.0,0.13756177872306907,-0.05431809051163888,0.0677298830202056,-0.08999999999999991,-1.2600000000000007,-9.720000000000015,0.008806963645673323,-0.02176631612115483,0.0069498601756666275,160.9375,-0.5,172.5625,0.06317138999999995,-0.16503905999999985,-0.9841308600000004,0.015380860000000022
120.0,0.13578833353026903,-0.05223348694316435,0.06776320453739806,-0.08999999999999991,-1.2600000000000007,-9.720000000000015,0.0028836307062113514,-0.016776458308716373,0.003847138524557879,160.9375,-0.5,172.5625,0.06317138999999995,-0.16503905999999985,-0.9841308600000004,0.015380860000000022
121.0,0.13715683957619446,-0.05394572452636968,0.06621391153649217,-0.08999999999999991,-1.2600000000000007,-9.720000000000015,0.005018044231753909,-0.01446061778723069,0.008347980424593327,160.9375,-0.5,172.5625,0.06317138999999995,-0.16503905999999985,-0.9841308600000004,0.015380860000000022
122.0,0.13605484658710468,-0.05327931387608807,0.06591588877072747,-0.08999999999999991,-1.2600000000000007,-9.720000000000015,0.011488550651857103,-0.006338559513962739,0.0030883822718500136,160.9375,-0.5,172.5625,0.06317138999999995,-0.16503905999999985,-0.9841308600000004,0.015380860000000022
123.0,0.13700954153373512,-0.05241424435779274,0.06487704320768836,-0.08999999999999991,-1.2600000000000007,-9.720000000000015,0.006256308096025838,-0.027902185739887356,0.008076547668281538,160.9375,-0.5,172.5625,0.06317138999999995,-0.16503905999999985,-0.9841308600000004,0.015380860000000022
124.0,0.13718305663870184,-0.052157455000196924,0.06532276281066604,-0.08999999999999991,-1.2600000000000007,-9.720000000000015,0.009323750566190081,-0.013759326750758204,0.013851824978337075,160.9375,-0.5,172.5625,0.06317138999999995,-0.16503905999999985,-0.9841308600000004,0.015380860000000022
125.0,0.13733594519280004,-0.05337649424947811,0.06761671639292607,-0.08999999999999991,-1.2600000000000007,-9.720000000000015,0.006197235084583874,0.0077140090811965815,0.01435457253879633,160.9375,-0.5,172.5625,0.06317138999999995,-0.16503905999999985,-0.9841308600000004,0.015380860000000022
126.0,0.1381936945006664,-0.05401167324336548,0.06839456397169716,-0.08999999999999991,-1.2600000000000005,-9.720000000000015,-0.0027348445089567623,-0.00013206527599900295,0.013736310885683283,160.9375,-0.5,172.5625,0.06317138999999995,-0.16503905999999985,-0.9841308600000004,0.015380860000000022
127.0,0.13901868347862104,-0.055139172539796874,0.06704452143994286,-0.08999999999999991,-1.2600000000000005,-9.720000000000015,0.0067857841661171535,0.019737830963117126,0.0098773249527672,160.9375,-0.5,172.5625,0.06317138999999995,-0.16503905999999985,-0.9841308600000004,0.015380860000000022
128.0,0.138272152405347,-0.055323140958937,0.0666344352837589,-0.08999999999999991,-1.2600000000000005,-9.720000000000015,0.00039922356519651045,0.019089690226526856,0.0012567037541022967,160.9375,-0.5,172.5625,0.06317138999999995,-0.16503905999999985,-0.9841308600000004,0.015380860000000022
129.0,0.13794938117726877,-0.055660546413928313,0.06600838310723844,-0.08999999999999991,-1.2600000000000007,-9.720000000000015,-0.002050132201016696,0.00956035379812695,0.004926473110656254,160.9375,-0.5,172.5625,0.06317138999999995,-0.16503905999999985,-0.9841308600000004,0.015380860000000022
130.0,0.13846104294595452,-0.05601389603574826,0.0635600228191279,-0.08999999999999991,-1.2600000000000007,-9.720000000000015,-0.01248598421465227,-0.003610021612102778,0.009674775016866588,160.9375,-0.5,172.5625,0.06317138999999995,-0.16503905999999985,-0.9841308600000004,0.015380860000000022
131.0,0.13811709795580762,-0.05631860254440897,0.06615045886013626,-0.08999999999999991,-1.2600000000000007,-9.720000000000015,-0.016648819370593565,-0.0006668734491315133,0.012186503013115916,160.9375,-0.5,172.5625,0.06317138999999995,-0.16503905999999985,-0.9841308600000004,0.015380860000000022
132.0,0.137773189176415,-0.05596327149552955,0.065967288983418,-0.08999999999999991,-1.2600000000000007,-9.720000000000015,-0.006571928295718619,-0.002465880893300248,0.013056651010280043,160.9375,-0.5,172.5625,0.06317138999999995,-0.16503905999999985,-0.9841308600000004,0.015380860000000022
133.0,0.1386086789554532,-0.054006449643546416,0.06598116310213083,-0.08999999999999991,-1.2600000000000007,-9.720000000000015,0.004747534611445902,0.014384305210918115,0.009118275877348456,160.9375,-0.5,172.5625,0.06317138999999995,-0.16503905999999985,-0.9841308600000004,0.015380860000000022
134.0,0.13853629032258066,-0.05336011166253101,0.06580676178660048,-0.08999999999999991,-1.2600000000000007,-9.720000000000015,0.005461964950372208,-0.004400589330024814,0.00794335452853598,160.9375,-0.5,172.5625,0.06317138999999995,-0.16503905999999985,-0.9841308600000004,0.015380860000000022
135.0,0.1386403535980149,-0.05319122208436723,0.06497782258064515,-0.08999999999999991,-1.2600000000000007,-9.720000000000015,0.012664295130272953,-0.003968284739454094,0.01230759537841191,160.9375,-0.5,172.5625,0.06317138999999995,-0.16503905999999985,-0.9841308600000004,0.015380860000000022
136.0,0.13871029776674942,-0.05439299007444168,0.06613810483870965,-0.08999999999999991,-1.2600000000000007,-9.720000000000015,0.0036387251861042186,-0.008568063740694788,0.008437693858560793,160.9375,-0.5,172.5625,0.06317138999999995,-0.16503905999999985,-0.9841308600000004,0.015380860000000022
137.0,0.13995998759305214,-0.05387996277915631,0.06789516129032255,-0.08999999999999991,-1.2600000000000007,-9.720000000000015,0.0002442617866004965,0.0008035437344913153,0.005006397332506203,160.9375,-0.5,172.5625,0.06317138999999995,-0.16503905999999985,-0.9841308600000004,0.015380860000000022
138.0,0.13797379032258067,-0.0556149193548387,0.0689314516129032,-0.08999999999999991,-1.2600000000000007,-9.720000000000015,0.0008820564516129033,-0.013703377016129031,0.009986139112903226,160.9375,-0.5,172.5625,0.06317138999999995,-0.16503905999999985,-0.9841308600000004,0.015380860000000022
139.0,0.13901209677419357,-0.05435018610421836,0.06612189826302728,-0.08999999999999991,-1.2600000000000007,-9.720000000000015,0.0008428000930521092,-0.011948472394540943,0.008853035825062035,160.9375,-0.5,172.5625,0.06317138999999995,-0.16503905999999985,-0.9841308600000004,0.015380860000000022
140.0,0.1379939516129033,-0.05470533498759303,0.0671083281637717,-0.08999999999999991,-1.2600000000000007,-9.720000000000015,0.011210840570719603,-0.0038951031327543427,0.007686976581885855,160.9375,-0.5,172.5625,0.06317138999999995,-0.16503905999999985,-0.9841308600000004,0.015380860000000022
141.0,0.13877136136712753,-0.05545702617275197,0.06876085731025247,-0.08999999999999991,-1.2600000000000007,-9.720000000000015,0.010308221264622474,0.007985834170309975,0.01144522480207964,160.9375,-0.5,172.5625,0.06317138999999995,-0.16503905999999985,-0.9841308600000004,0.015380860000000022
142.0,0.13992387082004026,-0.05521401246602858,0.06843513554098231,-0.08999999999999991,-1.2600000000000007,-9.720000000000015,0.003712529909606522,0.00879818616083737,0.0046985545536452795,160.9375,-0.5,172.5625,0.06317138999999995,-0.16503905999999985,-0.9841308600000004,0.015380860000000022
143.0,0.13849268137776205,-0.05394269171688526,0.06776847502855567,-0.08999999999999991,-1.2600000000000007,-9.720000000000015,0.005352988745125842,0.0038163057820315887,0.0021130121558548976,160.9375,-0.5,172.5625,0.06317138999999995,-0.16503905999999985,-0.9841308600000004,0.015380860000000022
144.0,0.13835924391468749,-0.055228169679782564,0.06850706629839692,-0.08999999999999991,-1.2600000000000007,-9.720000000000015,-0.03967772398971996,-0.014050283833549962,-0.0015877246913033204,160.9375,-0.5050403225806452,172.5625,0.06316548290322577,-0.16503905999999985,-0.9841308600000004,0.01540350201612905
145.0,0.13555204070123428,-0.05104761367664591,0.06678385145320628,-0.09414467253176921,-1.2600000000000007,-9.720000000000015,-0.00943269600023632,-0.04032372757171144,0.015713671409235925,160.9375,-0.5347782258064515,172.5625,0.06313693193548388,-0.16503905999999985,-0.9841308600000003,0.015597423080400801
146.0,0.135672263892022,-0.049720148131438435,0.06400752876156102,-0.09723362658846518,-1.2600000000000007,-9.720000000000015,0.013712467807729906,-0.03219608852169336,0.0037067519174374007,160.9375,-0.5496471774193548,172.5625,0.06312265645161293,-0.16503905999999985,-0.9841308600000003,0.015709657669232664
147.0,0.13500351295210167,-0.04766923264907134,0.06546951368523947,-0.09877810361681318,-1.2600000000000007,-9.720000000000015,0.01667793102394917,-0.009899269916911044,-0.030373671187683284,160.9375,-0.5570816532258064,172.5625,0.06311551870967747,-0.16505099352883662,-0.9841308600000002,0.015765774963648598
148.0,0.13513028470185728,-0.04822473729227761,0.0661672165200391,-0.09955034213098718,-1.2600000000000007,-9.720000000000015,0.01478112781036168,-0.0270955522971652,0.04126477730938416,160.9375,-0.5607988911290323,172.5625,0.06311194983870973,-0.1650765312805474,-0.9841308600000003,0.015793833610856563
149.0,0.13626344086021505,-0.048930840664711636,0.06716031280547408,-0.09993646138807417,-1.2600000000000007,-9.720000000000015,0.009691165689149558,-0.024285190615835776,0.03635141739980449,160.9375,-0.5625,172.5625,0.06311035000000005,-0.16508930015640277,-0.9841308600000003,0.015807155371456515
150.0,0.13598851417399804,-0.0505602394916911,0.06793255131964808,-0.0999999999999999,-1.2600000000000007,-9.720000000000015,0.019126496823069404,-0.010095918866080158,0.024712854349951123,160.9375,-0.5625,172.5625,0.06311035000000005,-0.16509568459433044,-0.9841308600000003,0.015808110000000014
151.0,0.13612475562072335,-0.05175372678396872,0.06805474095796676,-0.0999999999999999,-1.2600000000000007,-9.720000000000015,0.01099897666177908,-0.013753971163245357,0.017518939393939392,160.9375,-0.5625,172.5625,0.06311035000000007,-0.16509887681329427,-0.9841308600000004,0.015808110000000014
152.0,0.13648286055342507,-0.050784036863673956,0.06804398826979473,-0.0999999999999999,-1.2600000000000007,-9.720000000000015,0.00023123507876532043,-0.008068099575156026,0.01423403545379352,160.9375,-0.5625,172.5625,0.06311035000000007,-0.16510010000000006,-0.9841308600000004,0.015808110000000014
153.0,0.1356557447928416,-0.05145804665764342,0.06931433284457478,-0.0999999999999999,-1.2600000000000007,-9.720000000000015,-0.008657693952552822,-0.011405521561771562,0.006865001597864502,160.9375,-0.5625,172.5625,0.06311035000000007,-0.16510010000000006,-0.9841308600000004,0.015808110000000014
154.0,0.1346932382133995,-0.0505726581885856,0.06698674007444168,-0.0999999999999999,-1.2600000000000007,-9.720000000000015,-0.00038917106079404407,-0.01875096929280397,0.0049288539081885855,160.9375,-0.5625,172.5625,0.06311035000000007,-0.16510010000000006,-0.9841308600000004,0.015808110000000014
155.0,0.135511476426799,-0.05152403846153845,0.06867486042183622,-0.0999999999999999,-1.2600000000000007,-9.720000000000015,-0.008095533498759305,-0.014369765818858562,0.004725302419354839,160.9375,-0.5625,172.5625,0.06311035000000007,-0.16510010000000006,-0.9841308600000004,0.015808110000000014
156.0,0.1358807382133995,-0.05249084987593052,0.06719277295285359,-0.0999999999999999,-1.2600000000000007,-9.720000000000015,-0.011671254652605458,-0.022022332506203474,-0.005859375,160.9375,-0.5625,172.5625,0.06311035000000007,-0.16510010000000006,-0.9841308600000004,0.015808110000000014
157.0,0.13646022022332505,-0.05399232320099255,0.06717703163771711,-0.0999999999999999,-1.2600000000000007,-9.720000000000015,-0.01928941144540943,-0.016524503722084367,-0.008109588244416873,160.9375,-0.5625,172.5625,0.06311035000000007,-0.16510010000000006,-0.9841308600000004,0.015808110000000014
158.0,0.13569292803970223,-0.054424937965260545,0.06778691066997516,-0.0999999999999999,-1.2600000000000007,-9.720000000000015,-0.003421603598014888,-0.01743951612903226,-0.0031094913151364766,160.9375,-0.5625,172.5625,0.06311035000000007,-0.16510010000000006,-0.9841308600000004,0.015808110000000014
159.0,0.13641346153846157,-0.05463678660049627,0.06760685483870965,-0.0999999999999999,-1.2600000000000007,-9.720000000000015,0.004717548076923076,0.010348169975186105,0.009975961538461538,160.9375,-0.5625,172.5625,0.06311035000000007,-0.16510010000000006,-0.9841308600000004,0.015808110000000014
160.0,0.1378566579030289,-0.05612917749812911,0.06912616561306076,-0.0999999999999999,-1.2600000000000007,-9.720000000000015,0.00822376478248454,-0.00439945079562015,0.008494666735594155,160.9375,-0.5625,172.5625,0.06311035000000007,-0.16510010000000006,-0.9841308600000004,0.015808110000000014
161.0,0.13828500050576667,-0.056058998573111474,0.06994393263546489,-0.09999999999999988,-1.2600000000000007,-9.720000000000015,0.009724491598231516,-0.022255054393411248,0.006943142263202747,160.9375,-0.5625,172.5625,0.06311035000000005,-0.16510010000000006,-0.9841308600000003,0.015808110000000014
162.0,0.13807872078638211,-0.057231654993751754,0.07017613815396073,-0.0999999999999999,-1.2600000000000007,-9.720000000000015,0.011242858004450747,-0.0025175415422391215,0.012065805778003359,160.9375,-0.5625,172.5625,0.06311035000000007,-0.16510010000000006,-0.9841308600000003,0.015808110000000014
163.0,0.137318890898528,-0.05910982095861125,0.07003095772954643,-0.0999999999999999,-1.2600000000000007,-9.720000000000015,0.006459390324057662,-0.015301023321436624,0.00036952504820448456,160.9375,-0.5625,172.5625,0.06311035000000007,-0.16510010000000006,-0.9841308600000004,0.015808110000000014
164.0,0.13775447491576526,-0.05702024856863565,0.07013772607320992,-0.0999999999999999,-1.2600000000000007,-9.720000000000015,0.007491433297884911,0.003181093100447941,0.003296434748047652,160.9375,-0.5625,172.5625,0.06311035000000007,-0.16510010000000006,-0.9841308600000004,0.015808110000000014
165.0,0.13809599361212266,-0.05791585117391568,0.07029683578070672,-0.0999999999999999,-1.2600000000000007,-9.720000000000015,0.011013874118712828,0.009835012657593303,0.004513877699361571,160.9375,-0.5625,172.5625,0.06311035000000007,-0.16510010000000006,-0.9841308600000004,0.015808110000000014
166.0,0.13875237307495375,-0.05854748119264247,0.06990042931978414,-0.0999999999999999,-1.2600000000000007,-9.720000000000015,0.009309149631730277,-0.002381444720154397,0.009624739060222931,160.9375,-0.5625,172.5625,0.06311035000000007,-0.16510010000000006,-0.9841308600000004,0.015808110000000014
167.0,0.13965286147544215,-0.058575229430068126,0.06954202607428411,-0.0999999999999999,-1.2600000000000007,-9.720000000000015,0.009508793178148017,0.009634339674662255,0.006060818661625113,160.9375,-0.5625,172.5625,0.06311035000000007,-0.16510010000000006,-0.9841308600000004,0.015808110000000014
168.0,0.13792772012933308,-0.05841459884201819,0.06914796225280094,-0.09999999999999988,-1.2600000000000007,-9.720000000000015,0.002767360327844199,-0.014285143619821038,0.00565021336190691,160.9375,-0.5625,172.5625,0.06311035000000005,-0.16510010000000006,-0.9841308600000003,0.015808110000000014
169.0,0.13804078314158966,-0.05905097187758477,0.06853924167230618,-0.0999999999999999,-1.2600000000000007,-9.720000000000015,-0.004214955071809911,-0.009484383224302579,0.004205379633807053,160.9375,-0.5625,172.5625,0.06311035000000007,-0.16510010000000006,-0.9841308600000003,0.015808110000000014
170.0,0.13617782195403166,-0.058316458407184205,0.06811522326240067,-0.0999999999999999,-1.2600000000000007,-9.720000000000015,-0.011556697670608962,0.0078104886824644885,0.004569801558208816,160.9375,-0.5625,172.5625,0.06311035000000007,-0.16510010000000006,-0.9841308600000004,0.015808110000000014
171.0,0.13794002760232602,-0.058299668409547444,0.06803279773541868,-0.0999999999999999,-1.2600000000000007,-9.720000000000015,0.0005491945890131371,-0.012720065832465028,0.0035411042530498174,160.9375,-0.5625,172.5625,0.06311035000000007,-0.16510010000000006,-0.9841308600000004,0.015808110000000014
172.0,0.13665972378875607,-0.05877549332388042,0.06879078627465723,-0.0999999999999999,-1.2600000000000007,-9.720000000000015,0.0030947547076579335,-0.006210277178019114,0.003708410764862378,160.9375,-0.5625,172.5625,0.06311035000000007,-0.16510010000000006,-0.9841308600000004,0.015808110000000014
173.0,0.13742321477805353,-0.058688821930757404,0.06957623380204024,-0.0999999999999999,-1.2600000000000007,-9.720000000000015,-0.0029278181495923424,-0.006022416203867818,0.005810094922998148,160.9375,-0.5625,172.5625,0.06311035000000007,-0.16510010000000006,-0.9841308600000004,0.015808110000000014
174.0,0.13778853046594985,-0.05887542833510574,0.06807347670250896,-0.0999999999999999,-1.2600000000000007,-9.720000000000015,-0.00675237061325771,0.003006161625113238,0.0038510772381740123,160.9375,-0.5625,172.5625,0.06311035000000007,-0.16510010000000006,-0.9841308600000004,0.015808110000000014
175.0,0.13809677419354843,-0.05875031017369727,0.06971774193548386,-0.0999999999999999,-1.2600000000000007,-9.720000000000015,-0.013672844292803969,0.012695797146401986,0.002349565756823821,160.9375,-0.5625,172.5625,0.06311035000000007,-0.16510010000000006,-0.9841308600000004,0.015808110000000014
176.0,0.1383387096774194,-0.059164236972704703,0.06885887096774193,-0.0999999999999999,-1.2600000000000007,-9.720000000000015,-0.005052923387096774,0.002904970533498759,0.009564981389578165,160.9375,-0.5625,172.5625,0.06311035000000007,-0.16510010000000006,-0.9841308600000004,0.015808110000000014
177.0,0.1379708436724566,-0.05776822270471463,0.06792819478908188,-0.0999999999999999,-1.2600000000000007,-9.720000000000015,-0.002123235887096774,0.005903477822580645,0.008690679280397023,160.9375,-0.5625,172.5625,0.06311035000000007,-0.16510010000000006,-0.9841308600000004,0.015808110000000014
178.0,0.137725341191067,-0.05939066377171215,0.0693622828784119,-0.0999999999999999,-1.2600000000000007,-9.720000000000015,-0.003944052419354839,-0.0034904233870967733,0.004219331575682382,160.9375,-0.5625,172.5625,0.06311035000000007,-0.16510010000000006,-0.9841308600000004,0.015808110000000014
179.0,0.13736018920595533,-0.058984413771712145,0.07102605459057072,-0.0999999999999999,-1.2600000000000007,-9.720000000000015,-0.001297398418114144,0.01621384537841191,0.007118970998759305,160.9375,-0.5625,172.5625,0.06311035000000007,-0.16510010000000006,-0.9841308600000004,0.015808110000000014
180.0,0.13743734491315138,-0.059594292803970224,0.07009584367245658,-0.0999999999999999,-1.2600000000000007,-9.720000000000015,0.0036522952853598016,0.014692540322580643,0.007017679900744417,160.9375,-0.5625,172.5625,0.06311035000000007,-0.16510010000000006,-0.9841308600000004,0.015808110000000014
181.0,0.13731172456575685,-0.05758126550868486,0.06968315756823822,-0.0999999999999999,-1.2600000000000007,-9.720000000000015,0.011689671215880893,0.0069740617245657565,0.009200527295285359,160.9375,-0.5625,172.5625,0.06311035000000007,-0.16510010000000006,-0.9841308600000004,0.015808110000000014
182.0,0.1370826612903226,-0.057638027295285346,0.06972743486352359,-0.0999999999999999,-1.2600000000000007,-9.720000000000015,-0.014835995657568237,-0.02336625697890819,0.019093129652605456,160.9375,-0.5625,172.5625,0.06311035000000007,-0.16510010000000006,-0.9841308600000004,0.015808110000000014
183.0,0.13683475496277916,-0.05808925248138957,0.06842183622828785,-0.0999999999999999,-1.2600000000000007,-9.720000000000015,-0.00930860344292804,-0.005026752481389579,0.01798328939205955,160.9375,-0.5625,172.5625,0.06311035000000007,-0.16510010000000006,-0.9841308600000004,0.015808110000000014
184.0,0.1378300248138958,-0.05779683622828784,0.06805893300248139,-0.0999999999999999,-1.2600000000000007,-9.720000000000015,0.0012852822580645164,0.012800480769230769,0.010322968362282879,160.9375,-0.5625,172.5625,0.06311035000000007,-0.16510010000000006,-0.9841308600000004,0.015808110000000014
185.0,0.1381606699751861,-0.05722844292803969,0.06848604218362284,-0.0999999999999999,-1.2600000000000007,-9.720000000000015,0.005977628722084368,-0.01466055366004963,0.013985925868486352,160.9375,-0.5625,172.5625,0.06311035000000007,-0.16510010000000006,-0.9841308600000004,0.015808110000000014
186.0,0.13847983870967745,-0.057232087468982604,0.06909413771712158,-0.0999999999999999,-1.2600000000000007,-9.720000000000015,-0.0023616819168734487,-0.004290574596774194,0.011343149038461538,160.9375,-0.5625,172.5625,0.06311035000000007,-0.16510010000000006,-0.9841308600000004,0.015808110000000014
187.0,0.13840322580645165,-0.05736352357320097,0.07011662531017368,-0.0999999999999999,-1.2600000000000007,-9.720000000000015,-0.00355924317617866,0.012298387096774194,-0.009402140198511166,160.9375,-0.5625,172.5625,0.06311035000000007,-0.16510010000000006,-0.9841308600000004,0.015808110000000014
188.0,0.1376681141439206,-0.057830645161290314,0.07002357320099253,-0.0999999999999999,-1.2600000000000007,-9.720000000000015,0.005726581885856079,0.003466191066997518,-0.0029796060794044666,160.9375,-0.5625,172.5625,0.06311035000000007,-0.16510010000000006,-0.9841308600000004,0.015808110000000014
189.0,0.13780552109181143,-0.05984212158808931,0.07230459057071958,-0.0999999999999999,-1.2600000000000007,-9.720000000000015,0.0016691222084367248,0.002748914392059553,0.0045120580024813894,160.9375,-0.5625,172.5625,0.06311035000000007,-0.16510010000000006,-0.9841308600000004,0.015808110000000014
190.0,0.13789531637717123,-0.0598143610421836,0.06942276674937964,-0.0999999999999999,-1.2600000000000007,-9.720000000000015,-0.0018174240074441688,-0.020802962158808936,0.004458262251861042,160.9375,-0.5625,172.5625,0.06311035000000007,-0.16510010000000006,-0.9841308600000004,0.015808110000000014
191.0,0.13857079714640202,-0.060587779156327515,0.06717548076923076,-0.0999999999999999,-1.2600000000000007,-9.720000000000015,0.00421157723325062,-0.004044374224565757,0.00605759537841191,160.9375,-0.5625,172.5625,0.06311035000000007,-0.16510010000000006,-0.9841308600000004,0.015808110000000014
192.0,0.13858731389578166,-0.06017292183622827,0.06848945409429279,-0.0999999999999999,-1.2600000000000007,-9.720000000000015,0.004216423697270471,0.02174608405707196,0.020118641439205956,160.9375,-0.5625,172.5625,0.06311035000000007,-0.16510010000000006,-0.9841308600000004,0.015808110000000014
193.0,0.137811026674938,-0.05930730459057071,0.06981172456575681,-0.0999999999999999,-1.2600000000000007,-9.720000000000015,0.0028836460918114145,-0.0026582855148883384,0.0105013182382134,160.9375,-0.5625,172.5625,0.06311035000000007,-0.16510010000000006,-0.9841308600000004,0.015808110000000014
194.0,0.1389382754342432,-0.058254962779156316,0.07080303970223326,-0.0999999999999999,-1.2600000000000007,-9.720000000000015,0.003489454094292804,-0.00893687965260546,0.00707777605459057,160.9375,-0.5625,172.5625,0.06311035000000007,-0.16510010000000006,-0.9841308600000004,0.015808110000000014
195.0,0.13879758346492221,-0.05819402774644709,0.07045611042183621,-0.09999999999999988,-1.2600000000000007,-9.720000000000015,0.0027997875780133843,-0.012552694281524926,0.006393895922625761,160.9375,-0.5625,172.5625,0.06311035000000005,-0.16510010000000006,-0.9841308600000003,0.015808110000000014
196.0,0.1398144244868036,-0.058270711143694996,0.07071068548387097,-0.0999999999999999,-1.2600000000000007,-9.720000000000015,0.00729319403714565,0.004610749633431086,0.003072878482404692,160.9375,-0.5625,172.5625,0.06311035000000007,-0.16510010000000006,-0.9841308600000003,0.015808110000000014
197.0,0.139691680295511,-0.058187542296413236,0.06853156017369724,-0.0999999999999999,-1.2600000000000007,-9.720000000000015,0.012020317552071585,0.011971162657906612,0.00746826887829912,160.9375,-0.5625,172.5625,0.06311035000000007,-0.16510010000000006,-0.9841308600000004,0.015808110000000014
198.0,0.13838503834874807,-0.05816611916309495,0.06750124069478906,-0.0999999999999999,-1.2600000000000007,-9.720000000000015,0.008956324253703286,-0.004010977681592601,0.003718383431085044,160.9375,-0.5625,172.5625,0.06311035000000007,-0.16510010000000006,-0.9841308600000004,0.015808110000000014
199.0,0.13814413207759985,-0.0575129990976765,0.06791392679900743,-0.0999999999999999,-1.2600000000000007,-9.720000000000015,0.004919190352658094,-0.01336196565531243,0.0023002199413489736,160.9375,-0.5625,172.5625,0.06311035000000007,-0.16510010000000006,-0.9841308600000004,0.015808110000000014
200.0,0.13828760856079403,-0.05959227667493796,0.06879567307692308,-0.0999999999999999,-1.2600000000000007,-9.720000000000015,-0.0016032102977667495,-0.0038858948511166255,0.004082661290322581,160.9375,-0.5625,172.5625,0.06311035000000007,-0.16510010000000006,-0.9841308600000004,0.015808110000000014
201.0,0.13866199526280176,-0.06036874953003985,0.06727379878186332,-0.09999999999999988,-1.2600000000000007,-9.720000000000015,0.014160897905857584,-0.008154572242273856,0.0010638135386119257,160.9375,-0.5625,172.5625,0.06311035000000005,-0.16510010000000006,-0.9841308600000003,0.015808110000000014
202.0,0.13949725073313785,-0.059102488908940515,0.06821754455222198,-0.0999999999999999,-1.2600000000000007,-9.720000000000015,0.015253525876005716,0.012470480628242726,0.0038042392755094365,160.9375,-0.5625,172.5625,0.06311035000000007,-0.16510010000000006,-0.9841308600000003,0.015808110000000014
203.0,0.14060222338145728,-0.058774569516505,0.06851820155650801,-0.0999999999999999,-1.2600000000000007,-9.720000000000015,0.010053872119144297,-0.004527786981163997,0.0034142164119482666,160.9375,-0.5625,172.5625,0.06311035000000007,-0.16510010000000006,-0.9841308600000004,0.015808110000000014
204.0,0.1402544693210016,-0.059596496917061426,0.0694431113241597,-0.0999999999999999,-1.2600000000000007,-9.720000000000015,-0.008388318670576735,-0.002397898220730882,0.0021876351135423715,160.9375,-0.5625,172.5625,0.06311035000000007,-0.16510010000000006,-0.9841308600000004,0.015808110000000014
205.0,0.13943779607489282,-0.05826436198210391,0.06821791112113693,-0.0999999999999999,-1.2600000000000007,-9.720000000000015,0.012309019945108654,0.012121799571396346,-0.000489522238514174,160.9375,-0.5625,172.5625,0.06311035000000007,-0.16510010000000006,-0.9841308600000004,0.015808110000000014
206.0,0.14070130272952858,-0.05822797766749379,0.07062655086848635,-0.0999999999999999,-1.2600000000000007,-9.720000000000015,-0.014480265198511167,-0.008876783498759306,0.004322076612903225,160.9375,-0.5625,172.5625,0.06311035000000007,-0.16510010000000006,-0.9841308600000004,0.015808110000000014
207.0,0.13955164392059555,-0.056607785359801474,0.07032816377171215,-0.0999999999999999,-1.2600000000000007,-9.720000000000015,-0.008000058157568237,-0.020846580334987593,-0.013828415787841192,160.9375,-0.5625,172.5625,0.06311035000000007,-0.16510010000000006,-0.9841308600000004,0.015808110000000014
208.0,0.13943300248138965,-0.05817028535980148,0.07097828784119103,-0.0999999999999999,-1.2600000000000007,-9.720000000000015,-0.00010856079404466569,0.004811569478908189,0.0024678194789081896,160.9375,-0.5625,172.5625,0.06311035000000007,-0.16510010000000006,-0.9841308600000004,0.015808110000000014
209.0,0.1387512406947891,-0.057789857320099246,0.06935514888337468,-0.0999999999999999,-1.2600000000000007,-9.720000000000015,-0.0021557071960297764,0.011493874069478906,0.005754691377171215,160.9375,-0.5625,172.5625,0.06311035000000007,-0.16510010000000006,-0.9841308600000004,0.015808110000000014
210.0,0.13875279156327547,-0.05724852667493796,0.06835375310173694,-0.0999999999999999,-1.2600000000000007,-9.720000000000015,-7.754342431761795e-05,-0.00424841035980149,0.0024198394851116622,160.9375,-0.5625,172.5625,0.06311035000000007,-0.16510010000000006,-0.9841308600000004,0.015808110000000014
211.0,0.13918734491315138,-0.05801674937965261,0.06571712158808932,-0.0999999999999999,-1.2600000000000007,-9.720000000000015,0.0025763802729528535,0.0072813275434243175,0.006030939826302729,160.9375,-0.5625,172.5625,0.06311035000000007,-0.16510010000000006,-0.9841308600000004,0.015808110000000014
212.0,0.13824751861042184,-0.057313585607940434,0.06406823821339949,-0.0999999999999999,-1.2600000000000007,-9.720000000000015,-0.0027285592431761786,-0.009471929280397022,0.009056102667493796,160.9375,-0.5625,172.5625,0.06311035000000007,-0.16510010000000006,-0.9841308600000004,0.015808110000000014
213.0,0.13687562034739456,-0.056726271712158806,0.06539640198511165,-0.0999999999999999,-1.2600000000000007,-9.720000000000015,0.0005277799317617866,0.02856893610421836,-0.001310968517369727,160.9375,-0.5625,172.5625,0.06311035000000007,-0.16510010000000006,-0.9841308600000004,0.015808110000000014
214.0,0.13768603842394167,-0.05777784748853297,0.06601305314309344,-0.09999999999999988,-1.2600000000000007,-9.720000000000015,-0.00258990631344462,0.007647088714377021,0.006045376414580044,160.9375,-0.5625,172.5625,0.06311035000000005,-0.16510010000000006,-0.9841308600000003,0.015808110000000014
215.0,0.13797608372809983,-0.057006363260395515,0.06813001447477253,-0.0999999999999999,-1.2600000000000007,-9.720000000000015,0.01579489059327769,-0.0009175090702308441,0.005558600505677119,160.9375,-0.5625,172.5625,0.06311035000000007,-0.16510010000000006,-0.9841308600000003,0.015808110000000014
216.0,0.13748431977968267,-0.05796720148131439,0.06861587572373862,-0.0999999999999999,-1.2600000000000007,-9.720000000000015,0.0247088596886984,0.009683925365628995,0.00560188089799985,160.9375,-0.5625,172.5625,0.06311035000000007,-0.16510010000000006,-0.9841308600000004,0.015808110000000014
217.0,0.13799095796676447,-0.05816559515753064,0.06625020678246485,-0.0999999999999999,-1.2600000000000007,-9.720000000000015,0.01595438331829461,0.0003044607442288898,0.009575570179148809,160.9375,-0.5625,172.5625,0.06311035000000007,-0.16510010000000006,-0.9841308600000004,0.015808110000000014
218.0,0.13849256679700228,-0.059389057179379756,0.06653700175272756,-0.0999999999999999,-1.2600000000000007,-9.720000000000015,0.01201044978766753,-0.010631709800056573,0.005985111718478654,160.9375,-0.5625,172.5625,0.06311035000000007,-0.16510010000000006,-0.9841308600000004,0.015808110000000014
219.0,0.13815905879514753,-0.05987288786482335,0.06586072585568552,-0.0999999999999999,-1.2600000000000007,-9.720000000000015,-0.005317524936980583,-0.005613574653393201,0.003275001907814408,160.9375,-0.5625,172.5625,0.06311035000000007,-0.16510010000000006,-0.9841308600000004,0.015808110000000014
220.0,0.13878963330576238,-0.05999692780337941,0.06483106857300402,-0.0999999999999999,-1.2600000000000007,-9.720000000000015,-0.009149631730276893,-0.006123222655480719,0.002551301744850132,160.9375,-0.5625,172.5625,0.06311035000000007,-0.16510010000000006,-0.9841308600000004,0.015808110000000014
221.0,0.13817149159084646,-0.05818953089920831,0.0653683878845169,-0.0999999999999999,-1.2600000000000007,-9.720000000000015,0.0028383354996258225,-0.005868683288038127,-0.0022913466461853558,160.9375,-0.5625,172.5625,0.06311035000000007,-0.16510010000000006,-0.9841308600000004,0.015808110000000014
222.0,0.13806217259443068,-0.05904141557367362,0.06326732049312694,-0.0999999999999999,-1.2600000000000007,-9.720000000000015,0.007863026310606955,0.012341712946551658,0.009725914766237347,160.9375,-0.5625,172.5625,0.06311035000000007,-0.16510010000000006,-0.9841308600000004,0.015808110000000014
223.0,0.13849317617866008,-0.05911600496277915,0.06414392059553349,-0.0999999999999999,-1.2600000000000007,-9.720000000000015,-0.004633219602977669,-0.0009692928039702229,0.01029001240694789,160.9375,-0.5625,172.5625,0.06311035000000007,-0.16510010000000006,-0.9841308600000004,0.015808110000000014
224.0,0.13936197270471465,-0.05818207196029776,0.06626178660049627,-0.0999999999999999,-1.2600000000000007,-9.720000000000015,0.0035844447890818858,-0.004501395781637716,0.009665787841191067,160.9375,-0.5625,172.5625,0.06311035000000007,-0.16510010000000006,-0.9841308600000004,0.015808110000000014
225.0,0.13912639578163774,-0.05828458436724565,0.0663728287841191,-0.0999999999999999,-1.2600000000000007,-9.720000000000015,0.0029863911290322577,0.007938508064516129,0.0012736507444168735,160.9375,-0.5625,172.5625,0.06311035000000007,-0.16510010000000006,-0.9841308600000004,0.015808110000000014
226.0,0.13921189328144978,-0.05943396824949243,0.06645229904504096,-0.09999999999999988,-1.2600000000000007,-9.720000000000015,-0.0011987361596736599,0.0011142461369275884,0.005144213145725242,160.9375,-0.5625,172.5625,0.06311035000000005,-0.16510010000000006,-0.9841308600000003,0.015808110000000014
227.0,0.13844764173998048,-0.05956069535303406,0.06757323388976612,-0.0999999999999999,-1.2600000000000007,-9.720000000000015,-0.0017966870159410483,0.015469208211143696,0.005699529804872547,160.9375,-0.5625,172.5625,0.06311035000000007,-0.16510010000000006,-0.9841308600000003,0.015808110000000014
228.0,0.13690248091961804,-0.060195980430859455,0.07007569883073914,-0.0999999999999999,-1.2600000000000007,-9.720000000000015,0.0039015944572900214,0.011495460184976315,0.008727556465711706,160.9375,-0.5625,172.5625,0.06311035000000007,-0.16510010000000006,-0.9841308600000004,0.015808110000000014
229.0,0.1372576533010001,-0.05990261955786148,0.07046259352206932,-0.0999999999999999,-1.2600000000000007,-9.720000000000015,-0.004177798847657719,0.01579929646965937,0.008192242485337243,160.9375,-0.5625,172.5625,0.06311035000000007,-0.16510010000000006,-0.9841308600000004,0.015808110000000014
230.0,0.13809063651402365,-0.06021472479133769,0.06965402473870214,-0.0999999999999999,-1.2600000000000007,-9.720000000000015,-0.005098068933754418,0.01304368514549966,0.007680323708549514,160.9375,-0.5625,172.5625,0.06311035000000007,-0.16510010000000006,-0.9841308600000004,0.015808110000000014
231.0,0.13905753722084369,-0.05864841811414391,0.06988321960297766,-0.0999999999999999,-1.2600000000000007,-9.720000000000015,-0.0009605691687344913,0.012157839640198512,0.007230924317617866,160.9375,-0.5625,172.5625,0.06311035000000007,-0.16510010000000006,-0.9841308600000004,0.015808110000000014
232.0,0.13781909119106703,-0.05710584677419354,0.06909297456575682,-0.0999999999999999,-1.2600000000000007,-9.720000000000015,0.0040172340260545905,-0.0013497402295285354,0.006484568858560794,160.9375,-0.5625,172.5625,0.06311035000000007,-0.16510010000000006,-0.9841308600000004,0.015808110000000014
233.0,0.13739454094292808,-0.057984491315136465,0.06887344913151364,-0.0999999999999999,-1.2600000000000007,-9.720000000000015,-0.007562422456575683,0.003185096153846154,0.006030939826302729,160.9375,-0.5625,172.5625,0.06311035000000007,-0.16510010000000006,-0.9841308600000004,0.015808110000000014
234.0,0.1377816377171216,-0.05947611662531016,0.06855086848635236,-0.0999999999999999,-1.2600000000000007,-9.720000000000015,0.006330451302729528,-0.0016952931141439205,0.009839291253101737,160.9375,-0.5625,172.5625,0.06311035000000007,-0.16510010000000006,-0.9841308600000004,0.015808110000000014
235.0,0.13800701091023673,-0.058010184036393714,0.06896758438693923,-0.0999999999999999,-1.2600000000000007,-9.720000000000015,0.0006981139100594742,-0.0030663731709598646,0.0032749865222143444,160.9375,-0.5625,172.5625,0.06311035000000007,-0.16510010000000006,-0.9841308600000004,0.015808110000000014
236.0,0.13884469652211584,-0.058018196856906526,0.06710165819843239,-0.0999999999999999,-1.2600000000000007,-9.720000000000015,0.005264583087163733,-0.018083618890070503,0.002519792035921068,160.9375,-0.5625,172.5625,0.06311035000000007,-0.16510010000000006,-0.9841308600000004,0.015808110000000014
237.0,0.1378888495017527,-0.05891976840363936,0.06579896805703257,-0.0999999999999999,-1.2600000000000007,-9.720000000000015,-0.010410512426641459,-0.017757690338335498,0.007122178896372445,160.9375,-0.5625,172.5625,0.06311035000000007,-0.16510010000000006,-0.9841308600000004,0.015808110000000014
238.0,0.13842953641340738,-0.05738047973531844,0.0661451415967545,-0.0999999999999999,-1.2600000000000007,-9.720000000000015,-0.007430752491236361,0.010150311158375676,0.011028521209972823,160.9375,-0.5625,172.5625,0.06311035000000007,-0.16510010000000006,-0.9841308600000004,0.015808110000000014
239.0,0.13932394934814293,-0.056213813068651766,0.06706760801922093,-0.0999999999999999,-1.2600000000000007,-9.720000000000015,0.002426062960337154,-0.005253628539918863,0.02762964522037103,160.9375,-0.5625,172.5625,0.06311035000000007,-0.16510010000000006,-0.9841308600000004,0.015808110000000014
240.0,0.13794323821339954,-0.056651985111662514,0.06719416873449131,-0.0999999999999999,-1.2600000000000007,-9.720000000000015,-0.016572968362282878,-0.00802186724565757,-0.033283576302729524,160.9375,-0.5625,172.5625,0.06311035000000007,-0.16510446144913152,-0.9841308600000004,0.015803747836228302
241.0,0.13577032577637416,-0.05655961914429655,0.06906253289721032,-0.09999999999999988,-1.2600000000000007,-9.720000000000015,0.004266151355365065,0.02729264183397248,-0.00885266866869689,160.9375,-0.5625,172.5625,0.06311035000000005,-0.16513378007940432,-0.9841308600000003,0.015774424401985107
242.0,0.12462015767367277,-0.048785006105395295,0.06842129413947434,-0.07030388031790548,-1.2685273492286129,-9.720000000000017,0.009548924205031761,0.04150845994672695,-0.9429013586088116,160.29701379149134,-0.40074216923796163,172.5082690509584,0.06359612099579247,-0.1705494382912215,-0.9831634283403459,0.014817441525443228
243.0,0.09885523419736768,-0.03426827392556293,0.06759626139611288,-0.039231636553639655,-1.2797475455820488,-9.720000000000017,0.0067507503496695796,0.016360625253249623,-0.6083093353172142,159.65378440997716,-0.22592848499848747,172.43861033193082,0.06436269029865525,-0.1760393825801458,-0.9821461648153339,0.013768712081507182
244.0,0.07757898186295183,-0.02688351661538693,0.06803634409756015,-0.023164205373594024,-1.2853576437587668,-9.720000000000015,-0.0003001831378202967,0.004535771683696772,-0.2874828314303192,159.3279002695047,-0.13614972637021147,172.40378097241702,0.06477608660094053,-0.17882326903200835,-0.9816264143431502,0.013213309105269709
245.0,0.06930065718457765,-0.02697277567742052,0.06707524400907784,-0.015130489783571208,-1.2881626928471257,-9.720000000000015,-0.012991282635907668,0.018815652591228037,-0.21472466633550702,159.16495819926848,-0.09126034705607347,172.3863662926601,0.06498278475208316,-0.18021507596265424,-0.9813665391070584,0.012935743934768838
246.0,0.06377781938106991,-0.0235326695140242,0.06574624671316362,-0.011113631988559802,-1.2895652173913053,-9.720000000000015,-0.008381591389387776,0.001497692074995928,-0.10413276703496158,159.08348716415037,-0.06881565739900448,172.37765895278167,0.06508613382765449,-0.18091013136842388,-0.9812366014890125,0.01279780954802957
247.0,0.06165983068165229,-0.021498686323164512,0.06532987884980293,-0.010033206831119551,-1.290000000000001,-9.720000000000015,-0.0039059078966574225,0.0003909100861188143,-0.017200499927017956,159.0627668406072,-0.06264824478178369,172.375,0.06512262802182163,-0.18108887785578737,-0.9812018649193537,0.012758289890891821
248.0,0.061300248138957805,-0.02113213399503723,0.06525558312655086,-0.010000000000000005,-1.290000000000001,-9.720000000000015,-0.006478753101736973,-0.0021673387096774197,-0.00581963399503722,159.0625,-0.0625,172.375,0.06512451,-0.1810913099999999,-0.9812011699999988,0.012756349999999979
249.0,0.061699751861042165,-0.020635545905707205,0.0655880893300248,-0.010000000000000005,-1.290000000000001,-9.720000000000015,0.011261243796526056,-0.01783304900744417,-0.0024600651364764265,159.0625,-0.0625,172.375,0.06512451,-0.1810913099999999,-0.9812011699999988,0.012756349999999979
250.0,0.06000124069478906,-0.021141594292803982,0.06404466501240694,-0.010000000000000005,-1.290000000000001,-9.720000000000015,0.0025754109801488833,-0.005954365694789083,-0.009883878722084367,159.0625,-0.0625,172.375,0.06512451,-0.1810913099999999,-0.9812011699999988,0.012756349999999979
251.0,0.06078473945409428,-0.022853675558312667,0.06329776674937965,-0.010000000000000005,-1.290000000000001,-9.720000000000015,0.004311899038461539,-0.01169306374069479,-0.026390450527295283,159.0625,-0.0625,172.375,0.06512451,-0.1810913099999999,-0.9812011699999988,0.012756349999999979
252.0,0.05981637717121588,-0.023330024813895796,0.0635533498759305,-0.010000000000000005,-1.290000000000001,-9.720000000000015,0.005614143920595534,-0.00040322580645161307,-0.005924317617866004,159.0625,-0.0625,172.375,0.06512451,-0.1810913099999999,-0.9812011699999988,0.012756349999999979
253.0,0.060600496277915625,-0.02403473945409431,0.06328039702233249,-0.010000000000000005,-1.290000000000001,-9.720000000000015,0.008405707196029778,0.00880893300248139,0.0030397022332506215,159.0625,-0.0625,172.375,0.06512451,-0.1810913099999999,-0.9812011699999988,0.012756349999999979
254.0,0.060823821339950374,-0.023285359801488846,0.06551364764267989,-0.010000000000000005,-1.290000000000001,-9.720000000000015,0.009212158808933002,-0.006978908188585608,0.0014888337468982632,159.0625,-0.0625,172.375,0.06512451,-0.1810913099999999,-0.9812011699999988,0.012756349999999979
255.0,0.06123076923076923,-0.023439205955335003,0.06604962779156326,-0.010000000000000005,-1.290000000000001,-9.720000000000015,0.010173697270471464,-0.0035980148883374688,-0.011817617866004963,159.0625,-0.0625,172.375,0.06512451,-0.1810913099999999,-0.9812011699999988,0.012756349999999979
256.0,0.06074697345665086,-0.021100233100233113,0.06720550417324611,-0.010000000000000005,-1.290000000000001,-9.720000000000015,0.0049937965260545905,-0.0005423340100759455,-0.01843841642228739,159.0625,-0.0625,172.375,0.06512451,-0.1810913099999999,-0.9812011699999988,0.012756349999999979
257.0,0.05966505000375966,-0.02105507932927289,0.06466974960523347,-0.010000000000000005,-1.290000000000001,-9.720000000000015,-0.0011398883374689824,-0.0059861173772464095,-0.037173612677644935,159.0625,-0.0625,172.375,0.06512451,-0.1810913099999999,-0.9812011699999988,0.012756349999999979
258.0,0.05957197909617262,-0.022120591773817595,0.06363512294157454,-0.010000000000000005,-1.290000000000001,-9.720000000000015,0.010177574441687345,0.012112400368448756,-0.05897142172343785,159.0625,-0.0625,172.375,0.06512451,-0.1810913099999999,-0.9812011699999988,0.012756349999999979
259.0,0.0596892153545379,-0.02054416685465074,0.06224932325738776,-0.010000000000000005,-1.290000000000001,-9.720000000000015,0.004918191687344913,-0.005482261354237161,-0.03990754709000677,159.0625,-0.0625,172.375,0.06512451,-0.1810913099999999,-0.9812011699999988,0.012756349999999979
260.0,0.06029622058049475,-0.019738584668020163,0.06411721745995938,-0.010000000000000005,-1.290000000000001,-9.720000000000015,0.007747557382133995,0.014132318454395068,-0.010121267341529436,159.0625,-0.0625,172.375,0.06512451,-0.1810913099999999,-0.9812011699999988,0.012756349999999979
261.0,0.060627093672456556,-0.02109607630272954,0.06482986972704713,-0.010000000000000005,-1.290000000000001,-9.720000000000015,-0.017799608405707195,0.01963641826923077,-0.018761146867245657,159.0625,-0.0625,172.375,0.06512451,-0.1810913099999999,-0.9812011699999988,0.012756349999999979
262.0,0.05963241597112563,-0.02139061207609596,0.0667589292428002,-0.010000000000000005,-1.290000000000001,-9.720000000000015,-0.006834512933303255,0.002660091924204828,-0.0060704752237010304,159.0625,-0.0625,172.375,0.06512451,-0.1810913099999999,-0.9812011699999988,0.012756349999999979
263.0,0.0598236521542973,-0.021894418753289735,0.06568332205428978,-0.010000000000000005,-1.290000000000001,-9.720000000000015,0.0006403794458229939,-0.021144858166027517,-0.017908066395969622,159.0625,-0.0625,172.375,0.06512451000000001,-0.1810913099999999,-0.9812011699999988,0.012756349999999979
264.0,0.061634737574253695,-0.021781350146269512,0.06651092724479821,-0.010000000000000005,-1.290000000000001,-9.720000000000015,0.0039044191135925,-0.005079892945316331,0.016973287689013496,159.0625,-0.0625,172.375,0.06512451,-0.1810913099999999,-0.9812011699999988,0.012756349999999979
265.0,0.06095888318670576,-0.021061966147651642,0.06581753595866498,-0.010000000000000005,-1.290000000000001,-9.720000000000015,0.006669199556044314,-0.0001346904383698732,-0.00891457053251408,159.0625,-0.0625,172.375,0.06512451000000001,-0.1810913099999999,-0.9812011699999988,0.012756349999999979
266.0,0.06102015189111962,-0.021525438718987117,0.06480315383541188,-0.010000000000000005,-1.290000000000001,-9.720000000000015,0.005997004787327368,-0.006416455408390892,-0.012949259521840166,159.0625,-0.0625,172.375,0.06512451,-0.1810913099999999,-0.9812011699999988,0.012756349999999979
267.0,0.06045266561395593,-0.02089464657206594,0.06464685851782626,-0.010000000000000005,-1.290000000000001,-9.720000000000015,0.004426241321402612,0.003968768686510622,-0.027890948657077686,159.0625,-0.0625,172.375,0.06512451,-0.1810913099999999,-0.9812011699999988,0.012756349999999979
268.0,0.06125859087149409,-0.020567031534773482,0.06510867626996658,-0.010000000000000005,-1.290000000000001,-9.720000000000015,0.004060768980123818,0.010612147708921903,0.016831510783123685,159.0625,-0.0625,172.375,0.06512451,-0.1810913099999999,-0.9812011699999988,0.012756349999999979
269.0,0.06121076772689674,-0.02121076772689677,0.06347138882622752,-0.010000000000000005,-1.290000000000001,-9.720000000000015,0.003407211068501391,0.015071621926460636,-0.01670191367772013,159.0625,-0.0625,172.375,0.06512451,-0.1810913099999999,-0.9812011699999988,0.012756349999999979
270.0,0.061304308594631166,-0.023572148281825717,0.0628256259869163,-0.010000000000000005,-1.290000000000001,-9.720000000000015,0.007415971125648545,0.011842995713963456,-0.010748928490863976,159.0625,-0.0625,172.375,0.06512451,-0.1810913099999999,-0.9812011699999988,0.012756349999999979
271.0,0.061279945860591004,-0.02175381607639673,0.06449593954432663,-0.010000000000000005,-1.290000000000001,-9.720000000000015,0.02027901533949921,-0.02715852695691405,0.007001466275659824,159.0625,-0.0625,172.375,0.06512451,-0.1810913099999999,-0.9812011699999988,0.012756349999999979
272.0,0.06064245431987366,-0.021904203323558174,0.06352340401533949,-0.010000000000000005,-1.290000000000001,-9.720000000000015,0.008107869952628017,0.020446791112113696,0.006648996165125197,159.0625,-0.0625,172.375,0.06512451,-0.1810913099999999,-0.9812011699999988,0.012756349999999979
273.0,0.05942875404165726,-0.0225893676216257,0.06292359387923901,-0.010000000000000005,-1.290000000000001,-9.720000000000015,0.011323278535980148,0.0036213954056696016,0.007266053838634484,159.0625,-0.0625,172.375,0.06512451,-0.1810913099999999,-0.9812011699999988,0.012756349999999979
274.0,0.05993273930370703,-0.02237656966689226,0.06532035773366417,-0.010000000000000005,-1.290000000000001,-9.720000000000015,0.008592780707196029,-0.008921312222723514,0.009355731633957441,159.0625,-0.0625,172.375,0.06512451,-0.1810913099999999,-0.9812011699999988,0.012756349999999979
275.0,0.059541149710504546,-0.02278896909542072,0.06544610262049777,-0.010000000000000005,-1.290000000000001,-9.720000000000015,0.02225826718644259,-0.003590054938341229,-0.0017829113091209856,159.0625,-0.0625,172.375,0.06512451,-0.1810913099999999,-0.9812011699999988,0.012756349999999979
276.0,0.05990681630197758,-0.022332900969997755,0.06653483344612376,-0.010000000000000005,-1.290000000000001,-9.720000000000015,-0.007474716144070982,-0.0007554609369125498,-0.012999685126701256,159.0625,-0.0625,172.375,0.06512451,-0.1810913099999999,-0.9812011699999988,0.012756349999999979
277.0,0.0593975768854801,-0.02303989961651253,0.06576617602827278,-0.010000000000000005,-1.290000000000001,-9.720000000000015,-0.0006976558387848707,-0.003432941386570419,-0.0016146068313407022,159.0625,-0.0625,172.375,0.06512451,-0.1810913099999999,-0.9812011699999988,0.012756349999999979
278.0,0.05996760564704111,-0.021307339837581783,0.06308592281374538,-0.010000000000000005,-1.290000000000001,-9.720000000000015,-0.01368277220091736,0.0035224100496277916,0.0020641530848184075,159.0625,-0.0625,172.375,0.06512451,-0.1810913099999999,-0.9812011699999988,0.012756349999999979
279.0,0.059817549721783575,-0.021015952797202808,0.06300946264756749,-0.010000000000000005,-1.290000000000001,-9.720000000000015,1.345260921873856e-05,-0.020245618796526053,-0.013018791943943155,159.0625,-0.0625,172.375,0.06512451,-0.1810913099999999,-0.9812011699999988,0.012756349999999979
280.0,0.061430060530866956,-0.021725524475524484,0.06062248101361004,-0.010000000000000005,-1.290000000000001,-9.720000000000015,0.003906191254981578,0.005726581885856079,0.001635813782991202,159.0625,-0.0625,172.375,0.06512451,-0.1810913099999999,-0.9812011699999988,0.012756349999999979
281.0,0.06039733720580494,-0.02161545040980526,0.062144085081585074,-0.010000000000000005,-1.290000000000001,-9.720000000000015,0.0010519470448905935,0.021436115967365967,0.005094544232649071,159.0625,-0.0625,172.375,0.06512451,-0.1810913099999999,-0.9812011699999988,0.012756349999999979
282.0,0.05940958671704639,-0.021312687984058963,0.06010554130009774,-0.010000000000000005,-1.290000000000001,-9.720000000000015,-0.007631594715768103,0.005739770142491918,0.006424443332205429,159.0625,-0.0625,172.375,0.06512451,-0.1810913099999999,-0.9812011699999988,0.012756349999999979
283.0,0.06032284382284381,-0.020739585683134082,0.060279814271749735,-0.010000000000000005,-1.290000000000001,-9.720000000000015,-0.008782615234228137,-0.015371691480562446,0.0036064741709902997,159.0625,-0.0625,172.375,0.06512451,-0.1810913099999999,-0.9812011699999988,0.012756349999999979
284.0,0.061119238288593114,-0.021945475223701043,0.0599314704113091,-0.010000000000000005,-1.290000000000001,-9.720000000000015,-0.006097262952101661,0.0009524917287014071,0.006207703586735845,159.0625,-0.0625,172.375,0.06512451,-0.1810913099999999,-0.9812011699999988,0.012756349999999979
285.0,0.06067376306489208,-0.02230400312053539,0.060313129746597464,-0.010000000000000005,-1.290000000000001,-9.720000000000015,-0.0052043386720806075,0.027701742142266336,0.008400067674261224,159.0625,-0.0625,172.375,0.06512451,-0.1810913099999999,-0.9812011699999988,0.012756349999999979
286.0,0.06042485807203548,-0.02214418142341531,0.060955685107902835,-0.010000000000000005,-1.290000000000001,-9.720000000000015,0.0028199958643507026,0.01473674594894353,0.009454188284833446,159.0625,-0.0625,172.375,0.06512451,-0.1810913099999999,-0.9812011699999988,0.012756349999999979
287.0,0.061349293179938334,-0.020498618317166716,0.06153782239266108,-0.010000000000000005,-1.290000000000001,-9.720000000000015,-0.0013156534325889167,-0.009843843992029474,0.0055936419091661025,159.0625,-0.0625,172.375,0.06512451,-0.1810913099999999,-0.9812011699999988,0.012756349999999979
288.0,0.06033747838183322,-0.022152572561846766,0.06250847808105871,-0.010000000000000005,-1.290000000000001,-9.720000000000015,0.0009990177832919767,-0.010312129906383938,0.007248048490488006,159.0625,-0.0625,172.375,0.06512451,-0.1810913099999999,-0.9812011699999988,0.012756349999999979
289.0,0.06109181611399353,-0.02245593888638245,0.061259201819685666,-0.010000000000000005,-1.290000000000001,-9.720000000000015,0.003523702440033085,0.0040250764860139876,0.006477622260132341,159.0625,-0.0625,172.375,0.06512451,-0.1810913099999999,-0.9812011699999988,0.012756349999999979
290.0,0.0606996766674186,-0.023567260696292967,0.06141356492969394,-0.010000000000000005,-1.290000000000001,-9.720000000000015,0.009269023986765922,-0.01671977216332055,0.013487386269644335,159.0625,-0.0625,172.375,0.06512451,-0.1810913099999999,-0.9812011699999988,0.012756349999999979
291.0,0.06082382133995036,-0.022704714640198527,0.06314143920595533,-0.010000000000000005,-1.290000000000001,-9.720000000000015,-0.0019851116625310174,-0.027760545905707194,0.01054590570719603,159.0625,-0.0625,172.375,0.06512451,-0.1810913099999999,-0.9812011699999988,0.012756349999999979
292.0,0.06077419354838706,-0.023593052109181157,0.0630471464019851,-0.010000000000000005,-1.290000000000001,-9.720000000000015,-0.00040322580645161307,-0.005893300248138955,0.016160049627791565,159.0625,-0.0625,172.375,0.06512451,-0.1810913099999999,-0.9812011699999988,0.012756349999999979
293.0,0.060317617866004924,-0.023801488833746914,0.06416873449131512,-0.010000000000000005,-1.290000000000001,-9.720000000000015,-0.0017369727047146402,-0.0007754342431761777,0.013399503722084368,159.0625,-0.0625,172.375,0.06512451,-0.1810913099999999,-0.9812011699999988,0.012756349999999979
294.0,0.06100248138957814,-0.022888337468982646,0.062481389578163765,-0.010000000000000005,-1.290000000000001,-9.720000000000015,0.0035049627791563275,0.022146401985111665,0.012562034739454095,159.0625,-0.0625,172.375,0.06512451,-0.1810913099999999,-0.9812011699999988,0.012756349999999979
295.0,0.061544665012406935,-0.02370843672456577,0.06387717121588088,-0.010000000000000005,-1.290000000000001,-9.720000000000015,0.006056141439205955,0.009615384615384616,0.013515818858560794,159.0625,-0.0625,172.375,0.06512451,-0.1810913099999999,-0.9812011699999988,0.012756349999999979
296.0,0.061630893300248124,-0.021903846153846166,0.06202047146401984,-0.010000000000000005,-1.290000000000001,-9.720000000000015,-0.007192152605459058,0.02873759305210918,0.00018222704714640232,159.0625,-0.0625,172.375,0.06512451,-0.1810913099999999,-0.9812011699999988,0.012756349999999979
297.0,0.05990186202686203,-0.022520949033045818,0.06235581846468942,-0.010000000000000005,-1.290000000000001,-9.720000000000015,-0.00258751944739848,0.031545280436409466,0.006406348467840403,159.0625,-0.0625,172.375,0.06512451,-0.1810913099999999,-0.9812011699999988,0.012756349999999979
298.0,0.060579023351200766,-0.02299458986354149,0.06429979809616905,-0.010000000000000005,-1.290000000000001,-9.720000000000015,-0.0027135093289327164,0.014733088372201275,0.00010002738077334811,159.0625,-0.0625,172.375,0.06512451,-0.1810913099999999,-0.9812011699999988,0.012756349999999979
299.0,0.06121506998825546,-0.02265610386477323,0.06459903056173216,-0.010000000000000005,-1.290000000000001,-9.720000000000015,-0.0005037769969725616,-0.007738914870971324,0.0028415769658209173,159.0625,-0.0625,172.375,0.06512451,-0.1810913099999999,-0.9812011699999988,0.012756349999999979
300.0,0.05992961160703095,-0.02141625757754791,0.06471634995828543,-0.010000000000000005,-1.290000000000001,-9.720000000000015,-0.0014017120871959582,0.00022580466128853133,-0.007384025025154057,159.0625,-0.0625,172.375,0.06512451,-0.1810913099999999,-0.9812011699999988,0.012756349999999979
301.0,0.060797725571919106,-0.02242607750672268,0.06157119851474688,-0.010000000000000005,-1.290000000000001,-9.720000000000015,0.0064674460843815685,0.009647923760826986,0.008239805669241153,159.0625,-0.0625,172.375,0.06512451,-0.1810913099999999,-0.9812011699999988,0.012756349999999979
302.0,0.06018881118881117,-0.022035284607865267,0.0612185032709226,-0.010000000000000005,-1.290000000000001,-9.720000000000015,0.00022405350026317777,-0.008127020828633733,0.011852336171892623,159.0625,-0.0625,172.375,0.06512451,-0.1810913099999999,-0.9812011699999988,0.012756349999999979
303.0,0.05975723738626963,-0.021596670802315976,0.061700123129558596,-0.010000000000000005,-1.290000000000001,-9.720000000000015,0.006113182852094143,-0.027854302955109406,0.013958256964809384,159.0625,-0.0625,172.375,0.06512451,-0.1810913099999999,-0.9812011699999988,0.012756349999999979
304.0,0.05992824648469809,-0.020999327956989257,0.061328969753364895,-0.010000000000000005,-1.290000000000001,-9.720000000000015,0.002033018225054515,-0.017943900857207307,-0.0035357598550642914,159.0625,-0.0625,172.375,0.06512451,-0.1810913099999999,-0.9812011699999988,0.012756349999999979
305.0,0.06125475599669147,-0.022638544251447488,0.06257147153921346,-0.010000000000000005,-1.290000000000001,-9.720000000000015,5.5455297390781316e-05,0.01968616061357997,-1.127904353710827e-05,159.0625,-0.0625,172.375,0.06512451,-0.1810913099999999,-0.9812011699999988,0.012756349999999979
306.0,0.06052109181141438,-0.02182133995037222,0.061389578163771684,-0.010000000000000005,-1.290000000000001,-9.720000000000015,-0.00018610421836228288,0.007040942928039703,-0.0013647642679900747,159.0625,-0.0625,172.375,0.06512451,-0.1810913099999999,-0.9812011699999988,0.012756349999999979
307.0,0.06018858560794042,-0.021280397022332517,0.061473945409429256,-0.010000000000000005,-1.290000000000001,-9.720000000000015,-0.0024813895781637717,0.014330024813895783,0.006513647642679901,159.0625,-0.0625,172.375,0.06512451,-0.1810913099999999,-0.9812011699999988,0.012756349999999979
308.0,0.0613746898263027,-0.02117617866004964,0.06284367245657567,-0.010000000000000005,-1.290000000000001,-9.720000000000015,0.002543424317617866,0.01436104218362283,0.005986352357320099,159.0625,-0.0625,172.375,0.06512451,-0.1810913099999999,-0.9812011699999988,0.012756349999999979
309.0,0.060846153846153835,-0.02114516129032259,0.06390446650124068,-0.010000000000000005,-1.290000000000001,-9.720000000000015,-0.0062577543424317626,-0.003264578163771712,0.00936724565756824,159.0625,-0.0625,172.375,0.06512451,-0.1810913099999999,-0.9812011699999988,0.012756349999999979
310.0,0.05879528535980148,-0.022728908188585622,0.06331947890818856,-0.010000000000000005,-1.290000000000001,-9.720000000000015,0.000872363523573201,0.003919820099255584,0.001659429280397022,159.0625,-0.0625,172.375,0.06512451,-0.1810913099999999,-0.9812011699999988,0.012756349999999979
311.0,0.06011476426799007,-0.021267679900744428,0.06213368486352355,-0.010000000000000005,-1.290000000000001,-9.720000000000015,-0.003534041563275434,-0.008384382754342432,0.0058235111662531015,159.0625,-0.0625,172.375,0.06512451,-0.1810913099999999,-0.9812011699999988,0.012756349999999979
312.0,0.06030179900744416,-0.021508529776674952,0.06136460918114142,-0.010000000000000005,-1.290000000000001,-9.720000000000015,-0.005217703163771712,-0.019134809243176176,0.007215415632754341,159.0625,-0.0625,172.375,0.06512451,-0.1810913099999999,-0.9812011699999988,0.012756349999999979
313.0,0.06120601642980675,-0.021675311583577724,0.06092811254605608,-0.010000000000000005,-1.290000000000001,-9.720000000000015,-0.004687955273892774,-0.018566671483758176,0.010357275453041583,159.0625,-0.0625,172.375,0.06512451,-0.1810913099999999,-0.9812011699999988,0.012756349999999979
314.0,0.060915585758327694,-0.022408103992781425,0.06141818933754418,-0.010000000000000005,-1.290000000000001,-9.720000000000015,0.00632901204977818,0.006928328727723889,0.011937516448605159,159.0625,-0.0625,172.375,0.06512451,-0.1810913099999999,-0.9812011699999988,0.012756349999999979
315.0,0.060179719697864856,-0.02392003135753137,0.06353181316890993,-0.010000000000000005,-1.290000000000001,-9.720000000000015,0.015841255798413056,0.011455075782192719,0.010670105264359298,159.0625,-0.0625,172.375,0.06512451,-0.1810913099999999,-0.9812011699999988,0.012756349999999979
316.0,0.06125859434024756,-0.027044382924423262,0.06373612990951699,-0.010000000000000005,-1.290000000000001,-9.720000000000015,0.0065558636312164536,-0.008835117195752275,-0.007226982107274447,159.0625,-0.0625,172.375,0.06512451,-0.1810913099999999,-0.9812011699999988,0.012756349999999979
317.0,0.0622098260162776,-0.0289733778766037,0.06439892723763689,-0.010000000000000005,-1.290000000000001,-9.720000000000015,0.001899355125161577,-0.003960779364005171,-0.015169642185771218,159.0625,-0.0625,172.375,0.06512451,-0.1810913099999999,-0.9812011699999988,0.012756349999999979
318.0,0.0617059356414195,-0.02818937335066369,0.06361896884477528,-0.010000000000000005,-1.290000000000001,-9.720000000000015,0.010440052778762457,-0.0031942967426838395,-0.006806097128677775,159.0625,-0.0625,172.375,0.06512451,-0.1810913099999999,-0.9812011699999988,0.012756349999999979
319.0,0.062214010004332576,-0.028238607270865353,0.06395464571271021,-0.010000000000000005,-1.290000000000001,-9.720000000000015,0.00596444326283036,-0.01167003919020048,0.0029322492024104916,159.0625,-0.0625,172.375,0.06512451,-0.1810913099999999,-0.9812011699999988,0.012756349999999979
320.0,0.0632140198511166,-0.02846774193548389,0.06237158808933001,-0.010000000000000005,-1.290000000000001,-9.720000000000015,-0.002458126550868486,0.005501705955334987,0.00837856699751861,159.0625,-0.0625,172.375,0.06512451,-0.1810913099999999,-0.9812011699999988,0.012756349999999979
321.0,0.06274280960974507,-0.028688942777652472,0.061749370253402484,-0.010000000000000005,-1.290000000000001,-9.720000000000015,-0.0026488128806677193,0.023743972761109858,0.002133207853973983,159.0625,-0.0625,172.375,0.06512451,-0.1810913099999999,-0.9812011699999988,0.012756349999999979
322.0,0.06164435765847055,-0.02788293292728778,0.0625694742085871,-0.010000000000000005,-1.290000000000001,-9.720000000000015,-0.0032940094180013532,0.018928437993458155,0.006463626259493194,159.0625,-0.0625,172.375,0.06512451,-0.1810913099999999,-0.9812011699999988,0.012756349999999979
323.0,0.06151696791112113,-0.029462558275058292,0.061557689957891557,-0.010000000000000005,-1.290000000000001,-9.720000000000015,4.3441941123392724e-05,0.008518189220054139,0.004689629506917813,159.0625,-0.0625,172.375,0.06512451,-0.1810913099999999,-0.9812011699999988,0.012756349999999979
324.0,0.06192531863297991,-0.030003456556883995,0.061839832882171576,-0.010000000000000005,-1.290000000000001,-9.720000000000015,0.012591025406045567,0.0050623960213173926,0.006172309713136326,159.0625,-0.0625,172.375,0.06512451,-0.1810913099999999,-0.9812011699999988,0.012756349999999979
325.0,0.06202616738100608,-0.03163731295586136,0.061791892247537394,-0.010000000000000005,-1.290000000000001,-9.720000000000015,0.02106995826753891,0.00922537643807805,0.018490640743664938,159.0625,-0.0625,172.375,0.06512451,-0.1810913099999999,-0.9812011699999988,0.012756349999999979
326.0,0.06191484322129483,-0.030757561658771353,0.06267502725768853,-0.010000000000000005,-1.290000000000001,-9.720000000000015,-0.0006606464771787366,-0.003360185681254229,0.02056313562109933,159.0625,-0.0625,172.375,0.06512451,-0.1810913099999999,-0.9812011699999988,0.012756349999999979
327.0,0.05570540548161514,-0.028649950184224393,0.061040134596586186,-0.010000000000000005,-1.290000000000001,-9.720000000000015,-0.01639635146439582,0.016244554336792238,0.010124057729904504,159.0625,-0.0625,172.375,0.06512451,-0.1810913099999999,-0.9812011699999988,0.012756349999999979
328.0,0.05012813698398375,-0.024148796432062573,0.06170120873749904,-0.010000000000000005,-1.290000000000001,-9.720000000000015,0.014568573647454697,0.027011855332167833,0.03776984524212346,159.0625,-0.0625,172.375,0.06512451,-0.1810913099999999,-0.9812011699999988,0.012756349999999979
329.0,0.047085819422512956,-0.022143760809083403,0.062324006974208576,-0.010000000000000005,-1.290000000000001,-9.720000000000015,-0.014945716665726746,-0.004375828304759756,0.030669584531731707,159.0625,-0.0625,172.375,0.06512451,-0.1810913099999999,-0.9812011699999988,0.012756349999999979
330.0,0.046572143582224224,-0.020940832017444934,0.0625052494548462,-0.010000000000000005,-1.290000000000001,-9.720000000000015,-0.004905444018347243,0.002127862057297541,0.020894898112640045,159.0625,-0.0625,172.375,0.06512451,-0.1810913099999999,-0.9812011699999988,0.012756349999999979
331.0,0.04587213089330024,-0.020152760545905715,0.06262569789081884,-0.010000000000000005,-1.290000000000001,-9.720000000000015,0.003357630272952854,0.0052632599255583125,0.009599875930521092,159.0625,-0.0625,172.375,0.06512451,-0.1810913099999999,-0.9812011699999988,0.012756349999999979
332.0,0.04523883374689826,-0.020129342431761798,0.06417897022332505,-0.010000000000000005,-1.290000000000001,-9.720000000000015,0.006649348635235732,-0.0053795750620347395,0.004799937965260546,159.0625,-0.0625,172.375,0.06512451,-0.1810913099999999,-0.9812011699999988,0.012756349999999979
333.0,0.04608591811414391,-0.019500155086848645,0.06439097394540942,-0.010000000000000005,-1.290000000000001,-9.720000000000015,0.0010991780397022334,-0.022432343362282878,0.005912686104218362,159.0625,-0.0625,172.375,0.06512451,-0.1810913099999999,-0.9812011699999988,0.012756349999999979
334.0,0.04566826923076922,-0.02013965570719604,0.06333940756823819,-0.010000000000000005,-1.290000000000001,-9.720000000000015,0.0037133607320099255,-0.0116504148573201,-0.002874922456575683,159.0625,-0.0625,172.375,0.06512451,-0.1810913099999999,-0.9812011699999988,0.012756349999999979
335.0,0.04522828784119107,-0.020309243176178673,0.06323976426799006,-0.010000000000000005,-1.290000000000001,-9.720000000000015,0.005794432382133995,0.0020975496277915633,0.006942075062034739,159.0625,-0.0625,172.375,0.06512451,-0.1810913099999999,-0.9812011699999988,0.012756349999999979
336.0,0.04421588089330024,-0.019837003722084377,0.06246231389578162,-0.010000000000000005,-1.290000000000001,-9.720000000000015,-0.011890314826302728,0.0029408343672456573,0.004494610732009925,159.0625,-0.0625,172.375,0.06512451,-0.1810913099999999,-0.9812011699999988,0.012756349999999979
337.0,0.044889578163771704,-0.0213428194789082,0.06288872518610421,-0.010000000000000005,-1.290000000000001,-9.720000000000015,-0.004595901830024813,-0.02261457040942928,0.009195196184863523,159.0625,-0.0625,172.375,0.06512451,-0.1810913099999999,-0.9812011699999988,0.012756349999999979
338.0,0.0457209987593052,-0.021011631513647655,0.06241966501240693,-0.010000000000000005,-1.290000000000001,-9.720000000000015,-0.0022506978908188586,-0.0011321339950372197,0.003951806761786601,159.0625,-0.0625,172.375,0.06512451,-0.1810913099999999,-0.9812011699999988,0.012756349999999979
339.0,0.04632451923076922,-0.02089663461538463,0.06335003101736972,-0.010000000000000005,-1.290000000000001,-9.720000000000015,0.0013172689205955335,0.0014810794044665017,0.004162627946650124,159.0625,-0.0625,172.375,0.06512451,-0.1810913099999999,-0.9812011699999988,0.012756349999999979
340.0,0.04506924627791563,-0.01948790322580646,0.06138639888337466,-0.010000000000000005,-1.290000000000001,-9.720000000000015,-0.0009562073511166253,0.004955024813895781,0.004791214330024813,159.0625,-0.0625,172.375,0.06512451,-0.1810913099999999,-0.9812011699999988,0.012756349999999979
341.0,0.044625620347394535,-0.020627481389578175,0.06082428660049626,-0.010000000000000005,-1.290000000000001,-9.720000000000015,0.005934010545905707,-0.0015557149503722086,0.004845494727047146,159.0625,-0.0625,172.375,0.06512451,-0.1810913099999999,-0.9812011699999988,0.012756349999999979
342.0,0.04599204133679939,-0.02035100092559771,0.062405683809917664,-0.010000000000000005,-1.290000000000001,-9.720000000000015,0.0018964136781677104,-0.003090128537457166,0.008350019016601677,159.0625,-0.0625,172.375,0.06512451,-0.1810913099999999,-0.9812011699999988,0.012756349999999979
343.0,0.04638397042026073,-0.020641846616645018,0.06037603514317222,-0.010000000000000005,-1.290000000000001,-9.720000000000015,-0.01096246313610225,-0.00978478007207846,0.009649817588325654,159.0625,-0.0625,172.375,0.06512451,-0.1810913099999999,-0.9812011699999988,0.012756349999999979
344.0,0.04566174327464649,-0.01897889923696376,0.06152759785017847,-0.010000000000000005,-1.290000000000001,-9.720000000000015,-0.008003779374747116,0.006774811210295081,0.007694456081552856,159.0625,-0.0625,172.375,0.06512451,-0.1810913099999999,-0.9812011699999988,0.012756349999999979
345.0,0.047110874788294135,-0.018699973861264194,0.0632290003902907,-0.010000000000000005,-1.290000000000001,-9.720000000000015,-0.0013951997822965563,0.005807991291862259,0.011434667483054578,159.0625,-0.0625,172.375,0.06512451,-0.1810913099999999,-0.9812011699999988,0.012756349999999979
346.0,0.046505809602583784,-0.018608051446761135,0.06137132401648529,-0.010000000000000005,-1.290000000000001,-9.720000000000015,0.0011014075530204562,0.002531787209206564,-0.0042857679954454156,159.0625,-0.0625,172.375,0.06512451,-0.1810913099999999,-0.9812011699999988,0.012756349999999979
347.0,0.04631131592421914,-0.018904443227023882,0.0614157025769929,-0.010000000000000005,-1.290000000000001,-9.720000000000015,0.009019430390398132,0.02816090719316526,-0.000846062539610927,159.0625,-0.0625,172.375,0.06512451,-0.1810913099999999,-0.9812011699999988,0.012756349999999979
348.0,0.04741372247823859,-0.019596142209045445,0.06303539471281405,-0.010000000000000005,-1.290000000000001,-9.720000000000015,-0.005043634680731455,0.020780205457624813,0.001887762774859549,159.0625,-0.0625,172.375,0.06512451,-0.1810913099999999,-0.9812011699999988,0.012756349999999979
349.0,0.047013312852022524,-0.01895251880735753,0.06219951553822521,-0.010000000000000005,-1.290000000000001,-9.720000000000015,0.015195680215841504,0.01203966284611446,0.003372400449013352,159.0625,-0.0625,172.375,0.06512451,-0.1810913099999999,-0.9812011699999988,0.012756349999999979
350.0,0.04718238213399503,-0.018946029776674946,0.06213461538461538,-0.010000000000000005,-1.290000000000001,-9.720000000000015,0.009502946650124069,0.005443548387096774,0.007401519851116626,159.0625,-0.0625,172.375,0.06512451,-0.1810913099999999,-0.9812011699999988,0.012756349999999979
351.0,0.047467121588089314,-0.01814547146401986,0.062345223325062024,-0.010000000000000005,-1.290000000000001,-9.720000000000015,-0.00771750930521092,0.021595843672456577,0.014432769851116627,159.0625,-0.0625,172.375,0.06512451,-0.1810913099999999,-0.9812011699999988,0.012756349999999979
352.0,0.04669882133995036,-0.018439981389578173,0.06211553970223324,-0.010000000000000005,-1.290000000000001,-9.720000000000015,-0.007146595843672457,0.021553194789081888,0.00868195564516129,159.0625,-0.0625,172.375,0.06512451,-0.1810913099999999,-0.9812011699999988,0.012756349999999979
353.0,0.04765958436724565,-0.019135623449131525,0.06241508995037219,-0.010000000000000005,-1.290000000000001,-9.720000000000015,0.0007070991004962776,0.009582428660049628,0.005752268145161291,159.0625,-0.0625,172.375,0.06512451,-0.1810913099999999,-0.9812011699999988,0.012756349999999979
354.0,0.04944975186104218,-0.018950372208436733,0.0608622828784119,-0.010000000000000005,-1.290000000000001,-9.720000000000015,-0.0047340260545905705,-0.024505660669975185,0.011869959677419354,159.0625,-0.0625,172.375,0.06512451,-0.1810913099999999,-0.9812011699999988,0.012756349999999979
355.0,0.04841718362282879,-0.01949255583126552,0.06333436724565757,-0.010000000000000005,-1.290000000000001,-9.720000000000015,0.006503954714640199,-0.016207544975186103,-0.008643183933002483,159.0625,-0.0625,172.375,0.06512451,-0.1810913099999999,-0.9812011699999988,0.012756349999999979
356.0,0.047368979810512066,-0.020492273855177094,0.06303510602300924,-0.010000000000000005,-1.290000000000001,-9.720000000000015,0.014392382650951198,-0.005271792639484171,-0.029573960565644035,159.0625,-0.0625,172.375,0.06512451,-0.1810913099999999,-0.9812011699999988,0.012756349999999979
357.0,0.04711150923449311,-0.021085550650066794,0.06337159166997876,-0.010000000000000005,-1.290000000000001,-9.720000000000015,0.00677866460376541,-0.007606464436101533,-0.026610987019253147,159.0625,-0.0625,172.375,0.06512451,-0.1810913099999999,-0.9812011699999988,0.012756349999999979
358.0,0.0464666501733034,-0.020623458083135517,0.06101551987439083,-0.010000000000000005,-1.290000000000001,-9.720000000000015,-0.0006448056032229421,0.004047922004071197,-0.005043124158547546,159.0625,-0.0625,172.375,0.06512451,-0.1810913099999999,-0.9812011699999988,0.012756349999999979
359.0,0.045713240164853064,-0.0196280780151748,0.060908847424976445,-0.010000000000000005,-1.290000000000001,-9.720000000000015,0.0047069418037159975,4.968150129440289e-06,-0.002316321671160381,159.0625,-0.0625,172.375,0.06512451000000001,-0.1810913099999999,-0.9812011699999988,0.012756349999999979
360.0,0.04668912628590048,-0.019975329330168053,0.06213680584648326,-0.010000000000000005,-1.290000000000001,-9.720000000000015,0.009634798445282316,-0.009954091607317413,-0.001716473490667039,159.0625,-0.0625,172.375,0.06512451,-0.1810913099999999,-0.9812011699999988,0.012756349999999979
361.0,0.04689452930581964,-0.018377581200161856,0.0631683352489804,-0.010000000000000005,-1.290000000000001,-9.720000000000015,0.006962767295428586,-0.018979743374904663,0.004883501355275549,159.0625,-0.0625,172.375,0.06512451,-0.1810913099999999,-0.9812011699999988,0.012756349999999979
362.0,0.04722799646589969,-0.018210335363561182,0.06287515978645009,-0.010000000000000005,-1.290000000000001,-9.720000000000015,0.011934109237536659,-0.0033905274832694184,0.010750220881269267,159.0625,-0.0625,172.375,0.06512451,-0.1810913099999999,-0.9812011699999988,0.012756349999999979
363.0,0.04915640743664936,-0.017514634558989405,0.06288641063237836,-0.010000000000000005,-1.290000000000001,-9.720000000000015,0.007578078003985263,-0.005909866343334085,0.005115457459207459,159.0625,-0.0625,172.375,0.06512451,-0.1810913099999999,-0.9812011699999988,0.012756349999999979
364.0,0.04854474255583126,-0.018461693548387108,0.06190741315136475,-0.010000000000000005,-1.290000000000001,-9.720000000000015,0.005125135700992556,0.011528768610421836,0.004031288771712159,159.0625,-0.0625,172.375,0.06512451,-0.1810913099999999,-0.9812011699999988,0.012756349999999979
365.0,0.04772208436724565,-0.01787593052109182,0.06161290322580645,-0.010000000000000005,-1.290000000000001,-9.720000000000015,0.02217741935483871,0.01401985111662531,0.0010545905707196029,159.0625,-0.0625,172.375,0.06512451,-0.1810913099999999,-0.9812011699999988,0.012756349999999979
366.0,0.048517181742988184,-0.0180491766298218,0.06128686367396044,-0.010000000000000005,-1.290000000000001,-9.720000000000015,0.012966200466200466,0.022106925332731783,0.011613655162042259,159.0625,-0.0625,172.375,0.06512451,-0.1810913099999999,-0.9812011699999988,0.012756349999999979
367.0,0.04786901270772238,-0.017307466726821576,0.06266576434318369,-0.010000000000000005,-1.290000000000001,-9.720000000000015,0.011182231746747876,0.0019343559666140306,0.009032634032634032,159.0625,-0.0625,172.375,0.06512451,-0.1810913099999999,-0.9812011699999988,0.012756349999999979
368.0,0.047490337619369875,-0.017829912023460417,0.06374975562072335,-0.010000000000000005,-1.290000000000001,-9.720000000000015,-0.016291638469057824,0.012505639521768554,-0.0024315738025415447,159.0625,-0.0625,172.375,0.06512451,-0.1810913099999999,-0.9812011699999988,0.012756349999999979
369.0,0.04813474697345664,-0.01586036544101061,0.06274708624708623,-0.010000000000000005,-1.290000000000001,-9.720000000000015,-0.009200409805248513,0.009835325964358222,-0.0007582806977968269,159.0625,-0.0625,172.375,0.06512451,-0.1810913099999999,-0.9812011699999988,0.012756349999999979
370.0,0.048022182118956314,-0.016095533498759314,0.06299343935634256,-0.010000000000000005,-1.290000000000001,-9.720000000000015,0.004065860215053764,-0.009504474020603053,0.003561945447026092,159.0625,-0.0625,172.375,0.06512451,-0.1810913099999999,-0.9812011699999988,0.012756349999999979
371.0,0.04846747875780133,-0.016806620798556292,0.06267068012632526,-0.010000000000000005,-1.290000000000001,-9.720000000000015,0.00346066903526581,-0.01662484021354989,0.010858957910369203,159.0625,-0.0625,172.375,0.06512451,-0.1810913099999999,-0.9812011699999988,0.012756349999999979
372.0,0.0473941237973496,-0.016901321348902,0.062253926852717155,-0.010000000000000005,-1.290000000000001,-9.720000000000015,-0.001496948951586048,0.0006712933124223431,0.011977344172404656,159.0625,-0.0625,172.375,0.06512451,-0.1810913099999999,-0.9812011699999988,0.012756349999999979
373.0,0.05218258712613551,-0.015682257035079625,0.0632005779838441,-0.027634408602150547,-1.2900000000000014,-9.720000000000017,0.02860774278365004,0.02775672468212791,1.0604172632083417,159.82638888888889,-0.16017025089605735,172.375,0.06503394333333332,-0.17450826326164873,-0.9823636829032254,0.013207877813620062
374.0,0.05687995580215693,-0.01960672386858346,0.062179777843914444,-0.030733712839974718,-1.2900000000000011,-9.720000000000017,0.051337270941160876,0.023714403612411204,0.5709898445429754,160.32822053552601,-0.17585125448028674,172.375,0.06506532989247311,-0.17021799133670668,-0.9831319174573053,0.013082641117436223
375.0,0.06355483616109801,-0.019055561347781476,0.06273211766096015,-0.035850727387729306,-1.290000000000001,-9.720000000000015,0.04251553185376714,-0.002820828496824702,0.28839692618155616,160.69536026776302,-0.18369175627240142,172.375,0.06506342059139787,-0.16714910744254685,-0.983678641793169,0.013077002655492314
376.0,0.06767319971826612,-0.020361527572153773,0.06196407371881754,-0.0384092346616066,-1.290000000000001,-9.720000000000015,0.029647964438049824,0.008375565900471024,0.1984943687979741,160.8789301338815,-0.18761200716845877,172.375,0.06506246594086025,-0.16561466549546694,-0.9839520039611008,0.01307418342452036
377.0,0.06977389553836422,-0.021499878363255988,0.06245999975672649,-0.039688488298545245,-1.290000000000001,-9.720000000000015,0.010453487122723364,0.009374822613081627,0.0732327194732318,160.97071506694076,-0.18957213261648745,172.375,0.06506198861559144,-0.16484744452192698,-0.9840886850450667,0.01307277380903438
378.0,0.07010200153262297,-0.02003085316012262,0.06390473106115893,-0.03977703984819736,-1.290000000000001,-9.720000000000015,0.0023145571814333667,0.003819355750985258,-0.0008640390089038105,160.9927360056926,-0.1875,172.375,0.06506458016129037,-0.1646695542457305,-0.9841206970588239,0.013057958757115764
379.0,0.06987073511166253,-0.01964066377171217,0.0635462934243176,-0.04000000000000002,-1.290000000000001,-9.720000000000015,-0.014111933933002481,-0.015034700682382133,0.007869688275434243,161.0,-0.1875,172.375,0.06506348000000005,-0.1646118199999999,-0.9841308600000004,0.013061520000000016
380.0,0.06897518610421836,-0.018877791563275445,0.06317183622828783,-0.04000000000000002,-1.290000000000001,-9.720000000000015,-0.005071339950372209,0.007572115384615384,-0.006240307071960298,161.0,-0.1875,172.375,0.06506348000000005,-0.1646118199999999,-0.9841308600000004,0.013061520000000016
381.0,0.06955086848635235,-0.019252791563275445,0.06229187344913151,-0.04000000000000002,-1.290000000000001,-9.720000000000015,0.0017369727047146398,0.003491392679900744,0.004246471774193548,161.0,-0.1875,172.375,0.06506348000000005,-0.1646118199999999,-0.9841308600000004,0.013061520000000016
382.0,0.07031389578163771,-0.01799860421836229,0.0637191377171216,-0.04000000000000002,-1.290000000000001,-9.720000000000015,-0.0019696029776674943,0.010508103287841191,0.029728694944168736,161.0,-0.1875,172.375,0.06506348000000005,-0.1646118199999999,-0.9841308600000004,0.013061520000000016
383.0,0.06886662531017369,-0.018621277915632763,0.06274162531017369,-0.04000000000000002,-1.290000000000001,-9.720000000000015,0.0076467509305210915,0.009790341966501241,-0.011203570874689824,161.0,-0.1875,172.375,0.06506348000000005,-0.1646118199999999,-0.9841308600000004,0.013061520000000016
384.0,0.06766919975186103,-0.019320719602977675,0.06261073200992555,-0.04000000000000002,-1.290000000000001,-9.720000000000015,0.00779262949751861,0.007935115539702232,0.009219913151364766,161.0,-0.1875,172.375,0.06506348000000005,-0.1646118199999999,-0.9841308600000004,0.013061520000000016
385.0,0.06789709987593051,-0.019690601736972714,0.0639212934243176,-0.04000000000000002,-1.290000000000001,-9.720000000000015,0.008353850031017369,0.007543036600496277,-0.001627442617866003,161.0,-0.1875,172.375,0.06506348000000005,-0.1646118199999999,-0.9841308600000004,0.013061520000000016
386.0,0.06749441687344912,-0.020092276674937976,0.06242183622828783,-0.04000000000000002,-1.290000000000001,-9.720000000000015,0.00655532723325062,-0.012357513957816377,0.0054551799007444175,161.0,-0.1875,172.375,0.06506348000000005,-0.1646118199999999,-0.9841308600000004,0.013061520000000016
387.0,0.0676814516129032,-0.020902217741935493,0.06193548387096773,-0.04000000000000002,-1.290000000000001,-9.720000000000015,0.009419102822580645,-0.0074659778225806455,-0.000630040322580645,161.0,-0.1875,172.375,0.06506348000000005,-0.1646118199999999,-0.9841308600000004,0.013061520000000016
388.0,0.06872223945409428,-0.018955024813895792,0.06181094913151364,-0.04000000000000002,-1.290000000000001,-9.720000000000015,0.0009678388647642684,0.004561976581885857,-0.000984801488833747,161.0,-0.1875,172.375,0.06506348000000005,-0.1646118199999999,-0.9841308600000004,0.013061520000000016
389.0,0.06844882133995035,-0.020122673697270485,0.06239741004962778,-0.04000000000000002,-1.290000000000001,-9.720000000000015,-0.0016424666563275435,0.0006901364764267995,0.004075391594292804,161.0,-0.1875,172.375,0.06506348000000005,-0.1646118199999999,-0.9841308600000004,0.013061520000000016
390.0,0.06852884615384613,-0.018851659429280406,0.061518765508684854,-0.04000000000000002,-1.290000000000001,-9.720000000000015,0.003069265663771712,0.017860189205955335,0.004258587934243176,161.0,-0.1875,172.375,0.06506348000000005,-0.1646118199999999,-0.9841308600000004,0.013061520000000016
391.0,0.06890656017369726,-0.019256978908188595,0.06421200372208434,-0.04000000000000002,-1.290000000000001,-9.720000000000015,0.0024639423076923076,0.011954288151364763,0.0034366276364764265,161.0,-0.1875,172.375,0.06506348000000005,-0.1646118199999999,-0.9841308600000004,0.013061520000000016
392.0,0.06827636476426796,-0.02057102977667495,0.06369370347394539,-0.04000000000000002,-1.290000000000001,-9.720000000000015,0.008099410669975186,0.0004642912531017361,0.001797068858560794,161.0,-0.1875,172.375,0.06506348000000005,-0.1646118199999999,-0.9841308600000004,0.013061520000000016
393.0,0.06787267369727044,-0.020650279156327556,0.06245479218362281,-0.04000000000000002,-1.290000000000001,-9.720000000000015,0.0066396557071960296,0.008405222549627792,-0.0010400511786600496,161.0,-0.1875,172.375,0.06506348000000005,-0.1646118199999999,-0.9841308600000004,0.013061520000000016
394.0,0.06855695256804126,-0.019567651098901108,0.061425288756941976,-0.04000000000000002,-1.290000000000001,-9.720000000000015,0.005430962966245224,0.013978486930855882,-0.0027256667503643313,161.0,-0.1875,172.375,0.06506348000000005,-0.1646118199999999,-0.9841308600000004,0.013061520000000016
395.0,0.06818949520461615,-0.0198216279688054,0.06109706590452557,-0.04000000000000002,-1.290000000000001,-9.720000000000015,0.005070862996770255,-0.030782885489286697,-0.0019221153230729844,161.0,-0.1875,172.375,0.06506348000000005,-0.1646118199999999,-0.9841308600000004,0.013061520000000016
396.0,0.0677574724782386,-0.01912180964197094,0.0623458732128087,-0.04000000000000002,-1.290000000000001,-9.720000000000015,0.00994809821674741,-0.02837342359141754,0.0014730788924337311,161.0,-0.1875,172.375,0.06506348000000005,-0.1646118199999999,-0.9841308600000004,0.013061520000000016
397.0,0.06793343573988736,-0.019940289101579432,0.06153215959667573,-0.04000000000000002,-1.290000000000001,-9.720000000000015,0.008849797156248769,-0.007357024695734375,0.0068809326873843,161.0,-0.1875,172.375,0.06506348000000005,-0.1646118199999999,-0.9841308600000004,0.013061520000000016
398.0,0.0674183307731695,-0.02027783685848203,0.06265193587774233,-0.04000000000000002,-1.290000000000001,-9.720000000000015,0.007325022647603293,0.006975954153373509,0.005983890661310016,161.0,-0.1875,172.375,0.06506348000000005,-0.1646118199999999,-0.9841308600000004,0.013061520000000016
399.0,0.06735099846390169,-0.021290992161959916,0.0630924809957068,-0.04000000000000002,-1.290000000000001,-9.720000000000015,0.00561463625979755,0.00015976407105439345,0.008600304265626846,161.0,-0.1875,172.375,0.06506348000000005,-0.1646118199999999,-0.9841308600000004,0.013061520000000016
400.0,0.06717798062152901,-0.020161625113238026,0.06411447871125288,-0.04000000000000002,-1.290000000000001,-9.720000000000015,0.007770097286226319,-0.017406160148095633,0.017420499527354364,161.0,-0.1875,172.375,0.06506348000000005,-0.1646118199999999,-0.9841308600000004,0.013061520000000016
401.0,0.0672812980030722,-0.018835154988380808,0.06430041553428648,-0.04000000000000002,-1.290000000000001,-9.720000000000015,0.0006747508763637793,-0.013262633423923746,0.01905454256764741,161.0,-0.1875,172.375,0.06506348000000005,-0.1646118199999999,-0.9841308600000004,0.013061520000000016
402.0,0.0664133064516129,-0.019808002481389593,0.06205676178660048,-0.04000000000000002,-1.290000000000001,-9.720000000000015,0.002729528535980149,-0.0012949751861042183,0.014375581575682382,161.0,-0.1875,172.375,0.06506348000000005,-0.1646118199999999,-0.9841308600000004,0.013061520000000016
403.0,0.0654771246898263,-0.020846929280397036,0.06184227667493795,-0.04000000000000002,-1.290000000000001,-9.720000000000015,-0.00021712158808933008,0.01588477047146402,0.01703580567617866,161.0,-0.1875,172.375,0.06506348000000005,-0.1646118199999999,-0.9841308600000004,0.013061520000000016
404.0,0.06565134876324391,-0.020552032868565138,0.06397885403127337,-0.04000000000000002,-1.290000000000001,-9.720000000000015,0.001364533483989129,-0.017564747220745202,0.004760412358698649,161.0,-0.1875,172.375,0.06506348000000005,-0.1646118199999999,-0.9841308600000004,0.013061520000000016
