time,linaccel_x,linaccel_y,linaccel_z,gravity_x,gravity_y,gravity_z,gyro_x,gyro_y,gyro_z,euler_x,euler_y,euler_z,quaternion_w,quaternion_y,quaternion_x,quaternion_z
0.0,-0.13571428571428573,0.012142857142857146,-0.014761904761904764,-1.2580952380952386,1.6888095238095235,9.569999999999995,-0.34672619047619047,0.03869047619047619,-0.09077380952380952,86.9375,-7.364583333333333,-9.992559523809524,0.7213410876190476,-0.012709844761904763,0.1075221473809524,-0.6840718588095234
1.0,-0.12761904761904763,0.010873015873015875,-0.011111111111111112,-1.2968253968253969,1.6772222222222228,9.568412698412693,-0.17509920634920634,0.02976190476190476,-0.22271825396825395,86.9375,-7.598710317460316,-9.955853174603174,0.7212471138095237,-0.0109814846031746,0.10859171515873015,-0.6840302002380951
2.0,-0.13107018417122945,0.011907250705160115,-0.01047619047619048,-1.3000331840053092,1.6704471544715442,9.569319727891152,-0.21702857972457273,-0.20065953210552512,-0.15207088933134227,86.9470818815331,-7.618959474033515,-9.922717562634809,0.7211582859880539,-0.01068311765223162,0.10848382203666834,-0.6841380791264309
3.0,-0.13635307781649245,0.006727448703058459,-0.008791327913279134,-1.2781618273325592,1.6621436314363138,9.572674409601234,-0.2630686217576461,-0.22372241579558652,-0.16039730933023616,86.97530487804877,-7.485595722028648,-9.874503968253968,0.7211449854936124,-0.011244982579171505,0.10740773262524195,-0.6843074689907088
4.0,-0.1329450376531415,0.0006745719530928036,-0.005931287699973775,-1.2724008841931742,1.6544565958562805,9.576455359484466,-0.17245255891499006,-0.2856721366752838,-0.20986966580495295,86.9969217151849,-7.452707607433217,-9.810243855606759,0.7210169475614253,-0.011121721377018471,0.10683303230253643,-0.6845368482213108
5.0,-0.11098696189726875,0.018394777265745007,-0.005622906597729573,-1.4872854520250272,1.669981566820276,9.538483383912176,-0.21989434640890188,1.1248325746506314,-0.1561851373122026,86.54785601888277,-8.72637429283279,-9.933566089693155,0.722972674837998,-0.0031276718469521554,0.11512350703930163,-0.681009575467386
6.0,-0.10304878048780489,0.022967741935483878,-0.008984264358772618,-1.5821557828481514,1.6537096774193545,9.526667191188036,-0.08592643587726198,0.12007277734067667,-0.2524685287175452,85.36767800944139,-9.28470692368214,-9.840371754523996,0.7297148384689222,0.0022023896333595583,0.11778974069630212,-0.6733279100086547
7.0,-0.09393194335169158,0.024371361132966174,-0.006470889063729347,-1.572714398111723,1.651732887490165,9.530835562549171,0.006677812745869392,-0.38791306058221864,-0.36539142407553105,84.32383703776554,-9.227325924468921,-9.825845790715972,0.7358642263981117,0.002937195477576711,0.11739596305074745,-0.666721238796617
8.0,-0.09249555093477202,0.026651043422876632,-0.0045920816005395075,-1.5087846090442465,1.633460576598853,9.544428683826006,-0.36811237870443214,-0.6109135570042336,-0.3113275542317635,83.8447142178075,-8.84888035761118,-9.704413941028811,0.7389019168405452,0.0015813929017646396,0.11448096490310403,-0.6639288745537917
9.0,-0.09576793675770859,0.025694953355063513,-0.004209827282604623,-1.412543610205687,1.5929881608032663,9.564794987074293,-0.43226087445206246,-1.3290982915589522,-0.2559853976995991,83.64788634277471,-8.27938689539545,-9.448405127196434,0.7404658275201186,-0.0005296310422052377,0.10956026685573789,-0.6630424477559664
10.0,-0.10017743808774493,0.024110261886029008,-0.0032732850024352785,-1.2280263290996962,1.5501722865385332,9.595296785433295,-0.3360901146453861,-0.8458040631673597,-0.24514946517552733,83.68424018161552,-7.191375194353902,-9.174930337004984,0.7409038127372425,-0.006145415753203327,0.10156655835312467,-0.6637745012343956
11.0,-0.1138747143231801,0.026222322131055423,-0.0021943726349705896,-1.1229133415758117,1.5317901165186774,9.612590760930651,-0.1435736765201753,-0.6435526020006743,-0.2530932711400847,83.76060516653553,-6.567820145367352,-9.051714529242066,0.7407921462684051,-0.00960172595144431,0.09718791595931214,-0.6645429375006557
12.0,-0.12406088194522497,0.02650848600651906,-0.003869019519688285,-1.0754708328650109,1.5274072533812901,9.619326064965719,-0.18127739687535122,-0.3398477014724064,-0.13515206436626576,83.82554746918436,-6.291620536885093,-9.019179451875164,0.7405352734662246,-0.01127937763425874,0.09538256285377095,-0.6650937550933647
13.0,-0.12402045633359557,0.015768835937207303,-0.003307781649245064,-1.0398152935446405,1.5271805852159912,9.62478284815106,-0.24339407478176162,-0.3390290734704582,-0.08847176951032182,83.8744000786782,-6.0879713667528375,-9.00409337417107,0.7403599320288111,-0.01262680809823536,0.09412713798141696,-0.6654633335059756
14.0,-0.12648701809598736,0.006619197482297405,-0.004487804878048781,-0.9676239181746656,1.5230180959874127,9.632145554681347,-0.18942761605035405,-0.8234264358772619,-0.19754130605822184,83.96313926042487,-5.664860346184107,-8.966404405979542,0.7399907193296618,-0.015270026219512192,0.0914155805790716,-0.6661837324736426
15.0,-0.11896734854445318,0.006842250196695517,-0.00195279307631786,-0.9208497246262787,1.5216231313926056,9.636363886703377,-0.14039634146341462,-0.3954858379228953,-0.19576612903225804,84.04938040912667,-5.385095397324941,-8.951952202989771,0.739547504015736,-0.017056924962627847,0.08966575660739573,-0.6668811061424071
16.0,-0.11249573826383422,0.007142978906747595,-0.003287662507961485,-0.8951721554081903,1.5158164362519204,9.63852513019369,-0.1278205902738751,-0.3232885148551946,-0.2357186176988498,84.18915809636206,-5.2383660456708245,-8.917573924731183,0.7388045434568582,-0.0179750664369544,0.08861459619193734,-0.6678206039501517
17.0,-0.11186403656663294,0.007932664568581172,-0.0031526638192649207,-0.8877592727885807,1.5118966973886327,9.640515829305748,-0.1603796691768761,-0.18367766756584616,-0.055911344179686046,84.28707136768949,-5.191869274755535,-8.890228974654377,0.7383203768555413,-0.01822831289800869,0.08821447455334194,-0.6684078518295307
18.0,-0.11813342440407743,0.011417014666424582,-0.007751993613519972,-0.854792684367822,1.4801914214817442,9.649185954355112,-0.2586715343402991,-0.35496047356786936,-0.10988740802863542,84.3253116867397,-4.996845126418297,-8.708429339477727,0.7382388622682375,-0.018424690156924113,0.08587161803690671,-0.6687934015318042
19.0,-0.11790463509739671,0.02251023825374731,-0.006366162030992873,-0.8607425262909132,1.4639666784828083,9.650434833983217,-0.12697542098604256,-0.18829849012775843,-0.18876058048953406,84.36609801488834,-5.036025828354703,-8.623771121351766,0.7380264937415144,-0.017670434604819256,0.08547621752042031,-0.6691043540035102
20.0,-0.12309393831974476,0.025713813068651788,-0.004610303674819804,-0.8760486825002956,1.45585430698334,9.650378707314186,-0.19500324943873332,0.03128840245775728,-0.11784606522509748,84.40683933002481,-5.123815431879947,-8.580635560675884,0.7378365218274844,-0.01684927771783056,0.08571416269490725,-0.6692978721811413
21.0,-0.12176202292331323,0.019177951081176894,-0.0037805742644452327,-0.9040443105281817,1.4568587971168623,9.650346803733896,-0.16669325298357557,-0.07375192012288787,-0.12464403875694198,84.42416179250856,-5.288165396431525,-8.566359447004608,0.7376800086341724,-0.01577973135046674,0.08664157300567177,-0.6693767439546261
22.0,-0.1169562802788609,0.018287132222616104,-0.002209027531608177,-0.917617393359329,1.4602266335814724,9.64956664303438,-0.04566421481744062,-0.32263824884792625,-0.2001868427271653,84.45728058903461,-5.3655208702587736,-8.594839669738864,0.7373947718746897,-0.01543656728429635,0.08722805770867306,-0.6696270183444406
23.0,-0.11022530066314487,0.014572664943239298,-0.003553725975047769,-0.9072013412760858,1.457236821400472,9.650804625154546,-0.2106422811059908,-0.2323835749878236,-0.13763452568281442,84.56289532286164,-5.306535501198906,-8.580579420497546,0.7368439675518619,-0.015817711638173918,0.08678028509412349,-0.6702845275885694
24.0,-0.10809534112622231,0.019728307294593687,-0.0016962178262335612,-0.916579427522386,1.4435476003147127,9.650382151286946,-0.16354301309430144,-0.15845673635307783,-0.11719698353377542,84.61496150387771,-5.361216093439737,-8.507199992506838,0.7365165758676891,-0.015104799753784048,0.0866141964240287,-0.6706851151062436
25.0,-0.10913004383500055,0.026121258101981945,-0.004736165748754262,-0.9174056891836202,1.4416125098347754,9.65019107564347,-0.10526301000337193,-0.1853103574238507,-0.16222152364092765,84.67676838634746,-5.366939171911881,-8.494345003933908,0.7361378061788524,-0.015021826306039487,0.08656103805667639,-0.6711094950498574
26.0,-0.10179082836911318,0.02008482259937807,-0.0030938893259900343,-0.9360859091079393,1.4456530291109364,9.649450376531409,-0.1326718275823311,-0.0655382432280544,-0.10391822149788318,84.71842451575438,-5.477950432730133,-8.51229346970889,0.7357975484321684,-0.014446230532052004,0.08730495622591883,-0.6713946394483158
27.0,-0.10469956164999436,0.018540107152223602,-0.0028257465063129894,-0.9352403431868423,1.4475845790715978,9.649748229740357,-0.12548049904462177,-0.16494558090742195,-0.15093664531115358,84.76991214266981,-5.477934509759844,-8.533873309355213,0.7355615475440412,-0.0145653210394515,0.08735241142017908,-0.6716328887172454
28.0,-0.11990682252444644,0.025709864748417077,-0.005862125810198194,-0.921483271514743,1.4487254130605831,9.649838709677413,-0.06928037540744071,-0.12090217676370311,-0.18672422352103707,84.82043994230264,-5.394110842606121,-8.519813326589487,0.7352375543188341,-0.015138547946948409,0.08686189311370873,-0.6720403923601963
29.0,-0.11992793450975985,0.027196283391405354,-0.006863474579446256,-0.918217001985688,1.450168970814133,9.649919354838703,-0.14341983252781837,-0.04066562699037128,-0.14624627683488817,84.92033574051177,-5.371006846877225,-8.543172792327002,0.734663660614889,-0.015452885833089805,0.086858615183545,-0.6726673546220823
30.0,-0.1171459949046495,0.019656513431493765,-0.003179817166835263,-0.9373442920834737,1.4538586789554537,9.647249999999993,-0.03858779644824098,0.0820529391929864,-0.1771169940242029,84.98711679498707,-5.486833108538459,-8.55652783241542,0.7342605538980745,-0.014857163905024166,0.0876428840072871,-0.6730180371482148
31.0,-0.10804946031804118,0.0256864712693853,0.0013150051450144765,-1.3452280350139798,1.5097838030936308,9.577707426856708,0.041041107402286114,3.033518733287416,-0.03226336854248406,84.65700550927147,-7.900907880225718,-8.948615097753096,0.7348648401142661,-0.0009449986458729244,0.10407003091755954,-0.6697057302451501
32.0,-0.10389973015902057,0.0324588925977139,0.0044743790477236025,-1.6477579002764626,1.5269729400991356,9.52913302106014,0.07032877557368436,0.8209336142833619,-0.08607660952694618,84.37049786183479,-9.681949194833551,-9.094736222165297,0.7356163510478881,0.010152583937193357,0.11525804468655317,-0.6670411713609701
33.0,-0.09472720575614285,0.0350964801304856,0.005274168280746144,-1.6444926401460997,1.4871017336215582,9.540723080160284,-0.3035452896325126,-0.208238936367367,-0.18271670759588854,84.14219719999686,-9.654654770508829,-8.849959574497282,0.7371837213146599,0.011533581484725709,0.11356505434563693,-0.6657884846970072
34.0,-0.0927476274556444,0.03945300197000472,0.0015310933569629343,-1.6350112970315753,1.4574755979935752,9.549278590771387,-0.26736404266571867,-0.2191348291667864,-0.14956207883634673,84.07940313148845,-9.594344474348116,-8.669363427801636,0.7377652542633202,0.012236846502731519,0.11207573823272628,-0.6654962787655544
35.0,-0.10520770436511567,0.04532730743661528,-0.0011267625268686504,-1.6217364707030422,1.4381410248032398,9.556797143536755,-0.13941077821720238,-0.039496481263172914,-0.15876203371400344,84.11964108187325,-9.517310784577678,-8.551339980029852,0.737651819102057,0.01230422390183783,0.11091361718127267,-0.6658649730825216
36.0,-0.11357461316548648,0.05300288486755837,-0.001031059158517852,-1.5915552058746396,1.4318140946386424,9.563695627739683,-0.08016513056835638,-0.3910213180472818,-0.19205209621220637,84.16527106515305,-9.33424422089843,-8.50937113633809,0.7375070639987256,0.011321837764414974,0.10960556130530891,-0.6662780992521824
37.0,-0.11358510359297141,0.05458169420403883,-0.0015147427971975572,-1.5858562811434567,1.4472406429133415,9.56241429695403,0.26526263534524747,-0.0776408714547975,-0.13386534787006857,84.20837314075906,-9.306652991645123,-8.594575418680455,0.7372739609726122,0.010587911773631562,0.11001986029073471,-0.6664868781076019
38.0,-0.1114070285864149,0.05979281405717285,-0.0024843580233037347,-1.5390060319958039,1.4815196133528157,9.564303135888501,-0.13135865085609377,-0.6850635513843617,-0.21037287849837022,84.30965962309392,-9.0265808231239,-8.795837079914577,0.7367285308678954,0.007504235615375969,0.1096707783318347,-0.667181642208797
39.0,-0.10067663257277734,0.05732651455546815,-0.0027521636506687647,-1.489062155782848,1.4864925255704171,9.570785208497243,-0.15308811959087332,-0.4591168371361133,-0.18073367427222659,84.41212627852084,-8.728560188827695,-8.809352871754523,0.7362238130322578,0.005327481277734069,0.10812844235562549,-0.6680110961589303
40.0,-0.09876475216365066,0.052889063729346986,-0.0029944925255704167,-1.5017560975609754,1.4937623918174663,9.567992132179386,0.5824744295830055,2.6391227380015736,-0.18521833202202986,84.45303894571202,-8.81072974036192,-8.854878048780488,0.735901511310779,0.00559633345397325,0.10885880883556256,-0.6682151679874119
41.0,-0.14069911206024505,0.05755445655839048,-0.008612940691618899,-1.570218837810498,1.5352491851185786,9.548001910756433,-0.28990553932037016,-1.5995628208010186,-0.20895807575587277,84.54947360533512,-9.209634099509199,-9.124541980442846,0.7349335170843354,0.006594503439923571,0.11279713020774794,-0.668516908055562
42.0,-0.1315656963021243,0.05233498182908097,-0.008702896107302089,-1.5013264958225614,1.5336710127009103,9.560165018170917,-0.3196722443894946,-1.0892633518789103,-0.250690541755648,84.69241270465699,-8.80591479805927,-9.101726003147128,0.7343400981527106,0.003911688110692743,0.1103497309168821,-0.6696610036115358
43.0,-0.11798003072196622,0.040985407066052235,-0.005406298003072197,-1.3859489247311823,1.504326420890937,9.581493471582181,-0.6389664938556068,-1.4232166858678954,-0.018572388632872514,84.63090437788019,-8.122491839477727,-8.914396121351768,0.7351259522841781,0.000597382267665131,0.10520679355030721,-0.6696384782761138
44.0,-0.10562652204863064,0.04038471769510323,-0.004039498332771346,-1.2780829399423026,1.4610422427035337,9.603710248772993,-0.32135615703795284,-0.8534079839646321,-0.12331058456033869,84.58197461222883,-7.494409398299052,-8.63764160906298,0.735823963349406,-0.0019141141298377727,0.0998267686407122,-0.669712499904481
45.0,-0.11367970476939795,0.04559420778539584,-0.0038556067588325646,-1.1981812221348023,1.4181062905099098,9.62192780337941,-0.3779633116031621,-0.6131959274661871,-0.08929039751227005,84.56956347645274,-7.022123562249448,-8.36747405492488,0.7362877301959465,-0.0034263880249896963,0.09537681402364091,-0.6698716108843809
46.0,-0.12218317035704922,0.04837544490652282,-0.00480184331797235,-1.1364385373346824,1.3883411636881346,9.634427035330253,-0.27645765426548274,-0.7013944307069798,-0.09090095912479862,84.56571011764265,-6.653074069911206,-8.1891229721629,0.7365727413360685,-0.004780932341987936,0.09207509009553781,-0.6700329571434194
47.0,-0.1199510321831329,0.04972151661608784,-0.009144393241167434,-1.0176624330298603,1.388387171705818,9.646913978494622,-0.006340386272526338,-0.8555695271814469,0.37774460492300777,84.55539250121765,-5.955521289947923,-8.180270971488516,0.7368384421004457,-0.009276234857629913,0.08799497258233113,-0.6702060401500507
48.0,-0.12268288936345584,0.047345397324941016,-0.0074869431643625195,-0.9343074069911208,1.4577266119665806,9.645058371735784,0.3131460511033682,-0.7621981660484807,-0.3504182121314301,84.70945988348133,-5.463863755573039,-8.586727267618297,0.7358757773290248,-0.01496517704095013,0.08770651038102731,-0.6711963895028286
49.0,-0.11059137911655616,0.04895294293956767,-0.005420628676332846,-0.8931180735079242,1.503748098610018,9.642903843992347,0.08298782829418157,-0.46103590629800306,-0.18462707466936423,84.87072667284852,-5.222531471282455,-8.854903572365217,0.7348623600498105,-0.018236859532426652,0.0880144245796336,-0.6722029501418081
50.0,-0.12295894683601216,0.057017777528005714,-0.008945562174515755,-0.8481483365179274,1.5143996197220042,9.646522732381694,0.043706738694691084,-0.3195472607807875,-0.19520987879809676,84.95355767159342,-4.962342643587725,-8.911716144955228,0.7343995818738434,-0.020375046025064625,0.08689223677840845,-0.6728025615579223
51.0,-0.1265690682252445,0.06632497845715785,-0.011551459293394779,-0.811807350792402,1.5258641489640703,9.647992581769127,-0.03228030984226893,-0.32553693192461874,-0.03703378479637333,85.04675265070622,-4.749508261211645,-8.978211288449291,0.7339130020857216,-0.022205363195459144,0.08606011945037653,-0.673392351694579
52.0,-0.11402877374395863,0.05376003147128247,-0.00891551459293395,-0.8226179611104867,1.531176314113372,9.643727473680258,-0.2055842793450976,-0.06042111573189464,-0.14611385860402382,85.11364130231163,-4.816574407103518,-9.010082986774568,0.7334936353393278,-0.022006897757483795,0.08662807192488103,-0.673789363619947
53.0,-0.12055048518227118,0.05274253493687013,-0.007333333333333334,-0.8253688883893445,1.5240804765651355,9.644413660035209,-0.07026525795211869,-0.22775280056948033,-0.07243288936345585,85.21239860814507,-4.832471151324416,-8.973023444232137,0.7329170648079124,-0.021765033979356335,0.08643430996167248,-0.6744547691555955
54.0,-0.11933438237608181,0.0566577498033045,-0.010838709677419355,-0.8319402045633358,1.5248512981904025,9.644396538158922,-0.1868607395751377,0.08069925255704169,-0.20516325727773405,85.2938385129819,-4.869595790715971,-8.97441974822974,0.732437202869394,-0.021570832243902445,0.08664267909834776,-0.6749533172997639
55.0,-0.11653186467348545,0.0582541306058222,-0.011013375295043273,-0.8596876475216364,1.4935900865460274,9.647957513768688,-0.4693892604248623,-0.26440548780487805,0.05093922108575924,85.33776308025178,-5.031473741148702,-8.790661880409125,0.7322515717218722,-0.01945704287254131,0.08641590483634931,-0.6752467984295829
56.0,-0.09657435090479936,0.049068056648308433,-0.009814319433516915,-0.8757761605035406,1.4565000000000006,9.652011801730916,-0.131404897718332,0.022940843823760826,-0.08022964201416208,85.29752040715971,-5.122985100314713,-8.573315794649883,0.7325708522023997,-0.01754752881235248,0.08556356580920535,-0.6750563084437449
57.0,-0.096492525570417,0.06225963808025179,-0.010970692368214005,-0.9001241148701811,1.4563333988985057,9.651167191188035,-0.04259687254130604,-0.04315376671911881,-0.1632081038552321,85.2814909520063,-5.266120426829268,-8.560599429583004,0.7325768312179388,-0.016564583533831626,0.08636308503501176,-0.6749723504187646
58.0,-0.09630015735641229,0.08304504327301337,-0.006903225806451613,-0.931289732494099,1.458502163650669,9.647391227380009,-0.06981584382376081,0.1871533241542093,-0.1393218922108576,85.29567392800945,-5.450116787962234,-8.579891571597166,0.7324501782940596,-0.01548252221125098,0.08753453770298976,-0.6749856037741937
59.0,-0.09811959087332811,0.06925255704169944,-0.013044846577498036,-0.9391581431943352,1.4651062155782841,9.64513768686073,-0.10877261998426435,-0.4702498033044847,-0.1894669551534225,85.36383752950434,-5.495574350904799,-8.624262391817465,0.7320306922029898,-0.015492701573564117,0.08805581813532651,-0.6753730200865462
60.0,-0.08762391817466564,0.07016522423288751,-0.010873328088119593,-0.9637529504327301,1.4691581431943348,9.641376868607388,-0.3840971675845791,0.3669354838709678,-0.020751376868607396,85.40017702596381,-5.638276947285601,-8.651504720692369,0.7317554344453185,-0.014718981274586936,0.08908798944138473,-0.6755406630369788
61.0,-0.09214791502753737,0.07533438237608181,-0.017883556254917388,-1.3793312352478364,1.5342879622344607,9.554830841856802,0.5711054287962235,5.45889063729347,-0.09997049567269865,85.19600708103854,-8.121656176239181,-9.123770653029112,0.7312532749960661,-0.0008981917073170708,0.10638960756097561,-0.6727596011644374
62.0,-0.06626728110599078,0.07480836236933798,-0.005553932037016221,-1.578516728485257,1.53968678580795,9.533106665168033,-0.07904349780824999,-1.2535709602487728,-0.3040912667191188,84.94016475591022,-9.275682814431832,-9.171092315761868,0.7323604532797573,0.0065024041504627055,0.11339867145742011,-0.6707697649042748
63.0,-0.06081525607882807,0.07557154096886592,-0.0023610955003559248,-1.506336592859016,1.5340897680866212,9.553191712562285,-0.18628001948222248,-1.0324898842306394,-0.20936598478888013,84.82146603724101,-8.842292345734517,-9.117186036491702,0.7334420178423439,0.00401131852010041,0.11063685513731221,-0.6703681765752503
64.0,-0.06491588925105841,0.0877464313813645,0.00038514855194634885,-1.435603386909445,1.5159630587089283,9.570364542355101,-0.2669204975459893,-0.8811888838934472,-0.20305533700498296,84.48051075268818,-8.415491176801169,-8.992183694878424,0.7357815344011089,0.0022386829972649964,0.10740946060170095,-0.6684759473788917
65.0,-0.0651841444681728,0.08691806226818029,-0.0011764265108088873,-1.390630174965344,1.5026274774268482,9.581421452924204,-0.18730564609793562,-0.28758991794987065,-0.1252294781012326,84.36188696564385,-8.150998932224343,-8.903743302986024,0.7366682297418605,0.0011247681076018133,0.1053217683338953,-0.6679193810812634
66.0,-0.07504211157318946,0.08295470383275264,-0.002001273837623169,-1.3703056460979357,1.4976056348581923,9.58757933385785,-0.1563101794612416,-0.3442817803754074,-0.1153586414896407,84.32610477314451,-8.031370827245139,-8.865453476827394,0.7369902661998052,0.000548823839009404,0.10439092694114119,-0.6677800432046759
67.0,-0.09155100970364542,0.08285984039563898,-0.005487580083174104,-1.355621333033607,1.4929579633584362,9.590503952643209,-0.10710094226518302,-0.22423382413547638,-0.1060664175190139,84.31301398411449,-7.94677700348432,-8.832760340564235,0.7371152940561239,0.0001249791445431044,0.10378814868869655,-0.6677448391399725
68.0,-0.10911959087332808,0.08663729346970889,-0.007658536585365854,-1.3282092840283246,1.4933430369787568,9.594357199055855,-0.13520849724626277,-0.21173288749016522,-0.12618509047993706,84.32470495672698,-7.7819138473642795,-8.835749409913454,0.7371393967269867,-0.0009280946742722267,0.10282026184972465,-0.6678669261329659
69.0,-0.10630251770259638,0.07420771046420141,-0.006134539732494099,-1.3341675845790721,1.497599921321794,9.592190401258843,-0.20135719905586152,-0.14741837136113295,-0.11654455153422502,84.34906569630212,-7.8192122344610535,-8.866610936270654,0.7370231390086543,-0.0008644974905586153,0.10318583132218725,-0.6679432417210855
70.0,-0.09816306058221873,0.0597671125098348,-0.004782454760031471,-1.3459862313139261,1.499610346184107,9.591032258064509,-0.12698662470495672,-0.11840824154209284,-0.14651480133752948,84.36355723839496,-7.888117132179386,-8.880492722265933,0.7369170606136897,-0.0004990950592053501,0.10369002366266719,-0.6679838497944528
71.0,-0.10090752284694061,0.06156221630454519,-0.005246272872158002,-1.345798326575077,1.5004030845891585,9.590516129032252,-0.023408531541891098,-0.1838189884302689,-0.17160120236438098,84.3702866837136,-7.88548355575057,-8.891383664689624,0.7368054676161913,-0.0006162453715174807,0.10374922301919548,-0.6680958445972885
72.0,-0.10242150335895417,0.07061175331356291,-0.005711846113498356,-1.3389354536101192,1.5039757358429664,9.590241935483864,-0.031411927061268136,-0.17993872808610217,-0.12758487537573887,84.37445785798585,-7.851007906907543,-8.908393445248038,0.7367193857435796,-0.0009888615123716435,0.10365637025153322,-0.6681988659438056
73.0,-0.0991381710343158,0.06520910246323308,-0.005154310153523372,-1.3439112751921567,1.5200080292118057,9.58754838709677,-0.07994487482095665,-0.2122727914624059,-0.13483578446206296,84.4066089693155,-7.87971262280861,-9.005078779075632,0.7365549624121126,-0.0013381672521535636,0.10442993161366983,-0.6682627554315803
74.0,-0.09772329480118622,0.06307347334019246,-0.003409570497690089,-1.3340768020335292,1.5306216385240772,9.58774193548387,-0.021104420101272975,-0.5213999677217616,-0.2616153745284351,84.48124999999999,-7.816336445157255,-9.057437107869838,0.7361119541210837,-0.0020930421791845706,0.10436984266521414,-0.6687597289848697
75.0,-0.09104702824057662,0.06003267162944584,-0.005459234314073023,-1.2368551931939031,1.5191006735200283,9.601774193548387,-0.4574397376816732,-1.1212217889637244,-0.11727667493796524,84.67006048387097,-7.242263751033912,-8.979004933238803,0.7352931634553941,-0.0055602543873330985,0.10054301372704713,-0.6701951607082006
76.0,-0.08666192724139221,0.049883490689745624,-0.0018833220935895998,-1.1068019838147691,1.4820908358622762,9.622574744295825,-0.25747208796972765,-0.5338653478700686,-0.16802058746393914,84.81049247639655,-6.476625606477839,-8.746415809636206,0.7348010800054514,-0.009335861727548614,0.09462226797298715,-0.6715347346989531
77.0,-0.09339233262148289,0.04795128507736692,-0.005876259787943501,-1.0545800831741037,1.4651260630924288,9.632093823760812,-0.16899346924056796,-0.3993358013937282,-0.15503335628114345,84.88304361723053,-6.17905520587464,-8.648661533850362,0.7344929754305385,-0.010813427414718444,0.09220297442532124,-0.6721984275303381
78.0,-0.10358729534299951,0.05744741673223186,-0.007377646023004007,-1.0216852028773744,1.4587767412236339,9.63692997639653,-0.08159854913641303,-0.3005751587613802,-0.15425558943089432,84.94174862313139,-5.9814630868082865,-8.607496089505826,0.7342617350539788,-0.011871173380746319,0.09079061649088645,-0.6726382786240401
79.0,-0.09605938331272712,0.055308680828743795,-0.005045333633059832,-1.0546998988423064,1.463259338353752,9.633638867033827,-0.20490357236521672,0.22938209508823199,-0.3141194597429845,85.12368705743509,-6.177983215316024,-8.631353030984226,0.7331520280900303,-0.010880308144543105,0.09209652851167059,-0.6736932832894984
80.0,-0.09685995279307633,0.046869394177812766,-0.004468135326514555,-1.138665617623918,1.4519622344610537,9.62496459480724,-0.12797501966955155,0.2617820613690008,-0.39126671911880406,85.38936369000785,-6.675147521636507,-8.575349134539731,0.73144769034225,-0.007523069938631,0.09459325993863099,-0.6752391895633358
81.0,-0.10134893784421714,0.04745515342250199,-0.0038941778127458693,-1.1945255704169946,1.447507474429583,9.617977970102288,-0.14180517309205348,0.13489870180959876,-0.2904651848937844,85.61354494492525,-6.9988886703383155,-8.551418666404405,0.7300268467761604,-0.00546795022108576,0.09636222079150275,-0.6765506261624705
82.0,-0.09649234760780787,0.047668792851523,0.0006680248023678394,-1.203356224944738,1.4646062717770034,9.614488217001991,0.14005335365853655,-0.691762555730396,-0.5500366462477988,85.91146717292345,-7.047997686486081,-8.651429379285151,0.7281959913407607,-0.005995236261492638,0.09727102384223145,-0.6783882170009087
83.0,-0.0904705736538664,0.05120489530048018,-0.009847439211719303,-1.1139211732375602,1.5095555739980289,9.617641707900844,0.16602548121786542,-0.5931677088479437,0.05453320538322737,86.12067697074531,-6.521917072800431,-8.911213212710845,0.7270231602747503,-0.011109084417880598,0.09581339235997544,-0.6797695748943966
84.0,-0.08497077819106344,0.05607732682299497,-0.010901951968828445,-1.0446122294946556,1.5325427639575397,9.622607710943416,-0.05396226969416572,-0.4946773128931188,0.09323570276279873,86.13950725949127,-6.119813112849205,-9.053107870826592,0.7270003672099836,-0.0145514522308578,0.09429203483290444,-0.6799489996082263
85.0,-0.09067697304921246,0.06499441196402023,-0.011077113287970883,-0.9842127524644497,1.5326786400432864,9.629040104437792,-0.07371978765932438,-0.44629634358469006,0.05723483856088654,86.14024254103596,-5.760835138930806,-9.066372483800393,0.7270806931441773,-0.016857956943179108,0.0922693397079121,-0.6800930786683602
86.0,-0.09899780989203345,0.07108099827154592,-0.01168096419709323,-0.9218774226523665,1.507062372736041,9.640133742226766,-0.3368205547265938,-0.5870053708482066,0.014755302836698188,86.14013012181617,-5.3888951461766545,-8.902904967313257,0.727295270000885,-0.018293162859473112,0.08902781938424716,-0.680258603601686
87.0,-0.10051066921112481,0.07328945945947757,-0.014225705582117857,-0.841424923907203,1.4780357946629517,9.651597911539,-0.35513578877163676,-0.381368211256781,-0.02474811194757949,86.26166405495101,-4.914155878322301,-8.71086752524368,0.726820520377536,-0.0203463320153272,0.08502107235463152,-0.6812197814398597
88.0,-0.09734451543735571,0.0717589046149235,-0.010440940910649801,-0.8283078364069707,1.4631377992581773,9.6562957263036,-0.20338532435306628,-0.2347816391581144,-0.07530975941184438,86.34570243715109,-4.839594681151526,-8.619297937507024,0.7264245373210388,-0.02034742519947375,0.08400885384148793,-0.6817787798539205
89.0,-0.10622448506122777,0.06677115737658618,-0.012000040347798023,-0.828427343702717,1.454909913453974,9.658670136577303,-0.16822011993382963,-0.10591328501684522,-0.1814144803203615,86.3965455350118,-4.841739544876839,-8.556768784421715,0.7262006933725009,-0.02007858868729448,0.08365830949217254,-0.6820763255828742
90.0,-0.12265401258851297,0.06330782848151063,-0.008531864673485445,-0.8505188827694725,1.4531001180173098,9.656514555468135,-0.14390120967741934,0.105562795043273,-0.17790740558615264,86.41641792879622,-4.969954760031472,-8.547537618017309,0.7260547572511802,-0.019207183778717548,0.08435874401986625,-0.6821774789097166
91.0,-0.11196538158929974,0.043390243902439035,-0.00646420141620771,-0.9090786782061366,1.460755310778914,9.648977183320216,-0.1427517702596381,0.16328186467348543,-0.1254032258064516,86.43192368214005,-5.317948465774981,-8.602625885129818,0.7258232483367426,-0.017290371389457125,0.08672803245869394,-0.6821659269527931
92.0,-0.10389063729346969,0.029523603461841075,-0.00413375295043273,-0.9497832415420925,1.4699583005507466,9.644142407553101,-0.11413257277734067,-0.06083546420141621,-0.14033241542092842,86.43569531864674,-5.5610493705743504,-8.647669158143195,0.72558037204642,-0.01605942937372148,0.0884953802206924,-0.682228798153816
93.0,-0.10914044059795434,0.03324960660896933,-0.005307631785995279,-0.9621544059795433,1.4745361919748219,9.641752557041691,-0.12409520062942565,-0.11992402635719905,-0.1386801730920535,86.46905241935482,-5.632889948859166,-8.670653029110936,0.7254310676062155,-0.01575083955546814,0.08908533522206927,-0.6823226957787176
94.0,-0.10497383949645947,0.03086093627065304,-0.005331431943351692,-0.9507848151062155,1.4754860346184095,9.642316089693146,-0.09051435877261998,-0.20884023406766322,-0.17190696302124311,86.50363026160502,-5.562413945712038,-8.681848691974821,0.7251873601209678,-0.016261499040912668,0.08872537922383954,-0.682618764738985
95.0,-0.10303933910306845,0.02981353265145556,-0.004645554681353265,-0.9633520849724628,1.4753276947285587,9.640936270653022,-0.12398701809598742,-0.26079612509834776,-0.1848446105428796,86.54977380015735,-5.633475118017309,-8.686816483084186,0.7248822470806449,-0.015847365133359558,0.08915818745869397,-0.6828899271396538
96.0,-0.10085090479937056,0.0356628638867034,-0.00650609756097561,-0.9528271046420143,1.4770706136900067,9.640440597954358,-0.10142112509834776,-0.27865730723839494,-0.1541699449252557,86.61621754523996,-5.571610690401259,-8.706149193548386,0.7245502044584972,-0.016395111763375297,0.08883168002517702,-0.6832691203747048
97.0,-0.10939319433516914,0.034065302911093644,-0.008378048780487805,-0.9300950039339103,1.473402242328874,9.645252557041692,-0.1298436270653029,-0.28234780684500393,-0.10364747246262786,86.6558910306845,-5.436384982297403,-8.696824596774192,0.7243722193865066,-0.017213261329268294,0.08795635105291108,-0.6835588478123525
98.0,-0.11718922108575923,0.032533044846577513,-0.010630212431156569,-0.9033481510621557,1.4672879622344608,9.647787568843423,-0.14305664830841858,-0.2366738788355625,-0.09919846577498033,86.67471970889065,-5.2906790912667185,-8.664599724626278,0.7242867189819042,-0.01799938232061369,0.08685217878835562,-0.683769761994099
99.0,-0.12627079352590762,0.03422369899966282,-0.010140140871454796,-0.8817984620283992,1.4633922108575927,9.648999999999994,-0.13738971001461164,-0.19279907084785133,-0.12075617717582704,86.70507392473118,-5.163831265688808,-8.63611130624555,0.7241600976609345,-0.0186725601519145,0.08591405040331948,-0.6840057880222641
100.0,-0.1151132685174778,0.03161234123861978,-0.008278567681990184,-0.8802844591809972,1.4676306058221869,9.649661290322573,-0.12360978419692031,-0.2616065574538234,-0.06271015979169008,86.73010752688171,-5.151890677100894,-8.644496447772656,0.7239504505159512,-0.01886303785654341,0.08593973448136075,-0.6842275086142992
101.0,-0.10191196470720468,0.030502866134652147,-0.005390955752875501,-0.8776154790004123,1.4738394964594796,9.649991935483865,-0.08724499831403844,-0.34656596558765124,-0.09547904724438949,86.76958759506951,-5.131383354876174,-8.665418586789553,0.723781465931363,-0.019201205457972728,0.08603525247592822,-0.6843776827472561
102.0,-0.09929302011914129,0.037394627402495245,-0.0076954778764377505,-0.8539061856056347,1.4770810385523196,9.649999999999993,-0.012778183657412606,-0.2796073582855644,-0.11056161252856767,86.793059926567,-4.9992319508448535,-8.68196676782436,0.7236675276808665,-0.020178702845528453,0.08532490036266907,-0.6845555770357052
103.0,-0.10906822524446444,0.0465179273912555,-0.011699823910681504,-0.8281883406391668,1.4770731707317064,9.652391817466563,-0.10616289198606271,-0.17213550447716458,-0.10251231688584167,86.80479609231577,-4.8435872578771875,-8.683233580607695,0.7235997243400399,-0.02116480774455809,0.08442146978400958,-0.6847084728687574
104.0,-0.12179985762991272,0.052421790116518686,-0.013929789067475929,-0.8065711288449291,1.47578696939043,9.656357199055867,-0.08017918024802367,-0.31785058633996477,-0.14186195721404218,86.8338016559889,-4.711300157356412,-8.680470476939792,0.7234623216477466,-0.021952873987486417,0.08359275851335657,-0.6849318872638717
105.0,-0.11650181709190363,0.05167509647446707,-0.015926342212730885,-0.7827072796073584,1.4826810535386459,9.658339889850518,-0.09258270578097486,-0.3345743883706118,-0.11796579371323668,86.88867502154284,-4.572236428009441,-8.716784215653217,0.7231289411071148,-0.02311803951144581,0.08298805097186315,-0.685322290689371
106.0,-0.1224011839196733,0.050786407403244554,-0.014843580233037355,-0.7668217751301939,1.4863759319620846,9.659079464988206,-0.12492038514855194,-0.19187413360308717,-0.10648486381177175,86.93096221572813,-4.481215578284815,-8.739120864710952,0.7229083472136674,-0.023866751659735487,0.0825391356078828,-0.6855859469772585
107.0,-0.11640515529579257,0.04608557191562701,-0.014184181933985239,-0.7796107302086844,1.4904893035105466,9.656176239181747,-0.08852234835712412,-0.11528698812333744,-0.14015726274774268,86.96850530141245,-4.55684500393391,-8.765065939829906,0.7226714401685961,-0.023573754779513692,0.08315656506200592,-0.6857636351448055
108.0,-0.10699250683751077,0.0382866883968379,-0.012388707804128735,-0.8008234610917537,1.4994932748866656,9.653013375295039,-0.12171003334457307,-0.10976288823948147,-0.12903811209771082,87.01147039264171,-4.683216955153423,-8.823130924281593,0.722383961719231,-0.023089459706043237,0.08421629943737588,-0.6859518742844404
109.0,-0.10227771389376425,0.03727107668099015,-0.01083366620266699,-0.8170255199822468,1.5001652242328873,9.651345397324937,-0.10874362000443825,-0.09801589703241945,-0.1178597006193387,87.04027340676633,-4.779509118602352,-8.826640642336944,0.7221713107639045,-0.022553534630878176,0.08485713127753232,-0.6861245040824304
110.0,-0.10813728338275938,0.049799975791321206,-0.010924307530916503,-0.8069746010611472,1.4932100708103846,9.652399685287179,-0.07155808065524824,-0.25106341665153625,-0.11410294236317053,87.0565499606609,-4.723079696988037,-8.785959974984365,0.7220629827304965,-0.022710270273739633,0.08421114002114224,-0.6863108135833079
111.0,-0.1130733623837479,0.06048614053138051,-0.013428322136819385,-0.773373217131675,1.4888394964594807,9.656207710464207,-0.09623832435594827,-0.264595437672739,-0.10034907149629807,87.09330743509048,-4.524034931106135,-8.752096824628296,0.7219368118609206,-0.023798935412243538,0.08285232330718797,-0.686572354561127
112.0,-0.09979474570800298,0.06041301519094597,-0.012691344388629991,-0.7689824386209123,1.4893528717545244,9.6582140047207,-0.13523560592305675,-0.3130363104964797,-0.04820266320684298,87.12810533044846,-4.498465144545987,-8.751240190441607,0.7217167452026867,-0.024025881271818074,0.08268491960087958,-0.686813861375764
113.0,-0.09098775444330123,0.06281026447981602,-0.013725392886683212,-0.7414693861082533,1.4873800157356407,9.659268292682935,-0.09420857794185883,-0.47114123746696523,-0.07256526256329561,87.16321793863099,-4.3330027335633154,-8.748603966188544,0.7215363227712883,-0.025036981629123038,0.08163276292081745,-0.6870911634830238
114.0,-0.08299842643587726,0.06358379228953581,-0.014580645161290325,-0.6898347757671125,1.4917545239968528,9.661601888276952,-0.13025668764752163,-0.5799616443745083,-0.05065401258851298,87.20963316286388,-4.027517702596381,-8.769861329661683,0.7213177128025177,-0.02713517948701809,0.07994244063493312,-0.6874313447340679
115.0,-0.0821136900078678,0.05634107002360348,-0.01523839496459481,-0.6211132966168371,1.4917104642014165,9.666064516129035,-0.18308664437450828,-0.5826834185680566,-0.042911585365853655,87.25935533044847,-3.6248869000786783,-8.764843135326515,0.7211323412572779,-0.02971621904484657,0.0775289229311566,-0.6877886216636508
116.0,-0.08904137162339365,0.055222220541064,-0.016759688514999295,-0.5546966349936453,1.490941778127459,9.6681935483871,-0.08461358787750407,-0.37629525888155907,-0.1383339070285864,87.30218593652282,-3.233956265508685,-8.757913306451613,0.7209753407970909,-0.03214650828051806,0.07514548213777261,-0.6881079091794824
117.0,-0.09220862837660634,0.051698541427101646,-0.01813122112610705,-0.5180306542395448,1.4943733280881195,9.669258064516132,-0.18432771742419657,-0.40277624372087395,-0.04475150799895095,87.34209599245496,-3.0246873676087875,-8.775174567269866,0.7207721577392219,-0.03364874153719058,0.0739652141807077,-0.6883856587926326
118.0,-0.09285883818515606,0.03979498275131636,-0.016508568863604273,-0.4742907008412514,1.5025721872541302,9.671426829268293,-0.16363809159958848,-0.5321808047872663,-0.05699416469971151,87.3811433935524,-2.76659722432367,-8.82710341266719,0.7205615215368022,-0.03552770810927193,0.07263705449397309,-0.6886516959502109
119.0,-0.09841809036753962,0.04001001057688708,-0.01673335509232441,-0.40457296178775337,1.5057705406316733,9.675979543666408,-0.11066289180593862,-0.5548180809650617,-0.12707139110561613,87.42463467680693,-2.3603231417317274,-8.820129327301338,0.7203412122770417,-0.03820356395862982,0.07025328931553491,-0.6889857885841687
120.0,-0.11737102394065417,0.03733407688561113,-0.01591752333687818,-0.357660202373027,1.496224570079801,9.678151062155788,-0.20898322107999526,-0.24524256231573305,-0.09125501105241467,87.46551794324216,-2.0818316387258164,-8.773898505114083,0.7201850209690679,-0.03967964951934244,0.06828417418245275,-0.6892636662242245
121.0,-0.12774793001386234,0.032514705331385126,-0.015595893746955906,-0.3552493349818291,1.4928605147802627,9.679236821400476,-0.11723521037053689,0.034379566145891854,-0.11195487242890861,87.48536960023978,-2.072203645423551,-8.757228560188828,0.7200798110194448,-0.03966345109175378,0.06809268318646734,-0.6894041904106257
122.0,-0.12117844966468096,0.031732569030759446,-0.013293619572140423,-0.4013304109999625,1.4994373384286832,9.676811959087336,-0.08796457607433217,0.11359025514218275,-0.17044930875576036,87.51002350979729,-2.3406602412798323,-8.800531077891424,0.7198654899597617,-0.03822583434446068,0.06994770081667978,-0.6895194043752579
123.0,-0.11547356786931923,0.023785245963058713,-0.012729421902513959,-0.4512537184818853,1.5088477014724067,9.673354838709681,-0.15220416057847214,0.018247723951893897,-0.13731946161627515,87.53867127496159,-2.6354756753212696,-8.83776553894571,0.7196365914999441,-0.036669974796935303,0.07202066702517704,-0.6896201352356226
124.0,-0.12549331235247835,0.018845003933910316,-0.0118985051140834,-0.4551667977970103,1.5095759244689222,9.67151612903226,-0.09850511408339888,-0.2645800550747443,-0.16556353265145554,87.55625,-2.6586988591660115,-8.857390833988983,0.7194738848859168,-0.0366828537678993,0.07225989585129819,-0.6897703363351693
125.0,-0.12792368214004723,0.020437450826121174,-0.011244295830055076,-0.45420023603461845,1.5145676632572784,9.670596774193552,-0.12065302911093626,-0.11726740755310779,-0.1424788552321007,87.59264112903224,-2.652790617623918,-8.874850019669552,0.7192575679110937,-0.03685313508221873,0.07231959390125885,-0.6899867546034618
126.0,-0.12557867820613688,0.014164437450826125,-0.01066148701809599,-0.45183261211644377,1.5139990165224233,9.670137096774196,-0.16693548387096774,-0.2806045928402832,-0.1367144472856019,87.62185164240755,-2.6373217446892214,-8.881022570810387,0.719056585344217,-0.036973763941581445,0.072267445609166,-0.690194655444925
127.0,-0.11398288749016522,0.01392899291896145,-0.011342840283241543,-0.4487429189614477,1.5127132179386307,9.670000000000002,-0.0953125,-0.26568032061369,-0.15270702202989772,87.657221184107,-2.6191901062155782,-8.87854051927616,0.7188654402527538,-0.0370934248861133,0.07208276466345398,-0.6904058402627852
128.0,-0.11124822974036191,0.017150865460267513,-0.01277517702596381,-0.44089811172305265,1.5078286782061365,9.671510621557832,-0.12838930959874115,-0.21548854248623128,-0.10694826907946499,87.67437672108576,-2.5772312647521636,-8.850806451612904,0.7187267010613689,-0.03721942917407553,0.07164961708536585,-0.6905917452468526
129.0,-0.11035483870967742,0.01903776553894572,-0.009982690794649883,-0.43642250196695515,1.5070220298977177,9.672643587726203,-0.12247246262785208,-0.20590086546026748,-0.09912962234461054,87.71272619984265,-2.5493951612903225,-8.836152635719905,0.7185521559811172,-0.037332808524783635,0.07139129012116444,-0.6907943215617621
130.0,-0.11626711250983474,0.018472462627852092,-0.015392604248623133,-0.41427340676632585,1.507995672698662,9.676105428796227,-0.19417781274586937,-0.45592053501180174,-0.10825383556254917,87.76091660110148,-2.417301829268293,-8.850658929976396,0.7182801366058221,-0.03821861643784422,0.07061171616207709,-0.6911062160444529
131.0,-0.11082416357573713,0.025565518339515203,-0.010603274512007793,-0.41216105616125287,1.5058823667153716,9.67538758382976,-0.09144093514667864,-0.05373955640478065,-0.05969293254280469,87.77325924468923,-2.407031220729834,-8.840433104791877,0.7181820156160503,-0.03818881863291933,0.07046276249900715,-0.6912196185875855
132.0,-0.1008515979169008,0.02248840433104793,-0.011043572739874864,-0.43527810872578787,1.5079210220673627,9.672693791914881,-0.10338175789591997,-0.15287784271851934,-0.11580916788430558,87.79166994492525,-2.543006537784272,-8.857716552395939,0.7180957849047993,-0.037376751441459674,0.07132525865272939,-0.6912655325478251
133.0,-0.10696002397811996,0.022625004683226563,-0.013476153010378031,-0.41606549024015604,1.509066726611966,9.67532801318797,-0.1458342699786445,-0.24926051852684428,-0.12849368701060282,87.82534421715185,-2.4286875725900114,-8.867169645198755,0.7178995316931548,-0.038189252424113,0.07068763672998388,-0.6914848781267842
134.0,-0.10658780113146753,0.013747592821550338,-0.01077426848001199,-0.40826091191787506,1.5122359596867863,9.673486193848117,-0.11906682027649769,-0.3187687329062231,-0.13589318496871605,87.85855625491739,-2.3844608201266344,-8.871920778539582,0.7176672093005507,-0.038610005330860606,0.07053846219268668,-0.6917239442089467
135.0,-0.09445271814469297,0.013955958937469561,-0.00825177025963808,-0.40558057022966554,1.516291071896895,9.671716496197224,-0.09447496347083287,-0.3449900013113034,-0.173580279869619,87.90556812221348,-2.369488193585853,-8.895113287250382,0.7173619797977033,-0.03884706530021356,0.07054229346380803,-0.6920298094917952
136.0,-0.08889686598478888,0.014328209883481326,-0.0085767299838897,-0.39990626053725986,1.5160679629837772,9.6725057135364,-0.1579085646847252,-0.2967749545727024,-0.14108161458918736,87.9701371717058,-2.3395300030909296,-8.894969278033793,0.7170042574487747,-0.03908386118697315,0.07034472693543703,-0.6924097375531171
137.0,-0.07234685849162639,0.01680753812146417,-0.010738825821437935,-0.3913985987786146,1.5073811397100148,9.676414147090785,-0.06945927466187103,-0.2917954553969503,-0.16915111835450153,88.03120433854107,-2.287116912067738,-8.844278033794161,0.7166503906635195,-0.039168652573901314,0.06968947540032222,-0.6928361973017121
138.0,-0.06557154096886592,0.02377355662957552,-0.012792701659735492,-0.38100221048293437,1.5078093739462737,9.678242478738156,-0.10094226518302049,-0.27023388033419504,-0.17203130268629874,88.11158958075755,-2.2264902026900453,-8.840756247424224,0.716232950595332,-0.03958073562998764,0.069294641740287,-0.6932878552283541
139.0,-0.07664100258514106,0.02363343449102695,-0.011931362631598667,-0.3675664081525607,1.5039125547937506,9.679254992319514,-0.18351106178112475,-0.16671115731894648,-0.12700207935259075,88.15438841744408,-2.150150097411112,-8.825620059195984,0.7160108560923162,-0.040042105037653125,0.06872933198344011,-0.6935325813041848
140.0,-0.09311734292458132,0.018509984639016902,-0.009894159079839648,-0.3440871454797497,1.5021372372709898,9.679784946236563,-0.10154640140871456,-0.38326940729084713,-0.16084892847776405,88.18975731519988,-2.0095912479862124,-8.817379922071108,0.715764527141546,-0.04091270803604211,0.0678086782512832,-0.6938317757554979
141.0,-0.10248079877112135,0.024870742947060813,-0.010973361807350793,-0.31422089843018247,1.505980292982653,9.680000000000005,-0.07800147989959162,-0.14228110599078345,-0.15110430482185006,88.27304615788093,-1.8361046326477088,-8.842754814356898,0.7152843117970482,-0.042181499293020105,0.06688950383387658,-0.6943446570711098
142.0,-0.1196852871754524,0.020306845003933916,-0.012077104642014164,-0.3076239181746656,1.5081667977970095,9.680000000000005,-0.16669944925255703,-0.17038749016522425,-0.057435090479937057,88.32872738001574,-1.7960267505900864,-8.86014948859166,0.7149744143351693,-0.042484261754523994,0.06668535025963807,-0.6946613293705741
143.0,-0.11660146744003073,0.015543154081203232,-0.012280204197390815,-0.3151424441476223,1.5109113863831813,9.680000000000005,-0.08193626150440048,-0.2836875377380931,-0.12343901524161528,88.36398848187656,-1.840495947157521,-8.869665205935629,0.7146983015463012,-0.04235378362358882,0.06703245742795455,-0.6949224830292937
144.0,-0.10032752090461639,0.019884910251953238,-0.010044096389951147,-0.29887234003622865,1.5216518763837301,9.678439609902481,0.010498051342103819,-0.11965834446416482,-0.714530766838051,88.58932263553693,-1.7448767679724808,-8.93110510859422,0.7132728786741808,-0.04343879769674125,0.06674115048396245,-0.6963365966206795
145.0,-0.08597862880354235,0.027010411139370222,-0.011737873492763437,-0.31718697967174714,1.5424981245311322,9.674058514628662,0.008593993010447732,-0.2070540500978903,-0.3616201306424167,89.19514596636964,-1.8548021151629368,-9.056348690831244,0.7095096222556861,-0.04387554065522478,0.0679487196417397,-0.70001158235504
146.0,-0.08003195049633488,0.029353618892528025,-0.014032549949334026,-0.3306642252897718,1.5462797842317713,9.671867966991751,-0.06310048766547038,-0.25165045616804893,-0.29759568594239155,89.48446486621656,-1.9317470918252209,-9.077139820669453,0.707718088546823,-0.04369699689255937,0.06843198713569507,-0.7017927089211415
147.0,-0.08377064046231339,0.03281647334910653,-0.014876631245723523,-0.31725821565281415,1.5452118524136522,9.67169907861581,-0.16817923574300167,-0.39305121610072846,0.00044550972908061204,89.66008809894781,-1.8529362766515804,-9.072844103883114,0.7066844739352967,-0.04423906970220576,0.06786891048638533,-0.7028657855974707
148.0,-0.09243134959564067,0.027530124289314097,-0.013257270361546433,-0.2694064450178479,1.5378722427859712,9.675849539307908,-0.18160841721419366,-0.3415015841872556,0.10004458532215471,89.634006200726,-1.5695005482139766,-9.038391294252135,0.7069014312308568,-0.045795962939553556,0.06595027095122682,-0.7027304639895686
149.0,-0.1036171405488735,0.019992003495379346,-0.013118142172905866,-0.24378905165851908,1.538413202201649,9.677973531844504,-0.1352918930282021,-0.21689934846348946,0.03076267006312018,89.61063119488662,-1.418807826956739,-9.029332195686283,0.7070255797284759,-0.04666947321761757,0.06499412054774684,-0.7026400369477532
150.0,-0.10431194611839775,0.01835909252038285,-0.012151719248493443,-0.2456507148765213,1.5388615148292564,9.678631927212578,-0.1403203651187522,-0.03580807633226987,-0.017448747489070063,89.5835179605341,-1.4325940860215054,-9.036116773011933,0.7071276705716651,-0.04662193854354247,0.06509066752593644,-0.7025333583891054
151.0,-0.10872372998100772,0.013074773115685785,-0.00996893219552543,-0.24797184876492506,1.5392886683209257,9.679477253928873,-0.20020343215661862,-0.15808764406325382,-0.053784623454174986,89.58763001357414,-1.4448812333745455,-9.035477062276826,0.7071219713133325,-0.04652610311670023,0.0651515934920904,-0.7025428475173018
152.0,-0.1111756426107331,0.006822746359331725,-0.00829593957052651,-0.2467656715170484,1.5395947063688995,9.679870967741941,-0.17251250421490388,-0.2211292231896087,-0.15829887559332875,89.64973563186092,-1.4365306261401856,-9.040539990431807,0.7067845347202371,-0.04660187621568203,0.06508599321715475,-0.7028860956634129
153.0,-0.09980333947062217,0.0056987307333399954,-0.01176174822987441,-0.2533510420958227,1.5388783734395135,9.679935483870974,-0.12446837210173622,-0.16585131273437498,-0.15569201093995022,89.7350300663145,-1.4736600769396315,-9.021770370309678,0.7062427059604828,-0.046369979372800116,0.06524790853084367,-0.7034273799849236
154.0,-0.08788110965023485,0.0089098640078138,-0.012801587809844448,-0.2660415850913947,1.5327010324009578,9.679967741935489,-0.16073649019833355,-0.1859587120212109,-0.11654386674848154,89.79085412685924,-1.5556553663677244,-8.992909880889211,0.7059095908001634,-0.04570274331336449,0.06551076105438555,-0.7037792342462728
155.0,-0.08153929597381925,0.01437340171279754,-0.011884173133875804,-0.261667429052385,1.5270350165938704,9.680000000000005,-0.05685698428091343,-0.3846320900782687,-0.20908760508942564,89.86786510434229,-1.5260721757094324,-8.96344082754138,0.7054666627659354,-0.045686374496768795,0.0650972174335657,-0.704264277066488
156.0,-0.07328656380122905,0.029113530124691464,-0.014844525591328149,-0.23345999304704224,1.533904605071128,9.680000000000005,-0.0017172411569791428,-0.23456624173464968,-0.19818070262339105,90.02028680079427,-1.3610347109861087,-8.998872262708534,0.7045311842138096,-0.04704065434909249,0.0642547058505358,-0.7051896063727402
157.0,-0.07737217928175423,0.033160882555133574,-0.012975726510024724,-0.2320790842309881,1.5369523025355638,9.680000000000005,-0.12591716091043664,-0.1951909362358011,-0.09591687991684333,90.1115258888764,-1.3496760840907092,-9.008133468471648,0.7039345846126184,-0.04727471499740788,0.06425219236215673,-0.7057743011097342
158.0,-0.07552231089131169,0.02593930538383726,-0.012538308793226184,-0.22994500018732916,1.5382581394477532,9.680000000000005,-0.1741790303847739,-0.22396547525383087,-0.02677822112322506,90.17680444719193,-1.3382216852122437,-9.02132905286426,0.703552725379791,-0.04743196697220036,0.06420725060855717,-0.7061464133187592
159.0,-0.07928189277284478,0.0192868569929939,-0.013788355625491744,-0.21864761530103793,1.539954722565658,9.680000000000005,-0.10086639691281704,-0.2331424918511858,-0.11045132254317934,90.25307676276648,-1.2749816183357685,-9.04347462627852,0.7031071907889739,-0.04798823975338129,0.06386944708999286,-0.7065817289827285
160.0,-0.07491126222322131,0.016083614326926683,-0.012861545090105283,-0.21245857217788772,1.5454297609681156,9.680000000000005,-0.12713391218013564,-0.21197793731969578,-0.057392824360271245,90.32116859381439,-1.2377949847326815,-9.055003442171518,0.7027161031002679,-0.04839569637082723,0.06376497711267842,-0.7069524583760071
161.0,-0.07792514330673261,0.016164250121763896,-0.007407365778726914,-0.18736353077816498,1.5478640740324443,9.680000000000005,-0.1280019482222472,-0.1171157880933648,-0.08001058409201603,90.38153544265857,-1.0904190551122102,-9.066286388670338,0.7022972946169119,-0.049439754653253905,0.06290705453411262,-0.7073718434389871
162.0,-0.08395863774305946,0.009639953542392568,-0.007303210820126636,-0.20463377168333907,1.5490933273388021,9.676978756884346,-0.08755526207335806,-0.09767571466037242,-0.17216009141658234,90.42692527443708,-1.1939113371548462,-9.081628638867034,0.702032317269117,-0.04887676083960885,0.06357307407665505,-0.7076173405039154
163.0,-0.09923502304147466,0.007750739949795812,-0.007971038926979134,-0.2052075231351393,1.5497158218125948,9.678489378442176,-0.1305842793450976,-0.05208825072121689,-0.12699271289947922,90.13638749953168,-1.2012731351391854,-9.072531471282455,0.7038193715126073,-0.04865026270147241,0.06372421246633696,-0.7058099648097862
164.0,-0.11099078341013827,0.0005750627552358477,-0.006711325915102471,-0.20296628076879852,1.5463870967741928,9.67924468922109,-0.17444152523322465,-0.07860748941590798,-0.07574674047431718,88.19296813532651,-1.1865284646510057,-9.067515735641228,0.7155883247908659,-0.0475712614021955,0.06434893091903637,-0.6936978660853848
165.0,-0.11770967741935484,-0.0017301337529504316,-0.006389457120377657,-0.2120660896931551,1.5430322580645155,9.679622344610546,-0.12597364280094414,-0.08200727773406766,-0.10217348544453186,86.3662421321794,-1.239880015735641,-9.040007867820613,0.7265320437372149,-0.04606740015578285,0.06527407868686075,-0.6821971204704957
166.0,-0.11962116443745083,-0.0035920535011801724,-0.00909087332808812,-0.2250708103855233,1.536967741935484,9.679811172305275,-0.1924468922108576,-0.12770702202989773,-0.05422895357985838,85.08984805271439,-1.3134687254130606,-9.018774586939417,0.7341356041990557,-0.04468776833910306,0.06605305759992133,-0.6741084040409124
167.0,-0.10758398898505114,0.0030466168371361133,-0.010218135326514558,-0.20135129819040132,1.5303918174665623,9.68050354051928,-0.14650373721479149,-0.44492648505114085,-0.1874213217938631,84.47214668568057,-1.173945220298977,-8.981899095200628,0.7378268672568842,-0.044979499385916596,0.06521042387077104,-0.6702414945578283
168.0,-0.10369831482260808,0.001542531974457029,-0.009769138931074235,-0.20177111046054208,1.5298733280881203,9.680251770259643,-0.14169710491647303,-0.06544723071011657,-0.08869964251733664,84.24286781489579,-1.1758182590617166,-8.957683418568056,0.7391602840085997,-0.04478548973046767,0.06524532707295119,-0.6688509112177736
169.0,-0.10880372074726,0.0007421550509578612,-0.00882015168426253,-0.20829664885733631,1.5297269866247056,9.680125885129824,-0.10990736441732385,-0.013650297101714469,-0.07140836276142207,84.18538392220006,-1.2133572265017474,-8.94557558025177,0.739473322461027,-0.04447086197390811,0.06545696469088157,-0.6685216480858738
170.0,-0.11297276910691087,0.0006792993980202367,-0.010225870492013248,-0.24434865881104423,1.5297022029897724,9.680062942564915,-0.1598839782354125,0.22592526942711288,0.052857974402137124,84.18726439422355,-1.426932104596271,-8.962332808811958,0.739462693904196,-0.04310728739431047,0.06672760170824565,-0.6684947335514935
171.0,-0.1188049329405522,-0.00784180191389311,-0.007508096536329206,-0.30185578101842525,1.5298269079464994,9.675386309992135,-0.16938251331125462,0.2721360218103306,0.024160842039778238,84.19007876969242,-1.762281576491684,-8.957779307631785,0.7394190485327434,-0.04093171566892943,0.06868410755976798,-0.6684729056265531
172.0,-0.11554172689513842,-0.0060098073298812515,-0.006153733555340055,-0.3593952390536658,1.5253548387096783,9.67251612903226,-0.08954471849669733,0.05446887636543282,-0.10294219896437524,84.21018493952757,-2.0973878378131117,-8.947442958300549,0.7392920571318321,-0.038684193828957235,0.07057475048326715,-0.6685501250508848
173.0,-0.10751534225019671,-0.0037639653815893,-0.004311565696302124,-0.39572619984264346,1.522516129032259,9.67109677419355,-0.13223839496459477,-0.0964693154996066,-0.10744984264358773,84.24826907946499,-2.307415420928403,-8.942471479150274,0.7390636343084189,-0.03726938723367427,0.07170566746813534,-0.6687647379394182
174.0,-0.09885976546401408,-0.0020009366453111535,-0.005839421527855831,-0.40650964744670487,1.5208509984639027,9.670387096774196,-0.10780225544190924,-0.08640997901914503,-0.14810247368026677,84.28990905174028,-2.3732023434865686,-8.927696953092802,0.7387890770290735,-0.036751992739575134,0.07194541209287775,-0.6690730330351242
175.0,-0.09952823048967815,0.004152954179311379,-0.007392566782810687,-0.43039093701996955,1.5188794724813617,9.670032258064518,-0.07025144243377918,-0.07639735772357724,-0.10822708263084935,84.32338194522498,-2.5159432252444645,-8.900438759787942,0.738591589450807,-0.03577262455625493,0.07267241063337829,-0.6692610440116612
176.0,-0.09534062980030722,0.005355784721441685,-0.0062592259563148634,-0.4584623843243042,1.519278445918101,9.670000000000002,-0.1533667715709415,-0.024205022292158408,-0.055611500599452995,84.35221516616087,-2.6784771200966615,-8.89902261061781,0.7384151340172996,-0.03471630288571992,0.07358596323643737,-0.6694067610834269
177.0,-0.09440860215053765,0.0026154883668652353,-0.006244052302274176,-0.4797077666629199,1.5164280094413856,9.670000000000002,-0.10259544415720655,-0.07753549885729273,-0.14002613240418119,84.37831572440147,-2.7991691956090063,-8.886003240792776,0.7382486195695175,-0.033915060035217874,0.07425874103930162,-0.6695664217185566
178.0,-0.10514293207448205,0.008003259525682815,-0.0015681315799333118,-0.47004271102618866,1.516199842643588,9.670881195908734,-0.11143737589449626,-0.41585763927915775,-0.1642548049904462,84.42219287400246,-2.743605054138099,-8.873986081450676,0.7380259787029333,-0.03425792291296691,0.07384689147165713,-0.6698455922204112
179.0,-0.10057734816979505,0.009040875201378742,-0.0046933423251283215,-0.4498250346558764,1.5128204263609455,9.672077104642016,-0.10866256416020381,-0.2476654115619497,-0.1562558540331947,84.4874840770297,-2.623386628451538,-8.854986231313926,0.7376653628747514,-0.03490233533138511,0.07299631142182758,-0.67029928112847
180.0,-0.09561912255067251,0.01455584279345098,-0.007865947323067701,-0.4460297478550821,1.5112921958712668,9.67103855232101,-0.11665917350417744,-0.1529190551122101,-0.15660943763815519,84.5283850361545,-2.606859521936233,-8.864968528717544,0.7373686212760853,-0.0350446592825297,0.07284900932224345,-0.6706342033809146
181.0,-0.08912348731782249,0.011463601963208576,-0.004983327713461466,-0.45252706904949236,1.5104848076130524,9.670519276160505,-0.13322140421865047,-0.12032262747742685,-0.11523430182458506,84.58072477614178,-2.642729524933498,-8.869590873328088,0.7371404396506311,-0.03483151069555281,0.07304115652972912,-0.670874656088569
182.0,-0.08286051478026299,0.012986025251957592,-0.00730733205949571,-0.46228503990109027,1.510180959874114,9.670259638080253,-0.09958881270840358,-0.09489153647296841,-0.1668961447678993,84.64337698100482,-2.6992689483346446,-8.872295436664043,0.736786434913641,-0.034498473523659666,0.07336106103368176,-0.6712442950488928
183.0,-0.07987673747705218,0.014640890187703724,-0.005298415196133529,-0.4762695290547375,1.5099921321793857,9.67010228166798,-0.14844189052489604,-0.14614476789929187,-0.08121651493012626,84.7013600089918,-2.780272376456483,-8.871515679442508,0.7364444501539842,-0.03402249762391818,0.07382996873178224,-0.6715937107684236
184.0,-0.07808512232587764,0.014536360570978984,-0.004858191899891349,-0.4901397474804241,1.505207373271889,9.670000000000002,-0.09863811771758271,-0.08254655127196434,-0.2017932074482035,84.76123271889401,-2.862870443220561,-8.841589861751151,0.7360631419234948,-0.03338402585028662,0.07414338402907346,-0.672009672850399
185.0,-0.07468734779513693,0.021327413734966848,-0.006184481660484808,-0.49157431343898716,1.5072350230414746,9.670000000000002,-0.055800644411974076,-0.0987107077291971,-0.23743021992431906,84.94066820276498,-2.8673639991008204,-8.852918586789553,0.7349716281435688,-0.0335571843741336,0.07423302191525233,-0.6731795549743358
186.0,-0.0765411561949721,0.017579521186916944,-0.005448653104042562,-0.49907983964632263,1.508617511520737,9.670000000000002,-0.09861235997152598,-0.18096924056798172,-0.13250838297553483,85.07315668202764,-2.9096851466786555,-8.863959293394776,0.7341484160505409,-0.033448393013187964,0.0745147345256828,-0.674051667215728
187.0,-0.08876827395002061,0.01772447641527107,-0.00605458768873403,-0.4950744820351429,1.509308755760368,9.670000000000002,-0.12325011239743733,-0.017558353002884858,-0.1159517721329287,85.15679723502303,-2.8869326271027687,-8.869479646697387,0.7336645766374056,-0.03369188549507324,0.07439057968603649,-0.6745806299235324
188.0,-0.09357614926379677,0.015439811172305275,-0.0029773706492825297,-0.5024842456258662,1.5097834101382483,9.670000000000002,-0.10686795174403357,-0.26983908433554377,-0.16359704582068862,85.23081797235022,-2.9328912367464683,-8.872311827956988,0.7332255540829116,-0.03348551316458731,0.07467869446821025,-0.6750413788872653
189.0,-0.09354767524633771,0.017295942452512085,-0.00644797871941853,-0.48521524109250314,1.5141705069124427,9.670000000000002,-0.12439211719306134,-0.16280932711400845,-0.11620232475366228,85.31198156682026,-2.8336787212918213,-8.896438172043009,0.7327309183740209,-0.034275643821924995,0.07416568192150912,-0.675590735606459
190.0,-0.0927108575924469,0.016585759244689226,-0.006843036978756885,-0.4906813532651455,1.5172580645161298,9.670000000000002,-0.10951268686073959,-0.18361280487804876,-0.11585365853658536,85.36481854838709,-2.868241050354052,-8.918145161290322,0.7324339007092839,-0.034191654341070014,0.07445124070653028,-0.6758872271066089
191.0,-0.08940027537372149,0.016129228953579863,-0.007626868607395751,-0.48783084185680564,1.5200491738788364,9.670000000000002,-0.07607321990558616,-0.2324191089693155,-0.17075629425649097,85.43036855822186,-2.8508445613690006,-8.92883064516129,0.7320488313263178,-0.034441384231904015,0.07444323596695515,-0.6762925786241151
192.0,-0.0808097767037578,0.020927325690307603,-0.006899647821363007,-0.4886615806826271,1.517973895695178,9.670000000000002,-0.1677973146378929,-0.26284573920047954,-0.13286998660597205,85.48731009516317,-2.8547005544940243,-8.917276305683563,0.7317166662678058,-0.03436687834079839,0.07435525210214118,-0.6766660790660898
193.0,-0.07938127084035818,0.024750721216889596,-0.010823095800082429,-0.49049496084822614,1.5123853733468207,9.670000000000002,-0.11771682168146566,-0.08475428281068526,-0.15453143147502904,85.52934053145255,-2.8655415214866435,-8.885385464669739,0.7314496509852854,-0.03412189469440073,0.07418303040418119,-0.6769837875376531
194.0,-0.07844869993630811,0.02806890899554158,-0.010544612416170248,-0.49510231913379055,1.5145475253830885,9.670000000000002,-0.08806708019557154,-0.04955960108276198,-0.13328890122138548,85.58120252379078,-2.897438099452999,-8.879512288786481,0.731223473964417,-0.03401004115768423,0.07439236396821963,-0.6772110703575362
195.0,-0.08768805964557343,0.026933648046157894,-0.009155370724214157,-0.4943898692443145,1.5164995691431575,9.670000000000002,-0.1546434191300438,-0.13685137312202617,-0.04131682964295081,85.60660428608895,-2.8930486868232737,-8.876248079877112,0.7311088843814021,-0.03408753021190662,0.07438170348814206,-0.6773388383884454
196.0,-0.0947173579109063,0.02211827956989248,-0.0071536098310291864,-0.5001367127496159,1.516920122887866,9.670000000000002,-0.12577764976958525,-0.1566436251920123,-0.10985983102918587,85.61803955453149,-2.922542242703533,-8.891551459293394,0.731016727310292,-0.033920471172043,0.07461711078341013,-0.6774148821658985
197.0,-0.09934101382488478,0.020970814132104464,-0.0074769585253456235,-0.5002373271889399,1.5185291858678966,9.670000000000002,-0.15553475422427035,-0.10848694316436253,-0.10823252688172041,85.6366935483871,-2.9264544930875576,-8.911827956989246,0.7308601070668201,-0.0340019735798771,0.07470933871889401,-0.6775687492926268
198.0,-0.10104838709677416,0.01506451612903226,-0.006604838709677419,-0.5019112903225805,1.5194758064516143,9.670000000000002,-0.1677923387096774,-0.11270161290322579,-0.09158266129032258,85.6641129032258,-2.9329133064516126,-8.926008064516129,0.7307087582983867,-0.03398969121774194,0.07478273548387097,-0.6777248754596776
199.0,-0.09785778914240752,0.015214791502753741,-0.007794846577498033,-0.5099136506687648,1.5197903225806466,9.670000000000002,-0.09943572974036193,-0.20952129228953578,-0.11402561959087333,85.68232199055862,-2.9708386605035404,-8.932762096774193,0.7305549621150668,-0.033749069753147135,0.07504977576907948,-0.6778749529254525
200.0,-0.10464614476789927,0.01701514555468136,-0.010444335169158145,-0.5112260031471284,1.5177793076317863,9.670000000000002,-0.1760338808025177,-0.11374532848151062,-0.1387822088906373,85.7150299960661,-2.976980477970102,-8.921977035798584,0.7304259394557433,-0.03368651008792291,0.07504883989103069,-0.6780178817537372
201.0,-0.11631212768348882,0.010932879997002737,-0.011036107676744972,-0.4901673410512909,1.5137686860739574,9.670000000000002,-0.18478993387284104,-0.3412248627814619,-0.13331319545914355,85.73453112706531,-2.8564493883706117,-8.897959284028323,0.7303263333928102,-0.03430404568240232,0.07411674551847999,-0.6782015052205705
202.0,-0.1259264171443558,0.012517131242741002,-0.008956801918249598,-0.44494542167771933,1.5117230527143977,9.67430107526882,-0.126237132835038,-0.3699895915289798,-0.21701662077104644,85.78916816529916,-2.592978438424937,-8.880196039863623,0.7300296081914126,-0.03591442565878949,0.07241700601788055,-0.6786165469856692
203.0,-0.1198126709377693,0.012368588662845157,-0.00733093552133678,-0.42965531452549566,1.5107002360346176,9.67387096774194,-0.141683994604923,-0.23696892210857595,-0.1464187366528043,85.86736634071409,-2.5002622606871228,-8.876589955415682,0.7295273613330335,-0.03654897549548537,0.07185516611704318,-0.6791837330976731
204.0,-0.12058139447753927,0.00902536435502604,-0.005197332434153834,-0.4306128657599941,1.5101888276947277,9.6721935483871,-0.16548696189726875,-0.22659323367427223,-0.11618242104080026,85.90629331984564,-2.5072908471020194,-8.874786913191713,0.7292679770583343,-0.03653106807425724,0.07183199537874191,-0.6794690494858938
205.0,-0.11992012288786481,0.011818740399385562,-0.0040675883256528446,-0.34433947772657447,1.4983870967741928,9.678322580645164,-0.004493087557603692,-0.6620967741935483,-0.3458813364055299,86.11292242703533,-2.0031586021505374,-8.79771505376344,0.728145242046083,-0.03945224396159754,0.06830829667127497,-0.6808428743456219
206.0,-0.11078112472368963,0.023826458356749472,-0.010661421452924211,-0.29172923457345173,1.5054523996852867,9.679322580645165,-0.0747054250496422,-0.5069655970177213,-0.14488872653703494,86.36497812933199,-1.7024270821625267,-8.83793109100446,0.7266950999573263,-0.04181723656052602,0.0666915987306208,-0.682414965206886
207.0,-0.10599501704694465,0.027166685399572902,-0.008832246824772398,-0.2982056311116107,1.5077261998426428,9.679688172043015,-0.09023289685661834,-0.15205710726462096,-0.11446625266943912,86.47542781274586,-1.7407584719568394,-8.854214201416209,0.7260613183434864,-0.04169655567734443,0.06700106280770673,-0.6830707362478363
208.0,-0.1125889063729347,0.031968135326514574,-0.008969118804091267,-0.30831018882769473,1.5100243902439026,9.679951612903231,-0.08854002753737214,-0.07676780094413845,-0.18826711250983474,86.54194777734068,-1.802248475609756,-8.864607100708103,0.7256122269551535,-0.041446292643587734,0.0674058743247443,-0.68352984909166
209.0,-0.10485781724176689,0.025472546925930102,-0.011313860477314454,-0.33049975647221896,1.5151734854445325,9.679268817204306,-0.1772409239069349,-0.055593001854557705,-0.08580982353602337,86.60915553229552,-1.9279111521673973,-8.902061614870181,0.725194395217976,-0.040887310171640254,0.06836376627316326,-0.6839163758914519
210.0,-0.10098949083960886,0.019547937507024847,-0.00912929451875164,-0.35457088531714787,1.518110936270654,9.67440860215054,-0.09329935652467124,-0.16799061481398223,-0.09598811397100145,86.65455256453487,-2.0735709134165075,-8.923183025177025,0.7249465890055262,-0.04011184343544641,0.06933146593909933,-0.6841289249308754
211.0,-0.09812053688509235,0.020271327413734976,-0.00895901240118392,-0.36772079539919833,1.5224953917050703,9.672043010752692,-0.11034155942077853,-0.08589786819527181,-0.10948130924281593,86.67259984639017,-2.1494463255404446,-8.936676747311829,0.724770456851495,-0.03976504757775093,0.06990309696078267,-0.6842808593407891
212.0,-0.10179345097598443,0.017960211307182204,-0.009150237907909033,-0.370619740736578,1.515995925592897,9.676021505376347,-0.15969784993068822,-0.10099746871604659,-0.09576519238694692,86.70016203963883,-2.1661189633209696,-8.896472593758194,0.7246476406762388,-0.039432188488226376,0.06974029995570605,-0.6844469619717322
213.0,-0.10046438874526994,0.018973811397100148,-0.010220673635307782,-0.3782675808324904,1.5129616724738675,9.678010752688177,-0.11145727960735827,-0.15742548986549773,-0.16412718706680154,86.74973188527969,-2.2061392416919565,-8.881015604510882,0.724354831872541,-0.039049043672024275,0.06984826838747143,-0.6847668172496346
214.0,-0.10904095013300363,0.02105833426997865,-0.00954044434453561,-0.3813396275898244,1.5113195459143527,9.67903225806452,-0.15309327114008467,-0.015161477651642885,-0.09276347832602751,86.78368410700236,-2.224546195346746,-8.876999737739311,0.7241425424877299,-0.03890107928148065,0.06987690527054063,-0.6849925795142182
215.0,-0.11085013675021542,0.014337192312015287,-0.00805897118879023,-0.4035337004982954,1.510498482634595,9.67489378442172,-0.18190167097523507,-0.030987505151549213,-0.08141812783335206,86.80010818253344,-2.351405670450714,-8.874991804353527,0.7240029519873741,-0.03808470213877336,0.07061155673047095,-0.6851082064722941
216.0,-0.11254760031471281,0.012739575137686861,-0.007785995279307633,-0.4201447678992918,1.509984264358772,9.67244689221086,-0.08101888276947285,-0.1120279307631786,-0.18436762391817466,86.83349724626278,-2.449409913453973,-8.873819826907946,0.7238058085719905,-0.037486087736428,0.0711819410967742,-0.6852951122706532
217.0,-0.11046734854445317,0.017817466561762398,-0.0072682926829268305,-0.43810149488591676,1.513021243115657,9.67106215578285,-0.082036782061369,-0.13533143194335168,-0.1427837332808812,86.88896538158929,-2.557907159716758,-8.877852084972462,0.7234977165479938,-0.03694251664555468,0.07192573687804876,-0.6855756477088908
218.0,-0.10105942077853958,0.02098995916226444,-0.008245813195459145,-0.45433342699786455,1.511756397287475,9.670369787568845,-0.10680601607283353,-0.12038948053651044,-0.09067153956389794,86.9217128432805,-2.652279326364692,-8.873501367502154,0.7232442057349385,-0.036328337455256446,0.07245422444235884,-0.6858205717912029
219.0,-0.10654977333183471,0.03102094338915741,-0.01115319770709228,-0.4688490502416546,1.5097452324753657,9.670023603461843,-0.04393334831965831,-0.06452081225881383,-0.2118059458244352,86.97410878198643,-2.739303510546626,-8.866382863137387,0.7229952633685511,-0.03572119610243153,0.07288537266531789,-0.6860698857386383
220.0,-0.10333625566670412,0.03564265108088871,-0.010889738113971002,-0.49068022929077204,1.5123242291409098,9.670000000000002,-0.05334944363268517,0.001689239818665464,-0.13539254804990447,87.02233664905773,-2.8685305908358623,-8.870691431568693,0.7226845450021357,-0.035031847422576895,0.07375021137514517,-0.6863393665428041
221.0,-0.10333610580345433,0.03689685661833579,-0.00960301225132067,-0.5111190288861411,1.5146868982053887,9.670000000000002,-0.11818731032932449,-0.08189043123150125,-0.10012644711700573,87.04566380053201,-2.9857995204376007,-8.890941703195832,0.7224893324302575,-0.034400933026788066,0.07456359417301711,-0.6864871552737619
222.0,-0.09813540144618035,0.03356644561837325,-0.010104417219287402,-0.5282149039001909,1.5219421902513965,9.669244689221088,-0.0498243790041587,-0.0919139410288112,-0.18140665392829042,87.06868654228018,-3.0858629781574316,-8.934013337829231,0.722286127167135,-0.0340479710806639,0.07542812107155969,-0.6866235011380613
223.0,-0.09819118804091265,0.03414516129032259,-0.007797797010228166,-0.5576785995279308,1.5301884343036982,9.664461054287967,-0.13848101888276948,-0.08354396144767899,-0.11516030684500393,87.09967545239968,-3.258133359559402,-8.98328088119591,0.7220395731227377,-0.03323392662431157,0.07675502659756098,-0.6867749902993705
224.0,-0.08968230864336292,0.025636141395976184,-0.005763759319620846,-0.5279290678505864,1.529100436476715,9.665755872766105,-0.17619603752201116,-0.749071491794987,-0.27279782979281403,87.20543207448203,-3.0830094882170016,-8.983149750852347,0.7214172871197968,-0.03440167535348058,0.075611174548078,-0.6874833827136582
225.0,-0.08828706305496234,0.02930538383724852,-0.007118504364767149,-0.4784335543816267,1.5252643213068078,9.667877936383054,-0.06341088756509684,-0.4487397437338428,-0.26368672960923156,87.39675124573827,-2.7947575961934734,-8.96290650406504,0.7202941183653666,-0.036234293670150984,0.07369702483983365,-0.6887730060518524
226.0,-0.09543628938593533,0.03346708628376607,-0.009324116743471583,-0.4486950657525009,1.531899891349144,9.668938968191528,-0.10949852010040836,-0.25241186167622043,-0.0899811734292458,87.52455649844518,-2.6202722827919525,-8.982903881458169,0.7195137214881419,-0.03761138785770485,0.07277848082162526,-0.6896226474646883
227.0,-0.09487505151549211,0.026080701360009,-0.009654190551122103,-0.4377797759544416,1.5366224570079798,9.669493087557605,-0.1287278483383912,-0.19442649207598064,-0.06310881945224982,87.61341135588775,-2.5593271140084672,-9.021055786594733,0.7190617730628301,-0.03825184829680417,0.07257223449290023,-0.6900873339312874
228.0,-0.09092297028961072,0.025577722827919532,-0.010779101569817547,-0.42839421527855837,1.5435118579296385,9.669907834101384,-0.07097781087257876,-0.2643552602000674,-0.16058666779064104,87.68313172043011,-2.50399479225207,-9.049424431456295,0.7186571827037203,-0.03883636630811883,0.07244375663276009,-0.6904914138617884
229.0,-0.09159529429395676,0.03188715297291223,-0.007590198943464091,-0.4297429845266196,1.5420853471207518,9.67025177025964,-0.20839187366528045,-0.31935624367764415,-0.11903825259450751,87.72693745082611,-2.5064839271664603,-9.042357442583642,0.7184183559608107,-0.03877851558989922,0.07243352782211232,-0.6907450135948447
230.0,-0.0910989846764827,0.026634371136338104,-0.008818702933573116,-0.4455898242853397,1.5395391330410995,9.67012588512982,-0.1468690288861414,0.11276975384961221,-0.0240598422689296,87.77440991345398,-2.601284843205575,-9.035040837735567,0.7180520289166761,-0.03816265871312427,0.07290018430680753,-0.6911077291672101
231.0,-0.09868342829475794,0.025150459820798145,-0.009386309992132181,-0.45803359818780776,1.539804128732531,9.670062942564911,-0.15610872866970427,-0.02040526841372632,-0.1018048975021831,87.81701338754348,-2.6744368059818493,-9.049778483383912,0.7178154683839555,-0.03775449008975368,0.07335508960259436,-0.6913281261386094
232.0,-0.10665968649760936,0.01665510702253425,-0.00840283241542093,-0.4685252476346104,1.5394996066089686,9.670031471282456,-0.18623408783715628,-0.06285720409933628,-0.10988382355907926,87.84910289192842,-2.7328741249571307,-9.024783634933124,0.7176539737818395,-0.037330933652403725,0.07365658496796385,-0.6914837003342819
233.0,-0.10680741996005567,0.011065555084831247,-0.00917387883556255,-0.47768119187395364,1.5395885129819034,9.670015735641229,-0.12662904234501401,-0.15126534477193407,-0.16968915804232484,87.86669837751415,-2.7882997690088565,-9.035552714398111,0.717487501745365,-0.03698504077191388,0.07397476472631079,-0.6916388622993203
234.0,-0.1088177072075577,0.010702685001858878,-0.009308755760368662,-0.48315965479576806,1.5364723502304147,9.670000000000002,-0.16302978099791632,-0.16740283835951614,-0.0934031755518282,87.89811259215148,-2.8219930713464345,-9.017235444531863,0.7173173015081027,-0.03671379330210846,0.07405120080158034,-0.6918185944037533
235.0,-0.10884217382407782,0.00877708994388774,-0.008017871192536809,-0.48516735690221124,1.5331313364055303,9.670000000000002,-0.14157340741477248,-0.12204167783436076,-0.10039884879086294,87.93081217235425,-2.836521466829787,-9.00821449645948,0.7171134091450821,-0.036528604452195065,0.07400732768767057,-0.6920531805950711
236.0,-0.10986077704095015,0.012434097635907235,-0.011148982803192087,-0.49258055149675906,1.531404377880185,9.670000000000002,-0.08700714894533737,-0.16638028736278146,-0.11588374826720618,87.96778408452286,-2.8784141306994866,-9.00309918371361,0.716920375692293,-0.03626275080948634,0.07422582347152598,-0.6922481921093535
237.0,-0.10457554981079764,0.011628339140534263,-0.01048578172417669,-0.4988467273612828,1.5305529953917056,9.670000000000002,-0.15537353415008803,-0.11857320819751975,-0.11252856768199018,87.98590817129369,-2.915290734704582,-9.001524390243901,0.7167294411525982,-0.03603867217893672,0.07441703379221459,-0.6924359971232252
238.0,-0.10115323517290473,0.011393241167434717,-0.011275148926604474,-0.5151511370874077,1.5301152073732727,9.668838709677422,-0.11372630287362781,-0.007796635570042329,-0.1267452043760069,88.02554161515118,-3.0111563823011505,-9.0,0.7165643771553707,-0.03546356783691131,0.07499647226117417,-0.692570626917238
239.0,-0.09705664830841856,0.013258064516129035,-0.011294256490952007,-0.5263674272226592,1.5300000000000007,9.668000000000003,-0.13905881195908731,-0.22582612116443743,-0.09370574350904798,88.05431746656177,-3.0758162863886707,-9.0,0.7163562436176241,-0.035088813575137684,0.0753935201620771,-0.692761475165224
240.0,-0.0924590873328088,0.007543273013375297,-0.011859559402045633,-0.5375330448465774,1.5290967741935493,9.666935483870972,-0.18857936664044062,0.004956726986624707,-0.14601199842643586,88.09233870967742,-3.1411978756884347,-8.993548387096773,0.7161458991927617,-0.03463024055310779,0.07573201126121165,-0.692961586358379
241.0,-0.08661506687647522,0.01017997639653816,-0.010988788355625492,-0.5565477970102283,1.5275342250196702,9.663935877262004,0.12109190597954365,-0.35843332022029895,-0.36040273406766327,88.17441483084185,-3.249001770259638,-8.980251770259638,0.7156053703241543,-0.03398616973367427,0.07635587528442173,-0.6934830642177419
242.0,-0.08430931513366147,0.017279691874188062,-0.013619206630926025,-0.5192030995553769,1.5524130239877048,9.661806648308424,0.019888718368616547,-0.5381474084222275,-0.09141549869174612,88.5185652548808,-3.0308341090608018,-9.128910581303863,0.7134926859687162,-0.036474308769125205,0.0758183805139288,-0.6955786665343211
243.0,-0.08211011071583227,0.01423815622895271,-0.009811139413773306,-0.48441721798045356,1.5620974490138217,9.661884314937627,-0.13636180441016177,-0.4725575271757835,0.0019256991948335411,88.5716890214496,-2.829497555682474,-9.171982172372362,0.7131848355106639,-0.03807782027665169,0.07488334299678773,-0.6959111388230363
244.0,-0.08857924890630323,0.02518743448928435,-0.012466053577854398,-0.4305526950117322,1.5614097076098297,9.665986512307523,-0.07088587532336045,-0.26073752894887486,0.005760756663468994,88.41976108138533,-2.5140143308366287,-9.15972380508019,0.7141202419116298,-0.03991447252100634,0.07296870879236467,-0.69505184628383
245.0,-0.09107620981900527,0.027038249109315664,-0.011448506725984634,-0.40900697299760497,1.5663782409016889,9.668057772282795,-0.12135585072226243,-0.11277988268844213,-0.03802921549202632,88.4643553636667,-2.389576869391564,-9.187852657850875,0.7138638075106929,-0.0409216124633946,0.07236171015591875,-0.6953210449464982
246.0,-0.10642041038268144,0.02641236428109977,-0.010455637897681336,-0.3981372091883868,1.5596333698809315,9.669170506912444,-0.13273341871383149,0.023645589935409342,-0.051323107009665844,88.48623452683728,-2.331936274071198,-9.159785913544855,0.713779094702309,-0.04109021665716484,0.07178093117531863,-0.6954638705460363
247.0,-0.1151044287472297,0.02752951297325807,-0.006775455858067976,-0.4176079894404049,1.557497105045492,9.669230414746547,-0.22869322848669818,-0.11885987569996226,-0.09209066078165212,88.48770184706456,-2.4439220005014652,-9.139265612436343,0.7137480217067433,-0.04027091542160568,0.07236562026807941,-0.6954818121199797
248.0,-0.11341550162399888,0.028035877838395548,-0.013610462184026307,-0.4277049163791887,1.5575473236440978,9.667419354838714,-0.0024802547963444915,0.08478569195032609,-0.17165496940772312,88.02438087744932,-2.5003020140756176,-9.146111300841827,0.7165222957926958,-0.03961816095888272,0.07287992116245753,-0.6925739566982387
249.0,-0.0982722669410317,0.025574774556678576,-0.010692327866206703,-0.4786642861465836,1.5620033085194378,9.66329032258065,0.01908917367709657,0.3933769089551937,-0.10852813754564344,86.59909520062942,-2.7997045784663803,-9.172364406181284,0.7249658324547197,-0.03695122172214489,0.07530385219490005,-0.6835166516448181
250.0,-0.10354342431761784,0.027573082831147358,-0.010829847571783055,-0.6256292095001773,1.606677537516247,9.646614439324118,0.09683290499822758,0.3404178482807515,-0.14044480385206193,85.12025729646697,-3.6570117718303203,-9.450709337705305,0.7333891557300012,-0.03194612074530308,0.08255814794357791,-0.6737885846043956
251.0,-0.09517357910906296,0.031810291858678966,-0.017427803379416282,-0.5360291858678955,1.581500768049155,9.655235023041477,-0.32742175499231946,-1.1575892857142858,-0.20948300691244237,84.20413786482334,-3.12769057219662,-9.292437115975423,0.7389649727887866,-0.03391273322388633,0.07875378370238094,-0.6680943265046082
252.0,-0.09042608931849686,0.035838859540669156,-0.016588213255404445,-0.460092287662508,1.5656536098310285,9.662633640552997,-0.19321336077704093,-0.417002746712375,-0.11533908901877037,83.79424045090104,-2.688500454272976,-9.202449503109662,0.7415428715450625,-0.03599604407899666,0.07573952512744933,-0.6655618923695348
253.0,-0.10599166385673076,0.038112978157431365,-0.015524633771683342,-0.4335834176314114,1.5582013131767256,9.66638940092166,-0.19201199608482258,-0.13806655333258402,-0.18675466449364952,83.61649719240567,-2.5342839112434903,-9.16324592090967,0.7426540159075629,-0.03666539882372334,0.07463638958349256,-0.6644635908369114
254.0,-0.11139099321868795,0.030548424562586655,-0.013955865272938444,-0.4623884830092541,1.5584837211044924,9.664105990783415,-0.21357152223595965,-0.06384174440822749,-0.1692845903113409,83.59421129781573,-2.6998536491701324,-9.151028202390318,0.7427448360545882,-0.03551879715379716,0.07557212700142371,-0.6643358687087781
255.0,-0.11789783072945938,0.022351129594245258,-0.010326064965718782,-0.4472802817429097,1.5578094488778995,9.665161252856771,-0.16686102056873103,-0.6398950020606197,-0.055942312015286044,83.62498946274025,-2.61182983027987,-9.128533494436326,0.7425555470924283,-0.03606266923723352,0.07494646890562362,-0.6645928892569781
256.0,-0.12714634146341464,0.01752321007081039,-0.011958300550747444,-0.41309913453973257,1.5527977970102278,9.66767663257278,-0.17232985837922896,-0.21164437450826118,-0.09045535011801731,83.64747246262786,-2.410493705743509,-9.103806058221872,0.7424804797419358,-0.03721180000629426,0.07360758726986627,-0.664765763614477
257.0,-0.1238501180173092,0.019866247049567277,-0.010505507474429583,-0.39580999213217954,1.5513988985051133,9.668838316286392,-0.07379278127458694,-0.2591266719118804,-0.24725363886703383,83.73189417781273,-2.3131638473642804,-9.090406176239181,0.7420417376923681,-0.03785069275531078,0.07293928083005508,-0.6652964528489378
258.0,-0.11416345397324942,0.023297178824322813,-0.011284000224794876,-0.404165345996778,1.5483488441796855,9.669419158143196,-0.1530673377730321,-0.05970247461691207,-0.08951770962122065,83.8544720130381,-2.3638790931400098,-9.080821367689484,0.7413455567432281,-0.03748531793829381,0.07308460008139447,-0.6660747025634297
259.0,-0.11614319433516915,0.018578959199730252,-0.011990446217826233,-0.4029865872391444,1.5438679704769391,9.669842643587728,-0.1460501667228654,-0.2648163238544828,-0.06046068899629089,83.9010263290997,-2.355917959237196,-9.051517833726724,0.7410857413395526,-0.037408269603686636,0.07284282651099622,-0.6663907753302984
260.0,-0.11911464538608517,0.01728693192461879,-0.010554812483608709,-0.3860622494473792,1.541611404593308,9.670000000000002,-0.13651441497133865,-0.22645320520025475,-0.07789271196283391,83.94601141302311,-2.2560997855082237,-9.048320360795774,0.7407951563454724,-0.038032120909520066,0.07220678224954105,-0.6667446870364728
261.0,-0.11755496234685846,0.014721357386384925,-0.009081497508523474,-0.37823175414933874,1.5408017683863466,9.670000000000002,-0.11861125941328537,-0.323813738713424,-0.14936630090667266,84.01148426670038,-2.2094572491663858,-9.055115137124874,0.7404384346558202,-0.03839076110778914,0.07190293549534488,-0.6671581731051759
262.0,-0.12847870068562434,0.01769397924393991,-0.008419879360083924,-0.34023753325090855,1.5383513169233072,9.670881195908734,-0.16666081263347193,-0.02115647596568132,-0.15333000824247872,84.06470345809448,-1.9863554194297701,-9.0459670394515,0.7401460419311752,-0.03977178212431157,0.07049349277078415,-0.6675481903703495
263.0,-0.13165673822636842,0.016339964782136306,-0.008420066689146155,-0.3320276497695852,1.5339260424862315,9.674217151848943,-0.177957925892623,-0.180418961447679,-0.08468210258139447,84.12734161327788,-1.9361512307519386,-9.003711457045446,0.7398312008737025,-0.039944687342924584,0.06994933774305945,-0.66794914836162
264.0,-0.11234217526507059,0.017035517590198945,-0.014450938518601776,-0.2702094338915739,1.520864710951257,9.677638529841522,-0.2510548967816867,-1.2034662901352515,-0.06404897718332021,84.16529331047919,-1.576638660971863,-8.91848844179686,0.7396631183187216,-0.04185365538533589,0.06730034291802478,-0.6682661597969354
265.0,-0.09942377580457831,0.024973211944101015,-0.015681690457457577,-0.16278520849724626,1.5084354276722491,9.682790079052864,-0.15958562811434565,-0.49835852909220346,-0.09046822899104567,84.3763534524746,-0.9499456745719531,-8.852485388333147,0.7385078804919261,-0.04561414226256043,0.06306839034918137,-0.6696979692686675
266.0,-0.09163950395264321,0.025130193698250352,-0.00884792626728111,-0.14011801730920534,1.5043239294144093,9.681556329849016,-0.17961578809336481,-0.20647175077741564,-0.09679292645461016,84.48376091191787,-0.8161412086471095,-8.82610008991795,0.7378964155134689,-0.04640121731932112,0.062118426830766925,-0.6704285087295343
267.0,-0.09418717919898094,0.018273200704357277,-0.010844104754411601,-0.1478520849724626,1.5020793525907608,9.681541343524039,-0.07623590348806714,-0.17593945524708704,-0.1637583829755348,84.58867923644674,-0.8616996365816192,-8.803859447004609,0.7372926865096847,-0.046074818246599966,0.0622175406459106,-0.6711103120830991
268.0,-0.08028871155070998,0.02617908658349257,-0.011865010677756548,-0.15394885916601103,1.5058461279082835,9.680813944775398,-0.06246393915552059,-0.09644238694691094,-0.201819199355588,84.78896983065454,-0.8985524146716122,-8.830721029560525,0.736081081697014,-0.0460923999604361,0.0625281946085572,-0.6724158228291182
269.0,-0.08688936345584655,0.021837623168858424,-0.013348019931812224,-0.1704175939455248,1.5079422651830199,9.680395451650373,-0.15270854407852835,-0.08820295230602075,-0.13972968416320108,84.90746974635644,-0.9935830429732868,-8.838920422614365,0.7353574020812261,-0.04558346442107826,0.06308646790719719,-0.6731933725174774
270.0,-0.10177340676632572,0.015686860739575145,-0.011695515342250199,-0.172027537372148,1.5091746656176233,9.680078678206142,-0.12200039339103068,-0.003673288749016519,-0.18170239968528717,84.97279209284028,-1.0075826121164435,-8.83325629425649,0.7349630428025178,-0.04556195200393391,0.06311992134146342,-0.6736248555767113
271.0,-0.1047435090479937,0.018151848937844224,-0.010844610542879624,-0.1953465774980331,1.5098540519276153,9.680039339103073,-0.08444138473642801,0.014774291896144768,-0.16574301730920535,85.05454612509835,-1.1428452006294254,-8.855209972462628,0.7344946304594806,-0.04483789524665617,0.06399725511132967,-0.6741045246089693
272.0,-0.10291935483870968,0.01198387096774194,-0.009733870967741937,-0.2184435483870969,1.5127822580645167,9.680000000000005,-0.14899193548387096,-0.08805443548387097,-0.12998991935483872,85.09702620967742,-1.2757056451612903,-8.866481854838709,0.7341895305483868,-0.04408923778225805,0.06488465300806451,-0.6743980654516128
273.0,-0.10906451612903224,0.008290322580645163,-0.008403225806451614,-0.22991129032258073,1.5161612903225814,9.680000000000005,-0.11960685483870967,-0.06940524193548386,-0.19914314516129034,85.13618951612904,-1.3367943548387098,-8.870967741935484,0.7340167620806448,-0.04374365114516128,0.06531923336290323,-0.6745633038951613
274.0,-0.1082877655389457,0.009527734067663258,-0.006603265145554682,-0.24133733280881198,1.5176125098347768,9.680000000000005,-0.10069335169158142,-0.097661782061369,-0.17229420731707318,85.1648689516129,-1.4044932631785993,-8.883665666797796,0.7338327251984655,-0.04338062582395751,0.06576296775491738,-0.6747439852100706
275.0,-0.11188985051140832,0.006792092840283241,-0.004942761605035405,-0.2513420535011801,1.5189675452399698,9.680000000000005,-0.15614304681353264,-0.1534175845790716,-0.11727109559402044,85.1788306451613,-1.4659311073957513,-8.88817859952793,0.7336952704742328,-0.0430440277627852,0.06616740019197483,-0.6748777261776158
276.0,-0.11099331235247836,0.006870892810310592,-0.007106749466112172,-0.290793338578547,1.5267685268442555,9.678156682027657,0.11246827114008467,0.12319760171968078,-0.1929541441871792,85.21346006144393,-1.696498819826908,-8.932280544003596,0.7334660358578922,-0.04183967976464914,0.06780807824383688,-0.6750310585513654
277.0,-0.10245928402832413,0.02322852272301526,-0.013105400696864115,-0.30582192499344346,1.5526662264433706,9.673917050691248,0.020221645404818106,-0.3649348094863437,-0.15075089683788545,85.32501287887303,-1.7824965578284817,-9.097975441159942,0.732723741989725,-0.04228105855826869,0.06928882386375558,-0.6756634383758005
278.0,-0.1035255704169945,0.027009422651830213,-0.012226480836236935,-0.292313401521112,1.5481784121988682,9.673056086321235,-0.14659587969727622,-0.1871684275598516,-0.06319815199880109,85.38559111685586,-1.7092028914240753,-9.080901567944252,0.7324232706153384,-0.042687396085290916,0.06867540324954105,-0.6760249718104413
279.0,-0.10126160503540521,0.02481155632984902,-0.012224176688771498,-0.2939836087070547,1.5445604885541937,9.671495785096102,-0.15818680688246972,-0.2020273687759919,-0.07525564562961298,85.42364233262148,-1.7181439319433518,-9.067147282791952,0.7321927227230901,-0.04254432863509235,0.06860614707244952,-0.676294730208132
280.0,-0.08167112509834776,0.020208197519763223,-0.006958862537934136,-0.5029514817728822,1.55550605072871,9.656780150612565,-0.044289976021880034,2.5054379285152297,0.2884558465400322,85.13460342437526,-2.9556697482297407,-9.149047431718557,0.7335831545550935,-0.03479162341028812,0.07643298415316024,-0.6741828660677756
281.0,-0.10489929189614476,0.02521715184893785,-0.009875688434303696,-0.9560731707317077,1.5656026750590089,9.609155782848152,-0.19015047206923683,0.6123082218725412,-0.0694384343036979,83.87847167584579,-5.607592446892211,-9.248834579071596,0.7399862095515342,-0.016934532948072387,0.0925998838599528,-0.6652294915027537
282.0,-0.10254405979543665,0.0331237308456034,-0.008444456933048593,-0.8092469184369264,1.5237012663444598,9.637611685586904,-0.2943067185568169,-0.5006979178374733,-0.2042485060507287,83.50685226293507,-4.737800194822224,-8.978271350829868,0.7427078068789104,-0.02095619082007044,0.08607093548136074,-0.6632974663637555
283.0,-0.09741679779701024,0.0362196152261062,-0.00844724813607583,-0.7415471413585104,1.5042345828181785,9.650115834925636,-0.17604301309430143,-0.5255505718219624,-0.27388861179798435,83.42654277190813,-4.333199861376494,-8.85287485716159,0.7434112504378818,-0.022872314178721292,0.08301599189488966,-0.6630502545744821
284.0,-0.09859760780787533,0.03864187366528045,-0.008945590273875089,-0.7644300606946163,1.4899166385673073,9.652926389044993,-0.1751866851185793,0.3497403150874826,-0.02106848984676485,83.3626449458619,-4.467603194897157,-8.766670003465588,0.7438499883909837,-0.021461859447847585,0.08329377128615452,-0.6626805332192688
285.0,-0.09162541680716346,0.03855884005844669,-0.007928440298227868,-0.8228319658311791,1.480490577348169,9.651572065490235,-0.08615685062380576,0.02658386722116067,-0.21585178524596305,83.33122166647934,-4.808650387771159,-8.711233187216665,0.7440091864092016,-0.01890582597392379,0.08493597226001275,-0.6624202543273763
286.0,-0.08840043460342437,0.03815825559177252,-0.007114495522835413,-0.8461358885017423,1.4787228653853348,9.652155033531898,-0.1178522254692593,-0.028181315799333112,-0.25837337492038515,83.44215489303511,-4.950115909857255,-8.700989331609906,0.7433498451534599,-0.01804211567618298,0.08566647456352328,-0.663140866867858
287.0,-0.08400666891461539,0.03183796036117044,-0.007180135626241056,-0.8608152560788281,1.480316885841668,9.650816380053197,-0.17685526020006742,-0.1328118560563486,-0.15206015136188228,83.54032187816117,-5.040298930351055,-8.717838175789591,0.7427688096957776,-0.017618811132254317,0.08622623847915027,-0.6637392808425313
288.0,-0.08231490015360982,0.025999231950844866,-0.003839477726574501,-0.8523840245775729,1.4790199692780324,9.650199692780333,-0.13495103686635945,-0.3215101766513057,-0.10292818740399386,83.5901353686636,-4.9861703149001535,-8.701857718894008,0.7424633262688173,-0.017929719562980034,0.08583462604838708,-0.6641222985023041
289.0,-0.08690322580645163,0.02447580645161291,-0.0037016129032258066,-0.8303870967741935,1.4795483870967727,9.651419354838712,-0.12998991935483872,-0.2660786290322581,-0.13649193548387095,83.64400201612904,-4.856602822580646,-8.69460685483871,0.7422662037258068,-0.018776185379032265,0.08511829939516127,-0.6644064641612901
290.0,-0.10093548387096772,0.020532258064516133,-0.0056129032258064515,-0.8088145161290319,1.4798709677419342,9.65587096774194,-0.12394153225806451,-0.2035282258064516,-0.10811491935483872,83.67121975806452,-4.73125,-8.691280241935484,0.7421672663467747,-0.019600258967741938,0.08436210261290322,-0.6645979868145163
291.0,-0.10732142857142857,0.02072119815668203,0.001968125960061441,-0.7600215053763442,1.4828847926267277,9.659202764976964,-0.09787826420890937,-0.17818980414746544,-0.1428451420890937,83.75261616743471,-4.441760272657451,-8.711285522273425,0.7416943316539939,-0.02163805041858679,0.08277658616513058,-0.665248318871736
292.0,-0.11027351916376307,0.018627318197145106,0.0028633902813682503,-0.7683315630736952,1.4841796111048664,9.65648965943577,-0.10013282801318796,-0.30094888024053046,-0.2090141573938781,83.8021047005545,-4.493637192780339,-8.718306264283841,0.741361695625089,-0.021411817658349257,0.08310166754184933,-0.6655880745890939
293.0,-0.1080867989209846,0.017287400247274362,-6.682964295080828e-05,-0.7986550616312614,1.4833809149151393,9.65475545127571,-0.12961807116631074,0.18585460688996291,-0.09799153975122701,83.87471666479337,-4.667418148907872,-8.73516119665805,0.7409437014918325,-0.02034815485002435,0.08416324357068863,-0.6659559371712188
294.0,-0.10483816786413165,0.013690639743157448,-0.004737198940582103,-0.8378541023623636,1.4851313176726235,9.652333370799141,-0.11901253537637291,0.07329136982215266,-0.06961004303524956,83.9101405904612,-4.896946383180156,-8.743588662845152,0.7406530274787535,-0.018920710591472063,0.08552651636609285,-0.666149483560382
295.0,-0.11032230973851744,0.010825158581256145,-0.003537954309000729,-0.8785722124715047,1.4856624330298607,9.646876362818922,-0.11331171123657355,0.053429959104624725,-0.09788465861439898,83.92704610168221,-5.136023594815884,-8.747802395938706,0.7405116532514737,-0.01739657525138119,0.08695657576369159,-0.6661641394576105
296.0,-0.11225511912687362,0.01010236236357401,-0.003173757792168492,-0.9213225604712623,1.4846273275635977,9.643081038552314,-0.1844880368778874,0.15426148399201112,-0.07827220641933466,83.93409716758458,-5.389583207246465,-8.74134539732494,0.7404016353267973,-0.01570295567128649,0.08838463332066412,-0.6661420797044527
297.0,-0.10502763824164296,0.0024571607254534086,-0.00035163105973491475,-0.9617659222497932,1.4822271177550475,9.641320220298969,-0.16794228751840867,-0.02901107547055619,-0.07916364058181524,83.93729838709677,-5.623622248784523,-8.713808025177025,0.7403037701378279,-0.014078249753817912,0.0896374564864532,-0.6661196996909362
298.0,-0.10965701345599065,-0.002127831911073454,-0.0015479634448949946,-0.9810560531783974,1.4813322842905836,9.640451612903217,-0.10240643093465673,-0.010242162440234822,-0.15104425144747727,83.95675403225806,-5.7361177727006805,-8.7036782061369,0.7401249169029029,-0.013337621640874337,0.09023484902922188,-0.6662605161247757
299.0,-0.10935467947997451,0.00626268217751302,-0.008858585290922035,-0.9061560544752911,1.4724480161852307,9.647069124423963,-0.0018265168970814025,-0.7386781827207672,-0.35360023041474653,84.18522225422426,-5.295563169701397,-8.657714679105315,0.7389241123395527,-0.016079940949823908,0.08731979134315873,-0.6678940159597055
300.0,-0.10694393763946214,0.014401127285305652,-0.008590020327381497,-0.9100338599458226,1.4922112549043178,9.644102454184974,0.12235603543743079,-0.6496126753813889,-0.35933012270924874,84.44848310291857,-5.316154732825193,-8.784877594616423,0.7373300009049599,-0.01686456490242508,0.08818272573656435,-0.6695265672699877
301.0,-0.09632011988188685,0.023408274106854247,-0.009920501902479107,-0.5960672840248389,1.4763534638014906,9.665339976109008,-0.2510761128871068,-1.9266700276985622,-0.4705531416063946,85.00101672848525,-3.4733802775062235,-8.676417947583584,0.7345287674509065,-0.028561854591259747,0.07657239023256228,-0.6734053467703205
302.0,-0.09204389250622759,0.032053215394440955,-0.011882293961992241,-0.4754067218895316,1.459252000717949,9.677984888208112,-0.23832607487673313,-0.7946762196864547,-0.2615402516787733,85.34022610617811,-2.7742009394443556,-8.568287698830195,0.7327635500455382,-0.032685162181958605,0.07167041514681109,-0.6757704170189927
303.0,-0.09567025467168186,0.03387318519525353,-0.014582866099800213,-0.4323866811650649,1.4489727745525225,9.684798895716959,-0.15155264208038072,-0.5000734068534555,-0.19180843229099956,85.52181446929677,-2.530883047416906,-8.498735583286066,0.7318310072297913,-0.03402842239477553,0.06977895822486109,-0.6769859664934657
304.0,-0.10595110275826797,0.04354104728272662,-0.014647039808732673,-0.40392529142738665,1.4440946822071363,9.687987005462166,-0.10549022272989851,-0.28838155749738825,-0.17025617467084542,85.62544256490952,-2.3636174069649813,-8.465237607311234,0.7312252501195042,-0.03498479553456134,0.06857131662241518,-0.6777438254425855
305.0,-0.12625162039638826,0.0396077329436889,-0.012224495148177288,-0.3882537184818854,1.440899554156831,9.689781199655314,-0.1726719680791278,-0.014478663219811921,-0.14307069798808586,85.67260031471284,-2.269111779251433,-8.443796598104228,0.7309006550650035,-0.0354663407837848,0.06781078132921209,-0.6781642829140907
306.0,-0.12934217526507058,0.03387310329324493,-0.011741673223183846,-0.4342692667940506,1.4433333333333336,9.68493701996928,-0.10145203439361583,0.13382577460567233,-0.16241359447004608,85.68463808025177,-2.540127290097786,-8.467492319508448,0.7307545740234537,-0.03388827336907572,0.06957106117129369,-0.6782260531517738
307.0,-0.1160243902439024,0.02727065302911095,-0.00939771833202203,-0.477412667191188,1.4515483870967745,9.682322580645165,-0.12373869000786783,-0.08098937844217151,-0.10937500000000001,85.71933516915814,-2.7943868017309206,-8.516532258064515,0.7305086839280094,-0.0325530534602675,0.07136275151652244,-0.6783751657033831
308.0,-0.10927498033044845,0.018619590873328096,-0.008833398898505113,-0.4993750983477576,1.458362706530291,9.681000000000004,-0.11669821990558615,-0.07742427222659323,-0.09279725609756098,85.75202596380802,-2.9163466266719116,-8.555694335169157,0.7303143256500784,-0.032007775239181746,0.07234431993214005,-0.6785141905070807
309.0,-0.1305545408564685,0.021620087295343003,-0.008848535086733356,-0.4735702296654303,1.4647881120977106,9.681076036866365,-0.1473288046532539,-1.172741513993481,-0.13673680969240568,85.79426374995317,-2.761649935839796,-8.594907459443258,0.7301304677073357,-0.03319172596751714,0.07163136147701474,-0.6787135188560749
310.0,-0.1186027312577273,0.021792954553969512,-0.012992047881308307,-0.3936979412536061,1.4655430575849537,9.68209715821813,0.11583252547675245,0.3868075264133978,-0.13780604885541942,85.89602780431606,-2.2973056226818027,-8.595312792701659,0.7295796580287832,-0.03630660500219175,0.06892159028075007,-0.6794073804637519
311.0,-0.11254330111273463,0.015085993406017014,-0.011088765876138024,-0.46790138998164144,1.4847997545989289,9.67588325652842,-0.14936700339065603,0.13813662610992472,-0.13835866958900003,85.95300382151287,-2.7288443435989658,-8.713886235060507,0.729091154816811,-0.03424194779141845,0.07221810250327826,-0.6797093069657467
312.0,-0.11529908958075755,0.0072002547675246355,-0.00932988647858829,-0.488098610018358,1.4878958450414004,9.674290959499459,-0.16591641377243266,-0.26242694166573,-0.25080551496759207,86.040329605485,-2.8467601438687193,-8.734967311078641,0.7285165303047467,-0.033698334757333935,0.07302714128665093,-0.6802769040116892
313.0,-0.12309407665505223,0.003814132104454686,-0.010333707991457795,-0.46214922633097283,1.489360983102919,9.677145479749733,-0.19008350192948936,-0.1251208272451388,-0.18463269454123113,86.17531822524447,-2.6972785770484435,-8.745065284178187,0.727783233567794,-0.034793973355063505,0.07210558034277473,-0.6811105323292123
314.0,-0.13356777565471506,-0.0023748079877112136,-0.010182214978831816,-0.46762376831141583,1.4849669738863285,9.678549698400214,-0.1365884099509198,-0.09480407721703946,-0.10634764527368776,86.25650031845942,-2.73175660803267,-8.718049155145929,0.7273013316080135,-0.03445952444942115,0.07211749789949795,-0.6816412278466337
315.0,-0.11678619197482297,0.0014193548387096766,-0.00997974036191975,-0.49632494099134544,1.4851693548387088,9.674963021243117,-0.09426386703383162,-0.19164166994492526,0.023251868607395747,86.2558615263572,-2.89818917191188,-8.719657258064515,0.7272763844376472,-0.033391271542682927,0.07311536296203774,-0.6816170236260817
316.0,-0.11092297605358188,0.01591604631927213,-0.011193033952672035,-0.5100896830680466,1.484740281224151,9.673143214509068,-0.07619650134156429,0.13493224091670195,-0.03242519266073554,86.31651637111904,-2.9822670166838146,-8.717953887510339,0.7268871190340633,-0.03287496003302466,0.07359019408141176,-0.6820073638501583
317.0,-0.11726321894732594,0.01727352276624504,-0.010132315560128308,-0.5477080988117574,1.4822088502894943,9.671524400330853,-0.12565234193750124,0.13382626994694263,-0.05456822182210656,86.34993796526055,-3.2001716672718836,-8.70171887923904,0.726725195590989,-0.03136112742013153,0.07476393451120156,-0.6821276829321601
318.0,-0.1142122546349533,0.018173051705703165,-0.009271802941354476,-0.5876806623091045,1.4809431348221658,9.670600909842847,-0.09329492096875064,0.074019989812181,-0.11329721574976295,86.36377946650123,-3.435368091700458,-8.693601375103391,0.7265887429527526,-0.029883050782646407,0.07617187614672981,-0.6821841376394671
319.0,-0.12015585850027236,0.02370826164394222,-0.008898574281737147,-0.5970068058089302,1.4823108531253686,9.670139164598844,-0.0060908648622555045,-0.4892908883504378,-0.20972920503309958,86.39712830851943,-3.4903570969254973,-8.704350370731419,0.726338871813934,-0.02965595538210662,0.07656325522601468,-0.6824139983329824
320.0,-0.11910615505658778,0.025696872757454987,-0.012675093592481479,-0.5701404996786588,1.4843046201110717,9.670041356492971,-0.12418958565693419,-0.15480169417521888,-0.16040895735525945,86.53571133167907,-3.3342662500756517,-8.718026999881838,0.7255857351609993,-0.030809393344279117,0.07566758028639442,-0.6832637415011684
321.0,-0.12224455809074221,0.02746547525383089,-0.012332584017084411,-0.5755805889625714,1.487235023041475,9.670000000000002,-0.09485430482185006,-0.04827036735229101,-0.10053119497208797,86.61680107526882,-3.3676345725150796,-8.73450460829493,0.7250975045201196,-0.030732319886366197,0.075911305938069,-0.6837501121285824
322.0,-0.12958333333333333,0.02982872503840247,-0.012472350230414748,-0.5817430875576034,1.4907142857142857,9.670000000000002,-0.07201900921658987,-0.15733246927803377,-0.13356614823348695,86.65961021505376,-3.4031081989247314,-8.755357142857143,0.7247692136117512,-0.030670348006912446,0.07623624114055298,-0.6840676810092167
323.0,-0.12053763440860213,0.0254546850998464,-0.012550691244239631,-0.6007142857142855,1.4956797235023043,9.667806451612906,-0.1244671658986175,-0.13211885560675882,-0.09145545314900154,86.69875672043011,-3.51307123655914,-8.785944700460828,0.7244922578179722,-0.030190393172811067,0.07713590211059908,-0.6842851073110602
324.0,-0.11185287175452398,0.019827301337529513,-0.011172501966955154,-0.6194571203776553,1.5021331628638865,9.663993705743515,-0.14764334185680567,2.0898898505115893e-05,-0.11252458693941779,86.72958669354838,-3.61870943154996,-8.82677025963808,0.7242652962330842,-0.0297260722720299,0.07795911763729348,-0.6844536920533049
325.0,-0.1126937450826121,0.013506490952006298,-0.008723052714398112,-0.6276504720692369,1.5064496459480718,9.66183556254918,-0.12194384343036979,-0.13093159913453972,-0.1694691679779701,86.74122983870967,-3.668477084972462,-8.853203678206135,0.7241474322450825,-0.029537334387096777,0.07836090712234461,-0.6845406422525573
326.0,-0.1149184931250234,0.016481164062792705,-0.009697931887152974,-0.6157574556966767,1.511128048780488,9.662845584654011,-0.04762466749091455,-0.30008681531227754,-0.052564125079614846,86.77427275345622,-3.5975233927166457,-8.879942852927952,0.7239843940564891,-0.030177389665514594,0.07812875021900641,-0.6847095861904107
327.0,-0.11164473043347944,0.02218009816042861,-0.008647353040350681,-0.5902698568805964,1.4906970889063729,9.667196985875393,-0.3729554789067476,-0.6015807060432355,0.1312028164924506,86.66548819124424,-3.448963309261549,-8.75975469259301,0.7247292988306637,-0.030340838707757292,0.07650725269821289,-0.6840966871153664
328.0,-0.10765104342287662,0.03076707504402234,-0.009157468809711139,-0.4592380952380953,1.4856553894571203,9.67433187216665,-0.046780281742909574,-0.9954291708815706,-0.21914362519201228,86.60662723389906,-2.679414409351467,-8.72633190963246,0.7252047101957214,-0.035032843079390044,0.07172360132314262,-0.6838509152070733
329.0,-0.08735232273627237,0.037777775856454074,-0.014743958637743061,-0.3594925572722584,1.5293602049668138,9.67205467703029,0.19594868480588384,-0.5017449522022692,0.23013458152128494,86.76102660288832,-2.101906739667361,-8.974559920803037,0.7242326627426587,-0.04034286741090485,0.06982429359838666,-0.6847794340305375
330.0,-0.08106876561675933,0.047408164088730595,-0.014749634708328654,-0.3250216523576084,1.5525833282898582,9.671188628837728,0.041532564275483234,-0.25654222433087503,0.12833440327047724,86.72970684983126,-1.8977078938305334,-9.116715444272486,0.7244149630975292,-0.042441198223941795,0.06951593935623501,-0.6845151643409968
331.0,-0.08664114164094494,0.04738534164497975,-0.013653619197482298,-0.29575122556436473,1.5540497286610575,9.670819352821322,-0.1562306456656378,-0.31452303228832534,0.08415088059069177,86.70673130509996,-1.7226874722608887,-9.131716017067118,0.7246079328905468,-0.043597211974490103,0.06860124218502993,-0.6843388711390082
332.0,-0.0965262159817628,0.04711202566119957,-0.01857277734067664,-0.2579804514918598,1.5481377675563348,9.675546773184857,-0.11072620992959309,-0.3018935725957756,-0.044214882285299274,86.69915698319514,-1.5072358732272186,-9.071603976275494,0.724720414469467,-0.04471413191466439,0.06699284770138594,-0.684307887142085
333.0,-0.11494288769190422,0.047226351146886184,-0.019577498033044857,-0.2568619802699267,1.539226240190442,9.677757650951204,-0.2114901702677076,0.06121391393814682,-0.036785843975065055,86.67267546248664,-1.5008641993988177,-9.020238455486291,0.7248373399255282,-0.04444819121697027,0.06664156297343096,-0.6842414208369747
334.0,-0.13804878048780492,0.04213178599527933,-0.01565971675845791,-0.25876101494885906,1.5287901258851306,9.679048387096778,-0.22300108182533435,-0.076573564122738,-0.08458398898505115,86.64423682140048,-1.5182877655389455,-8.97444925255704,0.7249486633349725,-0.044028619747442946,0.06638843721872541,-0.6841809712588509
335.0,-0.1439276160503541,0.028170731707317084,-0.013144374508261215,-0.2736829268292683,1.5253345790715982,9.679685483870973,-0.19516989575137686,-0.0791133949645948,-0.16920731707317074,86.65518292682927,-1.6017850118017307,-8.95098470692368,0.7249023460102284,-0.04336755776081824,0.06676323432710465,-0.6842372789520061
336.0,-0.13949606608969317,0.019528914240755316,-0.011015735641227384,-0.28772856018882764,1.527663257277735,9.680000000000005,-0.1614206333595594,-0.17221798780487804,-0.11429115853658538,86.68666404405978,-1.6789671026750588,-8.961959087332808,0.7246776457631785,-0.04292588439653815,0.06728273345790717,-0.6844525496372934
337.0,-0.12442682926829268,0.012920928402832418,-0.010801730920535014,-0.3152446892210856,1.5286703383162872,9.675971675845794,-0.15645407159716757,0.020350609756097565,-0.14508015342250197,86.71934008654603,-1.8428107789142407,-8.980979543666404,0.724452121420535,-0.04196304567112509,0.06828527277773405,-0.6846540826030683
338.0,-0.1288514948859166,0.008152832415420929,-0.011396931549960661,-0.33694020456333573,1.5293548387096783,9.672824547600317,-0.13719143391030686,0.05825752360346184,-0.19760892014162076,86.74042338709677,-1.9615804484657748,-8.991129032258064,0.7243059018259244,-0.041237475994492526,0.06907029000019668,-0.6847692700293075
339.0,-0.12737256003896447,0.004950264133977745,-0.011157759169757597,-0.36002079352590766,1.52983870967742,9.671250983477579,-0.16498948615638231,-0.052004830748192274,-0.1285555641414709,86.77948588709677,-2.096544832527818,-8.99657258064516,0.7241377439050898,-0.04039690526222321,0.069870955041381,-0.6849110278543237
340.0,-0.1315007961485145,0.0013219062605372596,-0.009792589262298153,-0.3663168483758569,1.5300241935483876,9.670464201416209,-0.15885563017496535,-0.11100745569667678,-0.13048241916750963,86.79833669354838,-2.137990158199393,-8.999294354838709,0.723998782811416,-0.0401782121230471,0.07007479530294858,-0.6850420547940972
341.0,-0.13572531939605115,-0.002302068112847027,-0.010038308793226182,-0.3675089355962684,1.5300000000000007,9.670070810385525,-0.11266566913941028,-0.15187715428421567,-0.1689759656813158,86.82347806845004,-2.1493199955041025,-8.98426435877262,0.723846972637612,-0.040102851287625044,0.07010034307515642,-0.6852166849425835
342.0,-0.12975618185905363,-0.003787460048474997,-0.009474055645377438,-0.3905570056746296,1.5300000000000007,9.670000000000002,-0.1449075990394342,-0.06670334443618275,-0.1387324451053798,86.85125516325726,-2.287453654069508,-8.95987411487018,0.7236435713607676,-0.03920836141374938,0.07085238218788384,-0.685402924205541
343.0,-0.13335045520962124,-0.0076351737693201105,-0.007057149773908231,-0.4100953793125311,1.5300000000000007,9.670000000000002,-0.15700889885095234,-0.014583846687013485,-0.13860550264710375,86.86501770259638,-2.400783278647657,-8.94767899291896,0.7235232522306396,-0.03844028560655999,0.07151360462167597,-0.6855174518729322
344.0,-0.13811531977070923,-0.00791896937313932,-0.00630123233703092,-0.4327857848943608,1.5271735791090641,9.670000000000002,-0.12837964143776495,-0.049198605371156515,-0.1589484886507408,86.89098619384811,-2.528804657757008,-8.942349481098496,0.7233890675592523,-0.037593787569025,0.07225584921559988,-0.6856245843389238
345.0,-0.1310655277059683,-0.00947020459215581,-0.005908877380159835,-0.45514584287991044,1.5234254992319523,9.670000000000002,-0.16164138444822945,-0.07855103852350115,-0.10009838378249077,86.91625922595631,-2.662228228760487,-8.93891667603312,0.7232178857371399,-0.0366649456133874,0.07299044818746162,-0.6857773744366726
346.0,-0.1203108913116781,-0.010842104656424092,-0.004337601553966621,-0.47624089941005754,1.5210353302611377,9.670000000000002,-0.14584331220837907,-0.14096710069369392,-0.09677912894868049,86.95176651305682,-2.7835678909341377,-8.928014592933948,0.723047508515305,-0.03580556033226412,0.07358278742575283,-0.6859367109335213
347.0,-0.11610168221497882,-0.010890862088344387,-0.004991794987074295,-0.48671267468435064,1.5176466973886331,9.670000000000002,0.0016957963358435468,-0.1845809448877899,-0.24902542055374471,86.99644777265745,-2.8423991232999883,-8.915015360983102,0.722715182311416,-0.03543485375504852,0.07386934243992356,-0.6862754493451726
348.0,-0.11945682065115583,-0.006558727661009329,-0.0046107676744970225,-0.4674318684200668,1.5297588325652849,9.669483870967742,-0.1343507643025739,-0.1759942489977895,-0.1407745120077929,87.1292722734255,-2.7332963358435425,-8.987548003072195,0.7219479446671164,-0.036650600215840545,0.07357184252680679,-0.6870466134790378
349.0,-0.13239968528717544,-0.005862313139260425,-0.004148701809598742,-0.47002084972462627,1.5248064516129043,9.669741935483874,-0.12197088906372935,-0.1632179386309992,-0.16513571990558615,87.2047379032258,-2.7474085365853655,-8.961693548387096,0.7215486180739576,-0.036372439645554686,0.07342322032100707,-0.6875006469146342
350.0,-0.12316129032258065,8.064516129032253e-05,-0.004048387096774193,-0.4840080645161291,1.5224032258064528,9.669870967741938,-0.08850806451612903,-0.1588709677419355,-0.18346774193548387,87.2953125,-2.8329637096774194,-8.927016129032257,0.7210073152580645,-0.03575360689516129,0.0737385899032258,-0.6880655103306452
351.0,-0.1285725806451613,-2.4193548387096953e-05,-0.0037822580645161296,-0.4894032258064515,1.521217741935485,9.669935483870969,-0.1550907258064516,-0.10841733870967743,-0.07646169354838711,87.3656754032258,-2.8635584677419352,-8.900302419354839,0.7206063049112901,-0.03553132104032258,0.07379480119354836,-0.6884893591774197
352.0,-0.13699980330448466,-0.002230527143981118,-0.005071400472069236,-0.4891254917387882,1.5195605822187261,9.669967741935487,-0.11440671715184894,-0.182047846184107,-0.09956849921321793,87.40806451612903,-2.8573010916601103,-8.88719758064516,0.7203566208214001,-0.03552799171321794,0.07372098485660894,-0.6887555543562156
353.0,-0.13373780487804876,0.00473151062155783,-0.007886506687647524,-0.479022423288749,1.51530448465775,9.670000000000002,-0.07224872147915028,-0.2005249311565696,-0.19920461250983476,87.4774193548387,-2.7992906667977966,-8.883820564516128,0.7199256502252163,-0.03588518591306057,0.0732784720129819,-0.6892326369321401
354.0,-0.14106431943351694,0.0035833988985051147,-0.007281667977970104,-0.48077321007081053,1.512490952006294,9.670000000000002,-0.15709824940991346,-0.10101544059795436,-0.09025865460267507,87.52469758064515,-2.813071646341463,-8.87842741935484,0.7195877200257672,-0.03582638063788356,0.07332145281648306,-0.6895825483351694
355.0,-0.15346361132966171,-0.0007486231313926046,-0.003834382376081826,-0.4870761211644375,1.511084185680566,9.670000000000002,-0.1203333988985051,-0.18271538158929976,-0.11453456923682138,87.55957661290324,-2.847438040912667,-8.87641129032258,0.7193769222830452,-0.035555870202006304,0.07351230167033829,-0.6897986723288752
356.0,-0.14361487018095992,0.006085365853658535,-0.0006994492525570417,-0.424977576711251,1.5074130605822185,9.674000000000003,-0.19131589299763965,-0.5919625295043273,-0.13269571203776553,87.66814516129033,-2.479464988198269,-8.853125,0.7187692863713611,-0.03776832686309993,0.07105822857710463,-0.6905661356966957
357.0,-0.12436447678992921,0.006893981117230525,-0.0022616050354051917,-0.69001435877262,1.5195326514555465,9.649088906372935,-0.010390440597954367,4.29506417191188,0.6257744885916601,87.41041502753737,-4.0489624311565695,-8.94982174468922,0.7198629819701022,-0.028052402593627068,0.08107082486290323,-0.688466536133163
358.0,-0.11440401258851302,0.015007474429583004,-0.00521951219512195,-1.067390243902439,1.4813147128245472,9.614641227380012,-0.5957194138473643,-0.7505777930763182,0.22967151848937845,86.63847364280095,-6.25694089299764,-8.758202202989771,0.7238377606302123,-0.012146096950039341,0.09299261929032257,-0.6829878358367427
359.0,-0.1127173485444532,0.029875885129819046,-0.007035405192761605,-1.0293324154209287,1.4454291896144769,9.631620377655384,-0.007635474036191914,-0.3523738690007868,-0.23547895357985837,86.70788257277734,-6.030196449645947,-8.531785995279307,0.7237742556573561,-0.012423346146144768,0.09031791894492525,-0.6836951571748624
360.0,-0.10746243115656964,0.03515617623918176,-0.006530881195908733,-1.0334099134539736,1.439067859952793,9.635829858379225,-0.6334812647521636,-0.8257941581431945,0.15911560778914235,86.87672354445318,-6.048066237214791,-8.490961841070023,0.7228229064549565,-0.012220393528324155,0.09020653665420927,-0.6848577988540518
361.0,-0.09458471020194073,0.04723822636843881,-0.0035475066501817094,-0.9673140197070174,1.390325596643063,9.650700835487612,0.05613163144880301,-0.38262874189801804,-0.26372056592109694,86.83077488666592,-5.660089426211082,-8.190599008092615,0.7233772851673783,-0.012938932183132891,0.0860897957921584,-0.6848560010564423
362.0,-0.07868495934959349,0.04741927054063169,-0.005487364654752538,-0.9292274268480014,1.4009771177550485,9.655149788318159,0.05061203917050694,-0.7831220027350043,-0.6813537920085422,87.34315101532351,-5.433973706024503,-8.255532588231988,0.7203599849558369,-0.015160805371660858,0.08505814320292421,-0.6881388807760573
363.0,-0.07867715709415157,0.05134269978644489,-0.0028686823273762693,-0.8801258101981945,1.4059522685549428,9.658816829642955,-0.04654377880184331,-0.248466243302986,-0.33309121052040014,87.87449889475852,-5.142213667528381,-8.279757221535348,0.7172527364577573,-0.01754163483099172,0.08340362782323626,-0.6915483678598029
364.0,-0.08715677136920252,0.05421842568656103,-0.003277832055172732,-0.8708489810740009,1.4079328612640953,9.65958150687498,-0.04545561309920082,-0.16712976572339278,-0.2614770392209417,88.11786510434229,-5.086117475495917,-8.29595650219175,0.715775781529631,-0.018126103904531343,0.08308645852125318,-0.6931198095010243
365.0,-0.09299538017712683,0.06144752912966919,-0.009931598954415633,-0.8781908162647736,1.4130773669027008,9.658420179086583,-0.048976823072023695,-0.10587507168939113,-0.20383549049953456,88.27002126184857,-5.137148037511924,-8.321955434416095,0.7148354823541149,-0.018103338165483616,0.08354828201200346,-0.694040352540441
366.0,-0.08825037826060642,0.05598413322842907,-0.014764570598559583,-0.8881837337852287,1.4249472856018877,9.656017309205346,-0.11100914886320079,0.0643483704533075,-0.15724608626359216,88.4210513375295,-5.192378742258266,-8.39049960660897,0.7139012741279022,-0.018282186341574372,0.08432127044686195,-0.6949064612694527
367.0,-0.0836255825213339,0.04612739312877001,-0.009530200326817164,-0.9409132673646836,1.4362698662470499,9.648464988198262,-0.07674769008856341,0.0634979460449071,-0.13529593848978191,88.47127016129033,-5.504160456888377,-8.462731117230527,0.7135197971859024,-0.016793105149544074,0.08664059350431216,-0.6950548800249703
368.0,-0.07879961266113902,0.04182677681615527,-0.006645312594565152,-0.8639974480017754,1.43342525570417,9.655617230527145,-0.17795881750690956,-0.6779929870483569,-0.013511216687849263,88.44277389850511,-5.05291802840485,-8.436396046420143,0.7138005697676169,-0.019488721880338525,0.08377379043282093,-0.6950212941717102
369.0,-0.0808596905323892,0.04162767412236336,-0.004120836611591922,-0.8835442752238583,1.434615853658536,9.65387620358922,-0.17074710342437527,0.04865046972762349,-0.07564370949009029,88.44138502912966,-5.170025125510472,-8.438964152242328,0.7137697389320182,-0.01878334092303586,0.08451673861236936,-0.6949900036125003
