time,linaccel_x,linaccel_y,linaccel_z,gravity_x,gravity_y,gravity_z,gyro_x,gyro_y,gyro_z,euler_x,euler_y,euler_z,quaternion_w,quaternion_y,quaternion_x,quaternion_z
0.0,0.012142857142857141,-0.05785714285714287,-0.012380952380952385,3.9085714285714293,2.219047619047619,8.706666666666665,-0.22321428571428573,-0.9002976190476191,-0.36160714285714285,93.27232142857143,23.492559523809526,-14.293154761904763,0.6669994542857144,-0.2258242647619047,-0.06923275904761905,-0.7066199897619048
1.0,0.014214285714285712,-0.06361904761904763,-0.0032936507936507957,3.941523809523809,2.192515873015873,8.69955555555555,-0.18898809523809523,-0.07822420634920635,-0.5080357142857143,93.54598214285714,23.702728174603173,-14.138343253968253,0.6651594862619047,-0.22583932992063488,-0.071999298515873,-0.7080711239206349
2.0,0.006091836734693877,-0.037265306122448986,-0.013840136054421769,3.998224489795918,2.189649659863946,8.673952380952377,-0.2033163265306122,-0.5165603741496598,-0.2596938775510204,93.84649234693877,24.064562074829933,-14.16375425170068,0.6628532978265305,-0.22775665082312926,-0.07493555979251698,-0.7093053488231291
3.0,0.00670952380952381,-0.0485904761904762,-0.010592063492063493,4.016104761904762,2.167836507936509,8.671577777777777,-0.06654761904761904,-0.07022817460317463,-0.05619047619047618,94.00919642857141,24.17512896825397,-14.029751984126985,0.6618185179190477,-0.2274412221174603,-0.07670088483650794,-0.7101855939841271
4.0,0.004536866359447004,-0.051511520737327204,-0.007318740399385562,4.011792626728111,2.148307987711214,8.678118279569894,-0.16929723502304145,0.04424443164362518,-0.06186635944700461,94.05203052995392,24.147643049155146,-13.89020257296467,0.6616827573156685,-0.2264427030890937,-0.07733589343701996,-0.710565799669739
5.0,0.005093823760818253,-0.058685680566483094,-0.008369197482297403,4.0199594807238395,2.125255114083399,8.679761998426432,-0.12589496459480723,-0.3716967446892211,-0.18324400078678205,94.10856240165225,24.200810139653818,-13.750758507081038,0.6613523468931944,-0.22583759992564906,-0.07855615754425649,-0.7109365387096775
6.0,0.00721645873140759,-0.06022110449215094,-0.00912027462440523,4.046171752650707,2.1203201453673515,8.668440138998164,0.16947139251058407,0.041502578116218936,0.049089405136562875,94.14388253531153,24.368481826739348,-13.73921973933161,0.660917204270522,-0.2266533710592147,-0.07981065866978568,-0.710942296673579
7.0,8.344573077067327e-05,-0.04959225956314864,-0.010377702221722677,4.046095022666817,2.120959639953542,8.668458956202466,0.12516707410737699,-0.00023304906148140236,-0.5029883668652354,94.30130913744334,24.369223825446777,-13.741562933198455,0.6599456357794389,-0.2265670184401109,-0.08011167810525083,-0.7118341179522498
8.0,0.009989303510546629,-0.052755807200929164,-0.013321915626990371,4.058148317785022,2.152919336105803,8.654914961972198,0.07946861769884979,-0.10125059711138586,-0.2074921673035855,94.69498420581844,24.445549412723388,-13.960095982728259,0.6572350559945581,-0.22804193351037805,-0.08025991788730283,-0.7138473960003184
9.0,0.006760780787531378,-0.048986774568206534,-0.010076280394140345,4.056820126634447,2.1566854745045143,8.654872803566743,0.010954066913941032,-0.11032791952343486,-0.17363015623243788,94.81858585290922,24.432905754748788,-13.983929039751228,0.6564663684851823,-0.22802331786002775,-0.08031075587913529,-0.7145623952501592
10.0,0.013092428159304635,-0.051564197669626485,-0.012239556404780638,4.088790865834926,2.152764452437151,8.641336480461577,0.18429784384249373,-0.17062914465550186,0.2697397999325616,94.69659623093926,24.63774024952231,-13.978535133565622,0.6569617982119067,-0.22917976916368815,-0.08147966509771085,-0.7136016256250797
11.0,0.017470495672698663,-0.05147128245476004,-0.015533438237608183,4.115795436664044,2.1389421715184893,8.631308811959087,-0.06058221872541304,-0.06819679386309993,0.06703629032258066,94.61080350118017,24.814130114083397,-13.908519374508261,0.6573432736030684,-0.22973822996184107,-0.08288439749331235,-0.7129112740377656
12.0,0.004817073170731708,-0.05230920535011803,-0.009462234461054288,4.13898347757671,2.122740165224233,8.623998229740362,0.11410798583792289,0.07634613493312352,0.3136125590086546,94.46184844610542,24.967598101888278,-13.818908585759246,0.6581361691540127,-0.23010958858438235,-0.08407912106766326,-0.7119198491943353
13.0,0.001110917537746807,-0.055113128020681135,-0.006316370686748341,4.115321999925068,2.0992051440560484,8.640933638679705,0.055731508279944546,0.11797697491663856,-0.03357030459705518,94.11783138511109,24.81268129940804,-13.647106702633847,0.6605726603333428,-0.22848909130812822,-0.08327446688098983,-0.7102686718959387
14.0,0.016612303772807313,-0.05804220523772059,-0.0026716589861751146,4.129551637256004,2.0971322730508404,8.635177381889026,-0.06708839121801355,0.18430258560938143,-0.07278928290434977,94.27074078106853,24.901679580663895,-13.644167041324792,0.6595190884407667,-0.22883994011265973,-0.08421155033093551,-0.7110277896002117
15.0,0.0005886167333846318,-0.053154477308686596,-0.002561739335932885,4.086300942697481,2.1020349123732283,8.654697665303487,0.14784279777395434,0.3227919307285948,-0.3062741906664015,94.32483417775512,24.625317018413003,-13.645682569463057,0.6595360193744362,-0.2273295124496301,-0.08242647442229159,-0.7117055040781248
16.0,-0.0077938112241810135,-0.05103357224993732,0.0006955268701924876,4.059336151915224,2.106938777980477,8.666470783871258,0.11314740203410542,0.10418215733912034,0.16982218869512336,94.35171193545506,24.45176157765654,-13.65856119031768,0.6595854219389882,-0.2264643134891738,-0.08122707891610251,-0.7120717020327682
17.0,-0.005190375320981144,-0.04531222278901273,-0.00010935694255914512,4.0573045826452585,2.08735530559134,8.672295187372292,0.11331543980540834,-0.0005200542966081953,0.20812608254583076,93.96993543271572,24.442049160189402,-13.526374418919659,0.6620626359655603,-0.22587648002232097,-0.08109580991595843,-0.7099673701092244
18.0,0.0007903730153926846,-0.04907777038068148,-0.0012873973652887884,4.039185317436301,2.0889833363594175,8.679996288002583,0.07845591498718957,-0.073627922693619,-0.014226129233997062,93.95248403740241,24.325004034779802,-13.520493277048153,0.6622969703007526,-0.2252492933099316,-0.08030768698946922,-0.7100381644409409
19.0,-0.0017448606992273386,-0.05125800399443201,-0.004809709697593254,4.0484124856260975,2.0789291190058297,8.677653533458411,0.10280978282797715,0.12376333999072,0.08754665214145937,93.80708387550686,24.3867840787589,-13.45979423883879,0.6631683539662693,-0.22530939878321127,-0.08074745674414453,-0.7091601134517844
20.0,-0.002238376231688584,-0.05016226443370426,-0.0053086714622906615,4.023105569293021,2.0937561818590535,8.686070061069275,0.12928064469296768,-0.23552321007081034,-0.2822376924806115,93.97491142847777,24.222854848076132,-13.542648212412423,0.662273818047769,-0.2248026698494811,-0.0795551901545371,-0.7102871490211777
21.0,0.0066189071222509475,-0.05378389719381066,-0.007868045408564686,4.068733468210258,2.0848832752613236,8.666378732531562,0.035906883406391664,-0.1720650804578322,-0.2033764307257128,93.93980666469972,24.517495012363717,-13.516940225637855,0.6621484208042223,-0.22624708592090031,-0.08159374155518714,-0.7097136981774476
22.0,0.001879154021954965,-0.06335892248323405,-0.006990090292607996,4.088722724888539,2.071927812745869,8.659977960735826,0.14123013141133717,0.10444485032407927,0.7920533840995092,93.75805257390131,24.642376058409198,-13.443187134708328,0.6631763421743846,-0.22663129711770819,-0.08246514780562736,-0.7085247463500525
23.0,-0.0035712412423663446,-0.06305121576561389,-0.003328837435839796,4.053553632310517,2.044579071597167,8.682594507511894,0.25561518864036564,0.1480672324004346,0.18983693005132815,92.88878976059345,24.412810029597992,-13.240052826795548,0.6689325040508036,-0.22478761151174548,-0.0803272162002173,-0.7038780685628114
24.0,-0.0024897905661084288,-0.07018807837847964,-0.0025416807163463327,4.066088381851561,2.0460896931549954,8.677115507099773,0.018912039638829564,-0.16241898018058523,-0.3328451069648945,93.25433783859728,24.492375707167213,-13.263737074294706,0.6665621870293357,-0.2250892429706642,-0.08148520117249261,-0.7059098053868345
25.0,-0.01088812708403582,-0.06602600127383763,-0.0036963770559364575,4.0694365141808095,2.073032482859391,8.669145404818105,0.08473127646023003,0.07735168221497882,-0.3920165036903825,93.51931596792926,24.514163247911277,-13.442770971488516,0.6647972203428121,-0.22609055869825032,-0.08118386837473304,-0.7073090596380802
26.0,-0.0031606159379566137,-0.06683563748079879,-0.0063446480086920675,4.057712712150164,2.0669950545127573,8.676227942002924,-0.0016168839683788488,0.05144290210183207,0.01805500917912406,93.57055280806264,24.440149535423924,-13.391968500618184,0.6646068990757185,-0.2253534847324941,-0.08104948991701322,-0.7077560689796185
27.0,0.004014162077104642,-0.05858064516129032,-0.005527930763178599,4.055773406766328,2.096670338316287,8.670141620771048,0.06302124311565697,-0.06889260424862315,-0.25451416207710464,93.94773800157355,24.428019276160505,-13.590007867820614,0.6621610554287962,-0.2262105805759245,-0.0806580788056648,-0.7098069999590872
28.0,0.001515342250196696,-0.055852084972462634,0.0012604248623131406,4.111553107789144,2.1283351691581434,8.635523210070811,1.7464004720692368,0.23170731707317074,0.18064516129032257,93.97809795436663,24.790892997639652,-13.848849331235247,0.6613268476789929,-0.22968104607867823,-0.08175090083870967,-0.709320101985838
29.0,-0.019503796680877535,-0.05729844656286023,0.011344354381278246,3.837863539055496,3.2978972974951053,8.198300459261155,10.313903399630394,0.3526396080727499,-3.9976757908989438,95.2112005516623,23.050941736958627,-21.87659277624284,0.6458743395346094,-0.27070057749938703,-0.03246913538367519,-0.7070633227307008
30.0,-0.022163385358534755,-0.07423537591715001,0.030676111100945962,3.76559974749785,3.2188503009898812,8.344142361809963,-4.140525680200539,1.4021754295281137,1.0581054562421093,95.09355267551643,22.59101964896712,-21.07736011746839,0.6492533006996414,-0.2624883441548863,-0.032189738722522086,-0.7096519655234936
31.0,-0.0412678977671247,-0.05852040797655861,0.020644900554406893,3.725342865768707,2.911229504022347,8.520637926249854,-2.730919756289247,0.6008971074432371,1.6668074956456884,94.8031104016749,22.337006724187578,-18.86335996019911,0.6542112776764477,-0.24727571581222269,-0.04082638853944845,-0.7115953927128539
32.0,-0.0383803006500754,-0.04453593363497669,0.02158185887935398,3.7263538445587,2.6610454355749216,8.628353717349201,-1.4835522360555295,0.3469995329842913,0.9851558599580208,94.28993245698183,22.336738529144483,-17.13884203847129,0.6593052479040841,-0.23673174957700227,-0.04859019518216662,-0.710851843983731
33.0,-0.027403967716667834,-0.03615298423909113,0.010173492850564556,3.7081720517237318,2.540608889156087,8.689071579741627,-0.9506936838739302,-0.24504721563666174,-0.3002490060668477,94.40847499549102,22.217068966719033,-16.295558809127368,0.6596546052116425,-0.23073366584672295,-0.05230986045253473,-0.7127618984314892
34.0,-0.012551946348956573,-0.04679742235210371,0.004494848450788656,3.77517904911768,2.4355970177213293,8.705994904649508,-0.6783288374358398,-0.8337295342999512,-0.2679273912554794,94.96220355175902,22.638973343074444,-15.618986268779738,0.6564790752517329,-0.22843168016717244,-0.059717727990708486,-0.7163297163950395
35.0,0.0017971168616329886,-0.04139725865532318,1.2761432116271173e-05,3.880302611367127,2.38759777856552,8.674403875694196,-0.2703651187522155,-0.6008935956516601,0.0577513883965497,94.86794133286068,23.307069006262555,-15.380735997873096,0.6565032940524637,-0.23053067896585133,-0.06536349685631573,-0.7152015444186458
36.0,0.008844026940801131,-0.04236145574855253,-0.00482464846980976,3.9322672811059896,2.360803497577691,8.658622828784116,-0.006198304383788239,-0.1368043247075505,-0.23422914451140256,94.95763618102328,23.64028565520501,-15.246075564220725,0.6556804147912086,-0.23142726604974595,-0.06852215914628383,-0.7153936397323644
37.0,0.017751506557958173,-0.04697565874985231,-0.01185548859742408,3.968030721966204,2.3481744062389223,8.64607792744889,-0.09317691716885264,-0.22491617925085663,-0.09935343554295167,95.04974262968216,23.868193902871322,-15.190146077041238,0.6548594960399976,-0.2322399425141203,-0.07056417615916341,-0.7156960443362284
38.0,0.0205616211745244,-0.054609181141439214,-0.009353243530662884,3.9795606758832553,2.3378890464374327,8.64416799598251,0.001270604395604398,0.04167977519792039,0.08386782907952262,95.18563360362756,23.943289539761317,-15.12687507385088,0.6539913905007976,-0.23213727960959474,-0.07166258080231597,-0.7164180798601264
39.0,0.024329197684036394,-0.05902233250620347,-0.004281460475008862,3.937102918586789,2.351734845799361,8.65941061089448,0.2751816731655441,0.5855828311473472,-0.10118604513765803,95.08003958407184,23.670687108590336,-15.188538343377052,0.6549256286012051,-0.23114614438544256,-0.06926123023986766,-0.7161058822486115
40.0,0.02495084485407066,-0.06552380952380951,-0.005413210445468509,3.903797235023041,2.3437665130568353,8.676523809523808,0.02393433179723503,0.19288594470046083,0.08713517665130567,95.04665898617512,23.45952380952381,-15.108688556067587,0.6554343787127495,-0.22956278585099843,-0.06817220976190476,-0.7162607688172042
41.0,0.021933947772657447,-0.06354685099846391,-0.0033348694316436248,3.912814132104454,2.330239631336405,8.675995391705069,0.0005184331797235056,-0.4238959293394777,-0.15739247311827959,95.03091397849462,23.517396313364053,-15.027630568356376,0.6555158719738863,-0.2293922812473118,-0.06896085742549923,-0.7161690848279569
42.0,0.020644393241167434,-0.06843241167434716,-0.004824116743471582,3.9562342549923195,2.3209032258064513,8.65866589861751,-0.06056067588325653,-0.3353638632872503,-0.153125,95.15132968509985,23.794100422427036,-14.99617415514593,0.6544651107066052,-0.23057708095391705,-0.07125760248003074,-0.7165250532818739
43.0,0.010972134801993182,-0.06809944363268519,-0.0015492207111011207,4.0020715503353195,2.308327395002061,8.640936205087858,-0.041065808699561654,0.04190650640665394,-0.08390462843280508,95.12202937085533,24.086501945880634,-14.946532948840431,0.6543472654536174,-0.23187500607125994,-0.07343508566660112,-0.7159921530495579
44.0,0.002906504065040651,-0.06550792401933236,-0.00141613277883931,3.9923171481023574,2.29906279270166,8.64808208759507,0.022725356861863555,-0.0038752528942340107,-0.10490286988123337,95.39473628751264,24.02247070641789,-14.876318328275449,0.6527472108045034,-0.23092795071147576,-0.0739229295617624,-0.7177081283427373
45.0,0.004917153722228468,-0.05664182683301487,-0.002668895882507212,4.017290678505864,2.2869399985013676,8.640107096024876,0.07884059701772134,0.11584271149451124,0.21473846521299317,95.29565923438611,24.180278171949347,-14.81578493218688,0.6532526864567831,-0.23144934996019256,-0.0751374786387921,-0.7169598044931811
46.0,0.0035755123449852013,-0.05391768761005583,-0.008019931812221348,4.0186534037690596,2.2768006444119737,8.642206773818888,0.1485432823798284,-0.2759748136075831,-0.12887068674834212,95.37902921396724,24.19439815855532,-14.75219690157731,0.6527617937122625,-0.23104533618170922,-0.07573084777100897,-0.7174738014159454
47.0,0.0019889850511408337,-0.05004563335955941,-0.006999213217938631,3.987398898505114,2.2745232100708104,8.656697088906371,-0.009220102281667975,0.44263375295043267,0.012062352478363493,95.13844413847363,23.992038749016523,-14.712868804091267,0.6545259558929977,-0.22991422791266716,-0.07406559054602677,-0.7163973708638867
48.0,0.01518804091266719,-0.05389378442171518,-0.010321007081038554,4.0110873328088115,2.2535755310778915,8.650496459480722,0.18293912273800159,-1.0465824154209282,0.5175624508261211,95.0566089693155,24.1498352675059,-14.596009539732494,0.6549062277812745,-0.23006865063611331,-0.0756096549779701,-0.7158180479496459
49.0,0.0010249522310891296,-0.045962665317897416,-0.008458806339215466,4.071860964370012,2.2531962927578584,8.622872709902214,0.18815711522610618,0.21658599808924361,0.22479739191113107,94.57394721067027,24.530561624236633,-14.638847656981753,0.657419206100371,-0.23267290722469183,-0.07702333196259038,-0.7125136189774456
50.0,0.003632318576159719,-0.05544738667245208,-0.006565487190612984,4.094508501689884,2.24504516438343,8.614368838071888,0.2016150120391596,0.12196868359075833,-0.3597101515688156,94.53483674299454,24.67672058612432,-14.598923195520133,0.6575286339008981,-0.23323718537575555,-0.07811728386876704,-0.7121239498625038
51.0,0.01406059093170505,-0.05601747213806937,-0.009709010876412485,4.100436278494712,2.2747551090734346,8.6039968230298,-0.008585495132493917,-0.12239459445654093,-0.32511117217457675,94.79551576973077,24.72010352462898,-14.798206317422125,0.6557179997100497,-0.2344902702485537,-0.07788796354709474,-0.7134086098884334
52.0,0.02992526006065976,-0.061113771474227446,-0.016716818577466666,4.136379626265453,2.2719434475343565,8.587521523237951,0.10066029137946508,-0.6535673552534474,0.48422106615504046,94.87640289863407,24.949455406098913,-14.809805238766135,0.6549129505545725,-0.23571454394892277,-0.07957424077934988,-0.7135629707338509
53.0,0.01697585546212337,-0.06353766577532885,-0.0081459781321637,4.10977386768295,2.243032156122654,8.60743447185838,0.005307947195858198,0.4461161294243421,-0.06880185312007447,94.32794658812787,24.775420118095724,-14.597421867444211,0.658673508972914,-0.2338719435221741,-0.07838908519822463,-0.7108163870002475
54.0,0.020780273465578942,-0.05984468242496163,-0.013662457426203239,4.092730308012544,2.237512949665988,8.616981257509497,0.025545585002522412,0.01033010865956907,-0.410928243820537,94.69122147697203,24.670117986813775,-14.548857869955292,0.6565638489064862,-0.23275776977511797,-0.07863756201932887,-0.7131040987092765
55.0,0.014344160953130269,-0.05333801655988911,-0.013637930388520474,4.131151886403657,2.249969278033794,8.595232850024349,-0.008315068749765838,-0.2649593964257615,-0.1940483215316024,94.97320960248774,24.915749925068376,-14.659318684200667,0.6544423331909632,-0.23454868077760296,-0.08031097130455958,-0.7142880854334794
56.0,0.01685886628451538,-0.058489003784047054,-0.012528193023865722,4.207792139672549,2.2354029448128583,8.56194185305908,0.15493752575774603,-0.5331736353077816,0.20672932823798282,95.10902551421827,25.412805346371435,-14.626861582555918,0.6530005590959498,-0.23685495637405868,-0.08417747840620432,-0.714399215781724
57.0,0.012497096399535425,-0.06721067026338466,-0.007275111460792027,4.25417537746806,2.2367258626503315,8.53858697688359,0.019984498520100404,-0.06059743921171931,0.027218912742122806,95.0465711756772,25.714049211344644,-14.675547235023041,0.6529753377855831,-0.23875631969371697,-0.08585884610318084,-0.7135984838822074
58.0,0.026171743284253125,-0.07409381439436515,-0.008282717020718595,4.288609194110374,2.225995803829006,8.524069986137649,0.22815181147203176,-0.3096717994829718,0.31718088494248997,94.96414100258514,25.936181671724547,-14.63634792626728,0.653241501305234,-0.2397458964851073,-0.08741415154621407,-0.7128430117444831
59.0,0.019712824547600316,-0.07989805552433404,-0.0049444382001423695,4.288556779438762,2.2154200666891457,8.526967554606419,-0.0772116537409614,-0.1750241186167622,-0.31117464688471763,94.68288140197069,25.93578008504739,-14.564235369600238,0.65503535721644,-0.23951490953793408,-0.08721062940897684,-0.7112925850843355
60.0,0.019314937619422278,-0.0732247574088644,-0.004223371173803904,4.344458881270839,2.199587913528905,8.502942302648833,0.06563284440448089,-0.10059289648196021,0.17784201603536778,94.71173639991008,26.296495073245662,-14.500219643325465,0.6544328512272675,-0.24102259047941246,-0.09005424072983403,-0.7109807131796485
61.0,0.01123103293244914,-0.07096328350380278,-0.0025562174515754376,4.350392304522124,2.1705886066464357,8.507269735116704,0.04604419560900677,0.017489743733842857,-0.1304928393465962,94.54752339271664,26.33754238320033,-14.304840348806714,0.6555327181706756,-0.24019350547574086,-0.09098904197782025,-0.7101329948667714
62.0,0.0044589468360121415,-0.06837699973773932,-0.0017383762316885848,4.330668221497885,2.1701880877449327,8.517710398636245,0.07585943061331535,0.3836711110486681,0.11667234507886554,94.56710847055186,26.20358629781574,-14.285460103592971,0.6555813090459985,-0.23934857146721739,-0.09025477989528305,-0.7104701787551795
63.0,-0.00110520400134877,-0.07198688696564384,-0.003175639728747518,4.306180884942492,2.176719043872467,8.528512457382636,0.10050532014536734,-0.08966646060469818,0.01284726124911019,94.75454717882432,26.046803229553035,-14.308203842119067,0.6546135138496121,-0.23852772554812485,-0.0894550085766738,-0.71173621978888
64.0,0.006712374957850959,-0.07540050953504926,-0.005553257652392193,4.324543591472783,2.172138323779551,8.520048855419427,0.12314052489603237,0.035821531602412804,0.12469840020980855,94.59064244501891,26.16867811247237,-14.29293160615938,0.6554810208034543,-0.23923164088235732,-0.09000007855869019,-0.710635137818403
65.0,0.006153422501966956,-0.07457199055861526,-0.0041345397324941,4.284060582218726,2.179066089693155,8.538961447678993,0.20833005507474428,0.2927763571990558,-0.43839004720692365,94.66538650668764,25.9051435877262,-14.30539437450826,0.6553499934854446,-0.23785627059402048,-0.08829128608733279,-0.7114238410896931
66.0,0.01359834775767113,-0.0723095987411487,-0.003983084185680567,4.2550318646734855,2.2015306845003924,8.547800157356413,0.057631785995279315,0.16966709284028322,-0.02472708497246262,94.8438213021243,25.715268489378442,-14.434552025963807,0.6544197088135326,-0.23749937555350115,-0.08669470045043272,-0.7125962831687649
67.0,0.01136250983477577,-0.062279897718332033,-0.004493509047993706,4.260478166797796,2.190391620771046,8.547999213217938,0.014629228953579859,-0.06396661093627067,0.15824523013375297,94.81272005310778,25.752697187254128,-14.367748082218725,0.6546108840999214,-0.23730867826455543,-0.08722675338414634,-0.7124256723869
68.0,0.008838128957326441,-0.05547885054887417,-0.004750786782061369,4.290839889850512,2.1705036060844467,8.53763363118654,0.10268951847064553,-0.10895743181222134,0.12480353864598553,94.6177883579671,25.957120963058706,-14.255978255779102,0.655637390350652,-0.2378350920479843,-0.08876671220762619,-0.7111125202823518
69.0,0.009724139222959048,-0.057055318272076744,-0.00854464988198269,4.280407749803304,2.16586598478888,8.544048031171554,-0.027064834588438044,0.15309713480199316,-0.1068350520774793,94.57896142426286,25.884381439436517,-14.214669153459969,0.6559941459468641,-0.23722748218164358,-0.08842914005100033,-0.7110305516174742
70.0,0.00803830879322618,-0.053526282267430975,-0.005864476789929191,4.252265932336742,2.160751245738264,8.559272048630621,0.2138807908096362,0.4283262031209021,0.355296085290922,94.38532429002285,25.6996467090967,-14.160364917013226,0.6574886323022087,-0.2360970169097636,-0.08706464419023266,-0.7101912126991776
71.0,0.006269154396613088,-0.051827657262747746,-0.0055814319433516914,4.238681353265144,2.1682869131917126,8.564744895283052,0.16482850024352777,-0.11645685811696829,-0.14435296541905515,94.32003109662432,25.611894927128994,-14.201956652055,0.6579621411309431,-0.23592661657584957,-0.08613084945801955,-0.7099231179503952
72.0,0.01073489191113109,-0.05474152335993407,-0.0055507474429583,4.256190401258852,2.162159192237083,8.557282754486533,0.0707108669589,-0.21524062418043535,-0.09784524746169122,94.27975886066463,25.725321971825707,-14.1719411505751,0.6580961610532765,-0.23639348117305461,-0.086977357666854,-0.7095434499043871
73.0,0.013529504327301338,-0.06231392604248625,-0.005404405979543668,4.274804878048782,2.154891424075531,8.550389457120378,-0.04027340676632572,-0.14525472069236822,-0.10837922895357988,94.2529602675059,25.844059795436664,-14.139998033044847,0.65812952302203,-0.2368378387309205,-0.08788098703619197,-0.709261769959874
74.0,0.015655389457120375,-0.06343469708890637,-0.004645554681353264,4.206277340676633,2.1844874114870185,8.575761211644375,0.32607199055861524,0.9058590676632572,-0.23074842643587726,94.36802222659323,25.396902045633357,-14.285085562549174,0.657871952919355,-0.23527735274468922,-0.084336258297797,-0.7104213306801731
75.0,0.013606883428174116,-0.06918866759372769,-0.005272386694234535,4.124717906610799,2.2317136342012334,8.60234504510274,0.3560829231698168,0.29088101865405375,0.24142459014143783,94.15963745128354,24.874237919235902,-14.532321247232538,0.6596547267884791,-0.23414984221539073,-0.07905441845634731,-0.7097350662062787
76.0,0.012498526199494122,-0.06953615407336153,-0.0072212547910496805,4.149171357299256,2.2093420321543804,8.596990686913887,-0.01189469432907006,-0.17758536432888714,0.06146690336564979,93.89791348370629,25.033105902782317,-14.4033990068728,0.6611672651283025,-0.23438941944698105,-0.08028170389388027,-0.7081228200211501
77.0,0.024260671439636908,-0.0656895955260592,-0.00704670135303861,4.148852594463946,2.1963048673753804,8.60106821914538,0.0321962159747254,0.0326913854988137,-0.06541070154298154,93.9070581383913,25.028221912838838,-14.316561078967478,0.6611670695665116,-0.23382103511609476,-0.08072575149591732,-0.7082717959734979
78.0,0.03161420668756039,-0.07405044292431992,-0.005374157128132207,4.1367771036835865,2.198091949816723,8.606356690217854,-0.07679503717392763,0.11437996694295524,-0.3276650281908456,93.9860643514537,24.95332466609684,-14.321839007225673,0.6607914826179331,-0.23338353688869257,-0.08035448855037802,-0.7088127664262649
79.0,0.029330313414590584,-0.0793415078508303,-0.005716976282398128,4.158228048301274,2.203748571289164,8.594799116155347,0.18311605340359483,0.044955522417189656,0.03620190761976211,94.12876191608878,25.092353717784846,-14.375076663329594,0.6596743964498006,-0.23433884733813073,-0.08130837975748642,-0.7094272186655322
80.0,0.03022329624217901,-0.08092581769135665,-0.005474392117193062,4.1603908433554375,2.1903401521111987,8.59734779513694,-0.028411028061893523,0.11428665093102544,-0.0716589861751152,93.99890833988985,25.101207804128734,-14.286591219886851,0.6605551343276759,-0.23396742053928293,-0.08156781311955341,-0.7087044663695253
81.0,0.010651062155782848,-0.0763556254917388,-0.002843036978756884,4.151137686860739,2.1956369000786777,8.600456333595595,0.07350019669551533,-0.39113394964594805,-0.39637588512981903,94.19303943745084,25.04183221872541,-14.311184598741148,0.6594013419020456,-0.23368554081785997,-0.08142576503697875,-0.7098761391262784
82.0,0.0138488160803267,-0.0712224719943052,-0.005735332134427335,4.189607845341126,2.1973643643924916,8.581617024465174,-0.05198767843093177,-0.03868356843130641,-0.0023834110748941484,94.26974290257016,25.285106285826686,-14.35085357658012,0.6585819539282436,-0.235187372629716,-0.08304263162492975,-0.7099564581969482
83.0,0.009454600801768387,-0.06789998501367503,-0.0026812970664268853,4.178560807013599,2.1824712262560415,8.59027763103668,0.17367546644936493,0.3639440143681391,0.29289759422651834,94.06764768554945,25.217135164943237,-14.24736509965906,0.6599661502201212,-0.2343087564524465,-0.08272225558233112,-0.7089828831475496
84.0,0.018898523846989625,-0.062052274174815486,-0.005523968753512419,4.167597279982015,2.18315162414297,8.595400912292533,0.04260091182421041,-0.1105037746806039,-0.23334627074669362,93.98527816024128,25.152170675508597,-14.242662437713086,0.6605623199329362,-0.23399664519996444,-0.08212778229529616,-0.7086154466873664
85.0,0.017769285526956655,-0.07023453598591287,-0.007964482409801058,4.2763560750814875,2.166847251882657,8.544061294069161,-0.12463470832865009,-1.1012466749091454,0.06437094900902926,94.14262063991607,25.863029672923457,-14.21856150013113,0.658668310285115,-0.23749329491026944,-0.08739899366190851,-0.7085350940980105
86.0,0.016220196164023582,-0.07429078088337415,-0.004934613444301843,4.3406439588991335,2.1595297866278416,8.514485132607193,0.0919148014355505,-0.3374894518490249,0.21081187653185074,94.16370861007934,26.275647935285214,-14.223926217834947,0.658024775682967,-0.2396818009674762,-0.09019883404272672,-0.7080686118574331
87.0,0.016182294702595516,-0.07552864697010492,-0.0024519457390480034,4.264623054718383,2.1909707304875,8.544796329744457,0.3605215328222299,0.4982819637836288,-0.26236959936848325,94.0104257336111,25.782385219562727,-14.375331964524232,0.6595152275688261,-0.23808256936622663,-0.08572328236698548,-0.7077677729256443
88.0,0.016274870111256043,-0.07536363184872874,-0.002310176847347726,4.230213746816496,2.2093161705060407,8.557646275680419,0.05333383650790745,0.12754141279222242,-0.24811227850516637,94.16856849229728,25.55769822246502,-14.463576042094147,0.658793536885615,-0.23734237436126454,-0.08404452981321114,-0.7089090802740494
89.0,0.018249457834841984,-0.07436496754850733,-0.006428401525468475,4.252907442888596,2.2069950153043485,8.547118068715784,0.033966897647756865,-0.0384746665760517,-0.14617150585555796,94.38212808864236,25.70287312681829,-14.466717397990612,0.6572939159760585,-0.23796617016984212,-0.08546747858256376,-0.7099319893863971
90.0,0.012374138830874964,-0.06839412814876192,-0.0022936657509325066,4.248758992884109,2.203021504505046,8.550687279833895,0.0468319932770649,0.45711003099206854,-0.38551199210952564,94.32648890663432,25.672984557114887,-14.440282381135352,0.6576977627205234,-0.23768652363724205,-0.08529368355170674,-0.7096828497246699
91.0,0.010349109925565012,-0.06145287802786935,-0.0006006963413327201,4.250754590215498,2.2081926727326424,8.548366145543351,-0.023419149648039192,-0.34136715254597627,-0.2334677364898716,94.58275401820838,25.689150755676724,-14.474454768962275,0.6560384224660382,-0.23779793787113412,-0.08575095450728625,-0.7111246533131976
92.0,0.01317148276616192,-0.05478404270057063,-0.004425540182955148,4.304897264385783,2.1944565514200853,8.524267558178742,0.10757805958458255,-0.17878169455255802,0.189732145579949,94.66440888314412,26.039799072154796,-14.429609296923534,0.655109853236091,-0.23930814562143496,-0.08855806938958782,-0.7111290986397016
93.0,0.005294668614888912,-0.056377767786894475,-0.007340301974448318,4.324918249597243,2.1677796635570044,8.520659660559737,-0.04727529878985425,-0.01903263272264058,0.10872578771870668,94.4989383125398,26.171076392791576,-14.263365226106178,0.6560710326097936,-0.23914076658941216,-0.08996339112240082,-0.7101256061863175
94.0,0.00747836349331235,-0.05475570416994494,-0.006985051140833989,4.347363886703386,2.149372934697089,8.514869000786778,0.17455743509047994,-0.03345544846577497,0.3046125098347757,94.24423682140046,26.307725216365064,-14.162927812745869,0.6575505050153424,-0.23944641171636505,-0.09092966969944925,-0.7085322292513769
95.0,0.012189221085759245,-0.05972246262785211,-0.008551534225019669,4.324004523996853,2.151059402045634,8.52597501966955,0.03141719118804093,0.13856338512981903,-0.08279405979543664,94.24441384736427,26.158386605035403,-14.155150963808026,0.6577399778263178,-0.2386127029785602,-0.08995984806766326,-0.7087561648617231
96.0,0.014731707317073172,-0.06793784421715186,-0.011775767112509834,4.3114014555468145,2.1576667977970105,8.530338316286386,0.11943843430369788,0.082058910306845,0.07745377655389458,94.1936786978757,26.07863886703383,-14.188865804484657,0.658134082901062,-0.23843851035621555,-0.08913657066286389,-0.7085558402494099
97.0,0.012785208497246263,-0.07356569630212431,-0.007694335169158143,4.301091856805665,2.1486721085759246,8.538225609756097,0.043590184893784426,0.269658487411487,0.12466438827694729,93.93927886506688,26.012605723839496,-14.117189958693942,0.6598445598981117,-0.23784546202084972,-0.08852324472659323,-0.7072416940682533
98.0,0.010327301337529503,-0.0719683320220299,-0.0030564516129032247,4.261501770259638,2.1508215971675853,8.557960660896928,0.12577940597954368,0.2657036782061369,-0.2849663158929976,94.00675772029896,25.75722856018883,-14.102439024390243,0.6597444175999212,-0.23633773060955937,-0.08700363041168371,-0.7080258588516914
99.0,0.015060259436341261,-0.0699228550101878,-0.003272125723738628,4.248177167181101,2.158489065746737,8.562168916056404,-0.03346704845770541,0.12378313562912303,-0.11139535294236314,94.05039925407009,25.673248275131634,-14.142648379027214,0.6595572896603822,-0.23609904601973006,-0.08632133419064335,-0.7083681156899069
100.0,0.00855294639795033,-0.06643507030603805,-0.0035432225786277724,4.228297867618874,2.155597011236862,8.572672184228043,0.08095530346587584,0.1364440855171579,0.05678757136516775,94.08253145236942,25.541487434182656,-14.102687289434929,0.6595791724981691,-0.23515941554959754,-0.08569218219602978,-0.70873989277493
101.0,0.014816411755042754,-0.06825171334042301,-0.0062074791848592,4.2324841872656584,2.167905456463285,8.567353757244591,0.06031852154860613,-0.3640384219111599,-0.11123035026211658,94.19914183025537,25.56889799896537,-14.188934850554638,0.6587596909912121,-0.23574941422948387,-0.08568822613334515,-0.7093030090214896
102.0,0.006223705484130348,-0.067482170596254,-0.00417622188983322,4.254777597173348,2.163881524455089,8.55737681961364,0.05650109299302848,-0.17344082779271605,-0.4047730724559993,94.3008279224054,25.715867420017695,-14.177745847779287,0.6579561206939735,-0.23635559344873092,-0.08691891729306912,-0.7096929233024443
103.0,0.004626408210200502,-0.0618174031580798,-0.004499597963012598,4.266881324157091,2.1737660966099206,8.54911720603027,0.21943858740918143,0.0782825365363721,0.1326105133392702,94.44098241124203,25.79162273439909,-14.259752152843223,0.6569312877152007,-0.2371338519564662,-0.08732781682120018,-0.7103324514938656
104.0,0.007934378629500582,-0.058337154846202846,-0.009159641826833013,4.256424946611217,2.16189710951257,8.55732287100521,0.09479476930425985,0.5628385387396502,-0.29781281611779253,94.32788884830092,25.723789034693343,-14.174561767075044,0.6577927440461859,-0.23634517943232736,-0.08708094087213855,-0.7098306241083885
105.0,0.0021204151212019027,-0.051249222584391754,-0.0037411112359971525,4.218869731370123,2.161581619272414,8.5757299838897,0.179882263684388,0.1345694709827283,0.1913657693604586,94.20396458544079,25.483215081862802,-14.14186757708591,0.6589047496077705,-0.23496309066374435,-0.08534480260945636,-0.7094637845219363
106.0,0.0016254917387883564,-0.051717545239968535,-0.008176239181746656,4.211135326514555,2.1537623918174673,8.58126514555468,-0.05997246262785208,-0.21839594807238394,-0.0452301337529504,94.1614821007081,25.43662962234461,-14.079420731707316,0.659262014924469,-0.23438516629346973,-0.08526749112116443,-0.7093357758316285
107.0,0.00248072383949646,-0.0554929189614477,-0.004808025177025964,4.2170310778914235,2.1451856805664837,8.580782061369,0.1973691974822974,0.11611673878835563,0.19748721479150277,94.01479887883556,25.475002458693943,-14.02685139653816,0.6601511694331237,-0.23437580894531865,-0.0854885166620771,-0.7084874404531863
108.0,0.0062181706308378215,-0.055022377897476264,-0.006696513950251165,4.2318838739938265,2.141772065202042,8.574387681817264,0.004935859609836793,-0.13664056038047973,-0.14463683199176905,94.04873260631645,25.56942365061833,-14.020448106427404,0.6598092696302176,-0.2348069128559231,-0.08625449507749297,-0.7085724636672517
109.0,-0.00088592236507264,-0.05918534409466748,-0.006571375254695476,4.240764709654363,2.138136032601021,8.57066887931109,0.1581682946282671,0.08583078547796288,0.008914782928846648,93.99254626667589,25.62591886255955,-14.00336081396639,0.6600891374931042,-0.23505996747423652,-0.08661457684154986,-0.7081814139219513
110.0,0.011226393656173358,-0.051967672047333754,-0.013632461820896126,4.22660412902073,2.1413099517843817,8.57717718159103,0.02243092150768193,-0.11628319597069596,0.012269891464423324,93.97964006882181,25.533145923215258,-14.016070527950937,0.6602874149360681,-0.2346283180677634,-0.08592139453367817,-0.7082235252593627
111.0,0.003133358118409259,-0.051971739249473334,-0.00790494058786742,4.209229483865203,2.155122717827674,8.582233752085838,0.15458743656029256,0.8108856197565875,-0.3030384413645625,94.1281264860238,25.41823626805924,-14.095535263975467,0.6594839471494858,-0.23439689018307525,-0.0849764624079681,-0.7091528975087135
112.0,0.021405388736623985,-0.053853690238426684,-0.019286852670015536,4.184201681350382,2.165983860880792,8.591451258419003,0.07016350584898971,-0.42852158823342923,0.1070862081139422,94.07616001720544,25.260455663533946,-14.144861455748552,0.6599660114582991,-0.23390301751482634,-0.08354241742743017,-0.709039222782681
113.0,0.020351991307931513,-0.052239500206061995,-0.014410175714660373,4.2142993518414436,2.162673485444531,8.577545314900153,0.08862807219662058,-0.10269648477014721,-0.0004581366378179838,94.01230974392118,25.453294415720656,-14.143817204301074,0.6600920921997865,-0.23497906758950585,-0.08473870143662658,-0.7084284262002736
114.0,0.01840564235135439,-0.04845077928889889,-0.011890187703720355,4.202049829530553,2.164074837960361,8.583407834101383,0.05405865975422426,0.39109607405117836,-0.1951935460454835,93.97939315921097,25.371568482821925,-14.145809331797235,0.6604073608041944,-0.23456726919413848,-0.08411688171293694,-0.7083446196861583
115.0,0.0023268611142332613,-0.055577348169795066,-0.004639410288112098,4.168028370986475,2.153308540331947,8.602776113671279,0.05938940092165898,-0.06584909239069348,0.26511084026450865,93.76360090948259,25.148824275973173,-14.047055011520737,0.6621016023942248,-0.2329419618887359,-0.0827277748211382,-0.707450841716543
116.0,0.014757708590910794,-0.056443051965081856,-0.011127308830691999,4.200483271514743,2.131943632685175,8.592254224270354,-0.0007536482334869442,-0.3193900799895095,0.17308081375744633,93.61858280881195,25.361331300813006,-13.930150729646698,0.6627978872675809,-0.2334864891592297,-0.08446254249582257,-0.7064189671660672
117.0,0.023660522273425497,-0.06035291858678956,-0.014503072196620587,4.216738095238095,2.1092039170506913,8.589417434715822,0.09639736943164362,0.5919522849462366,-0.0015841013824884759,93.5251008064516,25.465087365591398,-13.791083429339476,0.6633386168855608,-0.23329370768740398,-0.08568441706144393,-0.7058327996601381
118.0,0.012153235172904724,-0.04030991720055449,-0.009867783147877562,4.096368850923532,2.1378951331909635,8.639353190213932,0.3172640122138548,0.504319105691057,0.10733885017421602,93.54694138473643,24.691819105691057,-13.893298771121351,0.664098761910719,-0.22972312117474053,-0.0799864099850886,-0.7069290613958639
119.0,0.015138660971863175,-0.04183286501067776,-0.007931250234161327,4.064101682214979,2.146231014199543,8.65296871604661,0.06690925780225544,0.03675044958974935,0.08408405455022291,93.53357943688883,24.483838185156046,-13.920741776254168,0.664435894856019,-0.2288219048143569,-0.07840030412371213,-0.7070957654515005
120.0,0.015074201041549584,-0.043580532763853,-0.008276441497133864,4.086372803566745,2.135520156607096,8.646288037166084,0.05767159342100333,-0.20146303997602188,-0.017304405042898353,93.53704877112135,24.62877175358735,-13.86517552733131,0.6642597844105131,-0.22925525823592227,-0.07967334246807914,-0.7069896057386573
121.0,0.012921125098347756,-0.04241699449252559,-0.01044236821400472,4.117643391030684,2.1273668371361127,8.632984264358772,-0.04776750590086545,-0.4232641620771046,-0.08703161880409126,93.63306451612902,24.831071744689222,-13.834613493312352,0.663458412556255,-0.2300746147446892,-0.08139180099901654,-0.7072842466488986
122.0,0.009079464988198269,-0.0453532651455547,-0.009584579071597167,4.169529504327301,2.1180110149488587,8.61015578284815,0.06278520849724625,-0.1855330448465775,-0.16139850511408338,93.76403422501967,25.16150668764752,-13.81328678206137,0.6622553401321793,-0.23160899766640436,-0.08401020088591662,-0.7075957603493311
123.0,0.007358772619984265,-0.04194728560188829,-0.011544453186467345,4.186952006294256,2.1071612903225803,8.60460424862313,-0.010129819040125883,-0.18244492525570416,0.2361428009441385,93.68474626278521,25.27716365066876,-13.753417584579072,0.6626341568143194,-0.23192256349095194,-0.08494006240204563,-0.7070321582155783
124.0,0.0019689221085759257,-0.04556372934697091,-0.0025771046420141604,4.202301337529503,2.1051471282454757,8.59804169944925,0.09375491738788355,-0.009121754523996856,-0.2705940204563336,93.57409028324153,25.373937844217153,-13.749220594020457,0.6631892816353264,-0.23251415117033825,-0.08537932165184892,-0.7062682799040126
125.0,-0.0054372541306058194,-0.04797777340676635,-0.00012254130605822075,4.223642407553108,2.1068095987411484,8.586520456333595,0.08721970889063729,-0.2200113099921322,0.13152537372147916,93.70976839103068,25.516340479937057,-13.775190548780488,0.6621467271410307,-0.23332398419099132,-0.08648525182199054,-0.7068436610409126
126.0,-0.0029000786782061357,-0.04647836349331238,-0.004387490165224232,4.251627852084972,2.1025948072383946,8.574456726986623,0.17663503147128246,-0.03200973642800946,0.21688385129819038,93.54701760424862,25.69481461447679,-13.768007474429583,0.6628925914787569,-0.23438119470889068,-0.08742026004130604,-0.7056834036624706
127.0,0.004368214004720694,-0.049769472856018904,-0.0036846970889063725,4.258697482297405,2.0931109362706533,8.573711447678992,0.01077030881195909,-0.0002200531077891435,0.12636580448465776,93.48667756687647,25.739913208103857,-13.708821793863098,0.6632481233790322,-0.23431038709087337,-0.08791391747934699,-0.7053102929760031
128.0,0.0027248229740361924,-0.051211250983477605,-0.005405192761605035,4.254314319433517,2.0891524390243905,8.577134343036978,0.188165076711251,0.18108526750590084,0.14995205546813534,93.30360936270654,25.705800059008652,-13.680599675452399,0.6644512493328087,-0.23410657241837138,-0.08744954659225021,-0.7043012376327694
129.0,0.004632572777340678,-0.05604110936270654,-0.0073154996066089675,4.233931353265145,2.0943705743509047,8.585571203776555,0.0007609657749803322,0.33172206923682135,-0.23709554484657752,93.26042363296617,25.574926239181746,-13.699952055468135,0.6648695397793075,-0.23354158907612116,-0.08638170258241543,-0.7042282750865461
130.0,0.008832415420928403,-0.06811329661683714,-0.006915814319433515,4.220953579858378,2.1140723839496456,8.586963021243117,0.03296616837136113,-0.20057041699449252,-0.13167781274586943,93.46108379228953,25.493410700236034,-13.825757277734066,0.6636734977041698,-0.23369820605822186,-0.08557868444846578,-0.7054009051723054
131.0,0.013479937057435092,-0.07890322580645162,-0.005330448465774979,4.223230527143981,2.1171227380015734,8.584996066089694,-0.12056451612903225,-0.1834382376081825,-0.19479740361919748,93.56012981904013,25.51076907946499,-13.847477380015736,0.6630309143674271,-0.23383575351691582,-0.0857539623147128,-0.7059369296868607
132.0,0.011845397324940991,-0.07614634146341462,-0.008291502753737216,4.238318646734854,2.116167977970102,8.57821715184894,0.05334382376081826,-0.021292289535798578,-0.1671961054287962,93.75118509047994,25.608192368214006,-13.85109411880409,0.661714845748623,-0.23424672314240758,-0.08678807357277735,-0.7069086083516916
133.0,0.021135129819040123,-0.08028402832415421,-0.009314909520062944,4.249599921321794,2.113603265145554,8.573298190401259,-0.008118607395751373,0.7445908733280882,0.42163896538158924,93.67710218332022,25.676588316286388,-13.84536904996066,0.6620998022763571,-0.23460600109913454,-0.08714723963847365,-0.7063816675944137
134.0,0.01415339440260762,-0.07640123075193885,-0.007588522348357125,4.2013564122738,2.1028732531564946,8.59952620733581,0.13163578078753138,-0.12302666395039524,-0.0716761970327077,93.36180377983214,25.368003259525683,-13.731343079127795,0.6644932435853751,-0.23251344065018176,-0.08501621433152562,-0.7050780296892958
135.0,0.013975890749690908,-0.07008367989209846,-0.0096289385935334,4.220920141620771,2.091226949158892,8.592601813345324,-0.12233735154171817,-0.3917804690719718,-0.41955785658086997,93.38707628507737,25.494183081375745,-13.67459291053164,0.6642206018209131,-0.23282249856702636,-0.08623300352463378,-0.7050944931349705
136.0,0.0037369618972687433,-0.06458550635045522,-0.004235397699599115,4.228475019669551,2.084847148851672,8.590648664343785,0.10830909763590724,0.009061575062755262,-0.11234580476565134,93.35158790650405,25.540831705912105,-13.638653654321681,0.6644034164588437,-0.23290048968005134,-0.0866859318323405,-0.7048379323676426
137.0,0.0038967067550859874,-0.06157097898167922,-0.009682214978831812,4.18124154209284,2.080322767974223,8.613719493462217,0.22890253268892136,0.7692485294668614,0.1693815331010453,93.27294617099396,25.24367694166573,-13.576610093289872,0.665310351826196,-0.23089746323921922,-0.08482093222262185,-0.7048071634459181
138.0,-0.007043778801843316,-0.07524654377880186,-0.0037726574500768035,4.144096774193548,2.087673579109063,8.630201996927802,0.10407066052227343,-0.2794738863287251,-0.7311923963133641,93.40520833333332,25.00099366359447,-13.594210829493088,0.6647993098210446,-0.22965899833794162,-0.08339083362980029,-0.7058653940360984
139.0,0.004473502304147465,-0.06546121351766514,-0.006705837173579109,4.178058371735791,2.121240783410138,8.605362135176652,-0.0158650153609831,-0.5822532642089093,-0.18671274961597542,93.98363815284176,25.223615111367128,-13.845468509984638,0.6607739522530724,-0.2319264782703533,-0.08473542162288786,-0.7087485314420123
140.0,0.005578725038402456,-0.05762365591397851,-0.003044546850998464,4.2194827188940085,2.116452764976958,8.585952380952381,0.19146265360983103,-0.23435819892473117,-0.14203629032258067,94.15401065668203,25.489768145161293,-13.845782930107525,0.6593951415019201,-0.23321317996697394,-0.08685097378878648,-0.7093797064458525
141.0,0.019103302611367126,-0.08154608294930876,-0.0020299539170506916,3.762836021505376,2.029781874039938,8.793714669738865,1.9285066244239628,6.741318644393241,7.361542338709677,88.71152313748078,22.592576324884792,-13.010579877112136,0.6951323503029954,-0.21439884978072202,-0.06301893925883256,-0.6795419808375576
142.0,-0.03747205050391517,-0.057948887265370355,0.012319012026525794,3.1479295174403354,2.0368118654228016,9.019947519763214,2.2309103489940427,5.315221305870892,3.573869000786782,82.94824595603386,18.773950313307857,-12.726955949571016,0.7327924361100933,-0.19163272406945228,-0.030860516781068527,-0.647456065566202
143.0,-0.06598023534294187,-0.05533455529521619,-0.007102797543395498,2.6550407512759984,2.2110095307262894,9.139979653181854,0.4110933568791555,1.4807638270462817,1.4165664276059633,81.00347639509715,15.751419558018693,-13.583853801915367,0.7466470044340788,-0.17857687294157065,-0.00331568021993873,-0.6377456735761118
144.0,-0.03208228357008844,-0.025986786096148805,0.010150598156105629,2.4556133095857717,2.2703941662848037,9.19595910462472,-0.3182676456771657,0.8361384419409595,0.6626562936800938,80.4039175370263,14.51628197562993,-13.85431649389163,0.7514597905657336,-0.17303030213975612,0.007325686958387008,-0.6353088589846765
145.0,-0.015145427873988057,0.016015167890069543,0.003686722404267642,2.51978550534176,2.156448347613572,9.21410352668574,0.3273433604816374,-0.8201922716674881,-0.38432097177671515,79.88640354858883,14.894722021684059,-13.161064338886918,0.7548713050621931,-0.1720471675931443,0.0017723668009124358,-0.632476078261961
146.0,-0.10666027154068068,0.032653513284512506,-0.03904450362121488,2.7844211704896207,2.162943835865158,9.13484899836591,-1.3695704472553412,-2.0746218654804416,-1.6277451633077122,79.79992220440194,16.510595457846637,-13.308431555004134,0.7537920158867033,-0.18317302616984404,-0.006674919257761909,-0.6306587949420404
147.0,0.2146809915759561,-0.08141705213223699,0.05662776130242693,3.1235726548562903,2.2978909355789767,8.979706729148111,-0.013328787001092302,-1.0105018023217276,-5.4758806087041725,85.9426604203232,18.59428839993602,-14.368486271301474,0.7150786677382263,-0.2005559123043218,-0.024479954730600637,-0.6663038117338802
148.0,0.12995047520590947,-0.009112357793281008,-0.08590121158338371,3.1471755593515107,2.235661666069828,8.988850710064273,1.2426647657123338,-1.6253885076778776,-2.882374249376804,85.16676067835556,18.736923615975858,-13.968996415316807,0.7198909289928941,-0.19999976712182638,-0.02568419628704998,-0.6618775870059748
149.0,0.15857950027576578,-0.0515235368075468,-0.029364776298604296,3.4800530254514843,2.7514950035418266,8.69490845795072,1.1899911770189933,-3.1823671129019186,-1.5720314987283406,89.18357595169698,20.814022723886545,-17.617683931544732,0.6908867318754792,-0.23245136933337862,-0.02648585335781071,-0.6811946784857064
150.0,0.13861311756510555,-0.07370901653984924,-0.02496169578108814,3.518703032901082,2.7867019433429787,8.690065034115669,-0.43806096613439083,-0.3950828108812918,-1.379567883042189,91.28491955578181,21.034804906583787,-17.798301193601972,0.6784670353661987,-0.23433037210552637,-0.030285880007555457,-0.6941341498861411
151.0,0.11732819528924043,-0.07722606609840611,-0.022028743248529912,3.5120745691649393,2.7647347246219223,8.710479605964208,-0.16583049290197116,-0.4338968834107482,-0.05186842224493393,92.8064214714393,20.992055777446105,-17.610360397155038,0.6697931962779065,-0.2325698772840771,-0.033620628909953966,-0.7037156492746008
152.0,0.07823014987196276,-0.0725300837404473,-0.024589640441469253,3.479923613307508,2.733431110390838,8.737682199295467,0.05154135877174865,0.26493039854040157,-0.3832210774819139,92.64795439931412,20.788126583039485,-17.36580807876185,0.6713316848862652,-0.23004333647613995,-0.03311127203562215,-0.703437270474474
153.0,0.06942265183020493,-0.06303173354314189,-0.010906223071447303,3.4431043422876617,2.73259027387509,8.755460754561462,-0.265002013787419,0.1871866921434191,-0.23590442471244985,93.39271313364056,20.55456122850399,-17.328130971113858,0.6671112280027724,-0.22833980996950287,-0.033134290940541766,-0.7082353355890749
154.0,0.051171368626128644,-0.054218837810497925,-0.009667453448728035,3.452907871567194,2.6756451987561345,8.771159529429394,-0.08996267468435055,-0.3005692461878535,0.12850492675433667,93.51514438387471,20.615317663257276,-16.953298630624555,0.6666547635922596,-0.22638139172522576,-0.03579777135483872,-0.7092280779530179
155.0,0.018569555280806265,-0.04667086283766065,-0.001543404143718855,3.534057622419542,2.618119066351954,8.756069012026526,-0.4905986568506238,-0.3832291315424674,-0.7285950788655352,93.38720448840434,21.123322234086395,-16.635390674759282,0.6671623759781573,-0.22723181942789702,-0.04073596694930876,-0.7082021838228991
156.0,0.08136731482522198,-0.0305755123449852,-0.011001742160278744,3.8589176501442433,2.532702146791053,8.630292195871267,-0.669483744520625,-3.4078508439174255,-0.04127550016859621,93.64415907983965,23.219019870930275,-16.348231145329883,0.6632724692087781,-0.23647464187329065,-0.05716417313896069,-0.7072270955019857
157.0,0.028014686598478895,-0.06881694204038814,0.0075060413622569455,3.993671574688098,2.4243848675583526,8.605445637106143,-0.782802548143569,-0.3580872883181596,-0.46267404040687865,94.76238771964333,24.05788263131767,-15.72528684762654,0.6558987449423307,-0.23647631804110003,-0.06842484712247573,-0.7131916935267226
158.0,0.017960831671332472,-0.07033120170286475,0.004421719105734624,4.061759268214267,2.345304399270549,8.59981152823049,-0.4517802359997665,-0.28765028800754194,-0.0752610871576779,95.17916483694094,24.47919509003993,-15.2472927111351,0.6532073702347624,-0.23560644518221543,-0.0747037592694149,-0.7155039403510395
159.0,0.015084271067766945,-0.07260383845961489,0.001167586539492017,4.068941003107922,2.2975868967241806,8.611653993855601,-0.24066195120208625,0.1708040849498089,0.018506356499839255,95.26278757189297,24.52288334360376,-14.933033649037258,0.6529080217995211,-0.23390454649826742,-0.07680445713903475,-0.7162293164634819
160.0,0.006822229947730836,-0.07189957855317487,0.003512294449919101,4.053560784795502,2.2740774766862444,8.62660994342662,-0.02515985050269537,0.05693282532305549,-0.0031343365022440256,95.35238119743352,24.41400793360361,-14.759622032032398,0.6526224360531829,-0.23228120090609672,-0.07715614443379747,-0.7170336921327047
161.0,0.00879041309509902,-0.07049043680110595,-0.00016338485586285317,4.053809519184943,2.2379394236792916,8.63590038705066,0.0031503122530833665,0.16977822584834093,0.08618060145229284,95.33205842041119,24.413849204897044,-14.516333599615395,0.6529359089910839,-0.23083178922505593,-0.07840936627190287,-0.7171057473534255
162.0,0.01521548304524536,-0.06321372838519199,-0.0044772377428315795,4.006854068348232,2.2247784676000144,8.660878764953903,0.18881113922946025,1.1149390361192548,-0.24018542892055095,95.23016131466028,24.108345493385542,-14.395042759869142,0.6540255246944666,-0.22854269585292739,-0.0767495782811127,-0.717019035962427
163.0,0.006950412556234744,-0.06432217716718111,-0.0032644545986402792,3.9567606114708793,2.2204106598882376,8.684569988299138,-0.01833126550868487,0.07933474046278927,0.4974225637495209,95.06702062402914,23.795719413847365,-14.331029032762412,0.6554473746301821,-0.2266185259972009,-0.07465861488278458,-0.7165413768350732
164.0,0.004740183236642718,-0.0661134695359715,0.00012449313078738726,3.91859363138828,2.209819769268235,8.704993711507482,0.12948644097837644,0.25917101846488155,-0.06203540591325801,94.96504953052455,23.551942368214007,-14.23435332206477,0.6564443764007285,-0.22479201392813197,-0.07330210769158431,-0.7163498888528286
165.0,-0.001378924904101928,-0.0630173956649173,-0.0012910185801609882,3.8700206551905993,2.204437815397296,8.727937453708106,-0.04161987943213358,0.36355482473204737,-0.19899567305891067,94.95053715707974,23.242114968528718,-14.163473867956068,0.6569642147267214,-0.22274111058326346,-0.07153615120220441,-0.7166903137576495
166.0,0.010941637630662021,-0.05635650593833129,-0.004575203252032519,3.8686645873140755,2.1845133659285896,8.733629603611705,0.08878993621445429,0.07325280525270687,0.16194240333820384,94.74272618813458,23.23496877458694,-14.03044454357274,0.6583857402616238,-0.22200021383257468,-0.07177577853906747,-0.7155938512071954
167.0,0.01701517365404069,-0.05473470458206887,-0.0031948596905323886,3.8872919710763933,2.184139747480424,8.725609156644559,-0.006991120602450274,-0.22834335543816267,-0.003277790266381947,94.6971947472931,23.354051927616048,-14.045842231463789,0.6585062586630699,-0.22272040739612603,-0.07241538728163052,-0.7151992108253717
168.0,0.012781386984376756,-0.049147840095912484,-0.007888539207972724,3.891114907646773,2.196940054700086,8.720983964632275,0.20654574575699675,0.1379723033981492,0.13778380352927955,94.48127833352066,23.376657159716757,-14.129613680641414,0.6597558209357836,-0.2235310178168671,-0.07166903313255404,-0.7138661631908134
169.0,0.009869394177812746,-0.053436270653029125,-0.011677025963808024,3.900441778127459,2.2085216365066875,8.713529897718333,-0.006476199842643582,-0.2528791306058222,-0.1755900865460267,94.68204907553107,23.43612804878049,-14.216519964594806,0.6583547211022817,-0.22425504749999997,-0.07204338665656962,-0.7148912793099921
170.0,0.014601101494885919,-0.06290774980330449,-0.013154012588512981,3.942288552321007,2.2048902439024394,8.695546223446105,0.22016866640440597,-0.4853302025963808,-0.5010572383949645,95.01764235837922,23.704796911880408,-14.218586496852872,0.655961724225413,-0.2254890512212825,-0.0744902219687254,-0.7164417558933909
171.0,0.014179967030085047,-0.053623421752650724,-0.01198196021130718,4.004402148664344,2.178047272488854,8.673593964257613,-0.2143876330036342,-0.5158109826345959,0.5346000290360046,94.74944017880559,24.10157040294481,-14.085384118242104,0.6572375192547957,-0.22695227171644,-0.07738122502487729,-0.7144958343238075
172.0,0.01502743434116369,-0.04949335918474394,-0.01187532314263235,4.085766082199992,2.1081995803829003,8.652793638305045,-0.1773544921509123,-0.19323753793413506,0.15850034890037837,94.50400620761678,24.623224471732044,-13.682810568169046,0.6583922603112098,-0.22745157177954176,-0.0825498941558297,-0.7126870024597993
173.0,0.013445168783485069,-0.04790393765688811,-0.00690137124873553,4.084826589487093,2.0925191450301592,8.65742907721704,0.03229049586002772,0.17258486006519044,0.046059650256640786,94.40868153122776,24.612368284253115,-13.579056493761943,0.6590918386475403,-0.2268204359583193,-0.08285942986420516,-0.7122210145444159
174.0,0.01189961035555056,-0.05247281855307034,-0.007994352028773744,4.110725647221909,2.072176173616575,8.65028416882095,0.012358859259675538,-0.03841252669439141,0.33781641049417405,94.23416472312763,24.77781081403844,-13.459768215409689,0.6600527788123618,-0.227128175111339,-0.08426246801628827,-0.7110723917726014
175.0,0.0014972087969727628,-0.05793113783672399,-0.0062850399010902554,4.100009066726612,2.0687193810647786,8.656082387321568,0.2730995466636694,0.3710105934584691,-0.18150547000861714,94.01363404331047,24.711631729796558,-13.430551028436554,0.661508130793376,-0.22673499181225878,-0.08352373060304971,-0.7099312100694242
176.0,0.00556043235547563,-0.05946096062343112,-0.004444363268517478,4.096463826758084,2.083034805739762,8.654569611479523,0.05441651680341687,-0.11230576317859955,-0.12937120658648982,94.10577535498857,24.689413215128695,-13.520215030347307,0.660897139521112,-0.22710236073715856,-0.08308142385759244,-0.7104418318741896
177.0,0.012213733093552132,-0.05731899329361958,-0.00959039563897943,4.099042298902252,2.0890390393765683,8.651399675920722,0.06563764471170058,-0.11695638276947286,-0.01949480864336292,94.15157965231725,24.70473316145892,-13.56675582359222,0.66057238774246,-0.22741310482963356,-0.08304821994217151,-0.7106455821841444
178.0,0.011582181259600612,-0.05976246674909144,-0.008787231651118351,4.131221385485745,2.0890352553295113,8.636001273837623,0.0186088007193436,-0.48254327301337535,-0.2535545689558278,94.2682318009816,24.916046139148023,-13.58375716533663,0.6595536807264621,-0.22855370779139034,-0.0846074292368214,-0.7110337645000189
179.0,0.007960735828556442,-0.05820801019070097,-0.006456108800719341,4.140326701884529,2.0800947885054883,8.633862725263196,0.17772844779139035,-0.1364528305421303,-0.00042149039001909694,93.91845331759768,24.975799426773072,-13.534751882657076,0.6616897944981455,-0.2288151128252969,-0.08457098793413512,-0.7089468271799483
180.0,0.01725918849050241,-0.058430557116631074,-0.017404368513731217,4.128010565359109,2.103565246712375,8.634357461316549,0.21778876774942862,0.15878596717994828,0.027277453074069917,94.31124606608968,24.896430444719194,-13.685222781087258,0.6592728168697315,-0.22901534880015734,-0.0840090644694841,-0.7112067559814168
181.0,0.02063804278595781,-0.06719530928028175,-0.016643812521074518,4.135272563785546,2.1373125772732386,8.622466749091453,0.12022310891311677,-0.24205958937469557,-0.2962211044921509,94.65535901614776,24.94600708103855,-13.919392304522123,0.656917885800457,-0.23042534341313553,-0.08380897320632423,-0.7129491701105242
182.0,0.02411524483908433,-0.07286988123337454,-0.013498932224345284,4.1869439136787685,2.1478419692031023,8.594600801768387,-0.00946948409576262,-0.41108191899891344,0.12753362556667044,94.74538702184256,25.28102871754524,-14.02431062905099,0.6558705858270579,-0.232790921651493,-0.08570270997452323,-0.7129243154722565
183.0,0.014215465887377767,-0.07894196545652093,-0.0025682814431830965,4.23060301225132,2.1447471057659886,8.573843430369788,-0.1756900734329924,-0.0005467667003858923,-0.6497848057397625,95.0401012981904,25.556562839533925,-14.032471151324415,0.6536533868032296,-0.23410802978700687,-0.08815451148926604,-0.7142105588749015
184.0,0.012196058596530664,-0.08095331759769211,-0.008588288187029334,4.211948971563448,2.1421392978906746,8.583208197519763,0.5919984732681428,1.619470280244277,1.2476642407553107,94.63427395938706,25.441371857554984,-14.007691028811209,0.6562838254331047,-0.23360854477445586,-0.08671349983065452,-0.712035870113334
185.0,0.03816548649357461,-0.10914259488217003,0.002571466037241017,4.0298512607245875,2.2645492862762726,8.633451350642538,2.5694370293357314,0.9053391124349031,-2.1752557041699445,94.4352485388333,24.274088175789593,-14.688054962346857,0.6583986507706716,-0.23173913831441315,-0.07479409929601738,-0.7118906694968341
186.0,0.03922183507549361,-0.1084916263909183,0.0024165449027762163,3.7774987823610955,2.5204252369712634,8.669908958075757,-0.3662142669813795,0.3725342812183882,0.9299365891124349,94.335656213705,22.67426286014012,-16.173447978719416,0.6597028779686036,-0.23237951576861116,-0.055790824801618524,-0.7119854342126559
187.0,0.039170319583380166,-0.10034573451725301,-0.0004290210183207821,3.817614064665992,2.4214329174628153,8.686030796897832,-0.5704841987936007,-0.340094975834551,0.6240556273650294,94.23048054587687,22.924415065003185,-15.553452942939568,0.6606657366459855,-0.22995121664905774,-0.06057392812858266,-0.7117309105193885
188.0,0.022608969315499605,-0.08584567831853435,-0.0008573676520175338,3.870376156756959,2.33994226518302,8.687866396912819,-0.048438143943651424,0.3408876119291146,-0.21059603424375245,93.97806189352215,23.245924890412496,-15.056939605110337,0.6622901024397362,-0.22879572530916792,-0.06489294558349255,-0.7103318317842718
189.0,0.027659323367427227,-0.08417859952793076,0.0036726986624704954,3.83635090479937,2.3512391817466556,8.702484657749803,-0.11498328088119587,-0.2891424075531078,-0.20134736428009437,94.31954169944925,23.029140440597956,-15.108030094413845,0.6604225143957514,-0.2277456935570417,-0.06381387886624705,-0.7125853486955152
190.0,0.015695433004592613,-0.07928368982489524,0.00223586994309553,3.8770455967650452,2.3081448868314633,8.69696836404223,-0.4227443484346696,-0.22356103507584218,-0.28028470532267213,94.74088487823175,23.286557233820652,-14.851552465097981,0.657697811367912,-0.2272696281704847,-0.0677574173244561,-0.7149124483239346
191.0,0.009006939234808702,-0.07032689422355587,0.0016905476369092273,3.9369891222805697,2.2677691297824447,8.68138484621155,-0.12077902288072018,-0.538060296324081,0.035671417854463594,94.95891082145536,23.67048949737434,-14.6281027288072,0.6560600390361966,-0.22783895751369093,-0.0719894776232183,-0.7158606138214553
192.0,0.010046840978537318,-0.06565843137613671,-0.002371287943937204,3.9967835068523225,2.2202861187857943,8.665925310595942,-0.06080564539000603,-0.028850171765502364,0.14555994181472195,94.791012501601,24.056625551204874,-14.35920466397087,0.6568361133913281,-0.22833786222606264,-0.07567308586953599,-0.7146098068947953
193.0,0.014991162424752527,-0.0643171189138748,-0.002588869778420215,4.046553043748743,2.203195478747736,8.647841687556035,-0.028764717856293337,-0.14348254556017054,-0.036796641995864826,94.65074818628437,24.375288582054047,-14.283735396501564,0.6573612229255027,-0.2296396208065797,-0.07796612497105831,-0.7134697984272365
194.0,0.013560097341408523,-0.061408559456937406,-0.008254112308564947,4.069107167035662,2.176638061954513,8.644029714745756,-0.034795665379759574,-0.12186728084460138,0.08951498545368047,94.66171481894864,24.520860016833474,-14.126998746637879,0.657232832519203,-0.22943221759683824,-0.0798205286831098,-0.7134545496450699
195.0,0.018173897132819784,-0.05889332699028416,-0.008403875359083674,4.077717874590599,2.157277020474631,8.644673522039046,0.2716306744369019,0.2938534938612702,0.4797162324117614,94.32708771705121,24.577656189962127,-14.001923041736044,0.6593266877037125,-0.22919783268964194,-0.08018622344583096,-0.7115497753889266
196.0,0.01167427222659323,-0.060912273800157374,-0.0030877261998426436,4.078412667191189,2.1423040912667193,8.648070023603461,-0.2178820810385523,-0.1598839496459481,-0.5897841266719118,94.40780881195909,24.582073662470496,-13.907877655389456,0.6588941231616837,-0.2285910786109363,-0.08087659548977183,-0.7120640739878048
197.0,0.018031471282454758,-0.0626182140047207,-0.0029899685287175463,4.103033241542093,2.139259834775767,8.6376487018096,0.2059684795436664,-0.18369885916601103,0.425952743902439,94.3828038945712,24.736916060188825,-13.905296026750591,0.6588688927499999,-0.22943786212686862,-0.081877855372738,-0.7117004984195514
198.0,0.009217348544453182,-0.0631921715184894,-0.008676435877261999,4.093786782061369,2.1440129819040132,8.640767899291895,-0.036809107002360356,0.23506589299763964,-0.4814540715971676,94.50531323760819,24.67312032848151,-13.92573269079465,0.658169699798387,-0.22915967721262787,-0.08160010515007868,-0.7124692405847759
199.0,0.010596577498033041,-0.06457592446892213,-0.006963217938631,4.096909520062943,2.148708103855232,8.638150078678205,0.153268833595594,0.011434156176239163,0.00433344807238395,94.67004573170732,24.69606117230527,-13.958733280881194,0.6571023986129032,-0.2293786731103462,-0.08189992029681353,-0.7133564139738395
200.0,0.014874901652242326,-0.06401376868607396,-0.004638867033831629,4.093341856805665,2.1350314712824545,8.643611329661681,-0.021626671911880405,0.1568007474429583,0.272706038552321,94.47650472069236,24.669804779701018,-13.86485051140834,0.6584026087741937,-0.22878818668017312,-0.0818381001927616,-0.7123538608296618
201.0,0.009935483870967743,-0.06673387096774194,-0.006999999999999999,4.081830645161291,2.13508064516129,8.649096774193548,0.3227822580645161,0.22631048387096775,0.23301411290322582,94.17600806451613,24.59430443548387,-13.858467741935485,0.6603648029354838,-0.22854441971774186,-0.08078145640322582,-0.7107327364919355
202.0,0.009490165224232888,-0.07538335955940206,-0.0016892210857592442,4.096676435877262,2.1336782061369,8.641594807238391,-0.040412322974036186,-0.4967237903225806,-0.17601544059795435,94.15763793273013,24.694501130999214,-13.85909839693155,0.6603483351740755,-0.22910384861880406,-0.08141848210306844,-0.7104926886607001
203.0,0.003470102281667978,-0.08752104642014163,0.002276553894571204,4.129300157356411,2.1424685287175453,8.62387234461054,0.14937795043273014,-0.15618607395751377,0.12579169944925256,94.11675722856019,24.9070269472856,-13.942081776160503,0.660298386003934,-0.23076288569728554,-0.08231632943450039,-0.709901704286782
204.0,0.004436860739575138,-0.09632710464201416,0.0023599527930763184,4.147891817466561,2.1446671911880406,8.614758457907158,-0.18399759047993708,-0.21633679189614477,-0.10379622344610544,94.20786044453186,25.023403078284815,-13.96959333202203,0.6595648377673091,-0.23150292796695512,-0.0831520281884343,-0.7102444973811959
205.0,0.01352084972462627,-0.07991758457907161,-0.002521636506687645,4.185018489378443,2.136688434303698,8.598588906372935,0.3478953579858379,-0.06565327498033044,0.25213414634146336,93.89223667387884,25.26424690204563,-13.947296666011013,0.661182299282848,-0.23286813372541304,-0.08425824342486232,-0.7081507492712431
206.0,0.006050354051927612,-0.07660739575137686,-0.003255704169944924,4.202906372934697,2.1259622344610545,8.592247049567266,0.1174468922108576,0.07380015735641227,0.27727183320220294,93.70390440597956,25.380615656963016,-13.89185680566483,0.6622643871896143,-0.233289419498033,-0.08494216100393391,-0.7069317404547599
207.0,0.003249409913453971,-0.07006608969315499,-0.0009276160503540513,4.196956726986624,2.106289535798584,8.600360346184107,-0.010808418568056644,0.2086890243902439,-0.18652635719905591,93.65446990558615,25.33991935483871,-13.75304386309992,0.6627080573005506,-0.23228133628717543,-0.08530001610385524,-0.7068060248418566
208.0,0.005473567869319247,-0.07031010452961672,0.0033781237121126985,4.071328013187966,2.1211204900528267,8.655115919223707,-0.029000646285264695,1.0028379182121314,-0.6983407328312915,94.12834651661609,24.530806966767827,-13.762481852497096,0.6607690152689858,-0.22766480862652205,-0.08071934133449477,-0.7105941458531714
209.0,0.006001142707279607,-0.06922114195796336,0.000363334082649583,4.02333513169233,2.1242526132404183,8.67777432467873,0.06599731651118354,0.0929413823948147,0.01063490502416542,94.28811601991308,24.223040186767076,-13.75306429367577,0.6601774622544774,-0.22584677351861115,-0.07904501055159041,-0.7119367905685999
210.0,0.003392978906747594,-0.06757536248173543,0.0031939605110336824,4.0153268892135925,2.1226186354951113,8.682315761867297,0.0397957176576374,0.03868953954516504,0.22055889625716532,94.03409107939005,24.16950470195946,-13.73462309392679,0.6618360847239144,-0.22563600118092242,-0.07829488976261662,-0.7105589369410663
211.0,0.0009419654565209258,-0.06305912105204001,0.00011546963395901201,4.061081225881383,2.088602000674385,8.669608707054813,0.009251714060919406,-0.15025102094338919,0.37161402720017983,93.80773200704357,24.463519070098535,-13.536877833352065,0.6630047330008243,-0.22620247727574838,-0.08087747417713836,-0.7090012394248998
212.0,0.0005820688621632751,-0.05851337529504329,-0.001194747293095051,4.0986517740062185,2.061436926304747,8.658249334981825,0.1982304428459031,-0.09372026151137088,0.2730367914278221,93.57663023116407,24.704912938818325,-13.380527261061781,0.6642375457095087,-0.22675659018820954,-0.08285501628155559,-0.7074462997649019
213.0,0.007347439211719306,-0.055547572215353516,-0.005503896444494398,4.12172257502529,2.039595893746956,8.652581263347194,-0.14814509104192425,-0.12381842193997977,-0.1256416020381402,93.51686008392343,24.852708192836534,-13.254791467629538,0.6645072765901894,-0.2268298808217845,-0.08441784504731932,-0.7069920869223707
214.0,0.0058914615413435244,-0.05465685062380579,-0.007614851448053651,4.128131448802968,2.0320560113896082,8.65142772844779,0.20430447060807014,0.2993811116106553,0.2752840376906073,93.43675665486494,24.895658531902136,-13.20882214510509,0.6649954310894495,-0.22680383866492448,-0.0847966949914016,-0.7064947889289273
215.0,0.0035672885991532735,-0.05323401146453863,-0.006736615338503615,4.121906007643027,2.0249115619497218,8.656106468472519,-0.04042250899179499,0.11037112228841181,-0.11293823292495597,93.39782364607922,24.858981901670973,-13.154853637462065,0.6653370974125454,-0.22630811763065267,-0.08473780620301788,-0.7063439370938892
216.0,0.016517515267318574,-0.058955715409688664,-0.004868307669251808,4.1417554231763525,2.0123186842006673,8.6491056535911,0.06484418905248959,-0.37913903562998763,0.21827886740848979,93.3153684762654,24.989495991158066,-13.088641536472968,0.6657214720732081,-0.2266837318677457,-0.08580897726683152,-0.7057319750792026
217.0,0.007609756097560977,-0.061505507474429594,-0.00046026750590086513,4.169557435090479,1.9999020456333598,8.638912273800157,-0.1348446105428796,-0.33591168371361135,-0.20374459087332808,93.28987509834776,25.170444040125886,-13.026794846577497,0.6656682806018882,-0.22727455583556255,-0.087305928684107,-0.7054040797600313
218.0,0.01242857142857143,-0.06479531490015361,-0.004504608294930877,4.202970430107527,1.9857185099846388,8.626042626728111,-0.017434715821812594,-0.11189996159754226,-0.07542962749615975,93.45650441628266,25.37923147081413,-12.954920314900153,0.6644218145430105,-0.22786514105760364,-0.08942354683371734,-0.7061197401804915
219.0,0.01168065078116219,-0.07457537184818852,-0.00612740249522311,4.229683582480986,2.002986025251958,8.60941716308868,-0.005685788280693863,-0.24464982344235883,-0.13359957476302875,93.59488650200441,25.553809160859466,-13.085473041006331,0.6632602589701679,-0.22947590880220858,-0.09015841114335355,-0.7066031372997266
220.0,0.014128582668315163,-0.08277067176201716,-0.006122119815668203,4.246969053238919,2.0002731070398263,8.601073058334268,0.0991535653403769,0.09999572655576786,-0.13629354229890225,93.71080010584092,25.661694485032406,-13.081708663500805,0.6624024668610674,-0.2299552900794088,-0.09115431669254617,-0.7071312119112715
221.0,0.014942082897433016,-0.07515063778340728,-0.003806717476072315,4.189588744981743,2.0534456933048597,8.616525983261425,0.5928363205113796,-0.0950761906923394,0.35311498960323706,93.6641236881562,25.29517080537807,-13.39681806727563,0.662950113176088,-0.22990598848263247,-0.08691610128971806,-0.7071440292435802
222.0,0.013156033580895893,-0.08463521267612537,-0.00221561286864198,4.304135245818959,2.0462865759994013,8.560584293755024,0.16455840415812878,-0.5409844466443601,0.4569131448802967,93.2223235720482,26.042195330895172,-13.433298515345133,0.6646423404926465,-0.23448695924633198,-0.0908097606707245,-0.7035236762625257
223.0,0.05250735626817453,-0.07797044811993672,0.0006279846563088095,4.3296866705285275,2.015097973099547,8.55437816838289,0.010298595320231835,3.5811062789819674,2.211775504851823,93.06738298418077,26.210085760685683,-13.246051139392996,0.6655315894321912,-0.2343037761285423,-0.09261922985149128,-0.7024717210652107
224.0,0.15571299418261156,-0.02839751615738295,-0.09462388848351193,3.429068812365246,1.9680887556383873,8.90123662046576,5.6859507861419925,8.461526141887923,13.644927237907039,86.2118347321687,20.57795436278662,-12.490151459400632,0.7104574102893486,-0.19787427584179482,-0.050317690593687014,-0.6645310131287117
225.0,0.15740803131632547,0.02148967622500642,-0.07453066965481656,2.8606240993376186,2.122419672862467,9.076743408580636,-1.956296833522237,-2.533816984130782,-7.345071786239241,79.41893369181213,17.06029405786853,-13.154497444885209,0.7502518387284665,-0.18102351622144813,-0.013137849128472148,-0.6231126482992103
226.0,0.18708863104277812,0.010542191296953168,-0.07259535964130405,3.3551333896191817,2.6410915568613405,8.740560289898259,0.04350170730836034,-2.973236035489709,-5.936783204947577,85.31905121315171,20.09733582132467,-16.883850252632847,0.7120336314171696,-0.22192661319012857,-0.020808729351663696,-0.6559644689378599
227.0,0.11491567665435522,-0.03516163448527637,-0.040676908774231885,3.2185391574374425,2.4832947949530935,8.87162632905613,-1.4344548898548677,-1.8065383560611408,-1.8478172515689897,88.49023961129654,19.212475935839358,-15.683791766757018,0.6971938354945801,-0.2103758470458904,-0.02598158343901045,-0.6791766748756962
228.0,0.07816968876365432,-0.04752621082099792,-0.02240253965930507,3.319100982562714,2.423942272153404,8.87320114174885,-0.3051058496331399,-1.3501994401039283,-1.1471949161070756,91.12619160887783,19.811407196311272,-15.299332378826414,0.6820869371220792,-0.21152573775620737,-0.03599784150304649,-0.6958932309660038
229.0,0.06528139351911148,-0.05573984959654547,-0.018793167804146166,3.6081176330668026,2.390118172835891,8.777249483102485,-0.3420924972096683,-1.6755920306296086,-0.4072199261705671,92.11462431156569,21.612708474374692,-15.230850548002852,0.6749476918843704,-0.22132824398688083,-0.04965377674177081,-0.7006392501829268
230.0,0.04464736567417116,-0.05585239079804795,-0.012352449175011524,3.7205051842228842,2.3743301890368063,8.743566482212891,0.21769902133634456,-0.12354659603489726,0.18850957158932588,92.53346399535424,22.302207240072214,-15.187076298691398,0.6721888522355053,-0.22512759606260235,-0.05493912518816464,-0.7029409126235903
231.0,0.0325690745421547,-0.060082493402096177,-0.006423152390885178,3.7714749423418557,2.3675784969761606,8.727050906237016,0.2630257779492783,0.13225751995490156,-0.04201273532668884,92.56153326495823,22.61961120452151,-15.171622346734331,0.6717282719785437,-0.22678960366186954,-0.05719401536904392,-0.7028127505074556
232.0,0.034116264257702054,-0.0662445315161543,-0.008235769743829686,3.863997305946696,2.3793453067099533,8.684470673417483,-0.05101378785462915,-0.7762591235788041,0.3072046866246178,92.56811050541381,23.20822589140316,-15.31180878843404,0.6709230736479069,-0.23084745269373963,-0.060375966519887816,-0.702043005189015
233.0,0.022967414327449455,-0.06551893199780781,-0.005015182367020326,3.8985186976186545,2.3813135513843617,8.668454665931295,0.1154717577477993,-0.14611802994302578,-0.10542335061117197,92.56362762293361,23.423456691699055,-15.349513390978405,0.6706629304416872,-0.23228089622253995,-0.06164216778577049,-0.701734741757408
234.0,0.0159455369068748,-0.06077075453532371,-0.006109920337227164,3.893700994935145,2.373883653840289,8.672702130236393,-0.28136675392715776,0.1805758223092358,-0.6753762700256946,92.7008326286711,23.392713324236983,-15.29673026923978,0.6699035429774256,-0.23170119474310655,-0.061972084135267266,-0.7026208753717915
235.0,0.013641149834496958,-0.060031985348253436,-0.004856392669595972,3.8513866315010805,2.365810651269088,8.694330738607999,-0.1871576071282629,-0.07322004172645949,-0.3788647238029019,93.346468340735,23.123041458317537,-15.211999346744351,0.6662999444576693,-0.22938391807021008,-0.06191851676345044,-0.7067862738555631
236.0,0.0232975334425941,-0.06088081602282104,-0.007934340728039153,3.858216357225195,2.3585059400738673,8.69314616807512,0.13526624251881786,0.11141705286948914,0.4267014706638331,93.55308728096657,23.164021689220213,-15.167774826982006,0.6650111205153169,-0.22924665462880703,-0.0628615234124472,-0.7079684344961378
237.0,0.020360804486835995,-0.05339713499803522,-0.007547815525309899,3.838487407566177,2.340853284749758,8.706239488443543,0.002182688529275195,-0.1829618118815418,-0.42381488229200154,93.43787821955489,23.041137516521985,-15.035165934340727,0.6659673763017182,-0.22783640137577252,-0.06248293292180189,-0.7075598977901618
238.0,0.020164340535683372,-0.04921246520421314,-0.006126034255816702,3.778036767433617,2.3025562132291313,8.742555757071138,0.026062130230359793,0.18580776718905,0.22397075917330989,92.57698655433089,22.660270751066886,-14.744441965573811,0.6718731255868527,-0.22441346482834446,-0.0598933141520545,-0.7031907416770264
239.0,0.013913199453709581,-0.049764450728066636,-0.0006175486179237125,3.7317303652836293,2.3215085213611095,8.757251764864293,-0.026360255929366957,0.6930094903533575,-0.1328110873872314,92.79682661049877,22.367140943889815,-14.840154930559564,0.6708022769047934,-0.22327258423752092,-0.057794017440850595,-0.7047924319329832
240.0,0.013087882547559968,-0.053994003308519445,-0.002829404466501242,3.7085688585607945,2.3109853184449953,8.769911703887509,0.012232475186104218,0.10515534532671628,0.09380169561621175,92.91711641852771,22.219879549214227,-14.756747570306038,0.6703072132160877,-0.22192306971215883,-0.057497428016749376,-0.7057446873655915
241.0,0.006531844499586437,-0.05645264681555006,-0.0007251861042183625,3.7182884615384624,2.2918757237386274,8.771080851943756,0.04071805210918114,-0.09412091604631928,0.11575165425971878,92.85175377377998,22.2793450165426,-14.635153019023987,0.6707627716120762,-0.22156479345285363,-0.058416255052729515,-0.7053688780860214
242.0,0.008751329315845444,-0.06298688408365828,-0.004915396431525463,3.7372799834574035,2.281644275079759,8.765984166371263,-0.07798726810823585,-0.0610425528772303,0.005235658159045267,92.83888211922485,22.40099883315609,-14.57925565697743,0.6707421604665604,-0.2219012323681319,-0.05948694296319271,-0.7052012590207373
243.0,0.012869178749391174,-0.05706728859915329,-0.0074186617211794235,3.8280272095462893,2.253573554756284,8.733416844629279,0.007282768536210703,-0.814393252875501,0.1953914123674647,92.93734539498332,22.978203853827132,-14.465954640609194,0.6695459851156664,-0.2243102657035237,-0.06419493638899815,-0.7051492244959442
244.0,0.018016906447866323,-0.059819836274399615,-0.006677269491588925,3.913698203514292,2.234579361957213,8.699859877861456,-0.0010903722228466535,-0.45921828753137756,0.04456763281630514,92.89453877243267,23.52738809430145,-14.397116654490278,0.6691871448453038,-0.2268994262926548,-0.0681576993181222,-0.7042902266711626
245.0,0.02291000711850437,-0.06875010303098422,-0.007034543479075344,3.964001245738263,2.2264666085946567,8.679748782361097,-0.007595490989472108,-0.09367717582705778,0.007877713929789074,92.92654136694017,23.84553044565584,-14.377870876419017,0.6686269354930688,-0.22848928512203553,-0.07046157727157093,-0.70408288714459
246.0,0.025663894196545658,-0.07207017346671163,-0.009450001873290623,4.044478101232626,2.208243040725338,8.647333183470085,-0.05074158892510584,-0.6639609325240718,0.04053098422689296,92.93713353752202,24.354318871529728,-14.321962459255928,0.6679809375280055,-0.23090293978082505,-0.07424458587201678,-0.7035149688904501
247.0,0.17019984264358773,-0.05040912667191189,0.10754996066089693,4.174136900078678,2.090684500393391,8.60986782061369,-1.7875491738788356,-1.4595102281667978,5.856392604248622,92.40339299763966,25.20803501180173,-13.61443745082612,0.6704823903461841,-0.2318520054618411,-0.08277169150590087,-0.6995623242155782
248.0,-0.14523996852871746,0.23961762391817457,-0.3633579858379228,3.388992918961448,-0.827993705743509,7.993721479150275,11.399105035405194,1.8460759244689218,38.12659323367427,61.515479937057435,21.467456726986626,6.534018489378442,0.7827299418867033,-0.16204984778284814,-0.1710246666309992,-0.4701303357859953
249.0,0.18092446892210867,0.25928560188827693,-0.23080959874114865,5.044905586152636,1.2959795436664048,6.615676632572777,23.374808221872538,-31.953978166797796,-8.894659716758458,50.46461447678993,32.823962431156566,-13.917786191974821,0.8010781753886704,-0.31102515381667983,-0.06135849812273799,-0.37857505174822975
250.0,-0.03901062155782846,0.14385208497246263,-0.09174626278520842,6.170474036191974,3.3714437450826127,4.304345003933911,-13.309252065302912,-6.494765440597954,11.139117820613691,61.622772423288744,41.34901406372934,-41.16458743115657,0.7122422686817467,-0.458148051731314,-0.029132288494885902,-0.41947530273485456
251.0,0.06779209284028326,0.12622131055411934,0.09698457345172529,5.171161487018095,2.743689352216103,6.44853588288187,-4.26917541259226,1.2920102398748643,-0.14826029841519617,76.56037580551497,33.27167578725038,-27.491078511951592,0.6939683855246057,-0.34585704887491103,-0.05429661121851934,-0.5567821391597544
252.0,0.06913001573564123,0.02041592671687085,0.02346189726874226,4.778217741935483,2.382575399947548,7.48622378329774,-2.7875252308830696,0.3531740567981721,-0.0353528577048442,85.0378983669589,29.92615494220898,-20.41380427859578,0.6780944178306545,-0.29115088776131465,-0.07496344076209208,-0.630639345021262
253.0,0.06769000786782062,-0.03275171406091941,0.010964819602113055,4.675612903225806,2.2563199580382904,7.997902214229516,-1.8150579783447607,-1.3346024877299463,-1.026698606271777,90.05803688509235,28.8194030759432,-17.313353752201113,0.6673027215927467,-0.26743060739275404,-0.08618624933265893,-0.6731427308896634
254.0,0.024361919748229734,-0.05850960998089244,0.007407665505226476,4.6620629425649085,2.0546367689483347,8.237388557940879,-1.3687455509347721,1.1601377805252708,-1.6863774305945824,92.60266616087819,28.516954685099847,-14.703549417406617,0.6611451492574276,-0.2525864756365816,-0.10190864226271026,-0.6937296275298042
255.0,0.062413060582218724,-0.047661571316174,-0.019691131842194,4.522487018095987,1.9822869131917125,8.460968079127797,-0.028319470982728287,0.6667870255891499,0.6123089243565245,93.93316824959723,27.46704834963096,-13.174896266531789,0.658476388082687,-0.2399221386994867,-0.10326188161129218,-0.7056773872385448
256.0,0.03497765164287587,-0.04072786707129744,-0.02831330785658087,4.479945505975796,1.967237926641939,8.488928740024727,-0.015695833801655984,0.05927196901577314,-0.19722975441159946,93.89100328762504,27.186049136413022,-13.04177321007081,0.6592648700666892,-0.23767196201871416,-0.10195212999151396,-0.705972778285171
257.0,0.0332284009591248,-0.03965976359072347,-0.029723137012476114,4.510000290360046,1.9437645180023229,8.47894509385186,-0.09350881383237795,-0.5155793970814131,0.40116384033944025,93.90771151792738,27.38413393091304,-12.905500098347758,0.6589842128067513,-0.23789989159157582,-0.10402392384312126,-0.7058780006492732
258.0,0.02184620283990859,-0.039012710276872364,-0.020976143643924916,4.546210707729196,1.9249419560900678,8.464061256603348,0.026788816923307486,0.03320594957101647,-0.0068291980442845845,93.8003840831179,27.61981824397737,-12.803664683320221,0.6593694839222584,-0.2386580980041868,-0.10592644294467235,-0.7049972392252071
259.0,0.013675021542842159,-0.041427822112322515,-0.015047019594619907,4.538028548949084,1.9108613390281368,8.471939230452211,-0.0608819452249822,0.03000543254280469,-0.04851588550447715,93.80832256191225,27.566000711850435,-12.701235903488067,0.6594709532752614,-0.2377511861144206,-0.10612696473942526,-0.7051897423161364
260.0,0.008711738039039378,-0.0425169532801319,-0.011853808399835151,4.5429579258926225,1.9281160316211454,8.465861339028137,0.1539599022142295,-0.10910629987636282,-0.25162976284140726,94.11599181371997,27.595116331347644,-12.8254912704657,0.6574534610739575,-0.23836117204319807,-0.10634100794031695,-0.7068350010044584
261.0,0.004907646772320259,-0.043567494661121746,-0.013671649619722002,4.5613959761717435,1.9052017534000225,8.460841482147542,-0.17392332621482895,-0.10626241055037278,0.2825952568281443,94.05530188078379,27.720099940054695,-12.68401333782923,0.657736144760406,-0.238227670277247,-0.10779058298752389,-0.7064012986242554
262.0,-0.003958724872855845,-0.04478449751810777,-0.011369610695356764,4.5423745657668775,1.8949013908529393,8.473090859822971,0.24123795539477202,0.5208663337437146,-0.08458887369926107,93.86105955931492,27.591234099901282,-12.602388075241807,0.6591530357207331,-0.23723952463371062,-0.10697216710077345,-0.7055379135541637
263.0,0.0017027776107789998,-0.05143630855449055,-0.007673790398819215,4.479893026392485,1.935006163561796,8.496771236363095,0.1522279470128856,0.2728987451566724,-0.21654699389132998,93.82125066872118,27.182851511004927,-12.82280103998125,0.6598331574968733,-0.23642072543723297,-0.10296961874157476,-0.7057612737888835
264.0,0.003863677591871835,-0.05364134936173068,-0.009630289976675352,4.447825929478884,1.956391714653402,8.508439381622406,0.24931385829906955,0.17557187641858196,-0.06131689172293073,93.89683405171849,26.97047241448864,-12.937946218915357,0.6595920264911401,-0.23591650616331694,-0.10108900452209305,-0.706433543632537
265.0,0.002344281192249281,-0.0536056209174245,-0.007109307814758567,4.425824639086599,1.9840729694618773,8.514147494190617,0.155306890747077,0.039677259253837825,0.022936984246061512,93.7858594221726,26.83025828865753,-13.109089276892394,0.6603404107663075,-0.23625859498104407,-0.09903169761511718,-0.7059129223492947
266.0,0.00889047261815454,-0.06944561140285072,-0.002008627156789197,4.407507126781693,1.9941552888222058,8.521560765191296,0.12413259564891221,-0.08486731057764442,0.05743623405851463,93.82215866466616,26.71167713803451,-13.164143379594899,0.6602697237340586,-0.23593311772655662,-0.0980105950821455,-0.7062341113713428
267.0,0.0054032258064516114,-0.0769516129032258,-0.006008064516129032,4.308467741935483,1.9758225806451613,8.573991935483871,0.28256048387096777,1.5813004032258065,0.3643145161290322,93.20100806451613,26.07172379032258,-12.967893145161291,0.6650222780725809,-0.23177500097580644,-0.09349891941129031,-0.7036357261290322
268.0,0.014193548387096775,-0.07780645161290323,-0.006290322580645163,4.232451612903225,1.9483467741935483,8.618508064516128,0.02247983870967743,0.23760080645161297,0.009576612903225784,92.98795362903226,25.576864919354836,-12.733417338709678,0.6671327161129034,-0.22795154215322583,-0.09104176172580644,-0.7032454455483871
269.0,-0.006290322580645164,-0.07478225806451613,8.064516129032643e-06,4.14249193548387,1.9664435483870968,8.658435483870967,0.2704133064516129,0.5675403225806451,0.27197580645161284,93.00740927419355,24.995161290322578,-12.789465725806451,0.6677439531612903,-0.22512093862096774,-0.08687399636290322,-0.7041339503548387
270.0,-0.006,-0.07201612903225807,0.003951612903225808,4.101564516129032,1.9563548387096774,8.681120967741933,0.08165322580645158,0.17893145161290325,0.13608870967741934,92.57711693548387,24.727923387096773,-12.695211693548387,0.6707809446935484,-0.22343252872580643,-0.08479043281451612,-0.7020579680806451
271.0,-0.0005322580645161319,-0.07775000000000001,0.006193548387096775,4.120798387096773,1.9611370967741932,8.671419354838708,0.07832661290322579,-0.0322076612903226,-0.3257056451612903,92.71335685483871,24.851360887096774,-12.73876008064516,0.6697926179999999,-0.22426211498387097,-0.08561204464516128,-0.7026585246693549
272.0,0.0025360983102918557,-0.07783947772657451,0.006698924731182797,4.156893625192012,1.9698617511520737,8.651698924731182,0.008146121351766508,-0.08582229262672811,0.3168802803379416,92.8052995391705,25.083590149769584,-12.82172619047619,0.668890722829493,-0.22594445666282642,-0.08688401160368663,-0.7028268285380184
273.0,-0.009165664456183737,-0.06951061219137539,0.009119131917125625,4.198024015585778,1.9283996009890978,8.641145095725149,-0.0032624526994117914,-0.4512971366752838,0.023962489696901568,92.61859931718556,25.345660756434754,-12.572491488235734,0.6698480855427953,-0.2260694588678019,-0.08960893503040349,-0.7015334696351578
274.0,-0.004167509647446707,-0.06809863811771757,0.0015714660372410177,4.251433722977784,1.9078055243340453,8.619706005769736,0.07979579961410212,-0.07055292514330674,0.010670146303997596,92.54796753821512,25.690144500955377,-12.473140290734705,0.669904796105485,-0.22740013982453827,-0.09228404125792403,-0.700702531727689
275.0,-0.003543432243078192,-0.0733275448653104,0.0042776685024914765,4.219144280843731,1.9214471170057326,8.632014293207448,0.31653600464576076,0.7898243438799595,-0.5971346849125173,92.65470453523659,25.484890798864782,-12.537830226012513,0.6694600752785489,-0.22659000595662399,-0.09072591331041362,-0.70157657098078
276.0,-0.002630587089281033,-0.06680086920684876,0.0008444794125360611,4.14886246300251,1.954159042373834,8.658692630474695,0.03205832490352553,0.03430229290772169,0.11448709302761234,92.72281597729571,25.033952455884005,-12.7028616855869,0.6695212084013713,-0.22507308999040873,-0.08698251021569067,-0.7024784914258738
277.0,-0.014243902439024392,-0.057443745082612116,0.002580645161290322,4.197945712037766,1.9260755310778914,8.64129819040126,0.05375196695515343,-0.8697629819040126,0.01754032258064516,92.87973052714398,25.347747836349335,-12.55170141620771,0.6682245022368214,-0.22574517664594806,-0.09022836296695515,-0.7030775304319432
278.0,0.03246892210857593,-0.059071990558615256,-0.018398898505114083,4.176097167584578,1.9175106215578286,8.653878835562548,0.25538699842643586,-0.022681451612903247,0.11700186860739577,92.1943154996066,25.21072974036192,-12.482971085759244,0.672636493824941,-0.22511184670220297,-0.08834952209716757,-0.699277828311959
279.0,0.03977498033044846,-0.05791522423288748,-0.022578678206136897,4.186856608969315,1.9162140047206926,8.649830841856808,0.0635215873328088,-0.2786253442171518,-0.08884859362706526,92.12457218725413,25.275137686860738,-12.480691876475216,0.6729675428015343,-0.2255255627924862,-0.08864355417210856,-0.6988063963943745
280.0,0.050000393391030684,-0.05995357985837923,-0.025982887490165224,4.224795239968527,1.9055989378442175,8.633463808025176,0.30542510818253343,0.5374262391817466,0.22682066286388675,92.18738690007868,25.516500295043272,-12.435456825334382,0.6723171182515737,-0.22654752295672698,-0.09060193027557042,-0.698856859410897
281.0,0.04244374508261212,-0.061121951219512194,-0.021213217938631,4.168901652242329,1.9304405979543668,8.654723839496462,-0.03854248623131393,0.03010424862313138,-0.14992132179386308,92.39137490165223,25.15830055074744,-12.56263768686074,0.6714523352588514,-0.22517551854287965,-0.08794760729504326,-0.7004741243304484
282.0,0.03542958300550748,-0.06435090479937057,-0.024096774193548387,4.1886223446105415,1.9139221085759242,8.64890794649882,0.011024783634933116,-0.10560090479937057,-0.2927468528717545,92.54759047993704,25.283974232887488,-12.468154996066088,0.6704095799055861,-0.2251706059032258,-0.08961236848465773,-0.7012799174775768
283.0,0.033906766325727776,-0.06203461841070024,-0.016987018095987412,4.203007474429583,1.9202466561762388,8.640560975609755,0.029027340676632565,-0.2725240952006294,-0.1842963217938631,92.74011605035405,25.380052616050357,-12.522600314712824,0.6690710947623917,-0.225856012308812,-0.09034029841542092,-0.7022485344547602
284.0,0.02666321044546851,-0.062416282642089094,-0.016797619047619047,4.237252304147465,1.914319124423963,8.625340245775728,-0.044244431643625196,-0.3646337365591398,0.03303331413210445,92.92732334869432,25.600506432411677,-12.507853302611366,0.6676631197334868,-0.22681803462711217,-0.09224442601075267,-0.7030331864301075
285.0,0.02737241954216777,-0.07010566295755125,-0.014363305983290248,4.287142969540293,1.8863231145329888,8.606714969465365,0.08628774680603948,-0.14132490820875948,0.29344365844292086,92.69462523650294,25.924789137724325,-12.354527801974449,0.6687418039125734,-0.22788128091613277,-0.0947554269845266,-0.7013205583025832
286.0,0.03265405005432542,-0.08037452699411787,-0.015357892173391782,4.347335450151736,1.8702244014836458,8.580223633434489,-0.17971091613277884,-0.6686721413585104,-0.34819420638042786,92.70739756612716,26.317806154228016,-12.284066492450638,0.6681660396293787,-0.22956997465653217,-0.09776311248341199,-0.700897276160438
287.0,0.031766541156194976,-0.0933001667228654,-0.014227333183470085,4.412998370237158,1.8731525233224686,8.546071494136598,-0.01987057903413135,-0.3530860706792552,-0.22694488544827845,93.11395583951519,26.744916181952718,-12.352920342999512,0.6650604531251731,-0.23194160019923382,-0.1010767297134802,-0.7025949343503803
288.0,0.026767487167959236,-0.09189221085759246,-0.010258251845191264,4.379244576823648,1.900903450601326,8.557015585777979,0.26790889251058403,0.660962965044397,-0.33896327413734967,93.36061055224607,26.523959387059307,-12.518234845078865,0.6637566376086695,-0.23150879823191334,-0.09921395850766176,-0.7042348930123636
289.0,0.016006631448802967,-0.08462890112772097,-0.008665992282042637,4.375140721591547,1.8935546438874526,8.560385673073323,0.24107330186205086,0.06598455471881909,0.48420019856880586,92.87560577535498,26.49781878723165,-12.465458628376606,0.6667898939080215,-0.23147555548308418,-0.09835845865475254,-0.7014813682534937
290.0,0.007780956127533629,-0.0794084148214754,-0.004501030309842269,4.370805908358623,1.9036976321606536,8.560830691993559,0.0454446255292046,0.1608256294256491,-0.2176452268554944,92.86670331291447,26.468649896032368,-12.529692710089542,0.666845282538852,-0.23170550533736092,-0.09779105564636019,-0.7014541512594882
291.0,0.012596221572814807,-0.07249728372859766,-0.0074000037465812435,4.394997761417706,1.8941029466861492,8.551013300363419,0.13923981866546775,-0.15871975806451613,0.08391440466824024,92.7915833637743,26.629805868551195,-12.480670509254054,0.6671258028783954,-0.23235052179535237,-0.09894824539595742,-0.7008201700003185
292.0,0.009156981754149337,-0.07261960960623431,-0.00851451800232288,4.391204525870143,1.8735555056011388,8.55634535985913,0.5053053932037016,0.9149193548387097,0.9526930894308943,92.29828664156457,26.60172249072721,-12.345652794949608,0.6702568188867783,-0.23177198320816006,-0.09853176941572066,-0.6980257518630624
293.0,0.01388222477758276,-0.08158216684967276,-0.007065069470262232,4.256795102353717,1.8775824319923453,8.622064325917984,0.37131813734390445,0.7764031667257474,0.047529561967012746,91.6562533142834,25.726504486531038,-12.2834457848079,0.6753450700108592,-0.2271452505828701,-0.09183568878649673,-0.6954986214552816
294.0,0.02159549026897571,-0.07715437067522041,-0.010909646870307769,4.186734724755967,1.8880193265952516,8.654726479395244,0.04335396114507051,0.0956228583244712,0.15222100218166304,91.33837531305568,25.273798518227117,-12.297852884723458,0.6778608386306216,-0.22501892955410785,-0.08815503938172763,-0.6942619242529864
295.0,0.016209419481646073,-0.072991931881389,-0.011894915601052498,4.173408068983205,1.8997492946340313,8.658683516195318,0.009392994397420052,-0.10059966914805626,-0.4073812423807507,91.53216768724981,25.189592231463788,-12.36212248690858,0.6767729801916549,-0.22480935194064838,-0.08758804762173938,-0.6954904570919311
296.0,0.01703019023986766,-0.06860566583953681,-0.013151571546732833,4.228401985111662,1.8969431348221675,8.632862607822283,-0.014082070483280158,-0.4807913860333215,0.02733645722557007,91.66620232925676,25.547547043010752,-12.388487201642445,0.6755059967712985,-0.2268087383724448,-0.09004889265355073,-0.6957667280000887
297.0,0.014990901571546734,-0.07169396195202646,-0.015708850289495452,4.274104218362283,1.8873465674110839,8.612685336169207,-0.018306156209382016,-0.3037021446295639,-0.16312108590334395,91.82813644688645,25.84489247311828,-12.356869608885738,0.6741427002001654,-0.22811923144428692,-0.09249864869774312,-0.6963475664718186
298.0,0.015250196695515344,-0.06724311565696302,-0.015064778389719383,4.305290322580644,1.8749375819564649,8.600076655052263,0.036433629313251656,0.06553718950207937,-0.07738013281630514,91.7901985922221,26.044110608444793,-12.293439267918025,0.6741444786210333,-0.22888935995936832,-0.09408157827138362,-0.6958905298691882
299.0,0.008583623693379791,-0.06483353939530179,-0.011169101944475667,4.321475422427035,1.8569188677831483,8.596109756097558,0.023367544303323218,-0.05620989987261622,-0.05141088054025702,91.7610027139298,26.143474275036528,-12.184373243790041,0.6742577768097485,-0.22883067616247987,-0.09527564953354126,-0.6956456928247631
300.0,0.022445037653141507,-0.0589167696976509,-0.011705518714173318,4.271858678955454,1.8804674984077032,8.61554681353265,0.29439546570004865,0.7828577516765951,-0.0028979805927091514,91.84887333277135,25.822593992356975,-12.307005170282117,0.6740630580661645,-0.22772459534333672,-0.09267254067402869,-0.6965416740454461
301.0,0.015450629425649096,-0.06364732494099136,-0.009493312352478364,4.2470322580645155,1.8749787568843428,8.629241148701809,0.1113874409913454,-0.1876081825334383,0.33067466561762393,91.61510006884343,25.666409323367425,-12.253257769472857,0.6757325055184893,-0.2267390372584579,-0.09147514351750591,-0.6954013028737214
302.0,0.01293273013375295,-0.06838355625491739,-0.006596380802517702,4.23665460267506,1.878418961447679,8.63376632572777,0.18307680959874112,0.17943056648308414,0.04094217151848939,91.62760375688435,25.597797010228163,-12.266992033831627,0.6757375504004719,-0.22644531092289535,-0.09096036396577498,-0.695563591321007
303.0,0.009109952793076317,-0.07344826907946499,-0.003825334382376082,4.241155782848152,1.8759561369000788,8.632268686073957,-0.08624975413060583,-0.10624262391817467,-0.03588217938630999,91.60176411290323,25.6264948859166,-12.253308172698663,0.6758750838076317,-0.22652964511526358,-0.09116461210877264,-0.695378739185287
304.0,0.01571439811172305,-0.06516915814319434,-0.010477773406766325,4.232438237608183,1.8865418961447675,8.633713021243114,0.4202645554681353,0.2512908143194335,-0.5416859264358772,91.76384490558615,25.567692761605038,-12.319653570023604,0.6749029918489378,-0.22647945919118806,-0.09073277173780486,-0.6963887079889849
305.0,0.015215381589299764,-0.06671774193548387,-0.007055468135326514,4.300231510621558,1.927569040125885,8.59022167584579,0.023498967348544453,-0.8366136408339889,-0.10112485247836348,92.0891682238395,26.017081776160502,-12.640701219512195,0.6721267191243114,-0.23054017544138475,-0.09263635512922894,-0.6974693198487409
306.0,0.01209848897496419,-0.06428453267162945,-0.008171034315802215,4.366713873590349,1.9259103471928016,8.557779055458049,0.06581986725574451,-0.08051150920938488,-0.14636668078839593,92.27021802941354,26.445507777038067,-12.675171225967842,0.6704400920050838,-0.23291329073392647,-0.0956453208190603,-0.6979044643113639
307.0,0.012174342835239764,-0.07275595634368255,-0.005529262240513223,4.335504851822712,1.9512675260747634,8.567847041497707,0.08242802961528374,0.16760223123323045,-0.03531945369081481,92.25954351510016,26.239473007323127,-12.826349381669996,0.67069327564849,-0.23269250577215594,-0.09344399081865681,-0.6980418719393169
308.0,0.01812572373862696,-0.09782880429300572,-0.003386188948738122,4.349425124573825,1.956131009300167,8.559963646633985,-0.038762381730517055,-0.11916898666505275,-0.10701849946539166,92.35104929492223,26.333087211765417,-12.869798412314148,0.6699825859249531,-0.23336374794036596,-0.09401299496479654,-0.6984368233008936
309.0,0.1328417761100688,-0.05780031874760437,0.2699331840464806,4.642017833726724,1.929301539268494,8.343305977526276,-2.656443543343622,-16.489969033065023,6.958833393855031,91.98247291654057,28.552342189675002,-12.91108429663701,0.6678041865934758,-0.24603650934075733,-0.10712960815824407,-0.6919742062365994
310.0,-0.24719100359383597,0.06792311438888932,-0.010346809497871728,6.47391851185793,-1.6108471510131623,4.693173913419389,-4.278118272364928,-17.41462620286873,21.424950772083935,74.63226011793084,43.340567801592584,32.20716719190854,0.6603764024136687,-0.28681639598299347,-0.3462748434034262,-0.5237853386969593
311.0,-0.1840392267056311,0.13604814356899333,0.06018397587201675,7.168834419841895,-3.6085491176801168,3.536607433217189,-3.8244270072309017,-2.8022628179910845,6.542045656775692,67.69018629875238,48.23358013937282,49.466467278296065,0.6707272413342324,-0.2692787724478102,-0.4563916362010979,-0.4613458339179686
312.0,-0.29363566370686744,0.46533013000636914,0.11181661421452924,7.003934125735268,-1.350559373946274,4.392630231164063,36.114340390955746,5.298558795567795,-2.1251957003296984,64.29702568281442,46.535849865123076,23.908327069517817,0.7130578354302949,-0.31041115173373984,-0.3088045700407535,-0.4513522860242871
313.0,-0.2193258963695628,0.38133441984189426,0.03979943613952268,5.867003353190214,0.43829692593008873,6.210984470420741,0.3937125341875536,16.379193712300026,-14.77104039048743,72.98858340592334,38.03319710998089,3.8806504299202,0.7127490157796637,-0.2936921055483216,-0.18826375260505418,-0.536666605629079
314.0,-0.11858324075792466,0.19205393160136724,0.01634110966766082,4.780869456039968,1.3890071463858993,7.493411402502194,0.3178216646931767,8.622482030568618,-7.354331734065921,82.85145306361434,30.06906069396269,-5.5224736878906135,0.6922320484543478,-0.2580689892026116,-0.12185375055440256,-0.6206757656959161
315.0,-0.0663031947011143,0.09399565440140524,0.010913115473990452,4.258517016449234,1.8912359705780097,8.23466608420398,-0.16883628300367803,3.9850539997804324,-3.7692625519184673,88.15478993605109,26.130197678992918,-11.139215825297788,0.6829856176688379,-0.23886941965506925,-0.08692791808093792,-0.6666603081618758
316.0,-0.01959290715536027,0.032287437930911295,-0.005797797663701638,4.091283722716393,2.11120207730504,8.554248481763299,-0.28756245981138145,1.4075287795163072,-2.218891888150609,90.55397415202015,24.794436443932412,-13.591975002679241,0.6785757822488658,-0.23246905434141565,-0.07407669949661522,-0.6872491424817098
317.0,-0.017388427464008864,-0.012575367056049735,-0.007294636159039759,4.062819472725325,2.1333923212946093,8.647932420605153,-1.4473706596291929,0.20002495043403717,-1.3379285669631693,92.51236414014218,24.506089189708142,-13.872742013628407,0.6701578968682885,-0.22928217825999359,-0.0765255388748437,-0.7009103043211158
318.0,0.0009330904154610025,-0.028568213481941926,-0.008304576144036008,4.2061190297574385,2.081355338834708,8.59948022719966,-0.269161040260065,-1.328075322402029,0.45997436859214796,93.18066123673776,25.408122119815665,-13.596930482620655,0.6656172688657878,-0.232030336930304,-0.08566557970278282,-0.7040002948433537
319.0,0.0017300753759868508,-0.02906440895938271,-0.012785339191940845,4.36998070946308,2.0276769192298074,8.530372235916126,-0.3608379773514807,-1.1415599435573178,-0.25170578358875434,92.99256957096416,26.47150850212553,-13.364416997106419,0.6655129446325867,-0.23652525453148998,-0.09363490260850925,-0.7015938399310542
320.0,0.010872539563462293,-0.036407673346908156,-0.0152186260850927,4.404979101918336,2.004941235308827,8.518231879398423,-0.0892712017290037,0.7304672150180402,-0.1517578055228093,93.13560867895545,26.694423605901473,-13.23589379487729,0.6644286768286715,-0.2368241281847247,-0.096083445437788,-0.70219801797753
321.0,0.01441092415961133,-0.046475726074375744,-0.015309005822884292,4.4320748044153895,1.971272460972386,8.513267245382774,-0.16337119994284283,-0.6790972296645588,0.15984018326010074,93.23406298003071,26.87135734826564,-13.029429232308075,0.6637305629803879,-0.2364926604940521,-0.09856022163594469,-0.7026704860509769
322.0,0.017961990497624408,-0.055709014361604345,-0.01590531779286285,4.526682376168954,1.9413158603239657,8.469700386769164,0.05724114499879325,-0.808719519818979,0.22765540034834492,93.18683966505563,27.492880188688286,-12.911753880325481,0.663243478274316,-0.2391494995658976,-0.10328582511820464,-0.7015590458366421
323.0,0.025217554388597158,-0.07154114312550264,-0.017376622030071977,4.6481798977618975,1.9319943356919367,8.406002267117298,-0.010573935949144082,-0.7479417491568013,0.16951126392225233,93.1064286650931,28.29362711431342,-12.940875980101296,0.6625658639067433,-0.24366934845806398,-0.10831199254374133,-0.6998775995619462
324.0,0.03787712607594408,-0.08314609140089899,-0.023655434764614507,4.742382163485123,1.9119826123778332,8.358056395632008,-0.07535915991192921,-0.5674671607797419,0.08382893850640359,93.10206389794313,28.92403071368887,-12.883252117471876,0.6617135142841197,-0.24666253963253879,-0.11278823658499118,-0.6989361429044977
325.0,0.05489715634483534,-0.09980461578809335,-0.030181147203177102,4.7931441309804805,1.905328762504215,8.33213461466412,0.15500426173616577,0.1954778764377506,0.4985997152598254,93.02260944700461,29.25550279120303,-12.877336930051328,0.6617106550550748,-0.24846235750084297,-0.11486302793057582,-0.6979798083987112
326.0,0.04485257202802443,-0.09668802217976097,-0.02553220186579746,4.731126596980255,1.9220115394702337,8.363498182908096,0.24659295268067888,0.32431343898692444,-0.27604576448990303,92.62720814132103,28.84568534337417,-12.940396575624742,0.6646908414637892,-0.2470236700599453,-0.1109540020029223,-0.696276942655577
327.0,-0.013533775429920201,-0.12338091491513992,-0.023443482821924988,4.556717058184407,1.8003652916713502,8.476828706305497,0.12751606346708627,1.800761492637968,0.771726658798846,91.75051866734105,27.710664409351466,-12.012964341913005,0.6721125593445355,-0.2360994395011427,-0.10681490198063015,-0.6932060446871606
328.0,0.04704109999625341,-0.07501764639766212,-0.007293169982391071,4.220214903900192,1.8898892510584093,8.625441234873179,0.378787793638305,2.142738657225282,-1.0649479225206997,92.03025645348619,25.510809355213368,-12.357552639466487,0.6731263151645873,-0.22604560179588623,-0.09079972965314151,-0.6977346571477278
329.0,0.03649327488666591,-0.07705848413322841,-0.0059970027350043096,4.127624217901166,1.979942752238582,8.656885317148099,0.27244857817241763,0.28602618860289986,-0.621075924468922,92.55671293694503,24.901939324116743,-12.879563804278597,0.6704602696547151,-0.22551018008512236,-0.08493099148237233,-0.701442706168746
330.0,0.03439799235523166,-0.07653813453363341,-0.00913796306219412,4.147877576536993,1.9990025363483723,8.646160075733219,-0.16769772800342947,-0.37734031722216266,-0.295541072768192,92.88639548279927,25.029176713821315,-13.011491712213767,0.6682646912883936,-0.2267635037996285,-0.0856824610277212,-0.7031881628917944
331.0,0.029057675133068978,-0.07192498124531135,-0.009887721930482622,4.207529418068803,1.9910258457471506,8.620676044011,0.17596776426249414,-0.19471854570785552,-0.0593728789340192,93.03339551405708,25.41229381005966,-13.00423375933269,0.6669108537624763,-0.228674982395206,-0.08857514946931375,-0.7035595217876791
332.0,0.03235525845747152,-0.07610457971635767,-0.012344014575072339,4.248023541599686,1.982755626406601,8.604308836137605,0.08157547199299824,-0.26407394259279104,-0.0805216929232308,93.03448289527739,25.669256544046725,-12.969138769067268,0.6666016462821598,-0.22986431447333266,-0.09045905304110849,-0.7032629671227182
333.0,0.015361244492307745,-0.07938647553874531,-0.01058113395944805,4.258633722019355,1.9679443946352437,8.602457034119155,-0.23494802816557797,-0.1634135940343971,-0.21923163717758706,93.31281764256394,25.740587531464747,-12.87986897639044,0.664865284952449,-0.22946428928859394,-0.09195794849213174,-0.704854852812441
334.0,0.013444063106368927,-0.07841059568027894,-0.010234499391398371,4.270546507707066,1.9151895552285283,8.608379054693987,-0.29418772376020835,0.1188452383130626,0.08349094024377177,93.34054860622821,25.8161751021379,-12.535354995107664,0.6647851470921997,-0.22779595599299127,-0.09439024573147295,-0.7051500395252681
335.0,0.003109699898842296,-0.04865123075193886,-0.0055216365066876535,3.9708757259001164,1.787531190288861,8.76230602075606,2.26774310629051,3.6604300138623502,8.060032407927766,88.64618457532501,23.930257155970175,-11.550443501554831,0.6948628268517478,-0.21407668626874227,-0.07942486046049231,-0.678664616521824
336.0,-0.12368708553444982,-0.011798733655539307,-0.09794515005057886,3.8997005357611183,1.7244760406129405,8.811959461990934,-3.1862369337979093,0.39012284103255745,-2.061333642426286,83.61711110486681,23.456368017309202,-11.07404087520138,0.7247839621201904,-0.21191350034251247,-0.0694426455029036,-0.6483984246126785
337.0,0.08313341575812072,-0.14318815331010457,0.02795138810835114,4.018387134240006,1.928662751489266,8.715269285526956,0.1897156344835338,-1.8059226424637518,-2.659771083885954,88.26218458469147,24.214431128470267,-12.495977810872578,0.6961922190132441,-0.22185119056296132,-0.07501331556635195,-0.6755868102710089
338.0,0.020264583567494637,0.3422375519838148,0.2725516185230977,5.310586171368625,-1.52773392716646,5.698991841819339,22.675945543441607,-49.30680180116893,37.06893920235285,149.05020126166124,33.905283030796895,24.158113572927203,0.7053332940974955,-0.3396735713711738,-0.21838864131976132,-0.37911336561544146
339.0,0.24774519500955383,0.5510784534112624,0.33617500280993606,5.327881795361732,-0.9981371248735528,5.989749953167733,-6.780777228279197,23.03062127683489,-17.656155398823568,135.45478813083062,33.81640159604361,18.706123318721666,0.6955424659963283,-0.3265917286210708,-0.2092547157445581,-0.4390123379569143
340.0,0.17377505526207337,0.23238945712037778,0.14875186392416925,4.8114347532876245,0.6188838185156045,7.25405009179124,-3.8897549735866037,11.316981145329887,-10.856903544265855,114.19366710688996,29.89052606683901,2.0021880034468555,0.6806223090027723,-0.2842624582037766,-0.14605582343295492,-0.5700974318816829
341.0,0.12317631411337154,0.053127908283691155,0.06716241429695405,4.627223521037053,1.379257577460567,7.860749316248921,-1.924648992169646,4.751074098010566,-5.218006303622943,104.34210525083361,28.42069986137649,-6.080799239444007,0.6679791033792662,-0.2634956478998913,-0.12080186753291372,-0.6397007154247124
342.0,0.08413808025177026,-0.01981392604248622,0.022023603461841075,4.6363552321007075,1.7427962234461052,8.114348544453188,-0.8252901258851301,2.1406004130605827,-2.2177493115656954,99.04267800944137,28.35143095987411,-10.09144128638867,0.6629644172871754,-0.2567033598815893,-0.11210826844925253,-0.6712689662092841
343.0,0.0743467741935484,-0.08460483870967742,-0.006354838709677419,4.645637096774194,2.027645161290323,8.311693548387098,-1.2688508064516129,2.201461693548387,-2.4045866935483873,94.54304435483871,28.31139112903226,-13.242691532258064,0.6594522294838709,-0.2511716782177419,-0.10539821543548385,-0.696203713032258
344.0,0.06548387096774194,-0.11929838709677418,-0.019483870967741942,4.6882419354838705,2.101491935483871,8.34343548387097,0.07550403225806453,-0.5177923387096774,-0.037651209677419334,93.67928427419355,28.569707661290323,-14.115020161290321,0.6578725511854842,-0.25151770787096767,-0.10522239498387095,-0.7020074184758065
345.0,0.06983221872541306,-0.11607159716758458,-0.022355035405192764,4.7316756490952,2.0803335955940208,8.32479779701023,0.11316384736428009,0.2323920633359559,0.3042498524783635,93.46784888867033,28.850684746262782,-14.013617476396538,0.6588576049248624,-0.25258983699527926,-0.10721284771911882,-0.7004178071278522
346.0,0.04815900490802143,-0.10842635157918401,-0.019584007717957368,4.691406756959274,2.053634539732494,8.353743368551196,0.3996382792888989,0.7081711180735079,0.5600970364542355,92.94270780647034,28.579395032501594,-13.801625606477838,0.6626344419040595,-0.25036716452298524,-0.10534916470134129,-0.6979121051756773
347.0,0.042771898767374764,-0.09944877486793302,-0.02068850923532277,4.618802648832939,2.0642926922932823,8.39053470270878,0.06322759778577047,0.507778195365479,-0.18987995719530926,92.70863428917987,28.100163386066463,-13.812485950320331,0.6647292962033737,-0.2480962807396032,-0.1015636561421453,-0.697274020173092
348.0,0.033301271964332545,-0.09510476377805252,-0.014969446629950171,4.584713536398037,2.0492306395414177,8.413679217713838,0.1346367923644674,0.12141621941853056,0.03248297647146979,92.66449979627964,27.8723635190701,-13.67650747208797,0.6654065134037224,-0.24615010145755117,-0.1006590215357424,-0.6974712949824753
349.0,0.02475029036004646,-0.08275111460792028,-0.011717058184406728,4.5650073058334275,2.0534363643175597,8.423497058933727,0.19647306208085122,-0.021306339215465903,-0.053941403469334216,92.59830092540557,27.743061799857628,-13.688696564384998,0.6659763775092727,-0.24560014106402905,-0.09958618994567457,-0.6972884100663145
350.0,0.023881832827544865,-0.073181222134802,-0.010354988572927205,4.5742660447341805,2.0254317934884414,8.42598928477764,0.11832406054475292,0.43906653928290434,0.35176651305683565,92.29098759881607,27.803007099771456,-13.500819564647259,0.6678850181094751,-0.24509293784908764,-0.10030638565733768,-0.6955348982156907
351.0,0.010991907384511636,-0.07473436738975686,-0.005156607096024878,4.533928477764039,2.0019094451313175,8.45262710276872,0.4112598816080327,0.7346156007643025,0.45815771233749203,91.79492033831627,27.541653787793635,-13.3146226724364,0.6713636612477989,-0.2430172213781799,-0.09851843736147016,-0.6931376720062943
352.0,0.008032482859390809,-0.0715295417931138,-0.004494773519163764,4.434729309505077,2.0359846015510845,8.496394477539244,0.47406897456071334,0.6271542842156532,-0.18693801281330785,91.46431732606496,26.888382319883107,-13.464114776516428,0.674193776379866,-0.24062720409557523,-0.09270987562492976,-0.6920093046729234
353.0,0.006130718219624594,-0.07091884905024165,-0.008765688808961822,4.394585628114346,2.058576861114233,8.512360720842231,0.1356145329886479,0.17804222397062677,-0.2027860514780263,91.3793717919898,26.622467545239967,-13.585787344048555,0.6749821787548238,-0.23996327875800827,-0.0901146458701435,-0.6918459519639578
354.0,0.012854145592147165,-0.07042486231313928,-0.007681615525832677,4.394232138173916,2.050336817653891,8.514567457195305,-0.10149956914315686,-0.19093280506537785,0.03747986212581021,91.29111638754637,26.62476583867221,-13.533293057584952,0.6755661319234948,-0.23974752364167695,-0.09019764921771385,-0.6913564585549435
355.0,0.01725555430669514,-0.06177498033044848,-0.006526094938368738,4.393551159566895,2.0247891798733657,8.521140534262482,-0.30063176726237306,-0.07935212243827511,-0.15626006893709488,91.469382938069,26.620457270240905,-13.362899479225206,0.674580446031771,-0.23856259718826572,-0.09148733926424638,-0.6925556790689745
356.0,0.008772545052639469,-0.07506372934697089,-0.0062229215840545506,4.400222471994306,1.9951687834850695,8.52475830804391,0.08109147278108725,0.28561406466599226,-0.17283400771795737,91.5333146004271,26.660858060769545,-13.169461147952493,0.6742797225225732,-0.2376178633132517,-0.09292330768483759,-0.6929870023724102
357.0,0.013855194634895658,-0.07179228953579858,-0.011852609493836878,4.395504627027837,1.9833593720729834,8.530168296429508,-0.0023338859540669166,0.005513562624105489,0.265348338391218,91.5124283466337,26.63120106028249,-13.087312202615113,0.6745178336885091,-0.23697597162122064,-0.09313729253636056,-0.6929535386724363
358.0,0.016290303847738937,-0.06244610542879623,-0.009368476265407818,4.427968678580795,1.953508954329175,8.519836311865426,0.05855473286875726,-0.5396802761230378,0.14383663969128171,91.49074898842306,26.846555486868233,-12.90722317447829,0.6744824285476377,-0.2371109403110037,-0.09547562216117794,-0.6926218345093103
359.0,0.007461588175789591,-0.058849780824997186,-0.009615113708740776,4.451853002884867,1.9321961054287962,8.512395114458059,0.047494532332996144,-0.10970188921359264,0.08607922614364394,91.19533129144656,27.002506814094637,-12.780608515042523,0.6761216916854933,-0.2374614938690195,-0.09655609177951371,-0.6907474458798473
360.0,0.014562783335206624,-0.05584309317747556,-0.012706558390468699,4.501641555205875,1.900119366078453,8.493390721591545,-0.044502301805852164,-0.4582663631935859,0.22862189033756697,91.10239154818103,27.331682554512756,-12.606022863512045,0.6763285774544978,-0.2383247045539414,-0.0994854921017384,-0.6898327962943782
361.0,0.006890262635345243,-0.05579251433067327,-0.010647634033944028,4.49634093889326,1.8931887152972913,8.49716713498932,0.2000018732906223,0.4634071409838523,-0.3628563935408939,91.20943670150987,27.292933011127346,-12.55492675433667,0.6757576383724101,-0.2377344152084223,-0.09968830641377244,-0.6905576264979956
362.0,0.011017121876287884,-0.05375857030459706,-0.007241991682589637,4.480214529242065,1.9152615488366869,8.50136405529954,0.015598891011951596,-0.16023191337904164,-0.1976457420104155,91.36065855531827,27.18934612790828,-12.69239256678281,0.6749084592530816,-0.237851509059758,-0.09859043035952195,-0.6915097412293281
363.0,0.009600614439324116,-0.049626728110599094,-0.007248847926267281,4.515956989247312,1.9016221198156682,8.48503686635945,0.03344854070660522,-0.010608678955453157,0.13964093701996927,91.37605606758831,27.423847926267282,-12.62752496159754,0.6745160971505377,-0.23873011614592934,-0.10052466837173579,-0.691313216347158
364.0,0.007761136712749616,-0.04947542242703534,-0.008628264208909367,4.527333333333334,1.903641321044547,8.479162058371738,0.0654713901689708,-0.15596198156682028,-0.02676171274961596,91.39837749615975,27.499942396313365,-12.648415898617511,0.6742716565860214,-0.2392473400084485,-0.10093346796850998,-0.6913192305929341
365.0,0.017630240530515907,-0.05724473605335133,-0.012121164437450826,4.553952530815631,1.885023706492825,8.469197847589076,-0.01602898683076693,-0.6232326673785171,-0.020594781480648902,91.38202893765688,27.67176190007868,-12.54503027705968,0.6741821844408694,-0.23962176556630513,-0.10262581705242402,-0.6910247109243004
366.0,0.004311088007193436,-0.06719091641377242,-0.0065686467348544456,4.51567787831104,1.8938545951818961,8.48728037540744,0.45012562755235846,0.964794956633322,0.0022782140983852264,91.09948221076394,27.416727724232885,-12.575438525626616,0.6762204849825313,-0.23861719276299126,-0.1001707390463733,-0.6897161562927954
367.0,0.02100635045520962,-0.07739787756172492,-0.010441581431943353,4.489230068187778,1.9163063298490126,8.495857929639204,0.06321805571166314,0.07219082509085456,0.3513155183395152,91.13827437151099,27.24593946695515,-12.70649446442621,0.6761566304549753,-0.23842827751859236,-0.09844893789012213,-0.6900950713480106
368.0,0.02249511071147578,-0.0764126484582818,-0.008845790715971677,4.52531261473905,1.9071652616986996,8.478541868045406,0.10817152785583156,-0.03812333745457269,-0.10599546663669401,91.12004444382,27.485242918961447,-12.66665449027762,0.6759529679573263,-0.23954969902139295,-0.10017489477973848,-0.6896600504683601
369.0,0.009219905586152634,-0.07224626278520849,-0.004648701809598741,4.565613296616837,1.912905979543666,8.456137293469705,0.16061418174665618,-0.14111428009441385,0.10000245869394178,90.92042928796224,27.75048436270653,-12.738655586152635,0.6767291387490164,-0.24156229990086545,-0.10109789298741148,-0.6880627495613689
370.0,0.012034178187403995,-0.06936635944700462,-0.008585637480798769,4.620740783410138,1.9035510752688167,8.428210829493086,-0.06632824500768048,-0.45558275729646697,-0.11200796850998462,91.05817252304148,28.115968221966206,-12.72087653609831,0.675384188517665,-0.24332376600921654,-0.10392177591935484,-0.6883444011309524
371.0,0.009557116631074144,-0.0645429358210633,-0.005909164137724326,4.668738704057547,1.9002286257539998,8.402588793975493,0.2079987167959237,-0.0079411131092878,-0.16293073976246675,91.1962202849275,28.43338672211607,-12.733086527293842,0.6741013800804296,-0.24501329024438007,-0.10620769553619197,-0.6886590550108931
372.0,0.003341574069475558,-0.05800308831563293,-0.0046492557372792695,4.6980384255471535,1.8972087427344642,8.387245822344088,-0.03414533402514393,-0.2773365543040813,-0.1179092464753819,91.2848833982777,28.626211365559158,-12.734880660496135,0.6732713595615014,-0.2459697443417137,-0.10768220555635555,-0.6889089447654801
