time,linaccel_x,linaccel_y,linaccel_z,gravity_x,gravity_y,gravity_z,gyro_x,gyro_y,gyro_z,euler_x,euler_y,euler_z,quaternion_w,quaternion_y,quaternion_x,quaternion_z
0.0,-0.007647058823529412,0.04397058823529412,0.045441176470588235,-0.004264705882352942,-9.779999999999985,-0.6395588235294122,0.06341911764705882,-0.5340073529411765,-0.06893382352941177,52.012867647058826,-0.02022058823529412,93.6875,-0.6143305147058823,-0.320715512352941,0.6555893848529415,0.29989624014705873
1.0,-0.025350951974992895,0.04480179028132991,0.05785237283319124,-0.0014215686274509807,-9.779999999999983,-0.6398529411764708,0.0591831841432225,-0.04575607416879798,-0.043509342142654166,52.35392689684569,-0.006740196078431373,93.6875,-0.6134240156265984,-0.3224436005427677,0.6547465823905936,0.3017376143485364
2.0,-0.022557001395876082,0.044431536494196344,0.04729936857686217,-0.0006092436974789918,-9.779999999999985,-0.6399369747899163,-0.06089951448806946,0.2721484956858997,-0.01425125652267596,52.41541921952727,-0.002888655462184874,93.6875,-0.6132522910048062,-0.32276686519964776,0.6545899448047598,0.3020818310284936
3.0,-0.03970307123964414,0.04520530526591908,0.029131862198614116,-0.00028431372549019614,-9.779999999999985,-0.6399705882352944,-0.05341977342776576,-0.03133070201324678,-0.00616039029881741,52.65807798872057,-0.0013480392156862745,93.6875,-0.612614300900282,-0.32397012509316897,0.6539946658500645,0.3033671620878069
4.0,0.009664163436789459,0.047749733585514466,0.025534597663671173,-0.005787091645725425,-9.779999999999983,-0.6340572593466334,-0.020617239975945938,-0.6481155532845265,-0.003416753806315312,51.61310661180463,-0.032474421765218725,93.66788360941587,-0.6154931680206246,-0.31833400473121953,0.6565388383842946,0.2978082477408307
5.0,-0.020051393707213958,0.04562818079441422,0.031516430242691615,-0.006895637118263199,-9.779999999999983,-0.6222788167540558,0.012294115733757795,0.4433012697136711,0.13070741170897052,52.25659564962308,-0.03908235814187654,93.61862774291784,-0.6141249242592632,-0.3219735703399262,0.654383621190203,0.3014427303014828
6.0,-0.0058898078088820294,0.0465292220786782,0.022251903760897,-0.03384208379210649,-9.779999999999983,-0.6087021323913653,0.01463525328529872,0.13063750566874144,0.06450634727571013,51.87431913539281,-0.19740856258348308,93.54598501841232,-0.6155829024615624,-0.32149812731738403,0.6541205900387668,0.29960374559331576
7.0,-0.014338381394692692,0.05108701444238765,0.019707306010189732,-0.04147403728775833,-9.779999999999983,-0.5936782551357742,-0.014210643474330436,-0.4760960823304644,0.02936412720042153,52.01358636670385,-0.24709137806593506,93.45775633409096,-0.6157307029847692,-0.32261197865443814,0.6529921726914854,0.30059938471654446
8.0,0.009197033211572066,0.0512355318316245,0.013393846208475925,-0.05170476057936306,-9.779999999999983,-0.5815703103635861,0.023464998399687173,-0.45515611790032506,0.013689722015483033,51.367143454325415,-0.3170940761297417,93.41133784446484,-0.6177279648817094,-0.31964792495893923,0.6540563488221668,0.29734089577800066
9.0,0.014256956683580957,0.05093320418286342,0.01594740932246612,-0.05664357470990823,-9.779999999999983,-0.5766676915643296,-0.14723990372417223,-0.1641257418688132,0.01926543139202158,51.061940465007254,-0.3511009831389772,93.39568950267639,-0.6186216426675332,-0.3182944622851833,0.6545842051781343,0.29580346450435135
10.0,0.016942199377683258,0.05041929739036,0.01024914096024153,-0.06326098611487607,-9.779999999999983,-0.5791175804482258,-0.001777607473172002,-0.45966362727510734,-0.02862613055034782,50.63739328218692,-0.36837477598566304,93.39116346342094,-0.6196893235084466,-0.31623193367713476,0.6556127674192246,0.2934915746175442
11.0,0.019078695498050344,0.04985518908668814,0.002745434830823825,-0.06680970452697207,-9.780635235731994,-0.5729398558430818,0.08516953476630895,-0.16356406480932098,0.030393949819946024,50.35862719664902,-0.3721774193548387,93.34466305753071,-0.6206251904929536,-0.31474544059418497,0.6560593950085163,0.29212725243487503
12.0,0.020942928039702248,0.05015995895312784,-0.007332174466899328,-0.06876660341555976,-9.783811414392051,-0.5632795698924731,0.06219217610346642,0.11453243941384358,0.06044467076250757,50.230786923386546,-0.375,93.29623595095606,-0.6212803513799403,-0.31395526004753566,0.6560622565508727,0.2915865321009895
13.0,0.030170549238917085,0.05075373678970495,-0.02319600363385235,-0.06954459203036052,-9.787066997518604,-0.5435026480500721,0.32674600014814265,-0.15775426073544116,0.09476901182309151,50.073797920338464,-0.40003610977371207,93.17817936209335,-0.6223874971547503,-0.31279296729427014,0.6558286525954417,0.2909849475571843
14.0,0.02257538665795768,0.05521542768502466,-0.04419541515627499,-0.0699335863377609,-9.78869478908188,-0.5102426391615127,0.2001050851932532,0.028262504191268814,0.08023237041263606,50.08389544486733,-0.4197761194029851,92.98604997881341,-0.6234191735382749,-0.3123835063352318,0.6548400675429273,0.29148089572174596
15.0,0.01958111764659671,0.054438760405057934,-0.06371637638561085,-0.06999999999999998,-9.789508684863522,-0.4934680937743049,0.13947174234848767,0.002857806613223081,0.02083615309421761,50.10169036949249,-0.42964612421762155,92.88992074367616,-0.6238725020727429,-0.31231220499800577,0.6542808107401541,0.29189490062733014
16.0,0.018917936821644103,0.05379581452089876,-0.07104827767321747,-0.06999999999999998,-9.789895781637714,-0.4853196548275993,0.08658770213897801,-0.018151516273808038,0.009511053462666366,50.113345184746244,-0.43458112662493975,92.84328543387281,-0.6240845325326496,-0.3122954038588046,0.654002520938315,0.29211727295386336
17.0,0.020296850958382018,0.0542340227578552,-0.07788085738687567,-0.06999999999999998,-9.789999999999996,-0.48497789644154593,-0.02718795207360445,-0.07529596266356016,0.03169223249868411,50.16247848003385,-0.42727345676310524,92.82764786769962,-0.6240645052349694,-0.31245993984405745,0.6538177799649842,0.2923572517892109
18.0,0.01929287916384691,0.053972178359275126,-0.0736026016993759,-0.06999999999999999,-9.789999999999996,-0.49208211143695013,0.05973804421385066,0.18531938491615912,0.014318745770358673,50.24196603128055,-0.4208822091886608,92.84817937438905,-0.6237466600195505,-0.3128827023806301,0.653760772473118,0.2926702144194301
19.0,0.00703065664355986,0.05469420785549815,-0.05566995689576335,-0.05186573670444637,-9.789999999999996,-0.5097550923357373,-0.094053149698311,1.1328609090705866,0.11858806697516373,50.45174169770944,-0.30669764339119177,92.95588458693297,-0.6226061088547199,-0.3130775447159815,0.6543145730313599,0.2935367630668919
20.0,0.01851312652539367,0.051781172358182775,-0.03489704813648476,-0.06558529906553534,-9.789999999999996,-0.5313700495754108,-0.06059645567255745,-0.4192414865404416,0.014041656945450669,50.810860626228646,-0.37164448275874895,93.1099987450794,-0.620906130042989,-0.316384806607807,0.6536454018155434,0.29507755859694873
21.0,0.02110974771265549,0.052350395187287485,-0.020827199156594894,-0.07295393985534834,-9.789999999999997,-0.5469753473683505,0.01325955846344306,-0.2467880114858761,0.005020443105404483,50.72599482924335,-0.4045722413793745,93.1870558241526,-0.6207292176021393,-0.31655599411035495,0.6540735197787394,0.2943805070404101
22.0,0.023343241402759812,0.05063267559950885,-0.007361302413097057,-0.07663826025025483,-9.789999999999996,-0.5546680255903336,-0.08991530874481805,-0.061871522849487416,0.02264096446570322,50.68218729731963,-0.42134159478548394,93.22537053182214,-0.6206445350327409,-0.3166361883283933,0.6542892492735339,0.29402776007690123
23.0,0.021923331356316376,0.05017948540483751,-0.007896193728542665,-0.07848042044770809,-9.789999999999996,-0.5583017547306506,-0.09739228291590854,-0.026445292216532554,0.0015300374625681294,50.65867979235483,-0.429787366307698,93.24373365300784,-0.6206109940193025,-0.31666650066468516,0.6543961892506476,0.2938457932178252
24.0,0.02183477948675587,0.05190608634134303,-0.008329392552018634,-0.07996819627442076,-9.79,-0.5597001363016809,-0.048328543711324265,-0.054271620020143414,-0.02359325703828203,50.64152657882781,-0.437471603816447,93.25,-0.6206244326896858,-0.3166820079827347,0.6544323110268059,0.29373184517037754
25.0,0.02179517256936613,0.052160012030979766,-0.011605684637942707,-0.08000000000000004,-9.79,-0.5599999999999998,-0.05157248665313181,0.001703135574103314,0.0030368824723663434,50.625,-0.4375,93.25,-0.6206664999999993,-0.31658935999999965,0.65447998,0.2936401400000004
26.0,0.021387923904052947,0.051345665087600564,-0.011836829836829842,-0.08000000000000004,-9.789999999999997,-0.5599999999999998,-0.03058782615234228,-0.02094142416723062,-0.0023295924505601926,50.625,-0.4375,93.25,-0.6206664999999993,-0.3165893599999996,0.6544799799999999,0.2936401400000004
27.0,0.022511692608466815,0.050528686367396033,-0.007083840890292505,-0.08000000000000004,-9.79,-0.5599999999999998,-0.04694807880291751,-0.010845270321076773,-0.0033103992781412135,50.625,-0.4375,93.25,-0.6206664999999993,-0.31658935999999965,0.65447998,0.2936401400000004
28.0,0.02132671629445824,0.05011038423941649,-0.01213429581171517,-0.08000000000000004,-9.789999999999997,-0.5599999999999998,-0.03218005113166403,0.006933792014437175,-0.009169862395668847,50.625,-0.4375,93.25,-0.6206664999999993,-0.3165893599999996,0.6544799799999999,0.2936401400000004
29.0,0.0201720430107527,0.051821941499360855,-0.016471614407098285,-0.08000000000000004,-9.79,-0.5599999999999998,-0.03434374765019926,0.012663546131288067,0.005495713963455899,50.625,-0.4375,93.25,-0.6206664999999993,-0.3165893599999996,0.65447998,0.2936401400000004
30.0,0.03860448807854139,0.049901332888710154,-0.02086093756640742,-0.07364188873305284,-9.787755960729307,-0.5738382421692376,-0.31597613174576705,2.266328356659703,0.12107620056427909,51.13551893408135,-0.40617695184665725,93.33742402992053,-0.6187928162225336,-0.31934829580177637,0.653697451715755,0.29618678033660606
31.0,-0.0020361174813709887,0.05036510691624141,-0.005783144903665958,-0.07052841232940754,-9.78612057868546,-0.5558188117607124,0.6507799194375785,1.307103429993639,-0.04716118599646622,53.35043180464562,-0.397976346007288,93.2420107334755,-0.6133697056234189,-0.3314158708703976,0.6468954676740508,0.3083531679544277
32.0,0.0225424595940264,0.06724844813691859,-0.0064410623884196905,-0.05884843555538476,-9.788633766045239,-0.4727481155577754,0.06751499418253337,-1.3308138074735414,-0.07147313504400096,53.518629880817436,-0.33754104038715654,92.75855016960514,-0.6156447045321396,-0.33028026504093366,0.6442893143029753,0.31065727053635367
33.0,0.04309964912543255,0.05221237233402691,0.00040103758864925903,-0.07123764410724776,-9.778506072211805,-0.6261560978835085,-0.7967848762938486,-0.1278789982653169,0.01638226685489841,52.45673211564847,-0.4149834670113638,93.66164212926638,-0.6133260047769679,-0.3275811568622279,0.6517085594095522,0.30243477557332066
34.0,0.07945001755968348,0.055278504887719265,-0.001333255674933711,-0.07404176112172423,-9.777801423202668,-0.6575224933861987,-0.06000499673528942,-1.9056165049225673,-0.03645837029463517,50.896152796175485,-0.43117004891786825,93.84246981015289,-0.616336900202104,-0.31930082782179503,0.6569755808875717,0.29351472896945596
35.0,0.04368907743675752,0.049351668125419766,-0.009333695225431862,-0.05642694480984362,-9.778809547505954,-0.6641444698280763,-0.031236803450126513,-0.6778090872973219,0.015387157602966266,50.25337844176637,-0.331166404275938,93.8895858534502,-0.617788005345826,-0.31459616608875096,0.6595833290148809,0.28995657322766544
36.0,0.03503530950305145,0.050989766263959804,-0.012695444292218493,-0.04540550573615089,-9.779329652232862,-0.6641794882440045,0.02500955736842831,-0.8208154078617789,-0.021195064592242012,49.53572905422703,-0.26710654346743057,93.88477264707103,-0.619642466810278,-0.30976229454604837,0.6619110912551205,0.28608692537685276
37.0,0.014926128893870835,0.04988799629122209,-0.01950760437857213,-0.02974109132173649,-9.779485614646887,-0.6612026473478083,0.0012424578956836962,0.264505490513555,0.04113097832855897,49.56385987081551,-0.17416427083765795,93.87248104959798,-0.6196857215115141,-0.30886548534035646,0.6622594330591397,0.286286777370262
38.0,0.009508122701671092,0.048033084299213324,-0.02307445421961552,-0.02306412046734628,-9.779919354838693,-0.65362224782386,0.03245080412419122,-0.1318692396313364,0.022854480868593773,49.609282994111624,-0.13586345889773307,93.83102038530465,-0.6197843432823744,-0.30852358501067106,0.6621737413976057,0.28665157885124287
39.0,0.003808514066578584,0.04864616029132157,-0.024580720354913918,-0.020613601452311135,-9.779999999999983,-0.6512488479262666,0.04140073636041378,0.0010383433770530422,0.011324495397076043,49.621159754224266,-0.12523739701159056,93.81875,-0.6198049993002372,-0.30835920725219923,0.6621748239178893,0.2867589676043849
40.0,0.002705036898585286,0.0498237891141117,-0.024394046813401668,-0.01998882837592516,-9.779999999999983,-0.6503317972350222,0.025994368534691115,-0.01971079995273544,0.015413887188080736,49.622302227342544,-0.12333298422008099,93.81388248847927,-0.6198188552837589,-0.3082919646376202,0.6621769344474244,0.28678199166624774
41.0,0.0037399697077116433,0.050108633302181696,-0.022590678139065245,-0.019745566261695303,-9.779999999999985,-0.6526997518610416,-0.05754849988720957,-0.017297353184449957,0.049906075107688005,49.63334293394777,-0.12281280547409579,93.82140420063807,-0.6197570847834959,-0.3083482333457511,0.6622050805140347,0.2868312329922873
42.0,0.00351567787051658,0.05220054139408978,-0.015327242649823297,-0.019951124144672542,-9.779999999999985,-0.6614342431761784,-0.017747575005639525,-0.06849669148056245,0.05713023535604181,49.592452440033085,-0.12451124144672532,93.85915012406947,-0.6196311856062109,-0.30823505922941563,0.6625365889363862,0.28648750854417626
43.0,0.004203473945409429,0.04910173697270471,-0.008282878411910671,-0.02000000000000001,-9.779999999999985,-0.6712009925558311,-0.0001240694789081901,0.00027915632754342556,0.08253722084367246,49.583560794044665,-0.125,93.93259925558313,-0.6193603192208434,-0.3082911154888339,0.6628739966203474,0.28624285828287854
44.0,0.006375516956162119,0.04815068802165576,-0.003497405819986466,-0.02000000000000001,-9.779999999999985,-0.6760843672456573,-0.08182382133995036,0.0237940822618242,0.0804158207384014,49.561758402887435,-0.125,93.96932382133994,-0.6192410742487408,-0.308282684112941,0.6630596464382283,0.28608775201533976
45.0,0.002999172870140613,0.04715722986690728,-0.0012822016692984432,-0.02000000000000001,-9.779999999999985,-0.6785260545905705,-0.006327543424317621,-0.07564948492367847,0.006119821039175875,49.60926009474396,-0.125,93.98768610421837,-0.6190191173303257,-0.3085865950763215,0.6630308551967816,0.2863204523153622
46.0,0.006335814722911498,0.04920640649672907,0.006917211820437628,-0.02039702233250621,-9.779999999999985,-0.6796625310173695,0.018331265508684857,-0.13390104519136775,0.03948981126400482,49.60819704489059,-0.12698511166253101,93.9931141439206,-0.6189243434840215,-0.3086811344612376,0.6630768441120383,0.2863093864033385
47.0,0.0020860215053763445,0.04898037446424541,0.009155876381682833,-0.01773697270471465,-9.779999999999985,-0.6784119106699753,-0.012499999999999999,0.06037578013384465,-0.05426253853673208,49.67477159936837,-0.09423076923076923,93.97940446650124,-0.618835081689902,-0.3087708118261522,0.662985521492744,0.2866264758493119
48.0,0.0007290021806150842,0.04541003082938567,0.00523580720354914,-0.018868486352357328,-9.779999999999985,-0.6745138732235512,0.010088634483795773,-0.045918396120009024,-0.033709301451236934,49.709281242950595,-0.07735732009925558,93.95695541018122,-0.6189096572728026,-0.30885266252447546,0.6628009204905632,0.286831285032258
49.0,0.0026916309496954663,0.04909887961500863,0.009042334010075946,-0.019434243176178673,-9.779999999999985,-0.6625671103090458,0.09590194751485073,0.11773159636062862,0.040484246935859836,49.72653394992105,-0.06892059553349876,93.88120723362658,-0.6192882608069781,-0.30879474936897505,0.6623297750408302,0.28715268215926004
50.0,0.0035741033160388005,0.04945018422437777,0.009203549139033011,-0.01971712158808934,-9.779999999999985,-0.6601669298443488,0.011629633807053168,0.1931244830438379,0.06645800436123017,49.73978682607715,-0.06470223325062034,93.86715448529964,-0.619345963842695,-0.3088337085678623,0.6622036569745099,0.287280422652831
51.0,0.0031654635686893754,0.049947176479434544,0.013327581021129412,-0.019846153846153854,-9.779999999999985,-0.6597608842770127,-0.015959376644860513,0.08799369313482217,0.029530180840664704,49.747188698398375,-0.06253101736972705,93.86916967441161,-0.6193423589833822,-0.3088685305568841,0.6621721002887443,0.28733375225941793
52.0,0.006112685701395381,0.04859003630777822,0.019245853608756844,-0.027889400921658994,-9.779999999999983,-0.6446397473494245,-0.04510083330647846,-0.12676263588561976,0.07418772423812746,49.49905739421868,-0.13254608294930875,93.77526633312924,-0.6204616518199435,-0.3079122007640855,0.6620367509777645,0.28623230989185
53.0,0.007223520160628975,0.05027191519361715,0.02277622191241595,-0.032495494875851176,-9.779999999999983,-0.6422065108699677,-0.12128830711296407,-0.1298784692828837,0.06324563623966308,49.4354967673155,-0.1779274709402297,93.76155010131899,-0.6207044636051469,-0.3079054798358368,0.6619301346044116,0.2859470405372499
54.0,0.01315360533183716,0.047904135655309224,0.011890930717092253,-0.036570328083086884,-9.779999999999983,-0.6511615304932585,-0.16262268577694972,0.033768844913411894,0.09821899076439128,49.30262741591581,-0.21698792901850195,93.8173435896474,-0.62073480518576,-0.3076108185996238,0.6624001882129511,0.2851355688021989
55.0,0.021459885427559222,0.04918473459163067,0.0047364447776090364,-0.03655840882332711,-9.779999999999985,-0.6556055791424105,-0.09633925852122921,0.6745393268502251,0.03299232270667382,49.428590747806105,-0.22086350910128133,93.84645095115124,-0.620272872328685,-0.30842114558487965,0.662192302238719,0.2857368129429181
56.0,0.0024539156567436153,0.042179477218676494,0.010989840259304752,-0.03276728295303803,-9.779999999999983,-0.6518186848493723,0.2615148209789833,-0.30565932098641146,0.08810366814681517,50.0310906053196,-0.19591270359224888,93.8205197719758,-0.6188619153391905,-0.3115906363899153,0.6605774924821459,0.289013735559818
57.0,0.06888065069174208,0.06078042238066716,0.02323056591368526,-0.044201613826749406,-9.7803487358326,-0.6378243380654883,-1.4652718272736172,2.5298028279860567,0.19091476843634192,50.519536304029835,-0.25866518851302567,93.73827357075561,-0.6180327404103476,-0.31497791211244425,0.6584208580186914,0.2917868151766584
58.0,0.0021067863168001202,0.042642240457898516,0.005533481604675728,-0.04513663865878217,-9.763018529660965,-0.8055153073619974,-0.715027736892181,1.7754582250083741,0.3077298756908394,52.75358435326672,-0.26574828386842597,94.71681626621081,-0.6064786167371097,-0.33036053248667785,0.6571346460927948,0.3008598546209194
59.0,0.0165316084914541,0.06541258790106208,0.04027470058449118,-0.07928721333860772,-9.751232767134631,-0.9475435076120141,-0.08713220038297081,-0.003051242893103767,0.05080496018866787,53.993583651287736,-0.46063911889273834,95.54896461962963,-0.5984627137701748,-0.3420340310822581,0.6567273423548738,0.3049605242617933
60.0,0.036597040667364425,0.04917182897239393,0.029445919442205717,-0.09493906496482403,-9.741455560752922,-1.0482972330018931,-0.6512902119259407,0.4574576256040214,-0.03210897557489028,54.03660349891065,-0.5554347606811407,96.13834977124539,-0.5949826881261151,-0.34497930570733515,0.6592176049072587,0.3035425182247284
61.0,0.03989411877904306,0.04735223715057493,0.032008586286731935,-0.09176356023983803,-9.734921328763562,-1.1032330680161615,-0.3295245080409396,0.0899486602687444,-0.06402880798170527,54.054748416889545,-0.5330791147959233,96.45954421708599,-0.5930526410189862,-0.34579529229506506,0.661011660055557,0.3027526900982133
62.0,0.03621558598062877,0.04547646731112007,0.03414727483473476,-0.09144629624895123,-9.731643314774114,-1.1299382428136608,-0.10779298636571827,0.038925943037598026,-0.05732499684176806,54.03618796171417,-0.5194820159855815,96.62239961508178,-0.5921850869894412,-0.3460068522831035,0.6620156862657904,0.3021565408620971
63.0,0.037581895670914106,0.04628094151562364,0.03418631347370542,-0.0914364602553252,-9.730551325719638,-1.1378269133195975,-0.08560083211970602,-0.001465015759710757,-0.03683350023823977,53.97273107763127,-0.5134325118546718,96.67193072530554,-0.5920849597577831,-0.3457158921183804,0.6625070104432085,0.3016485198972002
64.0,0.035369820575620124,0.04556088904919785,0.03259528364220543,-0.09037721630277776,-9.730102851799916,-1.1399434105768496,-0.0913514617883181,0.018070664753962414,-0.018240615769598442,53.937258395958494,-0.5044121084618981,96.68592215988778,-0.5921049384226706,-0.3454462561790058,0.662744804159392,0.3014087762458352
65.0,0.035127388800414806,0.045903003592459524,0.032047488981889576,-0.08989407799711113,-9.73000000000001,-1.1400722195474247,0.0031080735435724607,-0.006450426604570199,-0.021700773235250548,53.93736458834857,-0.5,96.6875,-0.5920989001650523,-0.34540085921386,0.662779945499518,0.301396307402955
66.0,0.03500108560794046,0.046678660049627785,0.032943858560794057,-0.0895235732009925,-9.73000000000001,-1.1400000000000003,-0.02443296370967742,0.1228316919975186,-0.011406153070719603,53.949402915632746,-0.5,96.6875,-0.5920646859109031,-0.3454570464836383,0.6627517889720841,0.30146190499387415
67.0,0.028916020471464035,0.04612228598014888,0.03295921215880894,-0.08460049627791563,-9.73000000000001,-1.1432555831265512,-0.07099779001240694,-0.01842916408188585,0.039607727202233246,54.072735732009924,-0.5,96.7073511166253,-0.5916791960049628,-0.3460153896029775,0.6625389232952856,0.3020514469081885
68.0,0.024124069478908203,0.04605459057071959,0.04128039702233251,-0.0821389578163772,-9.73000000000001,-1.1467890818858562,-0.0375,-0.026923076923076918,0.024813895781637715,54.13415012406948,-0.5,96.72968362282879,-0.591449595905707,-0.34630520915632745,0.6624708300347399,0.302320062808933
69.0,0.024630272952853614,0.04443672456575682,0.046243176178660035,-0.08090818858560797,-9.73000000000001,-1.1485558312655086,-0.05471464019851116,-0.04395161290322581,0.0005893300248138965,54.16485732009926,-0.5,96.74084987593052,-0.5913347958560791,-0.34645011893300237,0.6624367834044671,0.30245437075930515
70.0,0.02722580645161292,0.045128402651753635,0.03409844079848894,-0.08391341061442166,-9.733697640828124,-1.138115180919225,0.11952149920373317,-0.5087200474056516,-0.07917854894263175,54.02373523202844,-0.5105922002888782,96.67421345505721,-0.5920738792978034,-0.34564239702788785,0.6624338652795085,0.30193192003540614
71.0,0.02501847256685967,0.04889670752935076,0.02230976630495167,-0.09521532124324614,-9.737010110736644,-1.1188425366961714,0.17257436967355116,-1.020240917003074,-0.04714372718705891,53.659889397100514,-0.5648839137645107,96.55630475620244,-0.5936913892899275,-0.34394360149354136,0.6625281849656436,0.30041911205630245
72.0,0.03150706081859418,0.04662150716893791,0.006732740999445479,-0.10153607423187502,-9.738666345690906,-1.0943924434390135,0.21007920699932361,-1.5859158628320715,-0.11820670842170172,52.11238228140488,-0.5956324120302889,96.41315123088344,-0.5984778568174373,-0.3349998717593136,0.6660991648378306,0.2927764692381515
73.0,0.03533057935380748,0.04792646185936376,-0.004830522368979388,-0.10737392771902309,-9.739494463168036,-1.0705833184936995,0.18694658735264846,-0.411847959106905,-0.048038244706049914,50.940029967256905,-0.6286951213961636,96.25992998664321,-0.6022757258561238,-0.3282057876000868,0.6685516326222811,0.28704814660832306
74.0,0.02634956239343452,0.0495689263095708,-0.009130255867226315,-0.10400954450467279,-9.739908521906603,-1.0586787560210427,0.15659241022286013,-0.23158814513697293,-0.03593570039863526,50.66053917717684,-0.6288636897303399,96.18238434816031,-0.6034085693796745,-0.326229987671011,0.6691058216337209,0.28575862959448417
75.0,0.020902053923989992,0.05133769406766965,-0.01117992783440247,-0.10221420893986642,-9.740000000000006,-1.0530803505670927,0.07856474875683939,-0.13137461924857574,0.004080084613422189,50.525683647326986,-0.6286169676384006,96.14586838977587,-0.6039501010331205,-0.3252695932312685,0.6693824753522477,0.28513229623441116
76.0,0.01817617860246922,0.051898995917209506,-0.013156030914719846,-0.1010107783050586,-9.740000000000006,-1.0507202828104272,0.024864036220162172,-0.05527128915282385,-0.003180999532274292,50.46740891595739,-0.6269624936758311,96.13025386334671,-0.6041819052410222,-0.324829803082928,0.6695178384691343,0.2848581709913096
77.0,0.01856706547309634,0.0528663884035553,-0.014158728601926364,-0.10039270687237017,-9.740000000000006,-1.0499999999999985,-0.03753314046091045,0.014991569129016537,-0.0076097815228250015,50.48083216456288,-0.6260226741467976,96.12505843852267,-0.6041738606872364,-0.3248623423655912,0.6694755928050485,0.284935764731183
78.0,0.01761335975852106,0.050802058156896854,-0.014267302589883242,-0.0999999999999999,-9.740000000000006,-1.0499999999999985,-0.0354361588232556,-0.015485164477099963,0.010461413586413585,50.5,-0.625,96.125,-0.6041259799999994,-0.3249511699999998,0.6694335899999995,0.28503418000000014
79.0,0.01844806000451163,0.05054447702834797,-0.01465155274832695,-0.0999999999999999,-9.740000000000006,-1.0499999999999985,-0.018165369576659898,0.019392200541394088,0.015540289683434844,50.5,-0.625,96.125,-0.6041259799999994,-0.3249511699999998,0.6694335899999995,0.28503418000000014
80.0,0.01817834987593053,0.05213151364764266,-0.01737344913151366,-0.0999999999999999,-9.740000000000006,-1.0499999999999985,0.0031715260545905725,0.008176954094292803,0.012121975806451612,50.5,-0.625,96.125,-0.6041259799999994,-0.3249511699999998,0.6694335899999995,0.28503418000000014
81.0,0.01820580024813897,0.05158188585607939,-0.015999379652605467,-0.0999999999999999,-9.740000000000006,-1.0499999999999985,0.0128450682382134,0.007484879032258064,0.012186918424317617,50.5,-0.625,96.125,-0.6041259799999994,-0.3249511699999998,0.6694335899999995,0.28503418000000014
82.0,0.017522254962779163,0.051210297766749374,-0.016175868486352368,-0.0999999999999999,-9.740000000000006,-1.0499999999999985,-0.0035495502481389593,0.015373953163771712,-0.0015678311104218362,50.5,-0.625,96.125,-0.6041259799999994,-0.3249511699999998,0.6694335899999995,0.28503418000000014
83.0,0.018965260545905714,0.05038337468982629,-0.01592059553349877,-0.0999999999999999,-9.740000000000006,-1.0499999999999985,-0.05828939205955335,0.01206575682382134,0.002791563275434243,50.5,-0.625,96.125,-0.6041259799999994,-0.3249511699999998,0.6694335899999995,0.28503418000000014
84.0,0.025263538169610283,0.05086983652021601,-0.01470252517880602,-0.09886148007590123,-9.740000000000006,-1.0533396584440222,-0.04721778754926288,0.3880382425923223,-0.009350824697124508,50.59914611005692,-0.6093453510436433,96.14824478178367,-0.6037474917267549,-0.3254945803984819,0.6693103624478176,0.2855243142694499
85.0,0.03463471798256469,0.04753291516736157,-0.01907417408650806,-0.08925776201083511,-9.743964469378216,-1.0291546352061158,0.3037266242603957,0.30957118552459284,0.0227524835049998,50.948825041938235,-0.5353587437780161,96.01039518191567,-0.6036997839419187,-0.3264596727307978,0.6679155805249839,0.28779621229601526
86.0,0.011209016629418856,0.053038047420468235,-0.015771141494028154,-0.08605096187774833,-9.747797773080748,-0.9987958546316812,0.1592458829895974,1.5613258891310797,0.25971353598938524,51.93113673723445,-0.511574192425128,95.83916510572385,-0.6022184266506505,-0.3314605304249173,0.6642567618004293,0.2934783028813106
87.0,-0.0015743963789612856,0.052085689211929145,-0.004714774255908637,-0.06961793891252249,-9.747606292265047,-1.010295246716114,-0.26849832331490314,-0.4364289367471502,-0.09161249422877224,52.6862635071906,-0.40745111256876576,95.90484493359796,-0.5998733635979285,-0.33486564347006875,0.6629939452959438,0.29723823064556215
88.0,-0.011506217006684938,0.04829771691779253,0.0061526935172069724,-0.04964337805841176,-9.746624651508867,-1.0240228921752612,0.2778532828990001,0.7296165128092205,-0.11819031969503128,52.62237906542326,-0.28869867456395276,95.9886859076592,-0.5995639338548784,-0.33334674803395903,0.6643009673038858,0.29668560024751217
89.0,0.020568216028287553,0.05465227268237757,0.015943359079206413,-0.0476696257959162,-9.74665626032963,-1.0336358414159572,-0.47523060993356125,0.48233149951603016,0.08162171015809677,53.249595078653314,-0.2765116481968012,96.04657543672508,-0.5976137715828431,-0.336991509800046,0.6628366550740573,0.29978582187853997
90.0,-0.010025382401938501,0.051825101144501395,0.0218411111832284,-0.05181170463642068,-9.7437941022479,-1.0538763592306524,-0.007764490166807331,0.002073300015144608,0.04179220484195495,53.79181400229333,-0.3012387767465005,96.16530835550938,-0.5955003349905799,-0.34072891759006496,0.661718150994786,0.30225313069963866
91.0,0.009815949343255116,0.051266750751530366,0.023677226392355886,-0.06250346765276343,-9.743110258879641,-1.0606057999844454,-0.08520469372468466,-0.9387358121410825,0.08200507315909406,53.26033287636309,-0.36064255044945637,96.20678579176308,-0.5966720585876066,-0.33847657675898013,0.6631290613602687,0.2993789425407768
92.0,0.024406939788493637,0.04774781830574651,0.018055989136407134,-0.08943841664732172,-9.741510957598742,-1.0644174438864118,-0.003486604018180583,-1.5751626205942426,-0.04660284481274939,51.95562298571045,-0.5184567187100126,96.22923847112511,-0.5999044428023095,-0.33279733885452667,0.666094971546912,0.29249178317583546
93.0,0.04261115038579827,0.050065921441659736,0.010908178900000802,-0.09478587499032746,-9.74251062472871,-1.053049889377922,-0.07677786422107186,-1.0370206344138648,-0.07449957908840235,50.56707608578917,-0.548423827864991,96.16503590222922,-0.603761832764903,-0.32487765816950614,0.6695458681344393,0.28537230754951526
94.0,0.016230439738865354,0.04485308997008563,0.012145959495502111,-0.0978573803874718,-9.741150814408883,-1.0587143158703096,-0.04228916911271269,0.04653326033923055,0.07969183976947578,50.34731311630084,-0.5634749354898608,96.19346247599137,-0.6041385632092331,-0.3239630663466151,0.6702449080592991,0.28414803313091863
95.0,0.019765343938911592,0.04609510223424522,0.016767946071749647,-0.09962684687576348,-9.74055697402472,-1.0643248998706385,-0.04552091387220179,0.0028339378619229375,0.08544588443631534,50.26658570561586,-0.5667317073762668,96.22138561587587,-0.6041112895401006,-0.32383596670556547,0.6705772410066078,0.2837140159479479
96.0,0.022247536834320666,0.045854874569607344,0.01920132264354702,-0.10024062483282503,-9.740234895033288,-1.0672539930913785,0.02664832684768289,0.051588612348572635,0.044602846315803704,50.26059505420287,-0.566877187602693,96.23600612528753,-0.6040294372395363,-0.3239066322804198,0.6706748883760153,0.2836209378453777
97.0,0.024284610711067148,0.04504539101566063,0.024887399673028,-0.09988733750601818,-9.740115207373279,-1.0686785198431799,0.04030134450888544,0.29418766516744366,0.039429610270968,50.3281161874957,-0.5630364880665795,96.24311506981223,-0.6038534380923163,-0.3241952340371226,0.670591724484521,0.2838502540721676
98.0,0.011202213189634956,0.04510599930081152,0.03786571330691456,-0.09529106329395198,-9.740000000000006,-1.0736886041257723,-0.12132952093946014,0.1589258513713858,-0.06198937777837634,50.63667861838451,-0.5627106403466537,96.27478334135773,-0.6028989067118795,-0.32575659834309145,0.6700475426956455,0.28535986864597396
99.0,0.009147901157981805,0.043104016279419496,0.04213570099255583,-0.09249627791563267,-9.740000000000006,-1.07710669975186,-0.07234951288630724,-0.03708044307842694,-0.07647356004210844,50.76605536600496,-0.5625,96.29516129032258,-0.6024389483243852,-0.3264474940369951,0.6698464300572404,0.28604080297511114
100.0,0.009467361934125899,0.0454386790037518,0.04005603611903263,-0.09108684863523564,-9.740000000000006,-1.07871464019851,-0.0529801525395945,0.059843912381752414,0.01811205891083719,50.82960026364764,-0.5625,96.30483870967743,-0.6022172998073536,-0.32678024734107813,0.6697473134157164,0.286374261648846
101.0,0.011187814031579082,0.04569060966316623,0.039677715640161475,-0.09038213399503714,-9.740000000000006,-1.0795186104218348,0.01589588643181565,0.012091815061843952,0.002881634294128273,50.861057692307696,-0.5625,96.30967741935484,-0.6021064755488379,-0.32694631633182936,0.6696980627058416,0.2865409909857134
102.0,0.013609547289494336,0.04465371147869944,0.038279718035134504,-0.09002977667493789,-9.740000000000006,-1.0799205955334974,-0.019315619833945547,0.006595760903355993,0.0019753968147083207,50.87558933002481,-0.5625,96.31209677419355,-0.6020527489181137,-0.327025854918114,0.6696753371960287,0.28662102946402007
103.0,0.013236535431347667,0.04446333216614873,0.03597112452625212,-0.08999999999999991,-9.740000000000006,-1.0799999999999987,0.0027646466587096085,0.003142793603042761,-0.004843567101330703,50.875,-0.5625,96.3125,-0.6020507497121583,-0.3270264002878411,0.6696776997121578,0.2866211202928042
104.0,0.01347148976244427,0.04385652509503015,0.03523986709807606,-0.08999999999999991,-9.740000000000006,-1.0799999999999987,-0.0006737523154305178,0.017854106027778996,-0.00502912244832683,50.875,-0.5625,96.3125,-0.6020507799999995,-0.3270263699999999,0.669677729999999,0.28662109000000024
105.0,0.017768077017068964,0.04315295792916761,0.03694621776073389,-0.08999999999999991,-9.740000000000006,-1.0799999999999987,0.023529832482705463,0.0725096518065268,-0.016230719884953757,50.8764888337469,-0.5625,96.3125,-0.6020473876029773,-0.3270321856625309,0.6696748222084358,0.2866264212158811
106.0,0.022535977904297608,0.04440801182447786,0.03317791148027066,-0.09184882041405867,-9.743928743379879,-1.0541165142031772,0.1596483098830234,-0.11775947131026572,0.0021843887936810417,50.82807951557349,-0.549019017814155,96.16998675974963,-0.6030618505227214,-0.32637337604984984,0.6690034513762447,0.2867713940094812
107.0,0.017991652385489658,0.04722724074192537,0.02727299213384915,-0.09608570052960994,-9.747125662012518,-1.0412518054886857,0.08908565956591954,-0.027858606246906677,0.013964872793712467,50.753276730491464,-0.5557595089070775,96.1122111218103,-0.603604605484686,-0.3259002057296394,0.6688103913432095,0.28658865316106796
108.0,0.021499548277112084,0.04648210672332001,0.024281657357247164,-0.09359868153031362,-9.748724121328841,-1.0394249101885114,-0.017243770713318146,0.1419019623852315,0.04099298230256343,50.868728935965336,-0.5353084145031666,96.08332330284063,-0.6035255843949482,-0.3263169225645715,0.668410954408578,0.2872247369899634
109.0,0.018274212066219778,0.044910163821093044,0.022996156146854282,-0.09179934076515678,-9.749523350987001,-1.039067293803933,-0.037871030029190844,0.06858355695019151,0.004000889978261188,50.96863866153106,-0.5166461427354543,96.0688793933558,-0.6033867215523125,-0.32670314563712444,0.668130783494612,0.28774196897885285
110.0,0.0183277970625106,0.046088362608343335,0.022683655936424366,-0.09089967038257835,-9.74992296581608,-1.0388884856116438,-0.004512908051665876,0.01756636679000665,0.038540786368181645,51.018546998259325,-0.5073150068515981,96.06165743861338,-0.6033173961434016,-0.32689607543394683,0.6679907889061154,0.2880004183728012
111.0,0.015956387698323193,0.04581126400481238,0.019835476351605395,-0.09039205955334981,-9.75,-1.0396079404466496,0.0327816001203098,0.01063519813519813,-0.004370629370629368,51.04503722084367,-0.5030707196029777,96.0625,-0.6032509784665008,-0.32701321900248137,0.6679417265161298,0.28812519597022357
112.0,0.01667478757801339,0.045718475073313766,0.020982780660200026,-0.09003473945409421,-9.75,-1.0399652605459053,0.011239566884728176,0.020469584179261598,0.004254079254079254,51.0598635235732,-0.5005272952853598,96.0625,-0.6032166595186099,-0.32707628345905704,0.6679127382779164,0.2881955606203477
113.0,0.015995112414467258,0.04691209865403413,0.020776900518836017,-0.08999999999999991,-9.75,-1.0399999999999996,0.0050990675990676,-0.022494172494172494,9.493194977065961e-05,51.0625,-0.5,96.0625,-0.6032104499999994,-0.3270873999999999,0.6679077100000008,0.2882080100000003
114.0,0.015457853973983013,0.04665786901270771,0.022101135423716084,-0.08999999999999991,-9.748332506203475,-1.0415086848635229,0.011406402737047898,-0.014659936837356193,0.013966275659824048,51.0625,-0.5,96.08036600496277,-0.6031140050967739,-0.3271276258263026,0.667995917086849,0.2881551826848637
115.0,0.013801752011429438,0.04877859237536657,0.0236654259718776,-0.08999999999999991,-9.749166253101738,-1.0407543424317613,0.04756842619745845,-0.06231530566207986,0.03155852883675464,51.05191532258065,-0.5,96.07143300248138,-0.6031425372258061,-0.32709717718734466,0.6679833180595536,0.2881397561004962
116.0,0.012367669174595171,0.0455143874152413,0.027643397557534193,-0.08999999999999991,-9.747837396000586,-1.0411361844986131,0.12785661128877446,0.05954260990432716,0.06394650277774092,51.115082424098674,-0.5009487666034156,96.07835170048168,-0.6029235505388992,-0.32751432411549386,0.6678195087166836,0.2885023372437965
117.0,0.019840726082898757,0.04819428349954913,0.028875043283724512,-0.08616589861751145,-9.748918698000292,-1.0166049586087533,-0.043753058690202906,0.20346082108119584,0.025768636111674535,51.19708614292491,-0.4871103280021686,95.94001110369706,-0.6035377300021686,-0.32737421822364554,0.6669703051002775,0.28933488562189824
118.0,0.02294054178743457,0.04529480967324894,0.028925442323331333,-0.08395391705069122,-9.74562524761766,-1.0339798986592157,-0.07433472303313385,-0.1748183431250912,0.018444819382467628,51.124263117545404,-0.48157359718080783,96.04595601267803,-0.603106322480347,-0.32708050076159234,0.6677972322137333,0.28865083922108736
119.0,0.014189727907291947,0.046264832949308735,0.0261538611412307,-0.08022174030902682,-9.74786473298997,-1.0369428029276229,-0.14462612666034155,0.17313582186907023,0.12645073402344809,51.314918560670236,-0.45947750067769044,96.08592775820006,-0.6024433390428301,-0.32802729097078287,0.6675282111059909,0.2895683903028513
120.0,0.019723095689888864,0.046525887774464605,0.020868528056383853,-0.08404825155868795,-9.748932366494987,-1.0384714014638114,-0.08122628083491461,-0.3960448292220114,0.07143534833288154,51.02964726213065,-0.49634216589861757,96.10647194361616,-0.6030999100716997,-0.3267029460479802,0.6682631670805093,0.2880120840536732
121.0,0.02832592661522964,0.04684559986729405,0.020639169293138547,-0.0874863308828586,-9.749520737327188,-1.0392119815668202,-0.09686517601744597,-0.2778880738621881,0.07178939100917209,50.781867355753086,-0.5236590074161586,96.11638824884793,-0.6036920369575626,-0.32555702056222413,0.668863292431614,0.2866986481197591
122.0,0.03351242567320622,0.0462998422461732,0.020629806682597767,-0.09402427143221265,-9.749760368663594,-1.0403548387096773,-0.1345055875897871,-0.18348826958016543,0.08691279702671982,50.52143875747436,-0.5445051949523189,96.12577764976959,-0.6043037913564517,-0.32436918132223747,0.6694849641879478,0.2853101688565559
123.0,0.035454369518630756,0.046253607759031305,0.02428725357171364,-0.09730245829675144,-9.746290322580649,-1.0436290322580637,-0.12962318549996266,-0.2297481670481472,0.13300132938893594,50.338009125280955,-0.5548850859554221,96.13155241935483,-0.6046854445422809,-0.3235391687648055,0.6699663921700105,0.28429880965638854
124.0,0.03749782762056545,0.04480921144664808,0.029674605452983505,-0.09902362004021625,-9.742983870967747,-1.048070625610947,-0.18267338189379134,-0.11421506808505344,0.07846446781102252,50.209460563589246,-0.5606790230536123,96.13658510508307,-0.6049020826336127,-0.32296980042733975,0.6703470323811497,0.2835506947805402
125.0,0.03621406488311882,0.04205491224791899,0.03737021762942562,-0.09970630717380827,-9.741330645161295,-1.0595191837732152,-0.09556600053673658,-0.028075960184695745,0.04143195839828604,50.15709033872062,-0.5620787193066923,96.1953086815738,-0.6045958890354972,-0.3228816741605387,0.6708744162688483,0.2830526877489037
126.0,0.03679865497405821,0.04333366700503798,0.04367307222347545,-0.0999999999999999,-9.74050403225807,-1.0658886241446721,-0.1000594205861343,-0.016670984425520716,0.035671443811564785,50.13412412939883,-0.5625,96.22920676014175,-0.6044074085439881,-0.32286165800708666,0.6711462507523827,0.2828015436890882
127.0,0.03528104791713664,0.04165217074592076,0.04851542174223626,-0.0999999999999999,-9.740090725806457,-1.0735894733626579,-0.04320236425201143,0.007503339654297314,0.011710966285059028,50.126858618951616,-0.5625,96.30613563813537,-0.6041283513247799,-0.32295635661840166,0.6714466196870412,0.2826096015928333
128.0,0.036749990600797054,0.043621249718023905,0.058762613730355656,-0.09999999999999988,-9.740000000000006,-1.0773264907135864,-5.0461970824876995e-05,0.015177832919768403,0.011849457665989924,50.125,-0.5625,96.34439531402737,-0.6039714236462611,-0.32302705450879754,0.6715902509549112,0.28254036732111415
129.0,0.0394316912925784,0.043421911421911416,0.06518892397924654,-0.0999999999999999,-9.740000000000006,-1.079112903225805,0.008725426958793893,0.05197900218061508,0.0029545807015565083,50.125,-0.5625,96.36347026209677,-0.6038768406794359,-0.32308191028225797,0.6716583576915311,0.28252785010483844
130.0,0.03996398460410558,0.043089367621625685,0.06535004511617414,-0.0999999999999999,-9.740000000000006,-1.0797177419354824,0.006014388417362208,0.0386600966238063,-0.00011234984773291238,50.125,-0.5625,96.37125126008064,-0.6038415354687505,-0.3231049528830644,0.6716810304586682,0.28252743243951584
131.0,0.04050126184299571,0.043533595101135414,0.06563059017595305,-0.0999999999999999,-9.740000000000006,-1.0799999999999987,-0.03699479284156704,0.017998724645650045,0.0009286265649672907,50.125,-0.5625,96.375,-0.6038247380645168,-0.3231161819354838,0.6716918899999988,0.28252780193548355
132.0,0.03987970900067675,0.043641110233852164,0.06262597751710652,-0.09999999999999988,-9.740000000000006,-1.0799999999999987,-0.031331126870441386,0.021250305474095794,0.014291311846755396,50.125,-0.5625,96.375,-0.6038217845161296,-0.32311913548387083,0.6716918899999988,0.28253075548387063
133.0,0.03988725477031928,0.043696340621743844,0.06167990678676161,-0.0999999999999999,-9.740000000000006,-1.0799999999999987,-0.0009155285238954605,0.012459451950379369,-0.0018338278544931764,50.125,-0.5625,96.375,-0.6038208000000005,-0.3231201199999999,0.6716918899999988,0.2825317399999997
134.0,0.039676765215071665,0.04312548439463762,0.06387747501154757,-0.09999999999999988,-9.740000000000006,-1.0799999999999987,-0.027005812987415813,0.0033676686776485166,0.012357110435487453,50.125,-0.5625,96.375,-0.6038208000000005,-0.3231201199999999,0.6716918899999988,0.2825317399999997
135.0,0.04054798248346635,0.042234539653894496,0.06511619563232465,-0.0999999999999999,-9.740000000000006,-1.0799999999999987,0.01771534916696207,0.004251975622943364,0.013173699060795836,50.125,-0.5625,96.375,-0.6038208000000005,-0.3231201199999999,0.6716918899999988,0.2825317399999997
136.0,0.03986208057175798,0.04121156263091748,0.06636206803948738,-0.09769727047146395,-9.740000000000006,-1.082937965260546,0.05234402694080113,0.1972097347097347,0.022421216776055485,50.221277915632754,-0.5625,96.375,-0.6035804148883378,-0.3235698707096773,0.6714825245607935,0.28301686984615354
137.0,0.04457568406714516,0.04198925552625742,0.06842800084166306,-0.0999871551598307,-9.740000000000006,-1.0832147131805572,0.022299680079566227,-0.19685866263190738,-0.027642102784417772,50.08253174719019,-0.5814753320683111,96.375,-0.603922511277186,-0.3229350040075901,0.6717748321760324,0.2823077962323746
138.0,0.03581953074821749,0.04178055985382728,0.06697187005881672,-0.09999357757991528,-9.740000000000006,-1.0859212708897499,0.0015219999774221098,0.12346140700473165,-0.007290006539666682,50.199095676195,-0.573432056982639,96.375,-0.6036365665678176,-0.32347658355410785,0.6715203726624028,0.282915337495099
139.0,0.03331163769533592,0.04323086944492252,0.06592668245402675,-0.09999678878995759,-9.740000000000006,-1.0881219257674566,0.013496450022548186,0.07716114000135071,-0.003561115383526099,50.29108009616202,-0.5679660284913195,96.375,-0.6034136639290698,-0.3238968911318926,0.6713226164924921,0.2833850819733557
140.0,0.03066574440598062,0.04110923124851585,0.06713579780269574,-0.09999839439497873,-9.740000000000006,-1.0892222532063098,0.008795371413259204,0.05612864692375228,-0.001493647021787864,50.33707230614552,-0.5652330142456596,96.375,-0.6033022126096959,-0.3241070449207849,0.6712237384075368,0.2836199542124841
141.0,0.030660415627307938,0.04205833770862517,0.06749593860358111,-0.10007115749525605,-9.740000000000006,-1.0896806055113446,0.008538504565190397,0.016014075322918323,0.031014963089602346,50.357059726273754,-0.5638665071228298,96.375,-0.6032539989847484,-0.32419806710555366,0.6711808420350344,0.2837222300243559
142.0,0.034638111326965454,0.039811081912791105,0.07249926307443158,-0.10172043010752688,-9.740000000000006,-1.0926840868968954,-0.05620338801986009,0.13599619153415193,0.07096046369073873,50.391955180111175,-0.5743204797128725,96.39210654936461,-0.6030512534237897,-0.3245716226152229,0.6711293274511612,0.2838532226853997
143.0,0.030125988740035456,0.04095753903054096,0.0875784712098205,-0.11149093243460119,-9.743081367356766,-1.0601696794619286,0.5533107999717743,-0.11178344010196592,0.240869615571898,50.33397710859194,-0.6449178229089159,96.20107855152389,-0.6042412681322126,-0.3245939988064078,0.6699512480130143,0.2840665729989348
144.0,0.04892322075432719,0.03729341311294544,0.09626396282201484,-0.11451258950497184,-9.755751907717265,-0.917700836195834,0.8304148751549955,0.8914843379387515,-0.1478087168070011,50.149450993535915,-0.6624804536550766,95.36846349140491,-0.6095338809839146,-0.3216923328123953,0.6659251783989067,0.2853688353372933
145.0,0.050657823921131766,0.039793069238752865,0.09751233243840465,-0.0910653977131576,-9.760036802289914,-0.8824540416065338,-0.2044186636984634,-2.675887331072052,-0.0169161323899124,49.98206641590185,-0.52720520694243,95.16249621764236,-0.6110417993585061,-0.3185857023076558,0.6660012025048001,0.2850054291313068
146.0,0.01399144297793561,0.04043924996854339,0.08238998401431044,-0.06087832097639448,-9.760340981790115,-0.8827800161949725,-0.24615872922604845,-0.9239326765250369,0.09836797067140324,48.748118461407145,-0.3586774882638417,95.16367898439722,-0.6140759194810963,-0.3093787221906943,0.6703450040265935,0.2784164194320128
147.0,0.010450478495722886,0.04225917065766427,0.06814316901070054,-0.049417655111853157,-9.760493071540218,-0.8779944127603891,-0.18329423600387057,-0.5744886333121968,0.08889447796055389,48.00583596834966,-0.2989318526363197,95.12460654950738,-0.6160921960362692,-0.30424630446285694,0.6725408987795753,0.2745186447160429
148.0,0.002587855447261464,0.04212814093788365,0.0648316304295753,-0.040470910441745625,-9.760472823685369,-0.8892897881364252,-0.21352940939855025,0.0382563592447942,0.07772494165795554,47.82375957337523,-0.24420454710998235,95.19620039893427,-0.6161772030287271,-0.302772296943032,0.6736684910810216,0.2733814633916499
149.0,-0.0022414065841295594,0.04219354461830108,0.06846037825228042,-0.03383245036006858,-9.760114891736627,-0.9016599183722331,-0.14988777142486062,-0.013966291637672913,0.062132933795088115,47.815464629816205,-0.20796727576444765,95.2659498459541,-0.6158442329262066,-0.3025230987631643,0.6742195699395388,0.2731659723873848
150.0,-0.004971038109699642,0.04296712820160099,0.06465263720391307,-0.0312931584544488,-9.759999999999994,-0.9067203701450199,-0.010422233038987976,0.12131977916161836,0.03573670551884322,47.813664705540006,-0.19435040765685926,95.29425143645474,-0.6157133225015483,-0.3024502433453472,0.6744298262777679,0.27308993117822616
151.0,-0.005775841635494983,0.04251351801785119,0.06390235546831598,-0.030600496277915654,-9.759999999999994,-0.9086896781600666,-0.016847061219954815,0.05428028128587831,0.03970014999444465,47.84871023295433,-0.19069478908188586,95.30514703159142,-0.615576612259991,-0.30265299266345713,0.674400398525981,0.2732521389047813
152.0,-0.00825620347394541,0.04325868486352358,0.06299069478908187,-0.030138957816377196,-9.759999999999994,-0.909826302729527,-0.04419975186104219,0.05833204094292804,0.007141749379652604,47.87013027295285,-0.18808933002481387,95.31181761786601,-0.6154928169677427,-0.30277060219354857,0.6743849520843677,0.2733520460099255
153.0,-0.009865074441687348,0.044742245657568236,0.060321650124069474,-0.030000000000000027,-9.759999999999994,-0.9099999999999985,0.006847084367245654,-0.010070952233250618,0.0018261476426799004,47.875,-0.1875,95.3125,-0.6154785200000006,-0.3027954100000002,0.6743774400000004,0.27337645999999993
154.0,-0.00858762406947891,0.0435299317617866,0.06233204094292803,-0.030000000000000027,-9.759999999999994,-0.9099999999999985,-0.016613678660049633,0.056115268300248135,-0.007492633374689826,47.875,-0.1875,95.3125,-0.6154746426004967,-0.3028012259007446,0.6743755015781643,0.2733822761389576
155.0,-0.0097403161947161,0.04246442581374981,0.06530833546197634,-0.028102466793168905,-9.759999999999994,-0.9156925996204925,-0.004974296635527663,0.8382915416088892,0.06199134934681068,48.084203036053125,-0.1737428842504744,95.34855313092979,-0.614725627448256,-0.3039004264133704,0.6741448398213401,0.27438511949262867
156.0,-0.0324890570501746,0.042509031936725644,0.08132055103623612,-0.015801353762496827,-9.759999999999994,-0.9231688804554075,0.02931202115744079,0.5436400929186719,0.008542260042928691,49.02389617378005,-0.09588383981421167,95.39504269449716,-0.6121465242970698,-0.3085692590636906,0.6723183599780753,0.2792765705840611
157.0,-0.04341378725363726,0.04053575177027105,0.08080769102855037,-0.012505402006191622,-9.759999999999994,-0.9257439131945367,-0.026418850498412375,-0.13749914411837355,-0.04126040284821028,49.250901971487934,-0.07444975725376643,95.41328974797551,-0.6114898005492619,-0.30964892659000065,0.6719427333193422,0.28046259947194885
158.0,-0.013892547874887692,0.03973342421543992,0.06382395285184901,-0.021761560612364336,-9.759999999999994,-0.9105298393778225,0.04187096257167068,-0.9106347414424216,-0.10921054310118374,48.43664476130053,-0.12597715032156745,95.32200436967153,-0.6139455952587292,-0.3053285759278945,0.6733606349922475,0.27634096014033616
159.0,-0.007220655469889894,0.04272294189943361,0.05253157188422963,-0.031042070628762825,-9.759999999999994,-0.8999423390437502,-0.04683935140835219,-0.5818583700444682,-0.05044706416657803,47.84008435523482,-0.1567385751607837,95.27912901768033,-0.6156858774100253,-0.30217551037638424,0.674462384718922,0.273217563310938
160.0,-0.005239533180564056,0.043058181892158306,0.054906451885911686,-0.03574162354967554,-9.759999999999994,-0.8944706951385737,-0.09525250829957985,-0.32395953425870283,-0.05493390413533564,47.52842393757946,-0.17254919744756453,95.26242978398248,-0.61659222838872,-0.3005193972198703,0.6750571895368798,0.27156447740736644
161.0,-0.0004237087562848599,0.0433649993804469,0.05538242160686502,-0.038446160835983664,-9.759999999999994,-0.8915901862789645,-0.07988477459740521,-0.017782771900218514,-0.05464913134722312,47.337699461677204,-0.1826726487960018,95.25319069844285,-0.6171200465118049,-0.2995649772751136,0.6754109302581464,0.27060981387606164
162.0,0.004672351431172148,0.0416322423352229,0.05030291283177579,-0.03412371711488553,-9.760707026071579,-0.8813484530692774,-0.058065181732117055,0.3003817573284752,-0.06787023140463047,47.39791940962719,-0.17923359867557087,95.17493148846074,-0.6173984861406125,-0.2995877263144845,0.6749303294818891,0.2711678219477089
163.0,-0.028035179550736696,0.04454891642110584,0.0439729813911665,-0.022634191988770775,-9.760353513035787,-0.8764729276597953,5.5958456441938115e-05,1.0854467449816867,0.06465893913906703,48.425036755352124,-0.1137886329962829,95.13588541309747,-0.6150991428095957,-0.30478848555628535,0.6723604787061206,0.27678157725094793
164.0,-0.02686889438473748,0.04464557633973556,0.036396408734533564,-0.0209945153492241,-9.76017675651789,-0.8729138831847358,0.07412659566554708,0.5461218892966182,-0.009480064981936522,49.09090256069734,-0.08860957704404715,95.09635179745783,-0.6136532516407928,-0.3083755530218452,0.6705481936763553,0.28041779321363863
165.0,-0.019095245175747372,0.04488937212354851,0.037993430646364026,-0.020174677029450763,-9.760088378258942,-0.8711343609472062,0.058162001995993834,0.17950443395470167,-0.014297813419716936,49.30345376173825,-0.10579672400589454,95.07640170518053,-0.6132061533937943,-0.3096286691177601,0.6698837094485992,0.28166008074329574
166.0,-0.022179587397257852,0.043011645983572884,0.032855464101285634,-0.018122529130561164,-9.760044189129468,-0.8702445998284413,-0.06769319255039018,0.4766198855990517,0.02549100042601641,49.513072188787014,-0.10217133365495118,95.06642665904187,-0.6127257232120487,-0.3107446608809719,0.6693367096827552,0.28280430100459025
167.0,0.012389580375348869,0.04370917096818425,0.033821353219835204,-0.011474900810764193,-9.761366223908912,-0.8592979127134721,0.35528092835374625,1.1872983041626306,-0.07228039591654392,50.00337218521516,-0.06633660259727622,95.01820445920303,-0.6118662856430911,-0.3129240749581745,0.667930684470449,0.2855540230013204
168.0,-0.022700059179381255,0.047111759719230276,0.03256032179720154,-0.016860114230081224,-9.768601803956216,-0.7805456057809776,-0.0915511428128074,0.06944341919160613,0.25383918586330795,51.018068968670065,-0.10081645672740264,94.55718430766032,-0.6119626381066304,-0.3178763254317659,0.6625141497314879,0.2922307902940695
169.0,-0.03101165192918666,0.045877866369243625,0.027585162121820984,-0.03907521840536317,-9.766045563495597,-0.8138598087968945,-0.34379897859893854,0.6494577998345059,0.14775889674460613,51.367008569541056,-0.22651480579354089,94.75259544778746,-0.6099594379806909,-0.32203301898502634,0.661800807355766,0.29355450812914063
170.0,-0.003617969959260189,0.045322141213954045,0.01953877564629622,-0.05927280419545965,-9.763022781747797,-0.8419299043984467,-0.20570981113940112,-0.1773953269632329,0.04194706623830802,51.232655010669575,-0.33367747993095437,94.90754772389373,-0.6094053050318995,-0.32306814213945234,0.6623506371052743,0.29239558729659887
171.0,0.004619205109850319,0.04399139619536713,0.016612721908417682,-0.07065546368130755,-9.761511390873896,-0.8559649521992229,-0.07846021423952537,-0.2771105610679011,-0.008803376798884942,51.055305764978364,-0.39696624015346127,94.98502386194686,-0.6093984474471473,-0.32308542028143383,0.662858394790061,0.29127165164006563
172.0,0.0063362045108440075,0.044070833114469424,0.019253120551347952,-0.07652792159397448,-9.760713000939791,-0.8633192882438234,-0.0012472852689379907,-0.26626747583390675,-0.044879812031029094,50.879502065090264,-0.45598430603498485,95.02518508087854,-0.6096426049565687,-0.32263632227803263,0.6633251850365058,0.2901938182887235
173.0,-0.024816873440556796,0.04455419693726123,0.02177415196811764,-0.032042131367027014,-9.763785576917085,-0.8360564625045898,0.4165079304985403,10.014485572732626,0.3833405844838226,55.42641143908512,-0.1935936775424593,94.87421151967038,-0.5973708979312229,-0.3446341242212082,0.6500225339676564,0.31413098302637676
174.0,-0.0511090273608963,0.05121621705109311,0.028183759309819836,-0.03286341007242764,-9.77077965806326,-0.7654248691441622,0.037578704004381486,2.3955747945444146,0.1088244267262366,61.83149002213229,-0.19439452164265175,94.46355680481474,-0.5808084376162248,-0.3788735497866604,0.6272084300233556,0.3482651483078273
175.0,0.001606455666366153,0.051311719502917755,0.014649061487681542,-0.03644441567656048,-9.77282208709614,-0.742632864679608,-0.26017249200358683,-3.667289837521566,-0.15705284040032255,60.85413250906005,-0.2158375272312119,94.33722195079446,-0.5851527283593883,-0.3737776451988991,0.6301649510870109,0.3439385193545877
176.0,0.0054072689533532226,0.049890173824482624,0.013879653040898554,-0.045761378345192685,-9.771572333870646,-0.7510906258881918,-0.09434758949700786,-2.314775280334693,-0.1753227690126391,57.95085436158426,-0.26980063174747404,94.38741857908386,-0.59361774368767,-0.35860992989508933,0.6395215797221656,0.3289246947517356
177.0,-0.001913231565321834,0.049269037877020395,0.014129375055688714,-0.05163369832040569,-9.770947457257899,-0.7589324097182899,-0.08581287293079348,-1.047928962710956,-0.13156971197567255,56.40380622230911,-0.28812612232534995,94.43463670889676,-0.5979596947160251,-0.3504849419098054,0.6446768550124105,0.3207977223984965
178.0,-0.00860374249993623,0.04709268766184008,0.021228655579763295,-0.051806685660423756,-9.770520127214892,-0.7692071048663994,-0.17315698718066705,-0.6094908513833766,-0.08356624016285161,55.69121115555474,-0.2952877843210765,94.48809116131551,-0.599793458795841,-0.34686519747731703,0.6472204527003076,0.31706565415734766
179.0,-0.010976110232248901,0.04721626659330077,0.027965531788064303,-0.05115322924547764,-9.770141935483862,-0.7842071417108007,-0.06936330731136942,-0.16375127530550018,-0.04979794288924042,55.33956428972648,-0.2734531833917968,94.5653200013756,-0.6004401818683884,-0.34510952408622775,0.6488399453324344,0.31512419230129995
180.0,-0.01698846868105415,0.04731830699392085,0.02610799335474349,-0.050718550106609764,-9.76999999999999,-0.7899063830969215,-0.07804083479712391,0.0731326336458438,-0.012800129426423359,55.32138160722883,-0.26183411857761885,94.60141000068779,-0.6003399343957327,-0.344988595751964,0.6491396236986409,0.314919177779434
181.0,-0.017775517573423216,0.04908382559905189,0.03023159327432319,-0.0502648050072219,-9.76999999999999,-0.7955499657420086,-0.028743698150068518,0.07658758587644901,0.008563600653679494,55.38785094186326,-0.2546641791044776,94.6159123736158,-0.6000017901732299,-0.3453612598851984,0.6491205863493208,0.3151795083252009
182.0,-0.017377166586422733,0.047872437594903894,0.03165407299729641,-0.04999999999999995,-9.76999999999999,-0.7982588538387458,-0.02278994007166401,0.04504932977019369,0.0046880352811007,55.424140324085215,-0.25132402503610973,94.62247231584016,-0.5998213213504571,-0.3455648993624353,0.6490959898958932,0.3153294868443529
183.0,-0.018426333746898275,0.048382831885856084,0.030300093052109196,-0.04999999999999995,-9.76999999999999,-0.7994471929280389,-0.013182866780397023,0.025724546370967744,-0.001972026209677419,55.43583039314517,-0.25,94.625,-0.5997537142910205,-0.3456310589830952,0.6490981202320105,0.31537005012174313
184.0,-0.017802945710203782,0.04633576772689675,0.02366192946838109,-0.04999999999999994,-9.76999999999999,-0.7911844499586433,0.14505020349274378,-0.24658785434995112,-0.05735123411534702,55.36907380254155,-0.26270772238514173,94.59274193548387,-0.6001791476189188,-0.3451915092173846,0.6490696767008048,0.3151233840318821
185.0,-0.015159537371230925,0.050351506692232484,0.01192773892773893,-0.04999999999999995,-9.770714640198502,-0.7618726220016544,0.12775152854537936,-0.11691985769606737,-0.024875989266110232,55.177480449657864,-0.28861192570869987,94.43715880893299,-0.6016256904595835,-0.34387100507271207,0.6486598853975485,0.314670484983683
186.0,-0.011661654541694868,0.051592626795247745,-0.007363673960448157,-0.04999999999999995,-9.770357320099246,-0.7471894127377994,0.0888292382180991,-0.012088961106098209,-0.013306480985412438,55.08466144070983,-0.30156402737047894,94.36978908188586,-0.6023280613265659,-0.34322215825595903,0.6484695287409576,0.31444623111467024
187.0,-0.021680276712534783,0.05092864125122189,-0.013099330776750137,-0.04999999999999995,-9.770178660049618,-0.7374656741108347,0.1365253026543349,0.13210203774719903,-0.016547296789232273,55.16728419430032,-0.28818896157605833,94.30831265508685,-0.6023741618965335,-0.34349190965651527,0.648019105072712,0.3150164875846303
188.0,-0.021972083549923666,0.055121852901656526,-0.011354642552398516,-0.0529172510518934,-9.772632574531581,-0.7212340058258706,0.177830161306669,-0.28069822592087673,-0.04413220019811885,54.99430420561207,-0.2962099553088333,94.22729213867012,-0.6034044973180657,-0.3423417712167568,0.6479937636700631,0.31432421041924363
189.0,-0.015145377063329381,0.052086830654151824,-0.022089833495163094,-0.056619915848527366,-9.776477577588363,-0.7092729168914302,0.15876173265724458,-0.12020309634264754,-0.03491128582730967,54.79868558276693,-0.30496592584601,94.16908961772215,-0.6042889713325418,-0.3412337609944977,0.648174372411767,0.31349367950825313
190.0,-0.01316325925126767,0.05288212500449525,-0.025749631387780067,-0.058471248246844354,-9.778377746610552,-0.7040806271802067,0.07175059337576868,-0.0632808285683461,-0.014602044898766499,54.70579440428669,-0.308732962923005,94.14434629769482,-0.6046985853461713,-0.3407140934823606,0.6482770972306978,0.3130945259873771
191.0,-0.013952484577133953,0.05288222349179571,-0.026316954200544678,-0.05939691444600285,-9.779350163627848,-0.7014820009350169,0.013578977415758618,-0.03164746368638375,0.005910967173896698,54.65925576293739,-0.31061648146150245,94.13164895529903,-0.6049041344720927,-0.34045386592232174,0.6483279295706843,0.3128949189490234
192.0,-0.013190390147876128,0.053404836193493274,-0.030658339245295783,-0.0598597475455821,-9.77926289543399,-0.7051726440927006,-0.05086712439228217,-0.029879277551963387,-0.00748703088782419,54.63195418419822,-0.3121785881252922,94.13026503261426,-0.6049579489216979,-0.3403211849987755,0.6484174527899111,0.31273179000631685
193.0,-0.012986930967777746,0.05274855755803336,-0.034727091009349086,-0.06000000000000005,-9.778839812517216,-0.7084924967505618,0.08826937231675135,-0.021979907413375153,-0.003114851798067523,54.625,-0.3125,94.13846252313994,-0.6048742428325897,-0.3403352171044153,0.6485105584886365,0.31263504942316045
194.0,-0.014136494330042722,0.05313881817107623,-0.03623420307291275,-0.06000000000000005,-9.779419906258601,-0.7054373153727997,0.0839871597936114,-0.13097095556772975,-0.027403376193698772,54.625,-0.3125,94.10790992161961,-0.6050074922508175,-0.3402619131179646,0.6484105545644168,0.31267427071235554
195.0,-0.013477676445418387,0.05357437186469444,-0.03750916108980625,-0.06000000000000005,-9.779709953129293,-0.7027186576864002,0.1334948205915948,-0.04554130904937357,0.0020861530942176115,54.625,-0.3125,94.08419689629368,-0.6051190045125057,-0.3402034526880147,0.6483305034112401,0.31270920535617763
196.0,-0.012141951238725439,0.052375989601796055,-0.04023766197959747,-0.06000000000000005,-9.77985497656464,-0.7013593288432003,0.03367255504352278,-0.009416971916971918,0.012541356492969396,54.625,-0.3125,94.07879199653394,-0.6051573129411164,-0.3401800377385482,0.6483016247924682,0.31272085741257993
197.0,-0.011895781637717127,0.05358808933002481,-0.04068486352357319,-0.06000000000000005,-9.779945409429265,-0.7005260545905712,0.0021712158808933034,-0.009863523573200993,-0.02366625310173697,54.625,-0.3125,94.10176799007444,-0.605101234645161,-0.3401935143275432,0.6483373859702233,0.3127023118808929
198.0,-0.012248138957816384,0.05294789081885855,-0.045062034739454096,-0.06000000000000005,-9.779999999999985,-0.7000744416873455,-0.017462779156327542,0.005055831265508686,-0.016780397022332506,54.625,-0.3125,94.11302729528535,-0.6050756684863519,-0.34019899587593017,0.6483535606203478,0.31269446786600463
199.0,-0.013622828784119113,0.053765395894428136,-0.04194510865478608,-0.056871945259042024,-9.779999999999985,-0.7000000000000006,-0.03644258966839612,0.1392078351755771,0.018335965110158656,54.717375366568916,-0.3125,94.11975806451613,-0.604807888157455,-0.3406558325875626,0.6481292998115645,0.31317370396180144
200.0,-0.015419354838709685,0.05213579968418676,-0.04250605308669825,-0.05327468230694034,-9.779999999999985,-0.7000000000000005,0.01713850665463569,0.0114153319798481,0.010160538386344838,54.8324780058651,-0.3125,94.12040942928039,-0.6045238495154521,-0.34118411143770183,0.647834179238288,0.3137527732960371
201.0,-0.01658560794044666,0.05255673358899164,-0.043357244905632,-0.05147605083088949,-9.779999999999985,-0.7000000000000005,0.007142454319873675,0.0008224302579141222,-0.010180276712534778,54.8900293255132,-0.3125,94.09125310173697,-0.6044967517726143,-0.34139088092728764,0.647571409825099,0.3140991932137753
202.0,-0.017156327543424325,0.05239251071509135,-0.04611038423941649,-0.050576735092864075,-9.779999999999985,-0.7000000000000005,-0.0008797653958944277,-0.0023958568313407033,-0.015062222723513046,54.918804985337246,-0.3125,94.07586848635236,-0.6044856110475973,-0.341493463044289,0.6474384045899685,0.3142732058004359
203.0,-0.018619069102940082,0.05389608241221143,-0.04791367772012932,-0.05012707722385136,-9.779999999999985,-0.7000000000000006,0.01419937589292428,-0.0019813519813519824,-0.012752368599142791,54.93319281524927,-0.3125,94.06817617866005,-0.604480040685089,-0.3415447541027897,0.6473719019724031,0.3143602120937662
204.0,-0.01954898864576285,0.05385983908564554,-0.04897887059177382,-0.04999999999999995,-9.779999999999985,-0.7000000000000005,-0.02532615234228137,-0.01308557034363486,0.004228701406120762,54.9375,-0.3125,94.0643300248139,-0.604485041478908,-0.3415563042630273,0.6473460487990068,0.3143885460297764
205.0,-0.019821640724866543,0.05410963230318069,-0.052809835325964345,-0.04999999999999994,-9.779999999999985,-0.7000000000000006,0.0022717873524325145,0.003076359124746222,-0.015527483269418751,54.9375,-0.3125,94.0625,-0.6044921899999999,-0.3415527300000001,0.6473388699999993,0.3143920899999997
206.0,-0.022843973231070017,0.05490112038499134,-0.054861869313482206,-0.04999999999999994,-9.779999999999985,-0.7000000000000006,0.016364952252049026,0.015362997217835928,-0.005343446875704939,54.9375,-0.3125,94.0625,-0.6044921899999999,-0.3415527300000001,0.6473388699999993,0.3143920899999997
207.0,-0.021382284382284393,0.052889766147830655,-0.056502894954507846,-0.04999999999999995,-9.779999999999985,-0.7000000000000005,0.028188679599969922,0.02762566734340928,0.018016862170087976,54.9375,-0.3125,94.0625,-0.6044921899999998,-0.3415527300000001,0.6473388699999993,0.3143920899999997
208.0,-0.02109060831641478,0.053820888788630714,-0.0486508760057147,-0.04999999999999995,-9.779999999999985,-0.69809429280397,0.07171591849011204,0.009857884051432439,0.0037173847657718624,54.9375,-0.3125,94.05158188585608,-0.6045469539106696,-0.3415314056923078,0.6472855581588085,0.3144255314292803
209.0,-0.01998451011354238,0.052563049853372415,-0.04321625686141814,-0.04999999999999995,-9.779999999999985,-0.6914243176178655,0.023001259493194978,-0.01368147981051207,-0.008919843597262953,54.9375,-0.3125,94.01237593052107,-0.6047366906054589,-0.34144804851116606,0.6471101155781631,0.3145328806699752
210.0,-0.019992255056771185,0.05083909218411321,-0.027957208289606603,-0.04648433847592329,-9.779700794763894,-0.694739741791635,-0.1152306114876241,1.1406474661383497,0.0952016660291555,55.332076905095846,-0.2863195418419822,94.04071052253029,-0.6034794528132483,-0.3434608217567518,0.6462214486750096,0.3165365963027296
211.0,-0.01358130919512109,0.04938410077105925,-0.007469613740992361,-0.0504229961348267,-9.778905372393297,-0.699405309332892,-0.04264126673950272,-1.006205702586794,-0.011524323594676991,55.324702128149916,-0.3034988213526131,94.0784112585391,-0.6033131855501956,-0.34372293362485473,0.6462863302779864,0.31640186100688505
212.0,-0.002979094241408158,0.05036027400251984,0.017919258229489223,-0.06030637472775491,-9.776492534393986,-0.7076722941351364,-0.18465445325006077,-0.7219395174735168,0.04293784550086614,54.484516623847256,-0.3549633575453768,94.13639490820692,-0.60528553248098,-0.3397521564424084,0.6487444136494297,0.311848365939875
213.0,-0.0035788019518943935,0.04603674276109149,0.03824386101187972,-0.06547576800903873,-9.773084976874408,-0.745733432577757,-0.2476119284823129,-0.5666130401864915,0.06904909795157602,53.97738172345832,-0.3870063610796287,94.35345433432002,-0.6054040691253686,-0.3378394090388597,0.6512383747210231,0.3085141609897887
214.0,0.004550549396261243,0.04585211827880876,0.055469325046882775,-0.07282473263975511,-9.771381198114618,-0.7648716790680352,-0.24893003372006464,-0.500583195031211,0.07256735294601133,53.489698926245296,-0.4142693095720724,94.46743746492675,-0.6060182275825352,-0.3357830661447398,0.6531469064945066,0.30556951812516736
215.0,0.0035655972787757817,0.04576032748910049,0.06086462979786866,-0.07700610171024691,-9.770538658898353,-0.7737565501464536,-0.07616557786985,-0.34008969241976633,-0.013184532970659593,53.18917216064485,-0.42871892313573234,94.52293098117772,-0.6064488655374108,-0.3345438605244505,0.654204602327431,0.30386858446580944
216.0,0.002689755532260276,0.04783149440692134,0.05848808844539393,-0.07891877098233838,-9.770137571157486,-0.7781049902027137,-0.06398096882560829,-0.31678384570047285,0.02604527430191567,52.96502591139095,-0.445750495946179,94.54994231930309,-0.606862838040001,-0.33353843672560957,0.6549082042553539,0.30261639628085824
217.0,-0.013316201719427533,0.046385439381407115,0.05483307015565078,-0.0771905155776124,-9.769999999999989,-0.7884091786349856,-0.07260461312880667,2.073337731377046,0.18217981615159035,53.533296676441836,-0.4520303844900619,94.60747596937112,-0.6050274480799309,-0.33686571276112864,0.6534949470235762,0.30544043389179965
218.0,0.021695712145394112,0.05159103725985256,0.07333719097803607,-0.06959707514455357,-9.778432530667871,-0.6549371420139253,0.8998884572757244,0.11897369785847356,-0.014889596763602894,54.850327803821955,-0.405134661012671,93.82456206774698,-0.6059194434503918,-0.3415435564292336,0.6457040122395014,0.31469939512400064
219.0,0.046573248959380274,0.051364308263232045,0.06315053648708804,-0.08671058609722855,-9.784538845979094,-0.5522207077590993,0.3897998255499108,-2.443113440566214,-0.05477041183644715,53.27854651839843,-0.5050986925135039,93.22489304104195,-0.6136112029135059,-0.3321477216904922,0.6464623196471837,0.3079814895782672
220.0,0.06977869805459072,0.045306097735239526,0.037405195331480394,-0.08568847908484933,-9.783632657633817,-0.5870648390761917,-0.5802378330270773,-2.422257575411808,-0.13022245873528057,51.38843608233222,-0.5022317368886565,93.43722281305301,-0.6173807973515828,-0.3218760726950445,0.6529771938605795,0.29726071036597435
221.0,0.022519662625350892,0.04514459466561718,0.03623364043871845,-0.04720343745000967,-9.781977619139479,-0.6379177726331264,-0.2544511006037873,-1.2172097862264184,-0.01899413536748177,50.270775216009575,-0.2781610587959702,93.73220665500078,-0.6185963082614034,-0.31362427329410225,0.6589596439775937,0.2904559808814496
222.0,0.007126766796546411,0.04671880270915267,0.03550481305090045,-0.02898254309776469,-9.781150099892312,-0.6501327214420107,-0.10832434062447428,-0.2789397945469011,0.06581375220873223,49.62455091445641,-0.1711425813693113,93.80588547355774,-0.6198784316083004,-0.3089134963267106,0.6617100651115568,0.2868002386105277
223.0,0.008265200131638489,0.0462775020933439,0.03354087129551115,-0.027839811751654446,-9.780472823685358,-0.6482614214966179,-0.015216999063800876,1.0246277575907767,0.13648176111927215,49.44679401355067,-0.16063037808577468,93.78816361240825,-0.6204189246794745,-0.30781911360154346,0.6622096886782756,0.2858856056659157
224.0,0.0070246251554249815,0.043033464308320696,0.02465350016388461,-0.03204266573245804,-9.777924583885682,-0.6813014096730401,-0.17496121010537713,0.7798009979710155,0.12344641371375795,50.322873373262794,-0.18578393904288734,93.98337952125789,-0.6170930249047014,-0.31366772418876454,0.6607284322222025,0.29007481499245596
225.0,0.028868526060306873,0.04941087463955337,0.01906583782191383,-0.0368086358563601,-9.77892473118278,-0.6816513431239457,-0.1627632313599503,0.36743922584758865,0.16130832003014944,50.48766753800862,-0.21300508141813929,93.99464183997299,-0.6166858974540692,-0.31493617320549344,0.6601473213624884,0.29095579796659665
226.0,0.006823686756469485,0.04738499329556163,0.006703983660395129,-0.036474022116693865,-9.779462365591382,-0.683182524098289,-0.18833238744219627,0.7929152181155377,0.1305232305849631,51.515526342711595,-0.21583072537942832,93.99524953351596,-0.6139843765153864,-0.32089204569870433,0.6573161391291242,0.2964453483070394
227.0,0.008501449113001762,0.0480047726334439,-0.0008729185640676687,-0.039679663388096025,-9.779731182795683,-0.68073328713875,-0.04811724658848164,-1.041196400798862,0.055572995220796964,51.48806391060311,-0.23213131251050267,93.97632940385475,-0.614153074834754,-0.3208759739806246,0.6572326844547951,0.29633563786767736
228.0,-0.006391791609874306,0.05117238376495532,0.006366550557827251,-0.030804306123479223,-9.779865591397833,-0.6778417638447164,-0.005285634055227421,0.021845341763844672,0.1332388371447322,51.125398729744056,-0.18350678668786913,93.96495043288404,-0.6151995332949669,-0.3181474772419102,0.6584450266231889,0.2944508035218839
229.0,-0.005432780783757615,0.046600569529919825,0.003848394210161589,-0.02276041308128996,-9.775620723362646,-0.7053965254544534,-0.18992134830816113,-0.13281561927773877,0.06347303538566032,50.93897853764817,-0.13067715719209358,94.14408119558831,-0.6146814722449907,-0.3169657180686579,0.6601660703666208,0.2929913310567223
230.0,-0.016836936459768335,0.047076639392832575,0.02576762426088935,-0.01493847662287142,-9.772649071358737,-0.7238892283607916,-0.08521110900544046,0.4397377601481852,0.12407736868376418,51.25266150949455,-0.07793773788341765,94.2580688565439,-0.6132377409795216,-0.31849747737425105,0.6601661525545685,0.29437429361567413
231.0,-0.01160944202967214,0.049585702638293816,0.031056151449199657,-0.013107551594594227,-9.77026562964851,-0.7628281717201175,-0.6040472822417584,0.14287242260087554,0.020696104552721695,51.58649193806974,-0.07058184624451586,94.47222802768987,-0.6110920747252531,-0.32094396555093585,0.6604484372469686,0.2955341589305547
232.0,0.0059674745678433855,0.034610370451182176,0.03154467700329788,-0.02359303279623153,-9.75623133269697,-0.913740626109986,-0.08900719725766115,-0.8565639915233538,0.025829259289825927,51.072079111653295,-0.13511958242672367,95.35060312493182,-0.6072690015347422,-0.3209158612724528,0.6662088577811298,0.2903465464220728
233.0,0.008250953484350065,0.051529628660393456,0.039211100103518234,-0.026628800424856866,-9.766567279251703,-0.7950509452351707,0.15991241357341512,0.1928285384111017,0.07357658524950828,50.90318476579614,-0.15569586572494748,94.6508078258527,-0.6117651535783661,-0.31836257428768344,0.6628712747139569,0.29136359829742564
234.0,0.016054723470410693,0.04611821594382944,0.025893027619929992,-0.042261089055602614,-9.768259201698182,-0.7892991555227085,0.02386523568911634,0.29956594119749724,0.11001658846228203,51.071863917454024,-0.23492066122943656,94.61542443896185,-0.6115475451023462,-0.320220170115056,0.6617713494892059,0.2923514846067599
235.0,0.016809993556262216,0.04668706208611172,0.01946734354948544,-0.046804168816226344,-9.769129600849087,-0.7801263329795711,0.018078936342631885,0.5719522140292587,0.13853883804690778,51.375270553402416,-0.2640577984141548,94.55996554016403,-0.6110599905233286,-0.3221716050862784,0.6605085975149296,0.29409778820075505
236.0,0.014058984902027755,0.04962272413789025,0.025576268050028286,-0.05017003288452496,-9.770825397858125,-0.7605124278966362,0.16005333292887455,-0.3154862515990344,0.10421369309489192,51.44070417135836,-0.2792239809512318,94.4435491422883,-0.6115635836632398,-0.3224849232663465,0.6595879651803295,0.29479578681639074
237.0,0.019104598866727506,0.04960340268641267,0.030355701592581705,-0.05474012696075063,-9.774713047664887,-0.716979507450549,0.11933957994717997,0.3840338563534137,0.0910038733180496,51.53921218747927,-0.3033527592329881,94.19361046657468,-0.6127941313654421,-0.3226604279150338,0.6578270739748513,0.2960032264397612
238.0,0.016436044720334848,0.043724477491788934,0.03727301906887848,-0.05536070724521262,-9.77240002334368,-0.7190384201126503,0.17642853526056107,0.21309856831076632,0.07624703161782943,51.850143902704865,-0.3101441215519779,94.19437147752697,-0.6119810236392216,-0.32454494292665537,0.6568895375545251,0.2977010495019641
239.0,0.02111918475097834,0.044652045472629444,0.061277819115565846,-0.064445399361653,-9.773411993238655,-0.719699896485928,0.033012310824447964,-0.6291576936285084,0.06901628697612017,51.62189171199621,-0.362564408942988,94.20224841501357,-0.6125230252447431,-0.32386190471760934,0.6572881402956612,0.2964521582190334
240.0,0.04001462658858788,0.045258574055962814,0.07780166615602337,-0.07786786097114905,-9.771705996619323,-0.7242047869526409,0.004577391971363767,-0.24566389080252404,0.06699531357603661,51.05471418444385,-0.4347493354587863,94.22209194944227,-0.6138691970431922,-0.32140212231237253,0.6586466917216333,0.29331389326885215
241.0,0.04547914767079851,0.04508836261777438,0.07766226783968716,-0.08454298200218499,-9.770814481217696,-0.7268977714252849,-0.01800800598831908,0.016988107559739424,0.01379526150636207,50.79317016396001,-0.4708050962320412,94.23463167525074,-0.6144572280750382,-0.3203098893759744,0.6592822867587464,0.2918733047747728
242.0,0.04172526935430161,0.0439923275649082,0.06701103466426045,-0.08499992480637639,-9.770286272866908,-0.7291699483312377,0.020823531307402277,-0.13999293717035652,-0.03006481086118183,50.64663206417238,-0.48824884792626727,94.24614055299539,-0.6147420381584139,-0.3197209253833237,0.6596509585727393,0.29108583453262077
243.0,0.049029790102370734,0.04490916475997121,0.06391607451688094,-0.08806203473945404,-9.770138248847918,-0.7297511520737318,0.024646858517826258,-0.13823938158615579,-0.023875880503904698,50.32485867626997,-0.49714861751152073,94.24907834101381,-0.6155385527693341,-0.3181559619096479,0.6604029968083645,0.28937020525018153
244.0,0.04561875892924279,0.04538439450334612,0.05452007199789456,-0.08930521091811408,-9.76999999999999,-0.7299999999999991,0.07217365967365967,-0.22696819309722532,-0.02041897534589067,50.133584292052035,-0.5228287841191066,94.25,-0.616011612400796,-0.3172175933644306,0.6608539510961355,0.2883530175049206
245.0,0.04832242555831265,0.04617009032634033,0.052220784927438146,-0.08965260545905701,-9.76999999999999,-0.7299999999999991,0.05878590495525979,-0.14187180427099783,0.00457169888243477,50.026072449056315,-0.5436724565756823,94.25,-0.6163118765108724,-0.31666184866695113,0.6610943269382101,0.28777339264297835
246.0,0.04955725994435671,0.04581712910745169,0.05381758026919316,-0.08982630272952846,-9.76999999999999,-0.7299999999999991,0.003504022858861571,0.007395292879163851,0.00677870516580194,49.989300887284756,-0.5540942928039702,94.25,-0.616454540034288,-0.31644918172403946,0.661160971232424,0.2875694484501089
247.0,0.048650199263102475,0.04622159560869238,0.052442589668396114,-0.08999999999999991,-9.76999999999999,-0.7299999999999991,0.00028620572975411726,-0.02784090909090909,-0.006246710278968342,50.01828567937439,-0.559305210918114,94.25,-0.6164155084439424,-0.3165709284054438,0.661103590618694,0.2876942021208362
248.0,0.05043552146777952,0.04572012933303256,0.04732310700052636,-0.08999999999999991,-9.76999999999999,-0.7299999999999991,-0.012332694187532897,0.024400330851943756,-0.004864087525377848,50.04028592375367,-0.561910669975186,94.25,-0.6163767501652746,-0.31666982968659263,0.6610574039554864,0.28779671120460193
249.0,0.04749319497706593,0.046021354989096916,0.04093946913301752,-0.08999999999999991,-9.76999999999999,-0.7299999999999991,0.010381419655613202,0.02479321753515302,-0.00219941348973607,50.05260263929618,-0.5307382133995037,94.25,-0.6162955412861111,-0.31680270319813486,0.6609826399181893,0.28796208810106005
250.0,0.04953780627974176,0.04356260943357716,0.05149596639919219,-0.08837788018433174,-9.76999999999999,-0.734202764976958,-0.079838978226075,0.6339403875694198,0.057390190454706586,50.243438416422286,-0.5088310882665721,94.27811059907833,-0.6156382063445799,-0.31782648648279654,0.6606748776421857,0.28891931745145166
251.0,0.04498056477305393,0.04292587511990496,0.07206573461845486,-0.08626164110323951,-9.76999999999999,-0.7475852534562208,-0.14020207544822375,-0.24216776743558155,0.0406094968263962,50.504459557053444,-0.4918523520292899,94.36082949308755,-0.6145462486455102,-0.3192874241362277,0.6604751315118909,0.29007549706511393
252.0,0.04653038247260681,0.041511922838836646,0.08004076039511761,-0.08520352156269345,-9.76999999999999,-0.7542764976958523,-0.011347198780997533,0.10728193929325372,-0.009691439999576733,50.54635893115069,-0.4949181114985159,94.40218894009217,-0.6142275059139926,-0.3195881173593993,0.6605793143019252,0.29018859209298065
253.0,0.0470549498647717,0.04043699006818891,0.08453094490167193,-0.08165845677352662,-9.76999999999999,-0.757622119815668,-0.09132289633011828,0.5280709079878555,0.006457761464983421,50.77363767671904,-0.4812994760816137,94.42286866359447,-0.6135242582698017,-0.3207782504392304,0.6601363496143056,0.29136492871999964
254.0,-0.009712845948677419,0.04153081020456252,0.07373047805945623,-0.043831879734531766,-9.775302695536887,-0.6755123413925886,1.209177898855574,2.036244315613969,-0.053333204994419466,52.64829420291984,-0.25731562573243477,93.94712810112998,-0.6112054598273104,-0.32743513865681567,0.6536312388074247,0.3027280359513863
255.0,0.03320846048255035,0.05323648638191793,-0.07708012929993197,0.0006537522452032124,-9.786115583392565,-0.5060469941785625,0.9218573241689878,-1.0512992590767394,-0.1631522767107942,52.36040382189003,0.001721035727918735,92.95696563174445,-0.617663622595783,-0.31997057518825556,0.6507305479969467,0.3038653212961033
256.0,-0.037816408500499804,0.03174101642158006,0.021776363959673986,0.022188803047118788,-9.775835569474054,-0.6597618483437615,-0.6833131664074549,-0.807987937996081,-0.21546482663443203,52.36494018195555,0.12997970686518978,93.8616593391697,-0.612457894311319,-0.32084377847253154,0.6563830162843558,0.30131188414508264
257.0,0.00321532169114715,0.05956401252022874,-0.009994930852186439,0.007656717160278117,-9.781641092324481,-0.5890631140855563,0.6274301446743742,1.3853605984645103,0.036786572286342745,52.621679583610025,0.04715705016135453,93.4408109281037,-0.6141795391721108,-0.32230806240561893,0.6528865429164323,0.3039148825447487
258.0,-0.030339117310882,0.0501380734710203,-0.04853726622395853,0.025181427191272192,-9.7861431268074,-0.5272952885161871,0.1830117884080967,5.4180107891796805,-0.05039741621607936,55.676162867813574,0.15104749881981228,93.08126531583912,-0.6075863432292882,-0.3372977305909365,0.6425485397955785,0.3211559143905218
259.0,-0.003621386532810184,0.04662903243602727,-0.07360430329387127,0.0013611212104979679,-9.785159559486384,-0.5714968876685391,-0.42375017881550237,-1.0739330481613512,-0.25664823098487144,58.0829847552573,0.008729491608136186,93.33996063979008,-0.5992304963314754,-0.3531273330731134,0.6356449605652242,0.33297464566661555
260.0,0.00011544044093478182,0.05481755502119268,-0.08241692490546766,-0.03753122060092211,-9.785835974226595,-0.567578738364424,0.2860065141453111,0.2522018957416713,0.007253257111584865,57.4773414893631,-0.22293188813702586,93.31777134373796,-0.6013214987664857,-0.3525169788483846,0.6360981209838745,0.32998491234008664
261.0,0.006325641367420794,0.05375062338873253,-0.08951939435237541,-0.0491553952466976,-9.78544262869035,-0.5615917885370505,0.31147603933072,-0.3219697286524618,-0.1127208176807667,57.115252845936034,-0.2823748822405559,93.27975540753206,-0.6026758279988342,-0.3512524079792999,0.6366830799677439,0.3282373809281078
262.0,0.0014457924672280668,0.05483960201016572,-0.07303870197048067,-0.05023421738709252,-9.78261000130564,-0.5756740025910655,0.25491041925306435,-0.30330611246988337,-0.16195437223558365,56.93749530888826,-0.29733529962421446,93.36224037643177,-0.6028113510151226,-0.3506770675838103,0.6375722535695558,0.3271353582129738
263.0,0.0016177724994580409,0.055031731794433006,-0.06839394021466827,-0.0515512848051417,-9.78114371033023,-0.5846961992031179,0.148497141757174,-0.2963101047226353,-0.08727517921013975,56.718938369352585,-0.31370415809458324,93.41055022308947,-0.6031981536091306,-0.34980036902730205,0.6383699161047434,0.3259125864212208
264.0,0.005797459867334897,0.05505126786810235,-0.06341964586226795,-0.052556242650913014,-9.780506467196494,-0.5869426941961539,0.13018005221329415,-0.03362414498766836,0.03354291751495337,56.575076929517905,-0.3218960177807465,93.42147770526748,-0.6035778318840878,-0.3491166378187818,0.6388214541611933,0.32513822779080637
265.0,0.007126928927149837,0.05041772204559312,-0.06486096557613025,-0.05850126023038735,-9.780143369175612,-0.5846779307132899,0.05681410002794069,-0.17277331744062074,-0.01674561216626448,56.508371626214284,-0.35273120884637243,93.41485859660426,-0.6038109601588303,-0.34904829906834367,0.6388403050830993,0.3247469507527857
266.0,0.016765717407763343,0.054315491847169314,-0.06637281509733292,-0.06975875863541897,-9.779999999999983,-0.5835618276198296,0.06850241611740096,0.10624926997912638,0.22719066997933576,56.41800589759255,-0.4130787540647633,93.40691446535283,-0.6040861984647199,-0.34920874130017276,0.6387392744358148,0.32425780441460333
267.0,0.035080820507765474,0.05048298191372194,-0.06888190367507255,-0.07911691597460094,-9.779999999999983,-0.6019098877087492,0.06392824443109073,-0.05317533510133131,0.10893480333708039,56.40450910569506,-0.467519119084584,93.51710162070694,-0.6034942929529068,-0.3500736063627985,0.6390340537491805,0.32384680649327646
268.0,0.042893935286724666,0.04978506123857167,-0.05845116932403459,-0.08869508037819232,-9.779999999999983,-0.6161446971750582,0.11208198822050813,-0.020529245422509182,0.0874634971290569,56.38435844279061,-0.5138236012880225,93.5958966357804,-0.603072269265827,-0.3507811079442076,0.6392260665614973,0.3234853152390481
269.0,0.038536446933130505,0.04927753375609445,-0.049372540498669806,-0.09226218251996379,-9.779999999999985,-0.6277232874416457,0.13275511412601104,0.0466091827482514,0.16624669399864817,56.42063623070359,-0.5352702831581269,93.66787790383147,-0.6025789248364777,-0.3514118508857391,0.639360396057809,0.3234576349050904
270.0,0.03639108874170757,0.05066580672624457,-0.04231198182428747,-0.09153906089945055,-9.779999999999985,-0.634803294574713,0.04446697831537745,-0.018396665741623828,0.062369077549608715,56.46111863717343,-0.5194882013513594,93.71452778018897,-0.6021566911634948,-0.35184299104770816,0.639486623308791,0.3235829920161125
271.0,0.036120925441396154,0.04758352371051683,-0.04037754355305122,-0.090926212477375,-9.779999999999985,-0.6384188397722907,0.10124802301093225,-0.028170993274923933,0.011037649373882697,56.483194687250304,-0.5102481329337443,93.7364922222462,-0.601957050481251,-0.3520358287750061,0.6395206364447182,0.3236716609665816
272.0,0.03378947892997428,0.05153683414775488,-0.02297382014173767,-0.09243294910646001,-9.779999999999985,-0.6304541857926831,-0.026501130745157586,0.07213228724371863,0.08905641532612081,56.5163418852134,-0.5188421330255742,93.68706623338569,-0.6021248958954527,-0.3521349627675239,0.6391540948776093,0.32396906429502403
273.0,0.03595363597644531,0.052368365986444954,-0.00975132402503611,-0.0913455797933409,-9.779999999999985,-0.6331792896559386,0.06710768524776861,-0.041545929433169135,0.028616981199770374,56.5261420873301,-0.5279309099662975,93.70249759268177,-0.6020762789962595,-0.3521390577806748,0.63919244492804,0.3239530733707643
274.0,0.02236426491779766,0.04940240274490394,6.817087582614879e-06,-0.08543928002666565,-9.779999999999985,-0.648825168091418,-0.14043781930109492,0.12798927248450676,0.018720539592458976,56.57627910526322,-0.48090996629754457,93.7778844049547,-0.6014612979850933,-0.352226390790076,0.6396971593007308,0.32399523713708267
275.0,0.01953611819090876,0.05054440856848175,0.01106947554130992,-0.08255834969075221,-9.779999999999985,-0.6598964550134514,-0.10974012747002636,0.07336842462624842,0.021948233118189785,56.60265568166387,-0.4581969186326432,93.83838388982227,-0.6010373699652514,-0.352335321834244,0.640040173446891,0.3239791676132062
276.0,0.017452922619027582,0.049639449941809105,0.018874688142863402,-0.08111788452279547,-9.779999999999985,-0.66542961708489,-0.08269264438017447,0.018740663926027436,0.020310344846936085,56.615843969864194,-0.44684039480019255,93.89101266451411,-0.6007599468138916,-0.352412143368735,0.6402558133686063,0.3239488071291836
277.0,0.015708887886307248,0.0486064365741785,0.031818181818181815,-0.0803374689826303,-9.779999999999985,-0.6757408075795177,-0.14582393413038575,0.023919561621174527,0.010576453116775696,56.62171591849011,-0.44072580645161286,93.96194380216556,-0.6003743794601477,-0.3525806300871117,0.6406164585307159,0.32377280638596895
278.0,0.014777520866230551,0.04631562523498006,0.038430182720505295,-0.08000000000000004,-9.779999999999985,-0.6837463343108505,-0.13158132190390254,0.03373397435897436,0.012701377923152117,56.62487781036168,-0.4375,94.01780502763366,-0.6000785554893794,-0.3527241120261859,0.6408951444762758,0.32362267719546595
279.0,0.01411652191894128,0.04446035416196706,0.03620922625761336,-0.08000000000000004,-9.779999999999985,-0.6872983870967739,-0.03452538724716144,-0.009831448793142341,-0.01199303049101436,56.625,-0.4375,94.04358909739454,-0.5999493769357946,-0.3527929166826921,0.6410192771526049,0.3235458972487595
280.0,0.01476421629445824,0.04502546244078501,0.03761577938190842,-0.08000000000000004,-9.779999999999985,-0.6889717741935482,-0.004917780472215957,-0.009700153676968193,-0.020481626908038196,56.625,-0.4375,94.05575856854838,-0.5998885902520168,-0.3528251665423384,0.6410784553629028,0.3235085410685486
281.0,0.014553173640875262,0.0448762171967817,0.03694459169862396,-0.08000000000000004,-9.779999999999985,-0.6898084677419352,-0.07498173029927063,0.014296569525904204,-0.030559070465824498,56.625,-0.4375,94.06114541330645,-0.5998602264163313,-0.3528406098840723,0.641106696552419,0.3234905445665325
282.0,0.014461566659147312,0.045054036017745686,0.040196086171892624,-0.08000000000000004,-9.779999999999985,-0.6899999999999997,-0.04272019982705467,0.01366920210166178,-0.005293396120009022,56.625,-0.4375,94.0625,-0.5998535200000006,-0.3528442399999997,0.6411132799999997,0.3234863300000002
283.0,0.013188599706744875,0.045474908827731406,0.03710052447552448,-0.08000000000000004,-9.779999999999985,-0.6899999999999997,-0.010674616042559591,0.003252094847356944,0.0020989595082337017,56.625,-0.4375,94.0625,-0.5998535200000006,-0.3528442399999997,0.6411132799999997,0.3234863300000002
284.0,0.011618737781036174,0.044804903094217606,0.03944224659748854,-0.08000000000000004,-9.779999999999985,-0.6899999999999997,-0.011523158461162494,0.06243066619200691,-0.01646945963982254,56.673875855327466,-0.4375,94.0625,-0.5997045986314762,-0.35308241407624597,0.6410068430107528,0.3237397756304987
285.0,0.011930840664711638,0.04529307654710879,0.045068905556808786,-0.08000000000000004,-9.779999999999985,-0.6899999999999997,0.003468511495225205,0.0036353179750357144,0.009343395180088728,56.71395405669599,-0.4375,94.0625,-0.5995900425415446,-0.35327834639296146,0.6409025544086029,0.32395957152492694
286.0,0.011132763741634714,0.0446328530340627,0.037597953793518324,-0.08000000000000004,-9.779999999999985,-0.6899999999999997,0.014447147694375518,0.05682038475637266,0.00629047531769306,56.733993157380255,-0.4375,94.0625,-0.5995327644965787,-0.35337631255131924,0.6408504101075279,0.324069469472141
287.0,0.01018301188059253,0.045436997142642294,0.03663209639822544,-0.08000000000000004,-9.779999999999985,-0.6899999999999997,0.02362037324234905,0.024768368392360327,-0.0030348851417399806,56.74401270772238,-0.4375,94.0625,-0.5995041254740958,-0.35342529563049807,0.6408243379569903,0.324124418445748
288.0,0.025019509680361717,0.04643907252751922,0.048805241567688964,-0.07558672276764838,-9.779999999999983,-0.6797522206638617,0.004985915754126658,-0.6850449703332548,-0.027385479396129814,56.4166241659229,-0.4276823281907433,93.9797510518934,-0.600836177239152,-0.35115835767967163,0.6415760224427307,0.32257588178715646
289.0,0.009803892655503079,0.04492534008920716,0.05038684920187164,-0.06924256696880254,-9.779999999999983,-0.6813325378716516,-0.16151813584786043,-0.05167125196314343,-0.006387121527918572,56.129780620041444,-0.4070735906721651,93.98357136128612,-0.6016335607272199,-0.3492047512297556,0.6426945712723202,0.3209708517744379
290.0,0.009864143908396704,0.044559062395532215,0.04440148300758294,-0.06429870283924,-9.779999999999983,-0.6805049786132451,-0.0981648864417699,-0.019592976452001833,0.017287522752658505,56.05279353582718,-0.39002873081995354,93.99077761612693,-0.6018835168152226,-0.3484954457859435,0.6430744219264827,0.3205476745920089
291.0,0.007813190835317233,0.04542127117821577,0.035866355459728015,-0.061826770774458736,-9.779999999999985,-0.6800911989840417,-0.023992680832735473,-0.013488495143814283,-0.003606219825264852,56.01429999372004,-0.38150630089384774,93.99438074354734,-0.6020084948592239,-0.34813983853813324,0.643264347253564,0.3203365632637465
292.0,0.008109918975820887,0.04712656911794463,0.029934644005523838,-0.0605908047420681,-9.779999999999985,-0.6798843091694401,0.024798014422341943,-0.026294589702894434,-0.019260954487412482,55.99505322266647,-0.3772450859307948,93.99215004919301,-0.6020798438005797,-0.34796203491422806,0.6433489734654915,0.32023543792219583
293.0,0.008111024507509827,0.0464614396997642,0.033133718953170084,-0.060110736639383766,-9.779999999999985,-0.6801011073663936,0.009129596631101206,-0.000282728375380039,-0.00833066964130397,55.99581728454501,-0.37542128069330766,93.96539480019258,-0.6021275881204862,-0.347944740273851,0.6433147216345687,0.3202611997932625
294.0,0.0058024475524475535,0.046192721257237376,0.04328727723889013,-0.06000000000000005,-9.779999999999985,-0.6799999999999997,0.0027475045116174147,0.0026214964471012858,-0.014301533479960899,56.0,-0.375,93.95804900744417,-0.6021349001709053,-0.34795761217896104,0.6432856371972706,0.32029785578645015
295.0,0.0006754173246108744,0.049142078351755755,0.06357882171591848,-0.057697270471464016,-9.779999999999985,-0.6830967741935481,-0.0536747946274156,-0.40630143126362883,-0.13683979411045943,55.827295285359796,-0.3491935483870968,93.98696495037221,-0.6024771648497206,-0.34684480270471474,0.6440066296805211,0.3193596631401985
296.0,-0.005287553172633819,0.045724299893654716,0.06990929634881246,-0.05339241403757532,-9.779999999999983,-0.6872258064516124,-0.15389891106876993,-0.1920297129785537,-0.19292284706221197,55.77770294221907,-0.3118663594470046,94.01283731389577,-0.6024520846460586,-0.34628569257355557,0.6444757561950993,0.31904816558853244
297.0,-0.001763247505182989,0.04444145102209617,0.06373061347254894,-0.051691319433254876,-9.779999999999983,-0.6841603128054737,-0.16022646708130578,-0.1486752494817011,-0.16922392124005026,55.59852889046438,-0.3111751152073733,94.0065446650124,-0.6030477765258182,-0.34521816445393316,0.6449296698604403,0.3181275576702438
298.0,-0.0005515989386957131,0.04665248729764857,0.0593764729893762,-0.05068436939404676,-9.779999999999983,-0.6820801564027368,-0.08794511939673229,-0.0656217438475503,-0.08115352389545938,55.50894186458703,-0.3108294930875576,94.00428039702233,-0.6033663648758123,-0.344668171420515,0.6451291563818327,0.3176764314157672
299.0,0.0007669105088459921,0.04565619326909648,0.054164437712824795,-0.0501808943744427,-9.779999999999985,-0.6810400782013682,-0.022738820319465478,-0.03709314878669717,-0.04662044944303009,55.46414835164835,-0.31065668202764973,94.00291563275434,-0.6035260528200401,-0.3443932960750217,0.6452285512951342,0.31745092887413684
300.0,0.000447971383455254,0.04573380383057801,0.05259090371993596,-0.05000111716240743,-9.779999999999985,-0.6804232649071356,-0.015091494526978399,-0.013754390770519802,-0.004885907103649041,55.447148617511516,-0.311376728110599,94.00120967741935,-0.6035954617450077,-0.344290571248429,0.6452554400694029,0.3173676955859519
301.0,0.0013352131739228518,0.04564298067523874,0.05152244529663883,-0.05000977517106543,-9.779999999999985,-0.680034213098729,-0.012886307241145952,-0.00038019775923001705,0.024920106774945484,55.4375,-0.3125,94.0,-0.6036362978494625,-0.34423929431085043,0.6452654897605075,0.3173211535141742
302.0,0.0005576359124746222,0.04675599669148055,0.0513599518760809,-0.04999999999999994,-9.779999999999985,-0.6799999999999997,-0.007787239642078352,0.006362320475223701,0.012307316339574404,55.4375,-0.3125,94.0,-0.6036376999999999,-0.34423827999999995,0.6452636699999992,0.3173217800000002
303.0,0.001124144672531769,0.04581720430107526,0.05115542521994135,-0.04999999999999994,-9.779999999999985,-0.6799999999999997,-0.002179205203398752,-0.004902624257462967,0.005556338822467855,55.4375,-0.3125,94.0,-0.6036376999999999,-0.34423827999999995,0.6452636699999992,0.3173217800000002
304.0,0.00028964583803293476,0.04505616963681479,0.05051297090006767,-0.04999999999999995,-9.779999999999985,-0.6799999999999997,0.014630799308218662,0.00809271373787503,-0.015385555304910143,55.4375,-0.3125,94.0,-0.6036376999999999,-0.34423828,0.6452636699999992,0.3173217800000002
305.0,0.0006140311301601623,0.045793969471388814,0.04944221370027821,-0.04999999999999994,-9.779999999999985,-0.6799999999999997,0.03094640574479284,0.01651345965862095,-0.0012999097676517019,55.4375,-0.3125,94.0,-0.6036376999999999,-0.34423827999999995,0.6452636699999992,0.3173217800000002
306.0,0.0012791344428320834,0.04488893116192104,0.04692832588692,-0.0503081367356764,-9.779999999999985,-0.6773808377467498,0.14768444322488616,0.02489412569455901,0.04531888128722505,55.4375,-0.3125,93.9817043813192,-0.6037270335387579,-0.34419972539239296,0.6451837397159357,0.3173664464997595
307.0,-0.009054958682787283,0.047402921103932155,0.05962496450748736,-0.05500255321632308,-9.779999999999985,-0.6483482878860825,0.02068972894382138,-0.2638542568008143,-0.04813418105726723,55.271810850439884,-0.3125,93.7997475963292,-0.6051247745895159,-0.3428658477401847,0.64479795127048,0.3169799291638583
308.0,0.008094434939993605,0.053652619116255046,0.052978019956991515,-0.06304193994300933,-9.780654248069045,-0.6232472925118736,0.2765416603498174,-0.91269138156357,0.030923194534629633,54.69995301722358,-0.3561165379373012,93.64362663778294,-0.6075088083261073,-0.3397278974003059,0.6454429998583204,0.3144248196523517
309.0,-0.015790863122740757,0.05031884791481854,0.049819524080477365,-0.07265908900830609,-9.780327124034514,-0.6281434099996897,-0.033526735616864256,0.433832943055981,0.06237799016564774,54.68799047953409,-0.4101828714220809,93.67051845292147,-0.6073972626682784,-0.34031525626035264,0.6453276016806369,0.3142724623886477
310.0,-0.00920041689861378,0.04771563119103585,0.043482587064676614,-0.08197470579447558,-9.780163562017249,-0.6231039630643609,0.022322042748752623,0.21905479019856727,0.011821937409314583,54.86919685267027,-0.4581156292594275,93.64171083936395,-0.607078796253494,-0.3417747058721118,0.6443924140661252,0.31526010893625944
311.0,-0.004182695732386583,0.047458082144958655,0.056028517999064976,-0.08744569931382241,-9.780081781008615,-0.6250793656494624,-0.02334954291497636,-0.3365345026350461,-0.04323430248497658,54.81954758482041,-0.49376971271293024,93.65499424518978,-0.6071707007360357,-0.3419005622462721,0.6443730762920272,0.3149792455077074
312.0,0.0037699950919238634,0.04531709280569235,0.06378142194411479,-0.09437778611829922,-9.780040890504301,-0.627681422805181,-0.03532011133266676,-0.24102718627503864,-0.030320578191882983,54.48854028801138,-0.5321671144209812,93.67217881858707,-0.6080052928655741,-0.34046650868449413,0.6452087319605107,0.31320167061820425
313.0,0.005459945995967176,0.0446477820649578,0.06218819812824513,-0.09766594894283878,-9.779999999999983,-0.6293132238969115,-0.036401973675629855,-0.0817150138204257,-0.014396868622730017,54.338318303932994,-0.550002798464466,93.6828068104748,-0.608369927579993,-0.33982573180249254,0.6456013432928402,0.3123857216425868
314.0,0.007946919840327978,0.04559967476714496,0.06211408997734383,-0.09913510986442253,-9.779999999999985,-0.6295839177185604,0.004288790536106014,-0.07070189582434278,-0.01973534934998382,54.25464586255259,-0.5579125759700794,93.68484104721833,-0.6085929812661437,-0.3394379579230547,0.6458113340362428,0.3119425847331515
315.0,0.009254477289891039,0.04589285072104146,0.06888396806559496,-0.09972884525479185,-9.779999999999985,-0.6299532491818609,-0.007536658934800591,-0.029970645880533674,-0.026142585500053946,54.20696002805049,-0.5612143525011687,93.68717858812528,-0.6087127172837775,-0.3392076406651565,0.6459437509243711,0.3116877717415757
316.0,0.007037455823746148,0.04377030227836679,0.06548877735168056,-0.09999999999999988,-9.779999999999985,-0.6229618768328448,0.17753320268441233,0.004313999172870141,-0.03748531374539439,54.1875,-0.5625,93.64302297165199,-0.609001392756598,-0.33900351913873233,0.6457664479580416,0.31171006145559804
317.0,0.0038072357449162935,0.05130576519051483,0.0822790355407712,-0.06980259990370724,-9.784313914299464,-0.562157394843962,0.43910015380322615,-0.10122157898472896,-0.45075582305172757,54.344938613384684,-0.3963950409244102,93.2824978844779,-0.6105545080224974,-0.33696791638070644,0.6444434925841466,0.3135909583430354
318.0,-0.007467763434407029,0.040849739501791736,0.0730725202517752,-0.05006259027443426,-9.78731824747231,-0.512852890970368,0.24496536501851413,-2.004913587948389,-0.16049129724408823,53.43288597335901,-0.28813927673460654,92.99440754438949,-0.6146145827388473,-0.32979878240182275,0.6461731667759443,0.309494392737826
319.0,0.02440351195270367,0.04350064029884106,0.0445932502938063,-0.054810349489846366,-9.785709499343746,-0.5339540636911055,-0.528516837624415,-2.559176821316218,-0.25753942693070514,51.068257502808535,-0.3192657276293448,93.11735677705555,-0.6200190935589949,-0.3170762990820426,0.6532381772699873,0.29638510249573574
320.0,0.013471676020465418,0.045522032308229446,0.03751140320039088,-0.039484027791518175,-9.782854749671866,-0.5593247020964491,-0.2881883195566244,-0.6072679667650845,-0.061934174452394214,49.607717461081684,-0.22493304302614192,93.27339613046325,-0.6229136038941927,-0.308105346440663,0.6585383314844562,0.2880876455310219
321.0,-0.00572701633971842,0.04638429609997531,0.032123511209940545,-0.027260624317595322,-9.781427374835925,-0.5742371311068758,-0.14476737768943332,-0.344993061132749,-0.09765137739839051,49.18644247743911,-0.15351801034681786,93.38506377881912,-0.623471209510146,-0.3051369867411977,0.6606490768156547,0.2855719004444342
322.0,-0.01116729714288266,0.04891755328189264,0.03535750559402791,-0.02171963096068267,-9.780578877596096,-0.583483514999755,-0.0833068953926223,-0.34220699583533765,-0.07734785061687957,48.98117151665539,-0.12175305982682805,93.45146905840329,-0.623671522034001,-0.30379466221873375,0.6617093463427131,0.2843324691794836
323.0,-0.016242861670170562,0.04750007673869803,0.03158698837863664,-0.020658202577115536,-9.780128148475459,-0.5886974026611681,-0.050257634727917534,-0.03428801445399987,-0.054389294728446294,48.836183876607265,-0.12229846091699825,93.48804131683605,-0.6238461476441591,-0.30296109411421374,0.6623303826263905,0.28349595535668537
324.0,-0.018098915421496074,0.049057678880259525,0.027389844026940814,-0.019670683259392946,-9.779999999999985,-0.5898745519713267,0.017215591308333243,-0.004848864173460948,-0.02471558459461685,48.823333873787504,-0.1199069635561571,93.49798387096774,-0.6238576033050665,-0.30274108918481335,0.6624767356525677,0.28333410190724256
325.0,-0.018781605491282917,0.0493309486212712,0.022710465162078072,-0.019730054891345224,-9.779999999999985,-0.5900000000000005,0.00043084155987381696,-0.043290893694119495,-0.021377815732654442,48.825603428829226,-0.1221454620648169,93.5,-0.62385732316911,-0.30271264018828475,0.6624946731354235,0.28330763805263576
326.0,-0.01795531887467372,0.04930939490616909,0.021712552680294622,-0.019902248289345073,-9.779999999999985,-0.5900000000000004,-0.019596924133214455,-0.02590258084209697,0.002508982952531342,48.817082111436946,-0.12402248289345064,93.5,-0.6238847534555223,-0.30265111113880727,0.6625207201955032,0.28324325280547435
327.0,-0.019358815915267537,0.05066007379717055,0.013459366798076479,-0.02000000000000001,-9.779999999999985,-0.5876972704714638,0.03784421783413719,0.10908091124824996,-0.007357528224463708,48.826395781637714,-0.125,93.48263027295286,-0.6239179352310701,-0.30271090416241825,0.6623961616929093,0.28338172548499907
328.0,-0.019337276970341495,0.05080413269526171,0.008198402851628659,-0.02000000000000001,-9.779999999999985,-0.5836873449131508,0.06553745593564142,-0.08744390410217023,-0.018876100378116507,48.84061724565757,-0.125,93.43939981389578,-0.6240523354478911,-0.30271395832754344,0.6621995473982628,0.28355740455334993
329.0,-0.014232945146251605,0.04953417080231594,0.007950851567787052,-0.02000000000000001,-9.779999999999985,-0.5816823821339943,-0.018750205607564477,0.0771599662098654,-0.03231369604857508,48.833401242574624,-0.12402248289345064,93.40518377791562,-0.6241548861941317,-0.3026889040220317,0.6620735859474207,0.2836566250479359
330.0,-0.02037175941435391,0.051084110696517394,0.010071496299800347,-0.016764564275397218,-9.779999999999985,-0.580679900744416,0.026050899936856997,0.05990326742773555,-0.034716808766482275,49.01361022648712,-0.09225317693059629,93.38807575992556,-0.6237794012795403,-0.3035749777067309,0.6616007753473268,0.2846368256992208
331.0,-0.01853517406201567,0.050151430348258697,0.011149659440222755,-0.018382282137698616,-9.779999999999985,-0.5801786600496268,0.018176029605525272,0.02407650770580326,0.0029603960199846673,49.04208737130807,-0.07636852394916911,93.37952175093054,-0.6237458772526732,-0.30370300788562343,0.661518396867212,0.28478529526896523
332.0,-0.025102063749735025,0.05057476640752592,0.0006913090661922437,-0.01539607465518707,-9.779999999999985,-0.5799999999999991,0.03558779585662339,0.5107656294185124,-0.008646060930308353,49.257030220466476,-0.06842619745845552,93.37578755040323,-0.6232249723344083,-0.30478822011826057,0.6609959796964873,0.28595536311543424
333.0,-0.028096409387723988,0.05521166879282326,-0.009588602128895467,-0.017099626855410277,-9.784263674614298,-0.5411033193080872,0.32677023763144397,-0.5855089480157321,-0.08144110732642111,49.18510871048453,-0.0868954269199711,93.15386863020103,-0.624733901959521,-0.30390353073745535,0.659892765255889,0.2861391290068026
334.0,-0.005593744240804062,0.05921523131085764,-0.027142254653635543,-0.018250608191613515,-9.787293127629727,-0.512304815334268,0.5586154728469175,-0.04778217918020655,-0.13303681763533007,48.88077846166412,-0.09803062178588126,92.99000701262273,-0.6264647088433544,-0.3017760609656507,0.659757911652765,0.2849062893398797
335.0,-0.012164455456095475,0.05145473678601875,-0.04466277534856858,-0.024235899128234754,-9.788807854137442,-0.49939718945081524,0.04291527982599069,0.15430444837472154,0.018508602709141175,48.971136526139205,-0.14098637351153645,92.91779762395842,-0.6266547280360533,-0.30260864076320704,0.6588992781140428,0.285606451894302
336.0,-0.001570414040464885,0.05102277962809554,-0.05922765369284372,-0.029329615494298543,-9.7895652173913,-0.5034988598601844,0.0036402290507549506,0.5002312053517444,0.055448987266523746,48.84315498423619,-0.1671430983775093,92.93561666438752,-0.6268448819985832,-0.30228719845219565,0.6591906846934139,0.2848489826545084
337.0,-0.004205477218270767,0.05391141520357658,-0.06319451877789684,-0.02914505736630635,-9.789943899018228,-0.4909361632331364,0.15723806458818312,-0.6710810208508671,-0.02601570133159367,48.94563323549677,-0.16525317117875918,92.86907480198022,-0.6269691337425299,-0.3027177191696395,0.6585595501767374,0.28556232775521484
338.0,0.0007749540581786019,0.05275428349994342,-0.06979987024233064,-0.0349138096555702,-9.789999999999997,-0.48507069966238414,0.14981153777832215,-0.18853076467795987,-0.0036347611559611834,48.51504249612434,-0.1776914523495479,92.83862517565116,-0.6282206231853226,-0.30043262501650947,0.659404487072689,0.28328445956211135
339.0,4.8605521914848375e-05,0.05307714534618849,-0.07200221152638701,-0.037788835636574265,-9.79,-0.4824301604903788,0.07203374026327551,-0.22015184977523697,0.0035713255032219834,48.31658438863828,-0.1838521544122681,92.82506586038284,-0.6287605712904714,-0.2994115869352333,0.6597805176762372,0.28227415285031876
340.0,0.0006528606357202323,0.05308743415317014,-0.07229380026034721,-0.03906045197388487,-9.79,-0.4810632775886431,0.04941819840488254,-0.08340668864473424,0.0006590024100550144,48.20562675314267,-0.185794673031561,92.81798240836979,-0.6290573987571901,-0.29882445274418185,0.6600009282095607,0.2817124082396755
341.0,0.0003526718624401496,0.054393440044734905,-0.06287115996225491,-0.039627442071785576,-9.79,-0.48004997728305354,0.012854515430049276,-0.06087399084332297,0.015242907507077203,48.15561938629294,-0.18661971830985916,92.81275556565197,-0.6292026886251705,-0.2985542474039068,0.6600884604547583,0.28146648051179535
342.0,0.0028399503722084363,0.0553455334987593,-0.0711954094292804,-0.03690322580645162,-9.79,-0.4772208436724569,-0.0049084987593052114,0.142772952853598,0.0028594137717121585,48.197177419354844,-0.1875,92.79513027295286,-0.6292303266550869,-0.2987132344168732,0.6598923598064516,0.28171638415880884
343.0,0.01279935585845882,0.05327931353886943,-0.07914898110064923,-0.04269376933274413,-9.789999999999996,-0.47062102722730215,0.17619326583160544,-1.2227047146401984,-0.09953862990329379,47.24518763384208,-0.2347823685373398,92.75299763758116,-0.631778625704069,-0.29350801306726937,0.6618976409561848,0.276527874402257
344.0,-0.002174690776069084,0.053098129985023675,-0.06640093924394598,-0.03914574614644798,-9.789999999999996,-0.47811886275976084,0.22916819181231418,-0.7286290322580645,-0.09443888873649581,46.545975440041744,-0.2063973512515921,92.79508278463499,-0.6332497079245788,-0.2892856952463773,0.6640045769097082,0.2725861680859628
345.0,-0.008415673505511673,0.0535836250551021,-0.05738040161523249,-0.03487378785415804,-9.789999999999996,-0.48422072170246067,0.1875775585325413,-0.1611819932595089,-0.07615451636210924,46.360042366145095,-0.19694867562579604,92.83604945683362,-0.633526408411013,-0.2880906424618983,0.6647425691024225,0.2714879384676323
346.0,-0.010570910798859336,0.052076489047851685,-0.059834193327485345,-0.027937127681169724,-9.789999999999996,-0.48293317525048224,0.21479360718729773,0.25433096546612066,-0.1386357955996902,46.42017429200195,-0.16464135511070074,92.82848230204934,-0.6334365652761003,-0.2879589008288921,0.6647659492426559,0.271840368598005
347.0,-0.01795528019828673,0.05406456229217908,-0.058201779722619265,-0.01615722464214889,-9.789999999999996,-0.47021423782450444,0.24933839694653254,0.008756203839910479,-0.10528441783894579,46.64179488718452,-0.09347048205192907,92.75016396477007,-0.633309031532779,-0.28827964048670707,0.6641733416926117,0.27327767045578133
348.0,-0.02084921969056388,0.0518535871048237,-0.05644672078690192,-0.012462173964910065,-9.79,-0.4650342068486202,0.18947893027924198,-0.016837778973345006,-0.046019788035010466,46.75991453288829,-0.0744915379769146,92.71840390019324,-0.633184232210966,-0.28848442458887863,0.6639168657185649,0.2739753152185769
349.0,-0.014926866759777946,0.0520523757501003,-0.05972348977071506,-0.010816001593460727,-9.789999999999997,-0.4621067618683332,0.1313774891175406,0.03788334658370872,-0.043610527966099336,46.71265494412226,-0.06662788473798291,92.70055038463173,-0.6333908420326871,-0.2880594278770681,0.6640021228523106,0.27373531197030854
350.0,-0.03258578178964285,0.05339003278711223,-0.060492887087062464,-0.005365093889143063,-9.789999999999996,-0.460569509966425,0.028771811199003662,0.4641751831618592,-0.01331238681292307,47.22302930445514,-0.0317128987257277,92.69100099876746,-0.6322040673692564,-0.29065488736358147,0.6628099504948064,0.27657549768571216
351.0,0.0015704979468776706,0.053864155585886336,-0.05367123728023853,0.0028997312030425324,-9.791017719218532,-0.43616544821224545,0.5599123955349067,1.5928220074261645,-0.1779958841925996,47.784220034827044,0.016746484744821065,92.54716649112662,-0.6316684698357189,-0.29288417209025464,0.6608534334706415,0.2800410044613167
352.0,-0.03162731011278354,0.05671280597623432,-0.04790037580076684,0.007969335599780487,-9.794680313431623,-0.37797750711071576,-0.22778736133215965,0.7959927552764401,0.0287916138699022,49.34632447194558,0.04681883115908417,92.20834046479496,-0.6296952407916325,-0.3003894679897838,0.6551437184364015,0.2895163952448591
353.0,-0.014436134349021,0.054306390755915014,-0.039190043909889595,0.012142323410976118,-9.79234015671581,-0.40394104796698926,-0.06839032554777696,-1.4347011724264358,-0.09293674295495907,49.04908926214971,0.07121439059090057,92.36114149545972,-0.6296014609608391,-0.29865958924631597,0.6569544872765307,0.2874780934304189
354.0,-0.042303404417912256,0.04991438794882749,-0.030557485298053307,0.008572236974305264,-9.7911700783579,-0.447867298177043,-0.1533276163418259,-1.5006148824009011,-0.03588858164365745,48.236339596861754,0.05252923830620297,92.61249279074062,-0.6301567931752386,-0.2949301899185637,0.6603315948055184,0.2823563706264508
355.0,0.005955829127067588,0.05053554071520001,-0.02083924990508674,-0.007185338337285466,-9.790585039178946,-0.4745788103788441,-0.06922087614803567,-0.9234389723226677,-0.053619919546739864,46.135946435721415,-0.040933070065702806,92.77902865343482,-0.6342454014138348,-0.2844547509113558,0.6658542412846846,0.2703442370576198
356.0,-0.005715860993031398,0.04903651183874493,-0.010383277837595616,-0.0102987118765028,-9.79026071586389,-0.4886774106414893,-0.08903172385320911,-1.0406892726220336,-0.040440127878776565,45.49448389482572,-0.06049095575070691,92.86666959704908,-0.6353159970494888,-0.28125195627803135,0.6678220590839598,0.2665920961980511
357.0,-0.00841525788673133,0.04846818771441176,-0.01153582100362813,-0.012082534289420493,-9.789999999999996,-0.49717564743298504,-0.0727330627053579,-0.005961354851878986,-0.033215830748869093,45.01978660885368,-0.07117125614839104,92.91890428593064,-0.6361826201973989,-0.27883520015957963,0.6692095013080726,0.2638224901155548
358.0,-0.007680292883998712,0.04959556866893057,-0.011597905132353904,-0.011452443882556684,-9.789999999999996,-0.4997032258064516,-0.031014711243362254,0.015250532905452578,-0.02449861244050644,44.982590373940695,-0.06930609604330047,92.93494623655914,-0.6362186610687128,-0.27862971376323953,0.6694267105893965,0.2635290037389554
359.0,-0.005163313597424577,0.0507268165925298,-0.011211660288562096,-0.01096063054342888,-9.789999999999996,-0.5,0.022388538806471365,0.05649867798742814,-0.02624368549689056,44.984857014927336,-0.06740842436573626,92.9375,-0.6362175934010228,-0.27861561754183484,0.6694592635119029,0.2635096501963594
360.0,-0.0069230718579828664,0.04916994251624755,-0.011657487104615886,-0.010282677834186047,-9.789999999999996,-0.5,0.0212594257371335,0.05325777179973888,-0.006638047503859487,45.038401928635864,-0.06386095911608031,92.9375,-0.6360992414665265,-0.2788748849476553,0.6693569400567241,0.2637924082558353
361.0,-0.006981781136393768,0.04808063469468925,-0.01327834244561967,-0.010098176718092572,-9.789999999999996,-0.5,-0.02190849907037552,0.10452851768189525,0.022794869525888342,45.052097942964004,-0.06296750818139317,92.9375,-0.6360704444179517,-0.278940003312083,0.6693319144672538,0.2638613271129244
362.0,-0.006620174561435998,0.05002122143624309,-0.011580732700135689,-0.010000000000000005,-9.79,-0.5,-0.022980447974429677,0.04959316882764163,0.01466729487011143,45.0625,-0.0625,92.9375,-0.6360473599999994,-0.2789917894868036,0.6693114305131971,0.26391610948680344
363.0,-0.0075698060565658086,0.0498395828212872,-0.012024180922592097,-0.010000000000000005,-9.79,-0.5,-0.018155668757498317,0.05529887781934002,0.027536059270532067,45.0625,-0.0625,92.9375,-0.6360473599999994,-0.27902126093300256,0.6692819590669981,0.26394558093300236
364.0,-0.008254162303753063,0.05027808060980905,-0.017540445752289767,-0.010000000000000005,-9.789999999999997,-0.5,-0.003887966270609506,0.00714574404090533,0.015640084317864768,45.0625,-0.0625,92.9375,-0.6360473599999994,-0.27903797982134,0.6692652401786606,0.2639622998213398
365.0,-0.00780743305803489,0.05364343913188399,-0.01712310655160921,-0.010000000000000005,-9.79,-0.5,0.007815914225399059,-0.009654156327543425,0.015212515277211954,45.0625,-0.0625,92.9375,-0.6360473599999994,-0.2790463392655087,0.6692568807344919,0.2639706592655085
366.0,-0.008477840046328254,0.05241727551055909,-0.016695589837862353,-0.010000000000000005,-9.789999999999997,-0.5,0.0054499173992433505,0.005969835362438876,0.003876282149482679,45.0625,-0.0625,92.9375,-0.6360473599999994,-0.2790505189875931,0.6692527010124075,0.2639748389875929
367.0,-0.006871749559219469,0.052899291187868444,-0.017336064713652587,-0.010000000000000005,-9.789999999999997,-0.5,0.001677417531112765,0.008920044382475172,-0.012328909079405589,45.069342619745846,-0.0625,92.9375,-0.6360316091495599,-0.2790836346941876,0.6692429736929091,0.26400795352116696
368.0,-0.0013142866902797093,0.05153401283959179,-0.014422374788588082,-0.010000000000000005,-9.79,-0.5,0.03230583035364571,0.18865667231530708,-0.016710360246898825,45.1066160989548,-0.0625,92.9375,-0.6359386789370627,-0.27927906726024526,0.6691739724320626,0.2642116233784494
369.0,-0.012073494121923808,0.052572325575946086,-0.006481803871200738,-0.006946842344388917,-9.789999999999996,-0.48807814629713775,0.3485334223411376,0.8177984599819668,-0.021576146509149262,45.84557576869594,-0.041600408905043164,92.86207973648342,-0.634605601167759,-0.2831786368400272,0.6670443590851818,0.2685192614325232
370.0,-0.001862999941146237,0.048597150691198854,-0.007692658848042766,-0.014740702278185249,-9.789999999999996,-0.4899837736093985,0.01450468640098354,0.8526109775428266,0.14197105332952675,46.48168765393322,-0.08937739339261375,92.86707097423249,-0.6330362861506997,-0.287409788710336,0.6652870404688581,0.2720323766932202
371.0,-0.005642557414078376,0.0501163834072405,-0.0052546728200308125,-0.020491793264329823,-9.789999999999996,-0.49499188680469924,0.017199118831565316,0.4562689037561755,0.07392346870374907,46.94571811539166,-0.1081967612124359,92.87002742260012,-0.6318215325250653,-0.2905652092602913,0.6640435140010326,0.27456222955154364
372.0,-0.01644783069781844,0.05162214612506143,-0.009659660128665561,-0.02040718695474556,-9.789999999999996,-0.4974959434023496,0.0851981007997718,0.6342912138891469,0.079292009296798,47.53061645837572,-0.11760644512234698,92.87150564678393,-0.6303681597765607,-0.29394358686110933,0.6626290860249693,0.27770603768855395
373.0,-0.02468063699538419,0.05164350628395823,-0.01716744501105589,-0.017252929340750393,-9.789999999999996,-0.4961673265398842,0.12084401463868316,0.8042451179648624,0.0005823643039237422,48.15676659293038,-0.10048965519874464,92.87224475887584,-0.6288432491915934,-0.29737783552105235,0.6610856522610611,0.2811543885092894
374.0,-0.02198889421396432,0.0506867594063493,-0.01719723151658353,-0.013721875847113044,-9.789999999999996,-0.4932949308755755,0.1311629239825663,0.2896018211635334,-0.044751618641066096,48.528666742006465,-0.08214793982108973,92.87497119815669,-0.6279628752202373,-0.29938049802479993,0.6601468095099865,0.28321401795172474
375.0,-0.022088917153065116,0.05260144421930368,-0.01603179548179407,-0.011665085388994315,-9.79,-0.49161290322580586,0.07560450346593751,0.16774157878453172,-0.010019818537122908,48.69895318667143,-0.07115749525616698,92.875,-0.6275719016700263,-0.30026614773820637,0.6597162122411688,0.2841569654574294
376.0,-0.022701062567102397,0.053464269346728474,-0.016878671589439388,-0.010578747628083498,-9.789999999999997,-0.4906451612903219,0.043844798883793897,0.08536581555522371,-0.01047520022365317,48.779534705290175,-0.06582068311195446,92.875,-0.6273898553985804,-0.30067647745069703,0.6595123157054994,0.28460427373440744
