time,linaccel_x,linaccel_y,linaccel_z,gravity_x,gravity_y,gravity_z,gyro_x,gyro_y,gyro_z,euler_x,euler_y,euler_z,quaternion_w,quaternion_y,quaternion_x,quaternion_z
0.0,0.14,-0.08390243902439024,-0.02707317073170731,-3.7453658536585355,1.8036585365853666,8.87317073170732,0.9878048780487805,3.8765243902439024,0.009146341463414634,136.10213414634146,-22.45731707317073,-11.480182926829269,-0.36460615975609745,0.014450445609756096,-0.21709460707317071,0.9053582914634145
1.0,0.123015873015873,-0.06923732094463801,-0.016802168021680216,-3.898296554394114,1.8128068137824243,8.80534262485482,0.4602206736353077,1.7485240030971736,-0.0743321718931475,136.40805265195507,-23.42724061169183,-11.625338753387533,-0.3614510234107625,0.012555684885791715,-0.22502445188153303,0.9047136549322494
2.0,0.1268639455782313,-0.06038742326198772,-0.01305807200929152,-3.954841380454621,1.8149172059067527,8.779432553509206,0.37402314584370333,0.9716888584702172,-0.12292807366849176,136.4963082794093,-23.78846026215364,-11.678716608594657,-0.3605358966046124,0.011733895093910731,-0.22795586180637128,0.904363888113821
3.0,0.13829260549748357,-0.054717382888114605,-0.006223848238482385,-3.9799666279519936,1.8208800619434766,8.766206736353073,0.17210511033681766,0.20142228029423154,-0.044358304297328684,136.60315524583817,-23.950061943476577,-11.72730352303523,-0.3595824979602012,0.011767103694231514,-0.2293627607454123,0.9043964280466121
4.0,0.1389280656401034,-0.05732100708103856,-0.010139035629987636,-3.9429946049230074,1.8043275261324045,8.786843505301409,0.16392182758233112,0.25337637218538084,-0.1650888876400285,136.51227942002924,-23.71316361320295,-11.600000936645312,-0.36049171658596524,0.011497631557116632,-0.22711491347896295,0.9046083129257803
5.0,0.12637197931887154,-0.04757474429583006,-0.02313796785433292,-3.80112751489266,1.7041661234123864,8.863492563036226,-0.6609580476565133,-1.7210448980929902,-0.26679896781686707,136.43545225918848,-22.81065340376906,-10.887849602862389,-0.3618804803268142,0.009263715876906074,-0.21778283763247913,0.906204197615526
6.0,0.1133388314413098,-0.04601471469783823,-0.03176790865834926,-3.777357920272751,1.6310285302161778,8.89027162714023,-0.0175181943351691,0.5518239411224757,-0.19765639635082982,135.9820646472594,-22.66400085703046,-10.399603564872054,-0.3657222401756959,0.005280218575165786,-0.2151463785858248,0.9053860464099135
7.0,0.10567344797871941,-0.04588235734891913,-0.03236379303885206,-3.8185297665879894,1.6169255554306696,8.877393878086245,0.07979937057435091,0.563991607658012,0.009387527631036688,135.47308877524256,-22.918139541418455,-10.32208000824248,-0.36960135532171895,0.002822279469034506,-0.21691230678888015,0.9034411959307631
8.0,0.10747716458731406,-0.051041886778314796,-0.03269409164137725,-3.855168895882507,1.620557978344761,8.861751227005357,0.24803796223446106,0.6178435615001312,-0.14247382076355325,135.17046944662997,-23.151142941440934,-10.363139728747516,-0.37179887788430555,0.0016831711987186696,-0.21887657859900342,0.902099708086546
9.0,0.10968174665617625,-0.041073170731707326,-0.028382376081825346,-3.863772619984264,1.6447820613690005,8.853356412273802,0.6626278520849723,-0.6475634343036978,0.4840578284815106,135.0388301534225,-23.20152193154996,-10.519785110149488,-0.3727337006671911,0.0024337774472856016,-0.21979996832100707,0.9015015569626278
10.0,0.11854032258064517,-0.04132258064516131,-0.02574193548387097,-3.8185000000000002,1.6939677419354835,8.863677419354842,0.06129032258064515,0.4892641129032259,-0.22963709677419356,134.9476310483871,-22.919707661290325,-10.812046370967742,-0.3735497747419354,0.005517922282258062,-0.21858382683870967,0.9014554921532256
11.0,0.10888040912667193,-0.04309834775767114,-0.025577694728560196,-3.874214398111722,1.690836742722266,8.840724429583013,0.2017260031471282,0.7501118705743509,-0.02777955350118018,135.09301362116443,-23.273780487804878,-10.818826219512195,-0.3722183976186073,0.004503107794059795,-0.22135932268666403,0.9013405953418566
12.0,0.1159118804091267,-0.04976081825334383,-0.02322069236821401,-3.9410631392604234,1.6959968528717542,8.809932926829267,0.22225118017309203,0.6042523111723053,-0.36258851298190403,135.18003294649878,-23.69700039339103,-10.887023013375295,-0.3712026290712037,0.0035940758843430367,-0.22482143715145553,0.9009017837690796
13.0,0.11961978756884342,-0.04928009441384738,-0.020787372147915033,-3.9986569630212436,1.6950910700236035,8.78513434303698,0.2690610247836349,0.4500122934697089,-0.27505532061369,135.39728437254132,-24.064213709677418,-10.906012736034619,-0.3692542799815105,0.002808328024390244,-0.22770633867407553,0.9009803398137293
14.0,0.1331447678992919,-0.05332926829268295,-0.011647128245476005,-4.058394767899291,1.7012580645161293,8.756110149488595,0.2678956038552321,0.4695355527143981,-0.3341266719118804,135.69111182140045,-24.45317909126672,-10.987717594413848,-0.36669499021675844,0.0025535014008654603,-0.23093983636723056,0.9012054003310388
15.0,0.13239496459480726,-0.050769472856018905,-0.009702596380802519,-4.11394335169158,1.701290322580646,8.73102281667978,0.2769669551534225,0.478845397324941,-0.21504720692368212,135.8955055074744,-24.803756884343038,-11.011172305271439,-0.3647991563745082,0.0018640174665617622,-0.23376459120377666,0.9012525031534226
16.0,0.1300157356412274,-0.04788670338316288,-0.019789142407553105,-4.046187254130604,1.7125177025963807,8.758467348544453,0.3602478363493312,-0.6188926042486231,-0.016630605822187255,136.02680959874112,-24.36406372934697,-11.047541306058221,-0.3640341183697875,0.004030040014162077,-0.23047606847836355,0.9023760014838711
17.0,0.12849724626278522,-0.05186624704956727,-0.022644374508261213,-3.9379402045633354,1.7684736428009438,8.79639732494099,0.037765538945712024,-0.28227773406766327,0.06148701809598741,136.19215184893784,-23.673082218725412,-11.35212922895358,-0.3631230380637293,0.009162856250196695,-0.22606284730763182,0.9038133862572777
18.0,0.10897560975609757,-0.0572714398111723,-0.030116050354051935,-3.890853658536585,1.7830078678206136,8.814667584579071,0.5363247442958301,0.030532061369000774,-0.3339250590086546,136.2865116050354,-23.376873524783633,-11.424289437450826,-0.3625268964944925,0.011001773981904012,-0.22396068299449257,0.9045697420239966
19.0,0.09783556254917387,-0.06662155782848149,-0.02860247836349332,-3.9508202202989766,1.7912521636506686,8.785162273800157,0.5655905782848152,1.2453751966955153,-0.7829145357985838,136.61057976003147,-23.7637711447679,-11.51569507277734,-0.3596985991402438,0.010895414945318645,-0.22725003615892997,0.904864684709874
20.0,0.09472308081375744,-0.07284380502791202,-0.023016100932898735,-4.038008420441346,1.8048177100895433,8.743014124611294,0.2555703467460942,0.22645583951519233,-0.18826266344460682,137.00858289076842,-24.31846391339777,-11.653581263347196,-0.35616957650887004,0.010689627568665466,-0.231968702438144,0.9050647466489079
21.0,0.08761458918736653,-0.07358752013787419,-0.023868494998314047,-4.070614458057023,1.8020223483571236,8.728538140197069,0.20486399910082048,0.3417161917874939,-0.027817897418605533,137.18670010490428,-24.530405614251997,-11.659963330336069,-0.35466072619178757,0.010305033961653741,-0.23359990226608224,0.9052656435282302
22.0,0.09652169270540631,-0.07189604173691508,-0.017945262448016194,-4.121554278595781,1.8037019688284444,8.704827685362108,0.18779785320894682,0.4915701336592859,-0.13455706043235546,137.20497475740885,-24.85855941609531,-11.698195669888726,-0.35422582888267595,0.00944337018696377,-0.23626786565703792,0.9047628913628561
23.0,0.10796245925592896,-0.07275044022329627,-0.010569405417556483,-4.195837623168858,1.8019437263497051,8.669595294293956,0.2025682814431831,0.47333042973286876,-0.1694962721516616,137.267709152898,-25.33457204675733,-11.728482915589524,-0.35344001048166046,0.007986844492675433,-0.2400388107640028,0.9040940969394928
24.0,0.1289403169607733,-0.0733531902139298,0.0008175789591997286,-4.244404256116294,1.8010269379191475,8.647783485069873,0.19345565921096997,0.2826919654565209,-0.16129219587126747,137.29669387621297,-25.654048415196133,-11.74182308643363,-0.35302455467985455,0.006988832916676032,-0.24249175850946014,0.9036077577702973
25.0,0.1420692368214005,-0.0701266719118804,0.00933044846577498,-4.273844217151849,1.8002753737214778,8.632840283241542,0.18615755310778914,0.25024095200629426,-0.09177321007081038,137.30375688434304,-25.838645751376866,-11.745623524783635,-0.3528693308575923,0.00639425799213218,-0.24402191205350127,0.9032645555955943
26.0,0.15371282454760032,-0.07065342250196693,0.014872934697088912,-4.292740361919749,1.797995279307631,8.623317859952795,0.20496410306845003,0.18815647128245475,-0.1432115460267506,137.30790715971676,-25.967444433516917,-11.745426829268293,-0.35278359955310756,0.0059466782832415434,-0.24501269078914245,0.9030328168992918
27.0,0.14469354838709675,-0.061298387096774196,0.007250000000000002,-4.285306451612904,1.785741935483871,8.62937096774193,0.1894657258064516,0.1735383064516129,-0.14128024193548389,137.3,-25.91728830645161,-11.671370967741936,-0.3528683065483871,0.005574478032258065,-0.2443998765,0.9031704323387096
28.0,0.14153225806451614,-0.05398387096774196,0.005629032258064517,-4.290379032258066,1.777387096774194,8.62783870967742,0.1908266129032258,0.21900201612903225,-0.07837701612903225,137.2741935483871,-25.9453125,-11.64133064516129,-0.35294907837903233,0.005126608451612905,-0.2445172704516129,0.903102603629032
29.0,0.15263709677419357,-0.04837903225806453,0.0036693548387096778,-4.25092741935484,1.7782419354838714,8.645564516129031,0.1188508064516129,-1.0794354838709677,-0.06683467741935484,137.30947580645162,-25.688508064516128,-11.618245967741935,-0.35286904390322593,0.005972141685483871,-0.24247087002419354,0.9036649638387095
30.0,0.1698221966205837,-0.025685483870967748,-0.009986943164362522,-3.5821666666666667,1.7833452380952388,8.905339477726574,0.14190668202764978,-4.1786866359447,1.283170122887865,137.37319988479265,-21.49499327956989,-11.326212077572965,-0.3548154848010754,0.018818329013056835,-0.20863149352342547,0.9101283783913211
31.0,0.1769897742292716,-0.05298387096774193,-0.021263914192833924,-3.3214077894473615,1.8300307398278144,9.011420301503946,-0.4239981312292359,-0.2505504166220125,-0.48372321875111624,136.3548529431465,-19.849415478869716,-11.470715167631194,-0.36392053409558645,0.02435648435949166,-0.19651524260839315,0.9094508385316507
32.0,0.1551387043189369,-0.06435483870967743,-0.040850275068767185,-3.2776629961061694,1.808790715536027,9.0433929464509,0.49718512217340055,-0.882296857696567,1.7082043948487122,135.35095157718,-19.548579667238236,-11.302459878362448,-0.37218470680720184,0.022538465156896368,-0.19389640864002605,0.9069770680192815
33.0,0.1299097899474869,-0.08363863287250384,-0.04776672739613473,-3.2026262369163723,1.8615305344193191,9.064337218233131,0.14715726922802136,1.8670876982638516,0.13940125656414093,133.89571388382808,-19.075919537920193,-11.591377308612868,-0.38388638727456864,0.02404331402852499,-0.19148904481022044,0.9026606616288805
34.0,0.12601970614604874,-0.08832059495710164,-0.04103599941797295,-3.4240181735329305,1.8628149328272836,8.983359698809721,0.4496155887839556,0.8140457915001398,-0.19842117541580523,133.73578229596598,-20.447746600195345,-11.707726419845379,-0.38432545211918834,0.019333454054585076,-0.20250741953433915,0.9002710527220918
35.0,0.11064042142939917,-0.09188303173354315,-0.03133981230499262,-3.631018303356327,1.909375976398281,8.893807345564618,0.486352533255265,0.9184956300050622,-0.2809022159721115,133.85169011111662,-21.73997833081964,-12.112551765990277,-0.38250308803348043,0.017628768248490693,-0.21385984560050292,0.8985350362611997
36.0,0.1028676332846278,-0.08471263721853808,-0.028811584429208347,-3.6820757933385786,1.9715866771570947,8.861328350380274,0.3937083192836537,0.28881458169420404,0.16976930425986286,133.84338470832864,-22.058597701472404,-12.535536323105166,-0.3822558449582256,0.019582409923195078,-0.21775290333520664,0.8977427439976021
37.0,0.09397250009366453,-0.075009741111236,-0.030455584279345103,-3.7337823610955008,1.9868347008354874,8.83852871754524,0.40513187965981046,0.5078666498070511,-0.3166598759881608,134.0420705949571,-22.380357611179797,-12.655218519351092,-0.3804808801410587,0.019619175554306697,-0.2206020894949609,0.8978399731323292
38.0,0.10255891499007155,-0.07766662920085422,-0.026460230040088427,-3.7775261324041813,1.9948728035667451,8.819426023753325,0.13876166123412387,0.2328055337004983,-0.10451322543179348,134.24675452399686,-22.661395695178147,-12.716770165973548,-0.378620757928515,0.019407975670076058,-0.22295255035892247,0.8980856208223748
39.0,0.11651155820313963,-0.08708272451388108,-0.0183599340601701,-3.801418455659209,1.9996708628376605,8.808182720767302,0.18270203439361582,0.16063467086283767,-0.12488643175602263,134.3218676239182,-22.812503512419916,-12.750792636094562,-0.377838422536248,0.019288403118279576,-0.22423346909763592,0.8981013836999361
40.0,0.12641718758555898,-0.0943221137634985,-0.006448370669456431,-3.822244144525811,2.0052622895069785,8.798952816132203,0.1567090462645144,0.18533697976557928,-0.12752984296060613,134.37972627621525,-22.943223353161393,-12.816092214892372,-0.37738573706600903,0.019293274123242353,-0.22540125604858166,0.8979977419885126
41.0,0.13502128346345496,-0.09953620206177247,-0.004308539611450706,-3.8106316447779864,2.0134961366983393,8.801139421816055,0.15359524097722366,0.03404093284109021,-0.14002072868123222,134.40652676067702,-22.868766265206077,-12.869264308337872,-0.3772394922879219,0.020017661449898125,-0.22500791735842968,0.898140464559503
42.0,0.12325696071565465,-0.09147485611687026,-0.014772193450399596,-3.767962032722063,2.0214464685589784,8.817396356593836,0.329194261678526,-0.06963795776738341,0.19870029655631544,134.31832791520046,-22.595202790914826,-12.900679932446257,-0.3780809071326838,0.021118487548784808,-0.22302760067539334,0.8982510082223913
43.0,0.11476942674424971,-0.0825266079318007,-0.01978877927737094,-3.7558278935855633,2.0150243095483065,8.824163316358437,0.08680990855459778,0.24315276252727075,-0.13204807584233233,134.35404940587867,-22.512582568886657,-12.853757784963527,-0.3778668240541468,0.02113819238478542,-0.2222668328915538,0.8985341491194382
44.0,0.11457590141303753,-0.08452451561027485,-0.017144586334200816,-3.789294749310484,2.000084932114829,8.812459313568677,0.17560892752670879,0.5294737062046267,-0.38685901038379394,134.6288834755593,-22.729073542507848,-12.780562016006549,-0.3755716683921403,0.020280744677837245,-0.22363427091863286,0.899173298245793
45.0,0.1185186017758795,-0.08781761642501218,-0.015897118879022894,-3.8232164399985016,1.9974399610355538,8.797411861676224,0.23220139747480423,0.20423082687048066,-0.23503709115432167,134.8912835787344,-22.94256022629351,-12.786409744857817,-0.3734117782342363,0.02000947881120977,-0.22524373222996508,0.8996739644460677
46.0,0.11525064628526471,-0.08113146753587351,-0.016083885954066915,-3.833193585852909,1.993330523397399,8.794984451687835,0.19544275223858226,0.1575589618223371,0.10017421602787457,135.0644212936945,-23.00476752463377,-12.764639766213328,-0.3720138340305722,0.0199531579618598,-0.22563078672080475,0.9001628176951029
47.0,0.11651624142969541,-0.0792607995204376,-0.014932374208534712,-3.8388024053051595,1.9904175564797117,8.794185118579298,0.2446049230077554,0.1999597242516204,-0.3261914128357873,135.14139363455845,-23.03993504364767,-12.747406663294743,-0.3713523216743473,0.019855335864336285,-0.22581529546757334,0.9003925402667563
48.0,0.1072512082724514,-0.08308508486006519,-0.018421640253268895,-3.824022554419093,1.9841066277022217,8.801766138398712,0.1006050728710052,0.29043685137312203,-0.42202427784646507,135.27650518901498,-22.950742291409085,-12.697008823198832,-0.3703660971274962,0.020086931871492263,-0.2249160711984564,0.901016527131842
49.0,0.09848240980105653,-0.07433561874789255,-0.023430332321756404,-3.817580907421977,1.964930575849537,8.808613202952303,0.20250060881945223,-0.020792589262298156,-0.055745616499943806,135.55216880221798,-22.90932079165262,-12.569329549286277,-0.36825602597759555,0.01984017530159979,-0.2241435985779851,0.9020762189254803
50.0,0.10622738001573563,-0.0781447678992919,-0.022585365853658543,-3.804134539732495,1.966284028324154,8.813619197482295,0.23537568843430368,-0.021523406766325727,-0.12973052714398112,135.73364968528716,-22.827994689221086,-12.56700924468922,-0.36690512501337524,0.020510357365853653,-0.22351276939575138,0.9027706356931551
51.0,-0.017869000786782052,-0.02753422501966956,0.10135011801730921,-3.8055236034618414,1.9669122738001574,8.812859166011016,-0.9735788749016522,-0.16646587332808813,-2.450634343036979,136.03679435483872,-22.83645013768686,-12.556109854445317,-0.3644998058953579,0.020971338790715964,-0.2234917783115657,0.9037237029189614
52.0,0.5651693548387098,0.7379354838709674,0.18793548387096773,-4.560298387096774,-1.7260403225806449,7.245741935483871,-5.737600806451613,5.635635080645161,-25.44364919354839,169.84682459677418,-27.844808467741935,15.505594758064513,-0.09680461230645156,-0.10740602517741937,-0.30277778867741933,0.8757157350645162
53.0,0.02646026750590086,0.59934795436664,0.42993233674272224,-3.7366648308418564,-0.28867269866247036,8.208390243902441,10.948635424862314,-5.736007572777342,10.310095397324941,151.50383433320218,-22.571977035798582,4.174793469708889,-0.2434040566164438,-0.056827889637096785,-0.23533794814653813,0.8878377554006689
54.0,0.10379248623131396,0.24975904799370557,0.19930448465774978,-3.4886819433516916,0.6844335169158143,8.652875295043273,5.860459284028323,-1.4910675649095206,4.956963021243116,141.21386211644375,-20.938355625491738,-3.0760769079464994,-0.32547328424036187,-0.024153631875098353,-0.21231172569708895,0.8905856461087726
55.0,0.11162032145667079,0.08553025364355019,0.0841464819602113,-3.4588972312764596,1.2649368045408567,8.82249947547863,3.288414165823686,-0.4463594352965423,2.390309467610805,136.36215139232323,-20.699633361901014,-7.330657981623019,-0.36363262855220857,-0.004862468405483123,-0.20743520907204677,0.8917740076935952
56.0,0.12002696492938567,-0.00028813649405386166,0.02463766333569454,-3.455036012487443,1.620977498294434,8.888843698729564,1.7975090802861864,-0.28513290125667323,1.8163862135503388,133.62552372223064,-20.649660196516898,-9.882239273069574,-0.3849575215600503,0.007152106791350712,-0.20709575489461302,0.8908174188581444
57.0,0.118203958655169,-0.04497816962951541,-0.030427328086377006,-3.155160863386578,2.0161243098231,9.029847348596734,2.985886116563984,-2.623240413761977,5.659999222366567,130.076309528166,-18.772230731899004,-12.565515997901915,-0.413303930495847,0.02646340276549102,-0.19403897736512526,0.8883655949699706
58.0,0.11615154659745074,-0.11096666152600868,-0.0439548127449981,-2.9375410925902203,2.368943350820283,9.022166003173268,0.6701411306659418,1.1797251904439525,1.075106810239145,126.62492207328835,-17.4441897168543,-14.681484395489115,-0.43965578734076377,0.04198670346378407,-0.1930550895401551,0.87517571069899
59.0,0.09197427841280877,-0.14072880676615146,-0.06508676907902933,-2.7648586658859835,2.351655782412502,9.079203379242024,-1.6416652725899243,0.21149910190962368,-2.628978852944943,127.38300588322167,-16.401672946546743,-14.486818122213478,-0.4345171883375731,0.04581332966422877,-0.1836783328290862,0.879541707677583
60.0,0.12741801478244125,-0.11554489493453503,-0.04817702509251007,-2.9862926201933764,2.0994200571048687,9.075687711126387,-0.5821613613333646,0.16334843728353687,-0.6430848565799986,128.52219130566613,-17.745469729801787,-12.997182102581395,-0.425792785724086,0.031000484679272605,-0.18785456491915137,0.8838732641813414
61.0,0.12757622419542167,-0.10650162976284142,-0.04545985538196397,-3.0499475103967635,1.976536735229103,9.09051002210483,-0.299646884717695,0.10392196807912778,-0.37089070285864145,128.6214482409801,-18.128862959424524,-12.252018470645535,-0.42524316832040754,0.024012911203102165,-0.18779217282941815,0.8846890027973473
62.0,0.11689103068450038,-0.08909874114870181,-0.050947285601888284,-3.1162848151062157,1.908948859166011,9.087952399685289,0.02233477576711257,0.3432484264358773,-0.39334185680566475,128.66523160896932,-18.53081972856019,-11.849141915814318,-0.4248791689543666,0.01944378139417781,-0.1892738880306845,0.884852441808812
63.0,0.11394354838709678,-0.07839516129032259,-0.06851612903225807,-3.074935483870968,1.8812903225806452,9.110508064516129,0.1403225806451613,-0.32691532258064515,-0.03850806451612904,128.82878024193548,-18.27172379032258,-11.663256048387098,-0.4239001863709677,0.01934770151612903,-0.18648243559677424,0.8860275275645161
64.0,0.12505940204563337,-0.07865538945712036,-0.04384716758457907,-3.1183595594020463,1.8640859559402045,9.100916994492522,0.04500639260424863,0.497694974429583,-0.23325014752163648,128.9550882671125,-18.53597069236821,-11.56766940401259,-0.42283584778540517,0.01776195950531078,-0.18814413909638078,0.8862668209531865
65.0,0.12001702821175675,-0.0730220111648121,-0.040098506987374036,-3.1950668764752166,1.8524175939455256,9.076987299089584,0.20209469015773107,0.5977542172455135,-0.2227706670787906,129.05957778370987,-19.013129835431418,-11.530586094095387,-0.42182842823122035,0.015663620630727588,-0.19160836095256828,0.886043977628667
66.0,0.11779845266194597,-0.07869456933048592,-0.03915274811734294,-3.2583517946124165,1.859689979768462,9.05260232850024,0.4184028558315537,0.35585075493612084,-0.34002396641189914,129.2043904663557,-19.407353368176537,-11.603039062792702,-0.4204113851931831,0.014861561862022782,-0.1948464593637649,0.8860257434473977
67.0,0.11343600839234198,-0.07949647821363007,-0.036784477913903574,-3.26948874152336,1.886413931662358,9.042558146940916,0.3238945829118429,0.06957565284178185,-0.2901542186504814,129.39083545249338,-19.47855497873815,-11.777961555393205,-0.41884396571037985,0.016213765293816268,-0.19598001283855046,0.8864997192445485
68.0,0.10831104117492787,-0.08040500543254281,-0.03679330111273465,-3.294734929376943,1.8857367652017534,9.034548349630958,0.2637218538083998,0.3322234086396163,-0.277254036941291,129.64835525083362,-19.63615310404256,-11.787088812708404,-0.416812313507924,0.016047743043347943,-0.19719594122700534,0.8871921022929078
69.0,0.11418541830579595,-0.08494915889251059,-0.038054400359671815,-3.3028411074894164,1.8985221984938736,9.027908321156941,0.36359774830467195,-0.44454427522385825,0.025190841482147563,129.76845378592037,-19.687485481997676,-11.866021786369938,-0.4157797665320896,0.016676775175489864,-0.19783592040736575,0.8875238985193887
70.0,0.1113438612266307,-0.09027949496084825,-0.04115316024127984,-3.27532377955116,1.8946650931025435,9.039283653666027,0.017877983215315973,0.2933720636169495,-0.050062989397175066,129.77162128620134,-19.514240052826796,-11.833106899329362,-0.4158538410648159,0.017127084404181182,-0.19640538845944325,0.8877929128103856
71.0,0.09748387096774196,-0.08921715184893786,-0.04412824547600315,-3.2972313139260425,1.8884287962234458,9.032745869394176,-0.10718922108575925,0.583910306845004,0.10645653029110935,129.88242525570416,-19.653147128245475,-11.802266915814318,-0.4149106386963022,0.016530380614476786,-0.197330473086546,0.888040432542093
72.0,0.09666089693154994,-0.085124704956727,-0.03943312352478365,-3.3193686073957513,1.871194728560189,9.028209284028321,0.04662667191188041,0.40722364280094414,0.29496705350118013,129.55249803304486,-19.783364476789927,-11.702923387096774,-0.41740410802163647,0.01467862714280094,-0.19801807107277736,0.8867503677124312
73.0,0.09443749117391917,-0.08956067804474573,-0.0341857864794529,-3.339684908914846,1.8797535909540235,9.018653654501803,0.21770272246767133,0.4486648031027456,-0.14958407094151588,129.44663524581895,-19.91330550596139,-11.766327209294115,-0.41812486186522313,0.014437011674347876,-0.19925099355248743,0.8861429807350105
74.0,0.09779132623212088,-0.09456662934495351,-0.036209828723597424,-3.3662013254251644,1.8744937309608827,9.008947794992837,0.17266184510480342,0.29439288542234054,-0.16992812418043535,129.49972891323205,-20.078326140077465,-11.731827919163187,-0.4176123482914824,0.013649372050883615,-0.20042884778834047,0.8861391754037955
75.0,0.10778679214831852,-0.10072283080150898,-0.03610491436179872,-3.358834533680324,1.8696138009643128,9.01307470394803,0.1678833419072404,-0.5700666621275394,-0.17485821531602413,129.5465378437128,-20.027948352296796,-11.692678072484819,-0.41729183305703155,0.013667342400441807,-0.19992453136594443,0.8863989364559302
76.0,0.12113572494906091,-0.10470838628981821,-0.042851827755250274,-3.230038824668644,1.8487211412374667,9.063516108858359,0.0967022925114487,-0.3963138188686478,-0.13537363952268555,129.65412061343784,-19.230560525479632,-11.51175996464524,-0.41705910201632057,0.0157177683756733,-0.1931356489717212,0.8879499744592789
77.0,0.11935338474795595,-0.0962704757869982,-0.043722572863800255,-3.1706188746999135,1.8400512388214976,9.088022263338555,0.16337970808368132,-0.05496254499499978,-0.10814740923906935,129.73190741693395,-18.867251988930292,-11.434915840617553,-0.41670172445362874,0.016737223673819752,-0.1900382349998775,0.888779019413203
78.0,0.11065684125735267,-0.0850896275898243,-0.048179376943539035,-3.1661637443332964,1.8504309130418495,9.087724944737928,0.37735554587688735,0.5068261539470234,-0.13606295193136264,129.7818486334345,-18.837077046101683,-11.498257429938931,-0.4162961787505058,0.017391325125341875,-0.19001981460852907,0.8889668836957305
79.0,0.10202718144692968,-0.09079451875163913,-0.07219029822786707,-3.110276994117868,1.8627250946011766,9.103154368513733,0.4516055856843131,-1.3170432566220822,-0.2312199102693792,129.93495952521448,-18.484121110580343,-11.558769868588662,-0.4153050663086715,0.019498620906888094,-0.1875091341454329,0.8898967073111816
80.0,0.11805852159904089,-0.07747368026675659,-0.054803866471844445,-2.91840020980855,1.9060050204188683,9.155983290247649,0.22494473792664194,-0.582089936682777,-0.3946110112022779,130.41251264471168,-17.311097373646547,-11.755718219624594,-0.4121261571215016,0.026406510456708252,-0.17909927047843843,0.8928743166104679
81.0,0.1368223371173804,-0.08659285901614777,-0.05933348319658311,-2.876765014424338,1.9144619909332734,9.168345697051437,0.45206717620171594,0.21082363905436285,-0.3666603443108164,130.83941918624254,-17.06015136188228,-11.7955912105204,-0.4089212712633471,0.02839279794668615,-0.17722390045951814,0.8946904384901277
82.0,0.1301815218613016,-0.08894927128994792,-0.06114907646772318,-2.8529101569817543,1.9422425162039636,9.171004645760743,0.3905401165186767,-0.12728307294593683,-0.13160686186354953,131.07130329511818,-16.913716233936533,-11.954103208946837,-0.40714580279757207,0.030586729829717885,-0.17661745019519687,0.8955713741759395
83.0,0.11707804128732532,-0.08771008954329174,-0.059320370162226965,-2.8322292158405453,1.9652957925892625,9.173509797309956,0.3140829305758495,0.057887021842568664,-0.21951687834850697,131.18927260125133,-16.787049005282682,-12.082335806076955,-0.40627743615638223,0.032263485106590245,-0.17608384204001348,0.8960287876857367
84.0,0.11380259263422128,-0.09107140983852233,-0.06155711663107414,-2.7945520587463935,1.9748595406691394,9.18245041399723,0.2713363118654228,0.013453739088082145,-0.23844156269903713,131.30235168221498,-16.55890117455322,-12.127104173691507,-0.405492005302424,0.03366892918114721,-0.17444539100191075,0.8966596828625382
85.0,0.11348731782248699,-0.09388055898992169,-0.05757963358435428,-2.8088390094039184,2.008320707354539,9.170288187029335,0.4597368963320969,0.5242239893597092,0.0992652017534,131.34561228503986,-16.64549801431194,-12.344802086845753,-0.4050381680774793,0.03503041848458281,-0.1758823307544116,0.8965320885741261
86.0,0.11839309130418493,-0.0973718856543404,-0.05418789104941741,-2.9388919860627176,1.9900896931549963,9.132525607882808,0.19082907159716755,1.2373072852272302,-0.4542486231313926,131.4104330579596,-17.44326598853546,-12.285901380615188,-0.4041155358710052,0.03152778800217301,-0.18181242128331646,0.8958588832799819
87.0,0.11170092174611596,-0.08682503117068466,-0.04985374261683889,-3.054638005320145,1.950586589156,9.10298385920522,-0.09438793714107971,0.5365097807552934,0.17039136199555116,131.45765240580613,-18.153221360109193,-12.087497094765851,-0.40341480302588234,0.027316152222874094,-0.18657136517234446,0.8953273035076007
88.0,0.10603329403779517,-0.08159373772014432,-0.05042329332333084,-3.110547619047619,1.945068874361447,9.085688100596581,0.13850650162540634,0.6948031650769836,0.1930070687314686,131.2607201465545,-18.495733699049758,-12.075237391937272,-0.40477913327214843,0.025523767930402237,-0.18922960172502054,0.8942257032632978
89.0,0.11121173150430466,-0.08338941878326725,-0.046409995355981865,-3.2380875576036865,1.9431020255063762,9.04102454184975,0.1952229128710749,0.9423516593434073,-0.47150961847604755,131.30252429178722,-19.286906548065588,-12.120377192512414,-0.40398047554870853,0.022793020090201118,-0.1954680703943843,0.8933089867956274
90.0,0.10501446790268995,-0.07640285071267816,-0.042502232701032414,-3.3364976958525343,1.925333654842282,9.009091379987856,0.11897282356303361,0.38352221984067447,-0.05874348051298539,131.65985469581682,-19.89302124638302,-12.056804379666346,-0.40085025410691955,0.020513273489801018,-0.19983940586539495,0.8938168220614082
91.0,0.10862858571785802,-0.08130818418890437,-0.04143928839352697,-3.3428571428571425,1.9227167506162257,9.007767656199764,0.058070321151716495,0.27293430500482263,-0.04187654056371235,131.7064154431465,-19.931797681563246,-12.04107500089308,-0.40049954118172393,0.02033130467116779,-0.2000675188082735,0.8939446622327013
92.0,0.10827956989247312,-0.07923195084485407,-0.04221966205837176,-3.332411674347158,1.9203686635944701,9.011866359447001,0.06168394777265744,-0.05198732718894011,0.26612903225806456,131.56638824884791,-19.866983486943163,-12.022225422427034,-0.40163917359447004,0.020179525606758834,-0.19952739531490016,0.8935631725729649
93.0,0.10941927990708479,-0.07526375931962084,-0.042691731295193144,-3.279886291259226,1.9538353752201119,9.024415345996774,0.3427735472631224,0.24771692705406317,0.6373227398748642,131.14909988385597,-19.537872082349853,-12.210662067738188,-0.40500758926623204,0.022202259141845572,-0.19776747284159452,0.8923741369043875
94.0,0.09658367989209846,-0.07938687197931887,-0.04682589636956279,-3.3625506725113326,1.9847287475178903,8.986485706792553,0.33860547562848897,1.007018985800457,-0.08358037353415004,130.93764518002322,-20.056786463601963,-12.449825081488141,-0.40622714642651075,0.0215078813335956,-0.20262261759207223,0.8907381535405194
95.0,0.10472350230414745,-0.08010265632610244,-0.04078472144168446,-3.4308723914428088,2.001090442471246,8.956760893184967,0.25093079127795886,0.34838522348357126,-0.046739771833202194,130.89688003446855,-20.479369216215204,-12.58902462440523,-0.4062650523818889,0.020741159331422575,-0.20634899332040763,0.8898917139037503
96.0,0.10953149001536099,-0.07035854782510959,-0.03939773706492826,-3.3175982540931406,2.0188900753062837,8.992854332921208,0.44350975047768915,-2.399204085646847,-1.0424511071147577,131.32814431830954,-19.77561490764677,-12.64731089131168,-0.4032671546663669,0.02473202931624892,-0.2010074063721854,0.8922670562414297
97.0,0.15625192012288788,-0.07891199280656402,-0.05267505900865461,-3.1744558090742196,1.750739200479563,9.08953392529317,-1.2744768835937206,1.0598305608632121,-5.254088456783185,133.72321194410102,-18.906096624330296,-10.881259132291785,-0.3852893006357948,0.01875647060282492,-0.18823714642726014,0.9024281608242478
98.0,0.1306642688546701,-0.06091472781087258,-0.03866340714098386,-3.4699563523284995,1.3732321756397288,9.041695515342251,-0.5404127327563598,1.4594971151324416,-2.8625648626877975,137.87344165636358,-20.74022376456483,-8.601794612416171,-0.35182718156850623,0.0021096653366303245,-0.19534966840732831,0.9142836566213328
99.0,0.1302875875763366,-0.061625566670413245,-0.0328363118654228,-3.729653291371623,1.3624010340564237,8.943198756135025,0.6510541942977034,2.181409463864224,1.7431367314825221,138.52066380053202,-22.374844985201,-8.658596998988424,-0.3458742011920871,-0.0021214141150949755,-0.2079863257981342,0.9141596805748754
100.0,0.10732411674347159,-0.06945314900153608,-0.022737327188940094,-3.9692903225806444,1.6028156682027648,8.799230414746546,1.1485983102918587,1.4819508448540706,1.3822964669738862,137.2927995391705,-23.898175883256528,-10.337884024577573,-0.35430656982181263,0.0025667202718894005,-0.22484918449155142,0.9070729245038402
101.0,0.0953026113671275,-0.0808325652841782,-0.017980030721966207,-4.114700460829493,1.763196620583717,8.707158218125963,0.5240399385560677,1.4462845622119815,0.5746351766513056,136.65028801843317,-24.82169738863287,-11.457094854070661,-0.3585438633333333,0.006301696677419356,-0.235429773749616,0.902952151703533
102.0,0.09423195084485406,-0.090752688172043,-0.005099078341013825,-4.241991551459293,1.8459823348694318,8.634789554531492,0.41439612135176657,0.8930443548387097,0.3276689708141321,136.25463229646698,-25.635997503840244,-12.064751344086021,-0.3610076638279569,0.007055162839477728,-0.2435768982895545,0.8999967095522274
103.0,0.09896697388632872,-0.10002457757296465,0.003405913978494623,-4.302599462365592,1.884883640552995,8.599278033794167,0.267571524577573,0.2752568164362519,0.13844086021505375,135.96810435867894,-26.027373751920123,-12.357183659754224,-0.36294013681874027,0.007259717178571429,-0.247441956124808,0.8982799196248081
104.0,0.10495929339477728,-0.09583486943164361,0.0009892473118279573,-4.289295698924731,1.8612119815668198,8.61215514592934,-0.0862999231950845,0.04057699692780339,-0.18602150537634407,135.9380088325653,-25.940274577572964,-12.18763920890937,-0.36339049545775737,0.006304158407834101,-0.24622065365514592,0.8984803372357911
105.0,0.10504032258064516,-0.08370161290322581,-0.005225806451612904,-4.260346774193549,1.8321451612903226,8.63227419354839,0.377016129032258,-0.24984879032258064,0.16280241935483875,135.97540322580647,-25.752721774193546,-11.974647177419353,-0.3632747520806452,0.005557497266129032,-0.2441269906370968,0.8991001246854838
106.0,0.11360031471282453,-0.07852222659323368,-0.006037765538945713,-4.205815696302125,1.8662665224232888,8.651688630999214,0.2684463512981904,-0.07049813139260425,-0.09413478560188823,135.99207808811957,-25.399949596774192,-12.163654356805665,-0.3633094313361526,0.008306370608969315,-0.24199527430645162,0.8996366473538551
107.0,0.1005893278633247,-0.0677517046944663,-0.005565349743359184,-4.204779775954442,1.9139779232700165,8.641253877711588,0.46195095022666816,0.7606202699411787,0.3226438687197932,135.94218919766962,-25.394314036098308,-12.48363569414784,-0.3635995485131223,0.01055453522575962,-0.24298595693932415,0.8992260726744313
108.0,0.10170883443857479,-0.06163910119515942,-0.00025252894234011536,-4.251925986287514,1.9791926866734109,8.603420909669925,0.4340536721179423,0.4139314867371024,0.054035068000449604,135.7827353438425,-25.69700220814132,-12.952559734554718,-0.364459822861208,0.012491573603471206,-0.2468146411816436,0.8978073437237364
109.0,0.0999136225694054,-0.061582434153834624,-0.005125379341351018,-4.266936045858155,2.0200200254767515,8.586465765613875,0.3913709794500019,0.23294368888389344,0.06259114729684165,135.71431650650032,-25.796778174290964,-13.23132756593983,-0.36481065088772435,0.014042798520559362,-0.24850585159033006,0.8971829938198737
110.0,0.10981971451050915,-0.07027912030272376,-0.0013449477351916374,-4.295693829380689,2.0415503353190214,8.56670465700049,0.13900706230564608,0.21727829605484994,-0.12074575699674048,135.73845865647596,-25.98699795811322,-13.400013581357012,-0.3643955494237008,0.014561136078828064,-0.250472054512907,0.8968043734381628
111.0,0.12650702483983364,-0.06775403694129106,-0.00907451950095538,-4.06588468022929,2.0196587239144277,8.678227230152487,0.22672225656588363,-1.9485107339552656,-0.3797424693716983,136.21028459967778,-24.501361882282417,-13.101462337492038,-0.3617996868558315,0.01892991268772245,-0.2379523396112922,0.901010865623094
112.0,0.11848477014724063,-0.06919107564347532,-0.019566670413247913,-3.939837548237233,1.9993927915776855,8.742370611816721,-0.1629158705181522,-0.23303524596305858,-0.28550564797122624,136.4994986605972,-23.69365446217826,-12.88014054362894,-0.36017197899018394,0.02094891303750327,-0.2310072572310891,0.9034720952136674
113.0,0.11700118017309205,-0.06753697875688436,-0.011000786782061369,-4.019958300550746,2.039464201416208,8.697163257277737,0.6871139850511407,1.2193130409126671,0.004612509834775791,136.52320761211644,-24.210176534225017,-13.19654307631786,-0.35953713973131385,0.021450304195121946,-0.23601272078874902,0.9024486936243115
114.0,0.09807572777340676,-0.06889044059795438,-0.009119590873328089,-4.160278127458694,2.0755188827694733,8.622857789142412,0.32098618214004715,0.9251807140047207,-0.1465676632572777,136.49215553697877,-25.113103609362703,-13.532231018882769,-0.3590579479970495,0.02048354962313139,-0.24404191687745871,0.9005281905690401
115.0,0.1032592446892211,-0.07748662470495674,-0.0058509047993705755,-4.197943351691581,2.0761485051140838,8.60618882769473,0.2924345987411487,0.15756785995279304,0.04685901848937846,136.58101765342252,-25.348656323760814,-13.561547256097562,-0.3582205821577497,0.020015182926239182,-0.24592965865597954,0.9004003001874509
116.0,0.10766581889374781,-0.07285565293762464,-0.0006188132398953403,-4.207802133460195,2.0690066419043784,8.603695314072425,0.18323788264139207,0.19926170567032003,-0.13745700144548328,136.7089558212724,-25.411602519532323,-13.522735485700693,-0.357183794009295,0.01975599195908733,-0.24628412219548795,0.9007443560071726
117.0,0.10650197392553712,-0.06527949931733805,-0.0015577674906531518,-4.236967081491628,2.0553717784846905,8.593567712485612,0.16137325925558044,0.3145464610926251,-0.060721354119017544,136.843745126177,-25.601912074272924,-13.445756909610676,-0.3560062095978437,0.01880884082125061,-0.24748297251376433,0.9009092273292015
118.0,0.09956622430869039,-0.06771056004419224,-0.002218132930445155,-4.266691550936514,2.058251061023095,8.578047578096616,0.08795850966225877,0.36588404505307515,-0.1362425754522254,135.68386630629783,-25.792429052385046,-13.487323867116604,-0.3649404868511117,0.015835456761080516,-0.2492640409223125,0.8968285159934757
119.0,0.10136847800800373,-0.07300948930612444,-0.0027534409734837895,-4.286492903713732,2.0374260812589906,8.573099320126197,-0.07113679552292254,0.0857252640686304,-0.18702372675050294,134.6578753246674,-25.918834510456882,-13.36204804685492,-0.3729233175758313,0.012184402861264097,-0.24994310319522392,0.8933976917260847
120.0,0.11187227991666907,-0.06785014197800321,0.0025650576407168003,-4.239355814563396,2.042788571707387,8.594921021196066,0.28135725133373934,-0.23880534593578706,-0.026315757946455243,133.7119775915233,-25.61178251880043,-13.36508185190897,-0.3805367439610077,0.011412056249672172,-0.24773874959918551,0.8908195991911305
121.0,0.11127447454198047,-0.07050346558765126,0.0032832790079052867,-4.21235457644899,2.059139972275298,8.604573788917616,0.16920450713723728,0.21593584916263905,-0.1134579539919823,133.3079017740062,-25.4357346577498,-13.454118195271814,-0.3837160073150876,0.011902094576448991,-0.24677064944700466,0.8897568957493538
122.0,0.10541987936008393,-0.08631471282454761,0.0014373384286838259,-4.244816305121578,2.0592512457382632,8.588250796148518,0.11090793713236671,0.6158260274999062,-0.18350989097448578,133.12214885167282,-25.648450086171366,-13.480337707466937,-0.385022558896407,0.01079458572754861,-0.2484808948049155,0.8887521214461056
123.0,0.10423682140047205,-0.09454445318646734,0.005667977970102282,-4.315787568843431,2.0685019669551523,8.549782848151064,0.24076022816679782,0.6444433516915814,-0.16358674272226592,133.09758556254917,-26.119467938630997,-13.593745082612116,-0.38485117030841853,0.009668905891424075,-0.2524109840967742,0.8877299796585367
124.0,0.10371557828481509,-0.09825570416994492,0.007169158143194337,-4.402461054287963,2.0748489378442168,8.503785995279308,0.361602576711251,0.9803402832415421,-0.1762809795436664,133.12845446498818,-26.680578776553894,-13.710523210070809,-0.38408118681825326,0.008287957296616837,-0.2570418408052715,0.8867366118434303
125.0,0.08778225806451613,-0.10450157356412272,0.016932336742722265,-4.709200629425649,2.1432584579071596,8.311070810385523,0.7073551829268292,1.9886457513768685,-0.017182582612116457,132.67973667387884,-28.733729592840284,-14.4743115656963,-0.38547680288985053,0.004003299844217152,-0.2749301183570024,0.880522719741542
126.0,0.08007718894009218,-0.10502114008467273,0.012948503240792775,-4.8260703607957725,2.180527078415946,8.238412517327937,0.3435285419242441,0.634326235903488,-0.05521307510022105,132.1228500477689,-29.49931847345547,-14.829818513262897,-0.38899806254361957,0.001982653683629313,-0.2818771536821494,0.8768891353250718
127.0,0.07923992605294183,-0.09949772308059593,0.01128351643660044,-4.764584505229093,2.1801786742417315,8.27657403810883,0.10336533529070419,-0.24582743437383736,-0.23070164726503925,131.6639428408387,-29.08055993065122,-14.75378127932462,-0.39292815520082325,0.0021979293677899005,-0.2785689410560972,0.8762567202188
128.0,0.08944972305794222,-0.0819708324293617,0.001837863647096444,-4.47114600949889,2.1320219689068614,8.444599764923812,-0.6158226185466227,-2.078600061600766,0.9475751450928934,130.8729105185704,-27.14713173066786,-14.172420119402672,-0.40085698973357453,0.004573902583285194,-0.2621458383425648,0.8775293082296793
129.0,0.0814557820639829,-0.06918761920445268,-0.009663286901864836,-4.320049794678635,2.0751809293786865,8.539896263264422,-0.2185623714290942,-0.0660752078263469,0.38323387467075826,130.11771017667309,-26.156030460141167,-13.661273985743822,-0.4076760814403514,0.003435406260171315,-0.2530242829084972,0.877140971774163
130.0,0.09027549134670426,-0.06644274744644349,-0.009155010878155078,-4.226633866654817,2.0554071444690436,8.594963867273435,-0.10795349098598692,-0.4375665181539287,0.12638778706000542,129.8085354581241,-25.542511689551308,-13.441819132919118,-0.4106584298625833,0.0038187821230046192,-0.24771125009704958,0.877385215029489
131.0,0.10437597204179092,-0.0643915247104459,-0.014035094139388509,-4.156774559493531,2.0449078733097905,8.633339432419081,0.1414332241596985,-0.2936218048414543,-0.022578815435566224,129.73507973029842,-25.08421655718808,-13.317097185881835,-0.41162865938063775,0.004703463056556823,-0.24386157273379322,0.8780683099668819
132.0,0.10328088119590871,-0.05572777340676634,-0.014468922108575926,-4.138387096774194,2.0505822187254137,8.642793076317858,0.19163060582218727,0.11811565696302126,-0.14643981117230528,129.71813532651456,-24.964791502753737,-13.325629425649094,-0.4118242233674274,0.0052763473170731705,-0.24302854600314722,0.8782380796774195
133.0,0.112095987411487,-0.05119276160503543,-0.009959087332808814,-4.172675059008654,2.0529740361919746,8.625372147915026,0.2148800157356412,0.5093528717545239,-0.2410405192761605,129.72718332022032,-25.18794256490952,-13.374193548387098,-0.411620055751377,0.004634263019669552,-0.24486665000157362,0.8778294671392606
134.0,0.11494031696077331,-0.056860664643512804,-0.002563935408939344,-4.285973174478288,2.073349443632685,8.56280521524109,0.555260668390094,1.1729318871529728,-0.29194157206549026,129.75136750215427,-25.922080476565135,-13.598321531602412,-0.41072518024502647,0.0031605361239369074,-0.2511733677927392,0.8764366162546178
135.0,0.10988951331909634,-0.06111719306133153,0.002490652279794687,-4.390665580158104,2.101474092390694,8.502681128470265,0.28335909107939,0.4001707036079576,-0.2525797553482447,129.8005460642164,-26.60408705181522,-13.876806320482562,-0.4096396480493425,0.0023290164962721516,-0.25721629718511857,0.8751955954640516
136.0,0.1149919635832303,-0.06578376606346709,0.005714622906597732,-4.372559008654601,2.1030565546438877,8.512213704994188,0.1755205406316736,-0.0215050251020944,-0.2917634923757072,129.9492947060807,-26.4796607470683,-13.870573648420816,-0.4085921940458395,0.0031523956766700387,-0.2562939847285227,0.8759676217226968
137.0,0.11754318871529734,-0.06370620246525047,0.006610261886028999,-4.3512322974036195,2.086815452774343,8.52849080214304,0.13518847645273688,0.24271424590686,-0.14460322533812894,130.03768826570754,-26.33997297778277,-13.743951261661234,-0.40808576138169234,0.003043202346596231,-0.25478406448857294,0.8766532513412855
138.0,0.11977464313813647,-0.0684788880146866,0.015478813083061708,-4.371439811172305,2.0878191150575107,8.516909445131315,0.013378807463189833,-0.6343243040725337,-0.1042849181371998,130.15741612341236,-26.475393156869355,-13.764755676070585,-0.40705553694428837,0.0029178473326214828,-0.2558677067822487,0.8768186384577199
139.0,0.1356745719530928,-0.06764190176463977,0.004356150013113036,-4.1893450975984425,2.061974073657787,8.612225843917422,0.2161028061893522,-0.525015454647634,0.18372063616949535,130.1308633996478,-25.2984924693717,-13.460070810385522,-0.40833927490839617,0.005647355882132554,-0.2459500858450414,0.8789850554385374
140.0,0.12569330485931587,-0.0668815331010453,0.002189876737477053,-4.13708010190701,2.0941499007155966,8.631215203626684,0.27071859428271705,-0.08245756996740472,-0.06288987861076767,130.16397615301037,-24.960049735866022,-13.624901652242329,-0.4083102645431046,0.008388682406054475,-0.24402295656925554,0.8795469522393318
141.0,0.12322430781911506,-0.07334644636768949,-0.00016859615600764292,-4.107759919073844,2.123720355175902,8.638076505189012,0.45590508036416777,-0.15931868420066686,-0.143419130043835,130.24503343823758,-24.767763478326025,-13.79842456258664,-0.40779485997901915,0.01059354555130943,-0.24319845991120598,0.880005903181597
142.0,0.1087167959237196,-0.07206061968453786,0.01848450788655352,-4.077657262747742,2.1548593158742646,8.644580570229664,0.955233037353415,-0.7560249709639953,-0.9740689745607133,130.6245129444382,-24.575591959836647,-13.988455846540031,-0.4049461138237608,0.01358181469034506,-0.24236922932186875,0.8814999849507326
143.0,0.10425012176389047,-0.062020156607096026,-0.023454909894721064,-3.630516091566445,2.1381947098272827,8.828128020681131,-0.430923579109063,-1.2749007155970178,-0.22476677531752276,132.13447299651568,-21.76472640590461,-13.613074163575737,-0.39509609531696077,0.025017884640140875,-0.219117195861901,0.8910795693100669
144.0,0.10695233913007868,-0.061262641444333195,-0.03502961977428154,-3.613536633287241,1.9488168383559306,8.885755236718587,0.19465803950987745,-0.8951978303809403,-1.9605440885482694,134.06347383884298,-21.640587357205156,-12.366720654466752,-0.380591990921171,0.01999262107529496,-0.2138698566872467,0.8988697151936504
145.0,0.11043013366582063,-0.06821489344461551,-0.03204237470517454,-3.6115902843306644,1.8908702785452463,8.90529029469911,-0.21683774602187134,0.35491935919519946,-0.4074380964579123,135.0925032542979,-21.61841146262175,-11.980279640903257,-0.37275787115679615,0.019280272380821688,-0.21228563613047857,0.9027984531076846
146.0,0.10311829263936192,-0.054477234291151186,-0.02870018027154872,-3.6654174867758753,1.8474414335291136,8.894859938852308,-0.06418696899834714,0.32928403050239907,-0.055287694963810585,135.43175025028034,-21.956407737605133,-11.720003117068465,-0.3700726659363841,0.016806532866256635,-0.21402096825800093,0.9037156905388934
147.0,0.11045175056830409,-0.06009088944710046,-0.029410597422874885,-3.6886710527806166,1.829386484251725,8.891551864446946,0.12451536773566212,0.03288763175114334,0.0005579574336092852,135.5372662307563,-22.097008545472605,-11.610359825365748,-0.3692697233189658,0.01567796469658791,-0.21473823666515496,0.9039839070959989
148.0,0.11944321446215211,-0.05714324922694089,-0.028046218871791123,-3.6809133990814784,1.8524511005800233,8.891081184930375,0.31099848132764896,0.08296319506705944,-0.03384535158179788,135.5353182807897,-22.04973537591715,-11.758196027665452,-0.36924449427497136,0.016972118527436734,-0.2148474938279692,0.9039827914875667
149.0,0.12051305509304155,-0.05468940405833167,-0.026840063674455204,-3.6307507730591198,1.8657071706951123,8.908124238376665,0.2408518288108612,-0.3139994602309114,-0.019070087643862185,135.5255923737032,-21.73131461218963,-11.820475545715698,-0.36946556529577534,0.018612239934386036,-0.2125691662433169,0.9044029160626129
150.0,0.12551534225019667,-0.05776634590167243,-0.02937642478161755,-3.588241199136558,1.8926544009360686,8.920213560894915,0.3219787064495955,-0.09788098408279368,-0.24233543141883032,135.56035374931912,-21.4595203151163,-11.974402852589321,-0.3692927068696161,0.02082944743319414,-0.21095828971946176,0.9048040086594442
151.0,0.11668371361132965,-0.06407750811999437,-0.030032822933688398,-3.5926571849341324,1.9320227158102838,8.910093405152416,0.48832511246948695,0.07466296979967318,-0.3232723577235772,135.7406509108515,-21.48915728580363,-12.23013513990599,-0.3677962131846113,0.02296797919732091,-0.21198275511858222,0.905121934420202
152.0,0.11619551534225019,-0.06413788859972967,-0.02772530210413767,-3.4934466097762717,1.9753189896911374,8.939163933103352,0.39984705662813447,-0.8119309069176299,-0.08905553370049829,135.9663423712401,-20.868668926143357,-12.456457223768888,-0.3662846717095362,0.027397237978676187,-0.20780317579611252,0.9065582851927918
153.0,0.12171774193548388,-0.06964722911497104,-0.03909160463192722,-3.4353196856906534,1.9954793217535152,8.957615798180314,0.3906198304383788,0.24204792183622825,-0.27194220430107524,136.15218672456575,-20.509904880066173,-12.550838761373036,-0.3649638722969395,0.029818940337882544,-0.205265380285153,0.907598899407568
154.0,0.11668450039339102,-0.07816252093042023,-0.03611690774475984,-3.4637017389900935,1.998362988964877,8.94614641207206,0.07657835542375274,0.0025708482115838482,-0.255270620246525,136.23166968014283,-20.686829406988238,-12.584507328168815,-0.36420631573147516,0.029601295005487298,-0.2067238759477496,0.9075877409719784
155.0,0.1116679030384774,-0.08515889251058409,-0.03327528005694804,-3.4733314319433513,1.9909320557491288,8.94418864973212,0.44627098085496986,0.6906612364654753,-0.5502543577423101,136.49469724111123,-20.74873418240231,-12.540802494286464,-0.36211419559526614,0.029517022057865938,-0.20702278002633845,0.9083552201007832
156.0,0.11566690082799444,-0.08004526806788806,-0.030277808999288156,-3.544879041624518,1.976344292083474,8.919157112884491,0.14910515248585665,0.7207398444232138,-0.24744740736577872,136.93926130296728,-21.194296766700386,-12.488080778633247,-0.35836283735542873,0.02826191580159042,-0.21022902869481286,0.909139832654078
157.0,0.10606879659810423,-0.07964724064291334,-0.03209976209209098,-3.6167571840695363,1.9374905960810755,8.898325409314001,-0.25700230180585215,0.34221185277809,0.08801287184818851,136.9082684121052,-21.640888548574424,-12.276854733337078,-0.3584375456721085,0.024963193952231087,-0.21307363711088007,0.9085441425776293
158.0,0.1019804428459031,-0.082370087295343,-0.03576973511670601,-3.6238732156906828,1.889542917088157,8.905473380540258,0.055800644411974104,0.036379303885204745,0.03884970589337229,136.6472757671125,-21.68808540331947,-11.971689895470384,-0.3605857217114382,0.0219822509707392,-0.21251911772095464,0.9079069775718407
159.0,0.10634584691469035,-0.08044940242029147,-0.05374088644112247,-3.56472889738114,1.8993953767187444,8.92721426698138,-0.09429184931250231,0.3722464969465363,-0.24614359709265296,136.78756392604248,-21.316928224869805,-12.00448184781387,-0.3596587429957664,0.023833061996777937,-0.2096933505937582,0.9088808556262037
160.0,0.10757000487055562,-0.07385066127158968,-0.04341114982578398,-3.6354450938518594,1.8650940017234268,8.90609254055674,0.08185273125772734,0.1491752838035293,-0.09917106889962908,136.95310895994902,-21.76293319845641,-11.816997068300175,-0.35812210584196924,0.021139060711138583,-0.21256680200502046,0.9088906082224721
161.0,0.10063523285002433,-0.0705582031396351,-0.04178007568094115,-3.665465250458956,1.823096924056798,8.902880371660855,0.22195075118953955,0.24660185081113484,-0.06799951294443819,137.0735254861189,-21.952645554681354,-11.56598221310554,-0.3571876520070061,0.018729602729609232,-0.21322175762309392,0.909160879129669
162.0,0.09847654640140871,-0.07001159566895208,-0.04590183957139111,-3.5972054812483614,1.8340700985350866,8.928194709827281,0.14399563523285003,-0.5078703963882957,0.23153918923981864,137.02493642519948,-21.52025963808025,-11.600678950769922,-0.35780718721908134,0.020487245829792815,-0.2099576605700049,0.9096281430660145
163.0,0.10274134539732493,-0.0729935090479937,-0.0461805664830842,-3.5220973642800955,1.8789881982690797,8.948959874114873,0.45394866247049565,-0.33987509834775764,-0.2427173485444532,137.27805000983477,-21.057105625491737,-11.852816433910306,-0.3559516231571598,0.024572825732100706,-0.207032480357199,0.9109233631605035
164.0,0.11874567269866244,-0.07638788355625492,-0.038469315499606624,-3.543222069236821,1.9103328088119595,8.934149291896151,0.26477675059008654,0.4554152734067664,-0.2919735936270653,137.47599577104643,-21.185911683713613,-12.064235837922896,-0.3542579683245476,0.026032957414437445,-0.20868924028343824,0.9111719638383162
165.0,0.111941384736428,-0.0804520062942565,-0.03302498033044848,-3.563945712037766,1.9114970495672696,8.925546420141623,0.030372246262785188,0.251573564122738,-0.1874434500393391,137.65321965971674,-21.315284470889065,-12.079597757671124,-0.35282104241227374,0.025999518380605817,-0.20971566455704166,0.9115065145643191
166.0,0.11208090742197743,-0.08522024277846466,-0.030249241317297976,-3.5794897531002974,1.9263769810048328,8.916099246937168,0.4112810732081975,0.34123897100146117,-0.06858971657112885,137.69284086864485,-21.415201519238693,-12.185459401108988,-0.3524100260755685,0.02653431352843655,-0.21080443681769134,0.9114016854670677
167.0,0.11212096774193547,-0.08584754224270354,-0.028826804915514603,-3.5630422427035335,1.9255975422427034,8.922584485407064,0.03288450460829495,-0.20515793010752686,0.35427947388632874,137.49893673195083,-21.30862615207373,-12.169813268049154,-0.35400854254454683,0.026458876634024568,-0.2099793962066052,0.9109715446017668
168.0,0.10546006144393243,-0.09072619047619049,-0.04893625192012289,-3.4371720430107526,1.8631739631336406,8.983805299539169,-0.08861367127496159,-0.071363767281106,0.44411482334869434,136.52335349462368,-20.52359831029186,-11.707075652841784,-0.3623288999239631,0.024085595901305677,-0.20255277875076805,0.9093660345737328
169.0,0.09063018433179723,-0.08942242703533028,-0.04816090629800307,-3.399620967741936,1.8761370967741935,8.996384024577573,-0.2565788210445468,-0.4004200268817204,-0.043469182027649794,136.64212989631338,-20.286863959293395,-11.772398233486943,-0.36151139943894006,0.025593864705453148,-0.2008925359251152,0.9100528460007681
170.0,0.08625960061443932,-0.08403225806451614,-0.049807987711213524,-3.33852534562212,1.845015360983103,9.024861751152077,0.28566628264208904,-0.030433947772657455,0.052515360983102916,136.75964861751152,-19.907786098310293,-11.548483102918588,-0.3608371718509985,0.025457332211981563,-0.1971883705990783,0.9111574243855609
171.0,0.09306751339402795,-0.08765707541868045,-0.04837285976546403,-3.307153347570342,1.8806061968453784,9.029675733393281,0.5252449327488666,-0.3549382282417294,-0.21841280768798468,137.00990034093888,-19.709635270315836,-11.758215550185456,-0.35888217276216705,0.02822043484376756,-0.1962371015909857,0.9120623440285116
172.0,0.1128365366602975,-0.09078209883481322,-0.043623131392604264,-3.2474894159079843,1.9152450264133982,9.044043123150123,0.3742143887452699,0.14094989884230644,-0.34978199580382896,137.52734184743923,-19.342160044584315,-11.950046363942903,-0.35489290348675584,0.03185267509572515,-0.19381081519013899,0.9140069070720469
173.0,0.11245513468959574,-0.07666985126072459,-0.03680772545052641,-3.419604923007756,1.9529105316398787,8.969598366490578,1.0502264340039713,1.5949325147053313,-2.37950409314001,138.67858547825108,-20.422928140571727,-12.277106515304784,-0.34503080251526735,0.0326521270716721,-0.20305956047525386,0.9156177740966993
174.0,0.11011333408264959,-0.07506106927428721,-0.03602656326102432,-3.5966232063242294,1.8972738001573566,8.911937731819716,0.29567902101832083,0.11508795099471736,-1.0026799763965384,140.55237837660633,-21.524736802667565,-12.0095608070136,-0.3294611480916788,0.03023831490802143,-0.2105117701084635,0.9196663535174777
175.0,0.09630474691843692,-0.06890457457569968,-0.041453373796410786,-3.4833576861114235,1.8740416619834401,8.961887452699413,-0.30371098872279034,-0.5010101719680791,0.5141218013562625,140.7156045108838,-20.814154115619495,-11.806422108575925,-0.32860908271020195,0.031289268856468475,-0.20419136040215805,0.9214410417303212
176.0,0.07814843954891162,-0.06846487580083174,-0.0475921471657113,-3.4537134614664113,1.8557816492450638,8.97838747143232,0.17693089430894304,0.22441131842194006,0.06790865834925633,140.60498950957253,-20.628452942939568,-11.672128245476003,-0.3296351557398375,0.03062082722603125,-0.20232318613105543,0.9215891383458845
177.0,0.08378468397587199,-0.07117342924581319,-0.044077741560825764,-3.455388595406692,1.8543904312315012,8.978510022104832,0.15772685549436138,0.051834888164549904,-0.05649610355550558,140.55376344086022,-20.630448934097636,-11.666035601888279,-0.3301129311193287,0.0303945056751714,-0.20234301037315952,0.921464921166648
178.0,0.10525255704169945,-0.0794645948072384,-0.035600314712824564,-3.4440959874114885,1.8639571203776555,8.982226593233676,0.051175255704169934,0.04599232887490168,0.03313827694728562,139.2172379032258,-20.561201809598742,-11.71668715578285,-0.3407978365220299,0.02869688387214791,-0.20229670806215577,0.9175700763544454
179.0,0.10583410138248847,-0.08216551459293395,-0.04045161290322581,-3.4297434715821824,1.863601766513057,8.98810291858679,0.3386472734254992,-0.0981998847926267,0.18994335637480797,137.74283554147468,-20.47146697388633,-11.708839765745008,-0.35260942494585257,0.026358315554147464,-0.20190249671812593,0.9132339779312597
180.0,0.10861866359447003,-0.08044969278033795,-0.0380483870967742,-3.400170122887864,1.8837726574500775,8.994615975422427,0.2878720238095238,0.12544642857142857,-0.22634888632872502,137.00279377880184,-20.2883544546851,-11.824656778033795,-0.3585666898317972,0.026607014990783405,-0.20100563858486942,0.9111497843648233
181.0,0.12129939867371024,-0.08179103443108164,-0.03414870180959875,-3.40807493162489,1.8926023004008845,8.990952362219478,0.17733552508336142,0.24726294677981342,-0.14557757062305646,136.71219793188715,-20.333382331591174,-11.884942841219887,-0.36090293916629207,0.02629436300739013,-0.2016097681345866,0.910141055413922
182.0,0.1301852028773744,-0.0823689633209696,-0.029513178599527935,-3.4164650818627997,1.895626091191788,8.98697067363531,0.2830951327226406,0.11735135438911992,-0.20742625088981304,136.55695459143533,-20.391752018470648,-11.906013906841258,-0.36209656391634826,0.026021833365516465,-0.20216364939410286,0.9095745957118786
183.0,0.12179671050166722,-0.07418985800457084,-0.03066115919223709,-3.431345060132629,1.8959720317710094,8.980483608707058,0.23373866659173503,0.4052530581469409,-0.27629737083661154,136.66888628189275,-20.48008539863624,-11.914884113558877,-0.3611340159940803,0.025984732753418747,-0.20289439299428647,0.9097980201479898
184.0,0.14805666704132478,0.32140447154471546,0.07200419617099399,-3.6269888913866093,0.07073684949983172,8.578636675283803,-10.329347322131056,10.607562884024578,-37.32076700713724,150.66462817522762,-21.731614062324375,0.23996062577273225,-0.24490585540824616,-0.050402524818918354,-0.213258239592756,0.9165072424738674
185.0,0.15747030834363646,0.7342381327039078,0.06780225544190926,-3.1132778839309125,-1.018507362032146,8.47634371136338,15.235669326739348,-5.837246169120678,14.003266550522643,157.5791558952456,-18.58087698100483,7.012630662020905,-0.1890039127743434,-0.09380743609681164,-0.18849430291783748,0.9205455828301676
186.0,0.14100408377355664,0.3120471319920573,0.013878460904424714,-3.0724161702446517,0.5064991944850326,8.78457832228092,7.741649807051065,-4.361863549511072,5.817738188902623,146.4674117680117,-18.295837079914577,-2.788161271589675,-0.28081706725075867,-0.02792630185493237,-0.18725075771346145,0.9144184066943916
187.0,0.13230789404668242,0.09210370536885096,0.04900734329923944,-3.2231375744633017,1.1172713648795474,8.909768835937207,3.5551543591472776,-2.1845261511370877,0.941589627589823,143.09923874152335,-19.216628498370234,-6.797073451725302,-0.3089723355213368,-0.0019269717470308256,-0.19170257039451502,0.9174247959546291
188.0,0.1535708665842419,0.012005170282117575,-0.05983215316024128,-3.0935498857292716,1.4857937132366714,9.028186654677608,2.6102595444157206,-0.07798274699336871,3.025369038252594,140.300407909033,-18.417423007755424,-9.13154012588513,-0.3324635635753625,0.015992661256603355,-0.18518424749578516,0.9168603301097749
189.0,0.14072721141957967,-0.06507924019332356,-0.04621820089168634,-3.1728095612753364,1.718923607208422,9.054781761642499,1.3983880334195047,-0.4057055749128921,2.3322163837997825,138.01844254617663,-18.89358070136001,-10.678796223446106,-0.3509912270787906,0.023507279912329995,-0.18894442646622459,0.9139292937330931
190.0,0.12258626503315725,-0.09120995841294817,-0.048506425386834515,-3.232459068599903,1.838722228466524,9.064739425274432,0.6973008223745832,0.4252451669101944,0.06697365216739729,137.00046832265556,-19.25456965831179,-11.470102281667977,-0.3592452159115432,0.027566595176463978,-0.19174671785545694,0.9128149800451462
191.0,0.14345903113409014,-0.0938576673785171,-0.05568562436776442,-3.2140828369113184,1.8743111910381773,9.062262185755497,-0.09304985762991269,-2.2678161646247803,-0.12840353489940431,137.0515014424338,-19.138205528080626,-11.688248145442284,-0.3588405311930988,0.029705152238769624,-0.19147241449608488,0.9129536697959987
192.0,0.12436289385935333,-0.0768644861563823,-0.042236709003034736,-3.1770199692780343,1.9039429021018317,9.06810722715522,0.39902495223108914,1.1565345060132626,-0.2425583530028849,137.29330813757446,-18.916844629275786,-11.860460923157618,-0.35697985214491773,0.03222899584466675,-0.19022768452062494,0.9138534955269568
193.0,0.11997602188003448,-0.07678168671087632,-0.04673110786407404,-3.2123506050728707,1.9323033981491884,9.05229815293544,0.6004364767149974,0.8065991345397323,0.16311443932411676,137.1919045745757,-19.122848057397626,-12.049213686261286,-0.3576673240781537,0.032807623666779064,-0.19251523957663635,0.913145028605897
194.0,0.10737589449627213,-0.06610130755685438,-0.048369487842343864,-3.1652744370761683,1.9918991420328949,9.056750964744666,0.45698456408527216,-0.165814319433517,0.19532098834813233,137.1753681016073,-18.831806601476153,-12.401204994192799,-0.35783829900603203,0.036566806770446963,-0.19130835068524976,0.913203914326552
195.0,0.10321700198568806,-0.06888820201566073,-0.05352909220336444,-3.111565321644,1.9924605672323996,9.075317335431418,0.1556306432879997,-0.28290434978082507,0.12162456445993032,137.07557439773706,-18.497104595181895,-12.378848441422202,-0.3587746432404181,0.0374320731977071,-0.18864015123337452,0.9133710263856731
196.0,0.10738863287250384,-0.07291259225956315,-0.05610055824060546,-3.0418766625454277,1.9957360158855038,9.098866659173506,0.31100839234198796,0.22385354613914804,-0.468769903712862,137.19985903488066,-18.069679386309993,-12.362118785358359,-0.35800345788318155,0.03906001618635495,-0.1851783774909145,0.9143195198340266
197.0,0.10323123899441759,-0.07490408752013789,-0.055782473492937704,-3.072018470645537,1.9791324791128089,9.092623543516542,0.04587688734030197,0.43436340901427445,-0.03564169570267128,137.40667851522983,-18.257913482072606,-12.27022685549436,-0.3563258873603462,0.03802605211325914,-0.1862890510687123,0.9147997203355064
198.0,0.1093919298639991,-0.07071185043647672,-0.053821512869506594,-3.0879169008279947,1.96797197557229,9.089856131280207,0.1614425274437076,0.002121501629762823,0.052627758420441345,137.42591603911433,-18.346734386122662,-12.209548630624553,-0.3561869151530479,0.03721732969165635,-0.18682059171406087,0.9147812644958975
199.0,0.11262766475591024,-0.08149750852347233,-0.05732962421790116,-3.0248943464089013,1.9143220561237868,9.121363942902104,0.12597294031696077,0.3038325184519126,0.011572252819302386,137.2490738919486,-17.963710848225993,-11.84902799632835,-0.3578683671692705,0.035521720322018654,-0.18270326605166531,0.9150005224047435
200.0,0.10165561425199507,-0.08333707991457795,-0.055742385073620324,-3.073710614064666,1.9492424412723386,9.097652017533996,0.09229234573451725,0.20704778764377507,-0.0893559626840508,137.22637546363944,-18.267353696002395,-12.088180472818554,-0.3578058665531452,0.036254324773144504,-0.1858709711172305,0.914366687865198
201.0,0.0940693492188378,-0.07981960211307182,-0.054869618972687426,-3.0750850473942517,1.9489996628076884,9.097488479262667,0.13606061031808475,0.2354082368588663,-0.0696337248510734,137.2363437113634,-18.272519294893407,-12.087510771421078,-0.3577013901333781,0.03624125364935746,-0.18590276101888276,0.9144137638027803
202.0,0.09898167921771382,-0.07325772732381702,-0.05120055449402422,-3.0918720167846834,1.965831628638867,9.089293394777263,0.266998239106815,0.15135907234648383,-0.009341632010790156,137.28167031958338,-18.37810872578772,-12.194197013974748,-0.35727641692075973,0.036787971971376114,-0.18706514406474084,0.9143281474436327
203.0,0.10259390805889626,-0.07387355288299427,-0.052375257577460574,-3.1021287699973774,1.9523863099921321,9.089459443258022,0.06181835637480797,0.23133944962721517,-0.0564214060919411,137.29834401108988,-18.442088391218014,-12.116438593533402,-0.3571496644556591,0.03598808291330411,-0.18730743294267727,0.9143623423929417
204.0,0.11034150088044659,-0.07185305908358623,-0.049341238619759475,-3.0679852759357087,1.9477668877149596,9.101020044209658,-0.03436059907834101,-0.7464606515304784,-0.26736680903675397,137.40764934809488,-18.228921499756474,-12.07310984976209,-0.356369314187891,0.03658839252040014,-0.1854428093507549,0.9150161872471619
205.0,0.10351022816679778,-0.08488198269079467,-0.06211762391817466,-2.980432730133753,1.9773627065302906,9.122985444531865,0.8440524193548387,-0.2191212627852085,-0.25734411880409125,137.82565647128246,-17.692532946498822,-12.228855232100708,-0.35322965970377657,0.04031639315420928,-0.18150928417230522,0.9168428538678206
206.0,0.12763709677419355,-0.09617741935483873,-0.06644354838709676,-2.9178064516129023,2.072322580645161,9.121459677419356,0.35932459677419354,-0.16073588709677417,-0.1854334677419355,138.11527217741934,-17.311441532258065,-12.793548387096774,-0.35092620847580647,0.046485507016129024,-0.18017986659677415,0.9176872506451611
207.0,0.13866129032258065,-0.0970725806451613,-0.025870967741935497,-2.9425725806451606,2.071290322580645,9.113870967741939,0.021118951612903225,-0.5003528225806451,-0.3936995967741935,138.32076612903225,-17.4640625,-12.797631048387096,-0.34919679683870963,0.04630904613709677,-0.18133756585483868,0.918139599032258
208.0,0.13131077891424076,-0.10851888276947289,-0.03548721479150276,-2.8687677025963803,2.0893668371361134,9.133666601101496,0.4320060483870967,-0.6175452399685287,-1.3227711939417781,138.84013571990556,-17.01264014555468,-12.882792830448466,-0.3451986951748623,0.049345445783438247,-0.17775798397600312,0.9201815540230134
209.0,0.16257199055861532,-0.09693036978756886,-0.03423583792289536,-2.957160503540519,2.0317916994492524,9.117618607395752,0.3918727871754524,1.1136420633359556,-1.3887551632572777,140.78370746459478,-17.55583693941778,-12.559186909913453,-0.3293825060946105,0.048068283911093634,-0.18038417615322577,0.9253806196146738
210.0,0.1553055805327639,-0.10305235847289351,-0.03582817241766886,-3.185661664980705,1.9999425087108014,9.043849434266228,-0.08446035180397882,2.796964800869207,0.11449458619010155,141.74405827338802,-18.96440080457832,-12.461591102806189,-0.3210031171484957,0.04422212821668353,-0.19102911716359441,0.9263379234784197
211.0,0.12967679180248026,-0.12845667078790604,-0.027718041661983432,-3.3500489584504134,1.9992258626503316,8.984978288561686,-0.17323776038739647,0.8346599157955865,0.558293760068937,140.66178048078004,-19.97881378554569,-12.532106035274062,-0.3292205009064291,0.039444422652504585,-0.1996642157146697,0.9218455287192406
212.0,0.13445955565546439,-0.10751788992544303,-0.03434116368813458,-3.3687827357536246,1.8707208422314645,9.006640065939829,-0.24160999962534185,0.030255985163538224,-1.3835211307182198,141.27000674384624,-20.09499925068375,-11.723422689296019,-0.3245255863721854,0.033837278793226185,-0.19808073533026113,0.9241362849469861
213.0,0.12815780600202314,-0.0938747143231801,-0.03954179311378367,-3.4968472518826577,1.8522374583192838,8.962044509385187,0.7823728035667454,0.9919003596717993,-1.0528408452287288,142.4382212168896,-20.896915158667717,-11.670682533438239,-0.3147087073961261,0.03292099703345697,-0.2040256980277996,0.9262704208351129
214.0,0.13350061818590533,-0.09755891499007155,-0.04780787531377618,-3.628750140496797,1.8152690045333633,8.917568281443184,0.15522554419092577,1.1092959705518712,-0.7465718781611779,143.03062713086808,-21.718348413322843,-11.49491050354052,-0.3095551690324454,0.03000492460248773,-0.20996024567794386,0.9268180434506013
215.0,0.11819500955378215,-0.1010889813045596,-0.02224955977670376,-3.5679541793113785,1.803484732681428,8.94395387958488,-0.5434989790566108,-0.8034117305458769,1.5112378704432206,142.74170085422054,-21.335403085309657,-11.389155520587463,-0.3121477435477127,0.029931971020905914,-0.2066268202859765,0.9266750030524897
216.0,0.10598793600839232,-0.10549035255329509,-0.04313547637780525,-3.3442383200329706,1.739292945187517,9.04041995429171,-0.594898561312802,-0.9717669345472255,1.3277441366003522,141.06038294743547,-19.945604791877415,-10.888273669027011,-0.32658658884159447,0.027746437931962076,-0.1944576221120977,0.9242590450705108
217.0,0.08932422914090893,-0.10360155108463526,-0.05719216215203626,-3.1451752276048106,1.7905435540069687,9.100488778989174,0.7720591678843055,-1.6354754411599415,0.5419298639991008,140.27660564422465,-18.710206389794312,-11.124407571840695,-0.3333994509376943,0.0323621974513881,-0.18549083203761568,0.9235489048202017
218.0,0.08243784421715185,-0.0953906372934697,-0.06400314712824548,-2.9302765538945716,1.9482694728560188,9.13971597167585,1.1735247836349332,-1.4083915224232886,0.4712529504327301,140.415371754524,-17.389939024390245,-12.016893686073956,-0.33260923764319433,0.04388463691463415,-0.1775098126125098,0.9249552012403621
219.0,0.08389398111723051,-0.09252222659323364,-0.06434225019669551,-2.8253310385523216,2.0219238788355627,9.158776160503539,-0.4744836742722267,0.6332599822974037,0.7853166797797011,139.2843233674272,-16.74829858379229,-12.432030635326514,-0.3418954160206531,0.04751552049114871,-0.174111924063926,0.9220789057893392
220.0,0.08482887490165222,-0.0932891424075531,-0.0651852871754524,-2.8677820613690006,1.9981188040912667,9.152877261998421,-0.055507474429583065,0.5299690204563335,0.6823121557828482,138.5757941581432,-17.004290420928402,-12.300985936270653,-0.34753847274350913,0.04447243316050355,-0.17603687510267507,0.9198247662344612
221.0,0.08501269154396611,-0.09584917200554492,-0.05984583754823723,-2.9225422614364396,1.9999559589374698,9.135900809261546,-0.04517534000224798,0.38166124583192834,0.39421820557491294,138.2463709092016,-17.341477757015472,-12.33589722425162,-0.350018335826627,0.04305668796255292,-0.17894316034778573,0.9184269894216025
222.0,0.0888852796822899,-0.0913583979618598,-0.05396688022179762,-2.984835450151737,1.979789545165037,9.12018624255367,0.05586925368101606,0.5552342667003859,-0.014599197763290966,138.2726242577086,-17.720357166273274,-12.235892775186393,-0.3496579287866415,0.04101282903969503,-0.18162234396805096,0.9181575918174103
223.0,0.10194110374283466,-0.09773219437263497,-0.056822149788318156,-2.9308178786857,2.0052766850249144,9.131313551384363,0.5331525607882807,-0.6910428608894384,-0.12069845640852722,138.46384549098946,-17.39009169757596,-12.375798490127757,-0.3482174762871379,0.04352601444419467,-0.17933560149151395,0.9190286959098573
224.0,0.10357086658424186,-0.09273313101794611,-0.05959911580682627,-2.8529620471319923,1.9913086808287435,9.159492338241357,0.07809280281742909,0.10220673635307781,-0.38177428721291823,138.67596287137985,-16.918319845640852,-12.259176782436027,-0.34677164852122444,0.04454950489715634,-0.17516535260649657,0.9203348198550072
225.0,0.09033138511108613,-0.10137256003896444,-0.06366902701285077,-2.88597073920048,2.010658648982803,9.145298602525198,0.5316773444232138,0.0718079127795886,-0.6004212562286912,138.7141534131355,-17.115169907459443,-12.394558324903524,-0.3463521711172306,0.04499194777546738,-0.17712050855681688,0.9200882416456858
226.0,0.0522213480199318,-0.09982428533962759,-0.05121876287887303,-3.0621089505825934,2.0263568243977366,9.082180884942488,0.09990493050091792,1.7228396275898241,-1.4393428496496945,138.5055917725076,-18.20745054512757,-12.569918230864335,-0.34742906585028654,0.042211797962234454,-0.18642765492862762,0.9179179776928554
227.0,0.04300288486755835,-0.10263440860215052,-0.04534187553857106,-3.511345584654003,1.9840556741972948,8.9066962646585,0.17864050616312613,5.155651717807501,0.0951397474804242,137.44875379341352,-21.05125674384624,-12.564832246824771,-0.3540827119770709,0.02964789188827694,-0.20888603757446328,0.9103263107897795
228.0,0.018117417856206235,0.17951459293394775,0.12268390094039187,-4.4537273238170165,0.9489172380203063,8.24910082050129,4.5557997077666625,23.369127702221725,-36.63858604023828,145.3466791240493,-27.42910859465737,-4.6803711925368106,-0.2870354454509011,-0.018530721436813908,-0.2607639496351579,0.899802520053876
229.0,0.08362912592259564,0.31272189127421235,0.19421999925068373,-5.852179948297179,-2.4412306020756054,5.889275036529166,0.29128498370237144,21.65876231688584,-21.300906906822526,181.2826875163913,-37.45177892360721,27.03341294818478,-0.009651407854482846,-0.11220484005200256,-0.3962017492849276,0.8434348322613989
230.0,0.13966325727773402,0.5217403619197484,0.2892974036191974,-4.694617623918175,-1.5929394177812743,6.883808025177025,11.316379819040126,-24.083531667977972,24.35555173092053,161.07797010228165,-29.760341266719117,18.753284815106216,-0.16964931484736429,-0.09956158457592448,-0.3082821197576711,0.8463944542635721
231.0,-0.06487726199842647,0.8335963808025177,0.28287450826121174,-4.005483477576711,-1.0874453186467345,7.686376868607393,-21.52149144374508,-8.808976691581433,-4.1785134736428,138.9403422501967,-24.785265047206924,11.494659716758457,-0.3378740381789931,-0.11377512147757672,-0.22342184467033832,0.8338734042875688
232.0,0.23343863099921322,1.313973642800944,-0.3614053894571201,-1.7097747836349333,-3.174016129032258,7.338689614476788,23.806897865853657,-6.74222929779701,-2.7741849429583003,135.74190106215576,-10.657738739181747,23.96339004720692,-0.3560965091083793,-0.19221458423996857,-0.04663824486782063,0.8365886008408734
233.0,0.13238060582218725,0.5924061762391818,-0.10585995279307617,-2.3268027143981116,-0.6750725806451614,8.269086742722264,11.313353166797796,-1.030363640833989,-1.4405450924468917,125.88077916011014,-14.046082071203777,6.308912765538945,-0.43880289506628634,-0.09680988499095201,-0.11214063190165222,0.8370914308035012
234.0,0.11013596343336704,0.23496326477089657,-0.07757321756397281,-2.792367755048518,0.6060368663594474,8.743643793788166,6.38180139138661,1.444535201472406,-0.5845570604323553,119.51782693604585,-16.684639777921397,-3.107568386815781,-0.49022822204716,-0.0552835248626035,-0.14837418816050352,0.8357985596327415
235.0,0.0907438275073995,0.057023528530216167,-0.06502588887640026,-3.245598610018358,1.1867705968303925,8.846732400434604,3.0144211766138396,1.4899031977070922,-1.6210747536622834,117.52246333033607,-19.405760954066913,-7.252423920984601,-0.505778879757746,-0.039973760782698285,-0.1793571441353265,0.8326872176725864
236.0,0.1450572009291521,0.0477757483796036,-0.09223513543891199,-2.752271786369937,1.3578246225319397,9.130172801693455,3.186231606627702,-3.0835299117680117,-8.6162654312315,122.74974488123337,-16.37135486915065,-8.269700168127834,-0.46937330358780105,-0.010618236632591508,-0.1590596940644037,0.860693179103799
237.0,0.12073612109473358,-0.043705899253559014,-0.06363200882973355,-3.2190482150154263,1.55220807270633,9.094205961987013,1.1661612131037984,1.977948566246527,-3.7841419522999216,130.27261367279974,-19.223439414132713,-9.697028323936385,-0.41111815514367545,0.0030017630002833915,-0.18579537189923115,0.8880180768992364
238.0,0.18815710460716226,0.020350531883842046,-0.09572778647623578,-3.5193675378775007,1.4879465815931334,8.997590490828284,-2.099159017759666,-0.8377289771049033,4.407427450285916,136.4770154319939,-21.08177588822293,-9.387791797688099,-0.36182266657547657,0.00507983349866648,-0.19937076777662188,0.9068610040464906
239.0,0.08386858909849414,-0.08643192156924243,-0.01841537039312095,-3.6417586626621814,1.613806909915632,8.93599856410096,-0.9892725794689088,2.8897338663934273,3.666009544633545,132.29769550401537,-21.835928222038085,-10.243130305660038,-0.3942815431544907,0.00034623929041493985,-0.20820372773302215,0.8922999375044369
240.0,0.09082493184271678,-0.09153224717329156,-0.01940044680159588,-3.7988887727158276,1.6686186398516,8.866984333191315,-0.42766146676041816,1.730345886776572,1.81596602330025,125.8746542036206,-22.813740074827066,-10.655716411681317,-0.44251508959062064,-0.013002502589253586,-0.21641946866588163,0.8668210732172066
241.0,0.09597698205039062,-0.09647426490769034,-0.015065046749492257,-3.926994309552997,1.6889951878213454,8.81514961667246,-0.1986233601083197,1.0251527820979633,0.9453390024335351,120.98895920626498,-23.61431051360401,-10.83622994163175,-0.4787189286048341,-0.024488260237791153,-0.22230463640436937,0.8464119342215066
242.0,0.10576546575668307,-0.09055557791886995,-0.012032459334345786,-3.9608274019724448,1.6770228898688082,8.80392048012003,-0.03554516677949972,0.4094576235522295,0.4278280698223335,117.96220495672699,-23.827039229319524,-10.774083536127934,-0.5012971237148922,-0.03161048160316909,-0.22300365641381076,0.8340803810382598
243.0,0.11235794924340843,-0.0775083161034161,-0.013386804018077694,-3.974306698625876,1.6669890216456547,8.800205716063168,0.21729330960788976,0.4024422264102611,-0.10112825462463178,116.37006785995278,-23.913785153605474,-10.707434175617074,-0.5132097117158253,-0.03548130401008179,-0.22301096473562293,0.8277492395867931
244.0,0.1261931549960661,-0.06425806451612905,-0.013258457907159717,-3.9919071597167584,1.6559586939417774,8.794284421715187,0.19895505507474429,-0.03027635719905586,-0.11597167584579073,115.83344069630212,-24.024911487018095,-10.651081825334382,-0.5172015831923682,-0.037522362962627856,-0.2233970754453186,0.8253130436424077
245.0,0.14083851298190403,-0.06204248623131394,-0.009815696302124312,-3.958022816679778,1.6759809205350118,8.805548977183317,0.20972536388670338,0.04313286782061369,0.030895948072383946,115.61951342446892,-23.807376081825332,-10.771892210857592,-0.5188728020721871,-0.036037923947875694,-0.22237330889496454,0.8246305251217546
246.0,0.1282895357985838,-0.06635719905586153,-0.0132462627852085,-3.9437635719905577,1.669960660896931,8.812871754523993,0.16337283634933125,0.0760670731707317,-0.20891030684500395,115.65120967741936,-23.71365066876475,-10.71995476003147,-0.5187226619512193,-0.035827454068450046,-0.22151860247718327,0.8249661188788356
247.0,0.1378969315499607,-0.0702690794649882,-0.008514555468135327,-3.9428983084185667,1.6598033044846572,8.815354838709673,0.16212013178599527,0.09111182140047207,-0.17531963021243116,115.7523013375295,-23.706756490952003,-10.671592250196696,-0.518015769306845,-0.035959354246656174,-0.2212702227728167,0.8254659559185681
248.0,0.15935169158143198,-0.07132808811959088,3.304484657749764e-05,-3.9554854445318637,1.6549016522423283,8.811032258064516,0.17392800944138476,0.13461841070023603,-0.1194138473642801,115.81768292682926,-23.78624114870181,-10.648800157356412,-0.5175642753469707,-0.036386009131392595,-0.2217668648985051,0.8255978837576711
249.0,0.159447678992919,-0.055038552321007086,-0.008114870180959875,-3.9125106215578276,1.6323446105428792,8.831590086546028,-0.9930418961447679,-3.660464201416208,-0.532735051140834,115.84939024390243,-23.50543371361133,-10.476642407553108,-0.5176328346837136,-0.036090951052714385,-0.21900236158772618,0.8262360826459482
250.0,0.22503461841070022,-0.04126435877261998,-0.04309756097560975,-3.2095833988985043,1.6319826907946497,9.08240794649882,1.6053919158143195,-3.146248033044847,-2.710505999213218,119.86384244689222,-19.155008359559403,-10.194728560188828,-0.49095921594138475,-0.011071260400472065,-0.18649254065224236,0.8490709849815108
251.0,0.19901294443820017,-0.03250565733767937,-0.0469648383350193,-3.0009162358098225,1.6874448315911734,9.157425546064218,1.0481391784683975,0.9113054259862874,-1.2942609985575664,123.29301672380203,-17.849918102075605,-10.445126634446067,-0.4663393021625549,0.0025447054988760286,-0.178331463153666,0.8649996576009049
252.0,0.17345693304859316,-0.05081158442920834,-0.05586029935184144,-3.0321875725900114,1.6667562099584128,9.159448372110447,0.32331714107751675,-0.243399226330973,-0.8176986156382301,125.38707335806076,-18.0249098478888,-10.30772076729984,-0.4506565362884586,0.004517736685305909,-0.17947660947621857,0.8736550735402757
253.0,0.147583305233974,-0.0527606309242816,-0.05192611741785621,-3.0195695927466186,1.7327006856243676,9.156006444119738,0.6102220786032745,0.6777963545764489,-0.3319339852384699,126.32297216290135,-17.938765407815367,-10.710715222359596,-0.4436305690434229,0.009581217028136826,-0.1805552949195609,0.8774547275846538
254.0,0.156329024764902,-0.05747000861713687,-0.05088044659248437,-2.9919169757596196,1.695378666966393,9.173951294443818,0.42767693229927684,-0.22111854183057966,-4.089009872241579,127.97860842606121,-17.764303042223972,-10.46437610055824,-0.43108548277898917,0.011103449233973996,-0.17830268406481586,0.8842287078560561
255.0,0.12075302536435503,-0.06113075568543704,-0.02585328387846091,-3.405529691656363,1.6784918511857931,9.018037803004756,-1.3075029972649956,0.8431681091004457,6.169475197632162,128.48092006668915,-20.339960333071073,-10.541516335094226,-0.42535877440286984,0.0017429340229665417,-0.19811093319684542,0.881824153452025
256.0,0.1278592784084523,-0.1090882881870293,-0.03981875913229179,-3.081166835262822,1.8888763253531153,9.087555299539169,-0.792085815443408,1.6412947013974748,0.9744815668202769,122.00934397362406,-18.339366031621147,-11.713522699599114,-0.47478318142982656,0.008830487108145066,-0.1887613468028924,0.8569622693243604
257.0,0.10848801094001724,-0.10700574163575732,-0.040523818890262644,-3.2745695927466194,1.8772722640590462,9.030532642089094,-0.35912854520250276,1.07131939370949,1.378201804915515,119.31383577329436,-19.52312963639429,-11.72475290125885,-0.4943752640482467,-0.0015955940227323833,-0.19698327895444157,0.8449263027650988
258.0,0.11308156307369524,-0.09906335468884639,-0.053801655988910124,-3.1247678992918964,1.9602690045333637,9.06299539170507,0.5782122250946011,-1.9686785807950247,2.871831797235023,116.33129144655501,-18.598083155370723,-12.183369394177813,-0.5168734821763892,0.0013073502165523968,-0.1924267745978045,0.8327572918024801
259.0,0.08635982166273275,-0.09411074894159077,-0.07357273987486418,-2.928560188827695,1.9842887115507102,9.127394627402493,1.057374208534712,-2.2165383462590387,-2.2647872878498365,115.15094273350567,-17.387775842044135,-12.253343823760819,-0.5264812014147091,0.005662327409613727,-0.1840693172084223,0.8292211629508073
260.0,0.09029635457644898,-0.08731894646135402,-0.07009478850548874,-2.8152478363493314,1.9321561575062756,9.175589524558843,-0.3849143906185605,0.8781588363118651,-2.6243045408564685,117.98324575699674,-16.704312783335208,-11.87155782848151,-0.5063828856876851,0.010555112709527553,-0.17708933330523396,0.8430396337492038
261.0,0.11886178861788615,-0.08890337566970138,-0.05230939267918025,-2.9846498819826905,1.8572779213967257,9.14011576936046,0.20894917762541682,1.7219029822786704,-1.3210035686186354,120.01721788243228,-17.732000018732904,-11.472560975609756,-0.4909735588155183,0.006134834139972273,-0.1827739677305084,0.8511402071932486
262.0,0.11535255329511818,-0.09291558952455883,-0.05165392829043498,-3.076518489378442,1.774971525982541,9.128521786369937,-0.04855920535011804,0.11877599190738442,-0.7565319302386572,121.13466500880446,-18.287418980180583,-10.990168736652805,-0.4825364503947023,0.001922070165224232,-0.18475441223314976,0.8558025139076841
263.0,0.11623618448166048,-0.08629650443969877,-0.04921022067363533,-3.1161739912330004,1.7474358397961858,9.122790079052868,0.21964800869206852,0.5201214828968567,-0.49877767786894456,121.790666797797,-18.52898214754037,-10.831897924393992,-0.47765464371885635,0.0007041663114907642,-0.1857922160436102,0.8585364195575289
264.0,0.12407403244539361,-0.08314038439923568,-0.042760106402907366,-3.17028211756772,1.7361687460192574,9.107402120564984,0.04875004683226557,0.28663922295904987,0.003069855007305833,122.09033241542093,-18.86271589674422,-10.784728466524296,-0.47526954557303946,-0.0006805683942152789,-0.1879948597212544,0.8594925408841931
265.0,0.12485461086525988,-0.0905724427622585,-0.04542383853803174,-3.200433174495715,1.7079694662341545,9.102839899870439,0.1871296983653579,0.6294897439516673,0.010952868879240716,121.96946530840026,-19.047324821187875,-10.621598561661322,-0.4760983084726669,-0.00290415522111364,-0.1886831929459107,0.8588968317651713
266.0,0.11424870590469918,-0.08139895601077969,-0.043896588258562914,-3.205212091350364,1.713192893171028,9.100088789619004,0.028921102226776206,0.07676905615776766,0.14298884498999315,122.06152000761514,-19.073298758051884,-10.655124146890381,-0.4753721885291662,-0.0026209419740126664,-0.18903787681895212,0.8592237734971375
267.0,0.11046864503582343,-0.0779052777131565,-0.04643323287267812,-3.169988965011287,1.7310527239823892,9.109408131649637,0.29379979467863476,-0.057450093141752326,0.5897595914658107,121.66587460236138,-18.85574804524302,-10.753081209108897,-0.4784553277888984,-0.0015501033509117696,-0.18784052879612323,0.8577713346710896
268.0,0.11515452033740142,-0.07895263885657827,-0.049014169918786335,-3.0984328137783566,1.7586025861866161,9.12848314866173,0.3792786720199213,-0.09813690356387006,-0.08271705339226793,121.36039622928381,-18.41520648019148,-10.896572520743426,-0.48097791473293416,0.0010101943107379634,-0.18520733222176622,0.8569248379098957
269.0,0.10520904616398001,-0.0777099937005157,-0.04995161682406665,-3.1630401677074316,1.7811305613859911,9.101857624684918,0.45987438715079465,0.6200896914124001,-0.43969153220360835,121.8588714033909,-18.81686759886836,-11.06190250742128,-0.47688323192193527,0.001199222426808793,-0.1888345219015991,0.8584080579557347
270.0,0.10530369787568844,-0.06812206361694954,-0.050643475328762524,-3.1930182083848475,1.817568281443183,9.084382675808321,0.3701425574163576,0.04449720879697275,-0.2697379266419392,122.13307879997002,-18.99330345434791,-11.30369600239781,-0.4746333746323854,0.002561632923832003,-0.1911560786027125,0.8591454911309055
271.0,0.10920714847701471,-0.06508253718481885,-0.0546266531789742,-3.046213405267692,1.8037956614589188,9.135363380914914,0.3963808025177026,-0.8471830392267057,-0.6629027574837959,122.36682261811097,-18.09356992993893,-11.161256603349443,-0.47351402268869663,0.005989055501854557,-0.18386028339889848,0.8612816013450226
272.0,0.15143658911243493,0.3651066277022217,0.14539751227005357,-3.7809730246150393,0.4647444831591176,8.520024802367839,-1.5146915158667715,20.973362275673445,-36.99888609456371,136.0058303829006,-23.02637546363943,-1.1976246674909135,-0.36221994754025705,-0.0475266682396688,-0.2218076970291484,0.8734537506678279
273.0,0.2140017983589975,0.5015087670001124,0.27592512457382634,-3.9451982128807463,-0.5696186916938292,8.233654265482745,7.1076344788505486,-13.713520943389161,12.74512675152673,141.69731709658686,-24.060063317223033,6.046840695365479,-0.31673266497184444,-0.09218131829127796,-0.22487292752903598,0.8758523926071522
274.0,0.14784331797235029,0.19779608294930873,0.1339842549923195,-3.9661409370199685,0.5406970046082953,8.516433179723503,3.8987111175115206,-5.7501632104454705,6.559996639784945,131.26696668586789,-24.021956605222734,-2.289573732718893,-0.3986860920994624,-0.05995138577764977,-0.224710494905914,0.8615512172331028
275.0,0.12432842531190291,0.058193773181971414,0.05963620696114795,-3.952050503915177,1.1027172080476568,8.666104866809032,1.5711229908958073,-4.410199130793152,3.256408995541568,125.66969437263498,-23.849719943051966,-6.486245363605709,-0.44260437678075,-0.04361901868494999,-0.22348020495934962,0.8529889791461539
276.0,0.11660200067438464,-0.0077034206286763635,0.015529316998239107,-3.8562019032632717,1.3478125210745198,8.787381926492074,1.2467510115769358,-0.8995120077928898,1.4550574163575734,122.99313251657861,-23.203037774905397,-8.311527059683039,-0.464284224202203,-0.034509087867820615,-0.21776547289902964,0.8502546514133227
277.0,0.10438241354763779,-0.05740163350942265,-0.01076913566370687,-3.895445805702297,1.5473317597692107,8.812551946348956,1.132280075680941,-0.21829479037877952,1.7583658817578958,121.34077708778239,-23.423000262260686,-9.819526010640292,-0.47705104831077905,-0.02933396851762767,-0.21996514132355477,0.8477513422742498
278.0,0.10548690569855006,-0.0836601101494886,-0.020225581656738226,-3.9381146079202725,1.6299577385635602,8.822263684387996,0.015285583155370763,0.26087468622382065,-0.32587178262335614,120.82898589412162,-23.680499747105767,-10.466718650481436,-0.48102507177674125,-0.027380710607508144,-0.22164680196054853,0.8477467409620096
279.0,0.12264437450826118,-0.08516876475216364,-0.010479150275373723,-3.9841003147128258,1.6131770259638083,8.805069630212428,0.09902143981117231,0.2879450236034618,-0.17808566089693154,120.9970102281668,-23.97678501180173,-10.382644079464988,-0.4795447047631787,-0.028981302499606607,-0.2234847265263572,0.848063956669945
280.0,0.13409166011014947,-0.08496439811172304,-0.0057391817466561764,-4.009776357199057,1.623830841856806,8.791956530291106,0.7574916404405979,0.04820638276947284,0.04549690204563338,121.08861624704957,-24.136700924468922,-10.46706456530291,-0.47867218894335173,-0.028988877854838713,-0.22498634886506688,0.8481664322806846
281.0,0.13070411962746784,-0.07538926957349093,-0.005994684646771449,-4.030187784751066,1.693551955061936,8.769841074597919,0.47890757941009643,0.6165667369586298,-0.15437493138528532,121.19972353987887,-24.26685125930873,-10.929310719448154,-0.4775604207899429,-0.026153493537321826,-0.2278488911480248,0.8481202351837595
282.0,0.12097705981373391,-0.06776318317384225,-0.008005406839514756,-4.08194066656908,1.7238808162406452,8.739989085686055,0.355053588092145,0.3979003039631859,-0.15909270762812655,121.26765410864911,-24.60651030707372,-11.1546755210144,-0.4766061084312617,-0.02599417415978994,-0.23121863396110917,0.8477512566402667
283.0,0.13094417506815728,-0.0720022642855836,-0.004743655426051634,-4.11512700126251,1.7474706008819276,8.719300010978351,0.35463758279508906,0.4179454067022853,-0.1345448785976982,121.29998067352204,-24.82070020172726,-11.33053406263151,-0.47610468658571337,-0.02571853815267231,-0.23348278709640827,0.8474261013763881
284.0,0.11964281924139573,-0.07286295354326387,-0.007265218743710318,-4.097898669789399,1.7305377197958027,8.730881909501765,-0.3341430250855396,-0.8474045340603443,-0.17633272647430148,121.36855593471537,-24.7004231240737,-11.206303862551003,-0.4757657457299141,-0.02591454737216621,-0.23211191440264944,0.8479693456821948
285.0,0.10898648399033557,-0.06996656350498776,-0.017126671040582443,-3.9497589711016614,1.7526822202066201,8.793409371070986,0.7789109815563647,-0.11428734252378425,-0.3312094301885576,121.76868258876564,-23.754412650418704,-11.270829004071576,-0.47359807915359375,-0.020277186558586943,-0.22562826331050007,0.8510380672592532
286.0,0.10645370162226966,-0.07269063542017909,-0.014745063879210221,-3.9323033232175644,1.792877805252707,8.793937591322914,0.45353191384736424,0.4132587997826983,-0.36523465306657676,122.1059931250234,-23.642073990296353,-11.517601321606534,-0.4711167400678038,-0.017319399413631933,-0.22590549875010302,0.852429953035789
287.0,0.079213217938631,-0.07763890449964408,-0.021826833014873925,-3.9670364542355108,1.8190952006294254,8.772684425461765,1.512263028736278,-1.5604908958075754,0.24862547300588217,122.37360908171293,-23.856292851522984,-11.709993537147351,-0.4688802495425425,-0.016391213516915814,-0.2282981454126859,0.8530511661736164
288.0,0.1333988985051141,-0.06880371660859466,-0.066649057734817,-3.106936795174404,2.1717623918174667,8.952707279607358,0.5494782885616873,-1.3712908845678315,0.2568609269041999,123.66974120490052,-18.587051815218615,-13.54645526581994,-0.46136698665954823,0.02278568987411488,-0.19623355469296766,0.8623672136611591
289.0,0.1336313738713424,-0.06650856093814395,-0.051235622494473804,-3.1662030272376462,2.1051822711775503,8.989700835487614,0.0717282979281405,-1.0084286369937432,0.15719367015098723,124.3955499981267,-18.89492947060807,-13.130972284665242,-0.4563988892111574,0.01988969386834514,-0.197179985000562,0.866148961422015
290.0,0.1255056011389607,-0.07471282454760031,-0.05226068712300029,-3.1404259862875126,2.017268742272676,9.039006031995802,-0.07541633884080777,-0.39729918324528857,0.08999522310891313,124.776998801094,-18.7027673185718,-12.555355737889176,-0.45414218861563815,0.017281499563523286,-0.19363541963283504,0.8688291831512494
291.0,0.12237121126971638,-0.08536585365853658,-0.056020194072908494,-3.1411217264246374,1.9335674946611219,9.067905848413321,-0.3285716627327564,-0.24150462702783704,0.12615909857255253,124.85400392454385,-18.69215863961635,-12.022047459817916,-0.4539417714950731,0.013613746315986663,-0.19154227966692894,0.869790390808512
292.0,0.10836686523547263,-0.08093177475553556,-0.04610917537746807,-3.168871155070998,1.9053014124611298,9.06993218687947,0.3092404743171855,0.49042280169345476,-0.04939164887040576,124.89736006519051,-18.857576055599267,-11.852349574763029,-0.45362121188040916,0.011761315508223746,-0.19214694103930163,0.8700204502045632
293.0,0.10040294481285827,-0.08518657974598179,-0.043845303660409896,-3.2932672061743657,1.9183902813682518,9.026874039938551,0.36075713723727093,1.1855880727586077,-0.20973713049342474,124.99040406878723,-19.624303370049827,-11.9923874152336,-0.4523561089811173,0.009570763521224383,-0.19843739930800647,0.8693989934579072
294.0,0.0996676782436027,-0.08591510246899703,-0.03585890375032784,-3.406161252856769,1.931579933310854,8.981689708141321,0.4107213105541193,0.5309420778539583,-0.15865600764302573,125.09956071334906,-20.32614458057023,-12.130650312839535,-0.45099238014724075,0.007682535428046908,-0.2041839326724364,0.8687878331920875
295.0,0.11945224982203738,-0.09361844816604847,-0.032945187516391305,-3.4934386122663077,1.8992832790079055,8.955423925667832,-0.02814150837360907,0.682760574725563,-0.5145414184556593,125.3980789404668,-20.867832321756396,-11.964494117867446,-0.44837607582893113,0.004658399881608034,-0.20758023674534487,0.8693620857266493
296.0,0.12616593608332397,-0.1000310966243303,-0.029002098085496995,-3.552332996141022,1.8727651642875887,8.938034543479077,0.1349998595032033,0.38551384361769886,-0.3461524952231089,125.74430402570152,-21.237146884717696,-11.826710080176838,-0.4455382020608071,0.0026636925411187293,-0.2097620608077629,0.8703196627885805
297.0,0.11974036191974823,-0.08906223071447303,-0.030412123936907575,-3.568920984601551,1.8755666704132488,8.93113446480087,0.45742244576823654,0.09591482147540367,-0.14637658761380243,125.96752182383574,-21.34617239893597,-11.851494885916601,-0.4437806157678619,0.0027623831212768347,-0.21062315453561126,0.8710184278116218
298.0,0.11304169944925256,-0.08039342849649694,-0.033598666217076925,-3.5469294144093513,1.8953757820988348,8.936211606908694,0.2442403338203889,0.01914151774006219,-0.1070494267730696,126.09543479075343,-21.206450676257916,-11.967196105428796,-0.4428741565613503,0.00443347884387996,-0.21003428635513843,0.8716192401245366
299.0,0.1149906594847586,-0.07427771389376425,-0.040432205612378716,-3.3978328390728074,1.9188922512053908,8.987219592890717,0.3649289374407392,-1.0477024450765597,-0.18172799531965544,126.30458552724485,-20.273998113740443,-12.043577891424075,-0.4418374777445177,0.009402554510561035,-0.2033364228334241,0.8736380253299039
300.0,0.12184151384938166,-0.08093350682886483,-0.04152688172043012,-3.279451431338135,1.9348528919284225,9.02719201517077,0.30435667957796203,-0.5942632996429219,-0.09904161371018178,126.48976325929512,-19.53339952893946,-12.096734854445318,-0.44096939807760893,0.013266503308781697,-0.19798403594700312,0.8752601739474066
301.0,0.12059109524097725,-0.07720711533418065,-0.04601993181222136,-3.2118980209405077,1.9440983578446203,9.050920948576728,0.2179631548951966,-0.21541941536040665,-0.13713882416429624,126.56662631886866,-19.1171865858702,-12.118804091266718,-0.44057521128978805,0.01541432288806512,-0.1949605857783796,0.8761310011491554
302.0,0.13060711331679076,-0.07386083540115798,-0.038236559139784965,-3.176301488833747,1.954786393713813,9.062613110008266,0.25516568444995863,-0.02619416873449129,-0.15075863316790736,126.6139681555004,-18.89513931968569,-12.169556451612902,-0.440330668756617,0.0168509446792804,-0.19349846161145573,0.8765668747586846
303.0,0.13662613730355666,-0.07653928866832091,-0.0320698924731183,-3.173303970223326,1.963260132340777,9.061907361455747,0.22125723738626962,0.16916098014888337,-0.1547895988420182,126.63057278742762,-18.880810587262197,-12.212399193548386,-0.4401892704226635,0.01729890074689826,-0.19352605805169562,0.876634064560794
304.0,0.13844177812745867,-0.07681510621557827,-0.030892014162077118,-3.2214852478363505,1.9711009047993695,9.042346184107002,0.22477380015735637,0.667652193154996,-0.14178673288749016,126.5783143194335,-19.177188237608185,-12.285143341856806,-0.4404311580247837,0.016431013798977184,-0.19605482170948074,0.8759607867057433
305.0,0.13121577498033044,-0.07324311565696301,-0.03427675059008656,-3.2973973249409916,1.9662435090479926,9.0158768686074,0.19220716955153422,0.7408081726986624,-0.20475265538945714,126.52346331628638,-19.645342004327304,-12.30161904996066,-0.4405672206134934,0.014362483326907947,-0.1996265235556648,0.8751108377195123
306.0,0.13632159716758457,-0.07567800944138474,-0.03040047206923683,-3.379432533438237,1.9754120771046415,8.983712627852087,0.3511691089693155,0.6984534815106216,0.48834947875688434,126.35487681943351,-20.155105477970103,-12.401187549173878,-0.4414704882865854,0.012612952816679781,-0.20385713571734854,0.873699011061369
307.0,0.11751966955153423,-0.08100944138473642,-0.03875236034618412,-3.3228066483084184,1.9650180959874108,9.005837529504328,-0.44857764555468127,-0.3558393981117231,0.0004573170731707321,125.89008285798583,-19.804905094413847,-12.301858772619983,-0.4452871482842251,0.01259619894689221,-0.20089743416778127,0.8724220941496854
308.0,0.1286066089693155,-0.06981117230527144,-0.09843666404405979,-3.029705743509049,1.8435090479937055,9.115668764752163,-1.8207857985837923,-5.194099134539732,-3.0069285995279302,126.82112509834775,-18.009962627852083,-11.444477773406767,-0.4392730210896931,0.014839034191188039,-0.18370930819276163,0.8785167536514555
309.0,0.10953697875688434,-0.06373092053501181,-0.07440794649881985,-2.6576066089693158,1.8723060582218727,9.219396144767899,1.1478928992918962,1.1228609362706532,1.4946425059008657,127.13678206136899,-15.751416207710465,-11.478680664830842,-0.43817604291856804,0.025329354759638073,-0.166765655799764,0.8820483722804878
310.0,0.11218391030684499,-0.07781353265145556,-0.060260621557828506,-2.879656963021243,1.9114795436664047,9.153136309992135,0.9025754819040125,1.9728437254130606,0.5453887195121953,126.11227871754522,-17.09244197482297,-11.794095446498819,-0.4452825101689615,0.020566353032848143,-0.17841828781333596,0.8766040517893391
311.0,0.11121042673560375,-0.0839774268480012,-0.05488280693866848,-3.0176994492525573,1.93142832790079,9.111329867745681,0.47243429433142253,0.8117266822149789,0.2950289891723803,125.49530986568506,-17.930451978194895,-11.963660386459853,-0.449515481213705,0.017359309208628375,-0.1855188541349706,0.8732790813330337
312.0,0.11932669251807723,-0.08894386684650257,-0.04267743808774495,-3.1112376081825337,1.9496992150912285,9.080495775729645,0.40505566014761524,0.8157030342624855,-0.04777956520924653,125.096199386029,-18.505450221984937,-12.104445260106402,-0.45215948618120344,0.01536922270423551,-0.19046590724057735,0.8710286678577048
313.0,0.1407641527106515,-0.08919370761679968,-0.031887106140646666,-3.193191384736428,1.961531059158517,9.051405145929339,0.4224875074931625,0.3103968800344685,0.10000134642763481,124.87685473333708,-19.006757369056984,-12.216108718762879,-0.45348607821963394,0.013743211977117756,-0.19471555726948225,0.8695406957756266
314.0,0.13909175377468058,-0.07643153122775467,-0.03397984339290398,-3.17717230527144,1.9649026263534517,9.058835637480797,0.19519032632722638,0.1392206174365891,-0.08878460904424712,124.80901708441047,-18.906932111947846,-12.223553351316923,-0.45411538702513954,0.014142591500655652,-0.1940323228484508,0.8694319427870068
315.0,0.12859229702896105,-0.0630670638042786,-0.03689550784908771,-3.1620377655389458,1.9489194485032404,9.068193585852908,0.2315989003784047,0.25575310966243303,-0.03795052639466487,124.86045858154434,-18.810969989884228,-12.116359681165935,-0.45382776153302606,0.013861165808549701,-0.19289108745648348,0.8698419920473193
316.0,0.12443823760818254,-0.03008575924468921,-0.09288630999213215,-2.6379704956726986,2.1561309992132176,9.150452399685285,0.6906938434303698,-2.0903742132179386,0.7353978166797797,125.79442859952792,-15.642970594020456,-13.220367820613689,-0.44760562870967746,0.03704268543115656,-0.17256116024744297,0.8753686050582219
317.0,0.14049213217938628,-0.09195869394177811,-0.05274134539732493,-2.8926949252557037,2.0235769079464987,9.115599921321794,0.6191962529504327,-0.05416133949645929,-1.4143132867820614,126.23176878442172,-17.18783069433517,-12.48823269079465,-0.44387412223839495,0.02578644715696302,-0.18162669008438234,0.8762353465849724
318.0,0.13203446854745043,-0.08363026862987524,-0.05152409051740287,-2.898425995653965,1.972525205125323,9.13721739537672,-0.46837686392416916,1.4247902499906335,-0.3970291952343486,126.87025027162713,-17.20715339440261,-12.164412044322056,-0.4392852577612867,0.024317271686008387,-0.18054884537648452,0.8791972295152206
319.0,0.1159281405717283,-0.0858907871567195,-0.054543535274062416,-3.0695588119590873,1.835531995803829,9.114112537934133,-0.2380046762017159,1.0809807144730432,-0.6156900968491252,127.69908442920834,-18.253665502884864,-11.372223783297741,-0.432672737031949,0.01542390817921771,-0.1854115976700011,0.8818234408998911
320.0,0.1036454235510097,-0.08429433142257689,-0.04689411224757409,-3.170524586939418,1.792575793338579,9.092308924356523,0.26673047562848906,0.7708908784796373,-0.4683485889438388,128.20608479918326,-18.870727199711514,-11.145391002585143,-0.42852801855226486,0.012014318804793749,-0.1891923445000281,0.8832384504544695
321.0,0.11272593758195645,-0.09866329474354651,-0.042257539994754796,-3.2538630999213223,1.7920540257015478,9.067646397662136,0.3653712862013413,0.38799080214304443,-0.29085272189127426,128.4817218350755,-19.374501704694467,-11.179046307744184,-0.4261700243648422,0.01057901266449365,-0.19313302639114305,0.883683251465138
322.0,0.11953055337004981,-0.09113888576673787,-0.038722790453711,-3.2380723839496452,1.8145203252032525,9.069311003709117,0.23849799557903414,0.17232447266868978,-0.06212089281031058,128.65121201903264,-19.276058877524257,-11.307727323817018,-0.4248979663594471,0.01223268503248286,-0.19284498663774302,0.8843600748065266
323.0,0.12652718144692968,-0.0781546963395901,-0.023981978944213406,-3.19975815818066,1.8366334344910271,9.077965793713236,0.48774938181409466,0.0708780581469409,0.07938022179760969,128.75588634745793,-19.040535199130794,-11.432828715671949,-0.42414565808909377,0.014329579333445728,-0.19149289127125246,0.8849826802965044
324.0,0.1267658948709303,-0.07981851560451088,-0.05383814769023267,-3.2539612603499304,1.841938069012027,9.05693988610393,-0.06864931062905094,-0.5130440738451163,-0.12772060338690944,128.64011195253082,-19.37443426623206,-11.49348809055487,-0.4248007632073732,0.013173236452437148,-0.1942661179244127,0.8840795702903415
325.0,0.13071313364055298,-0.07607219662058373,-0.023950844854070674,-3.2516973886328717,1.8680176651305689,9.052889784946235,0.5855846774193548,0.22530001920122883,-0.34763104838709674,128.77283266129032,-19.365610599078337,-11.653036194316435,-0.423702029860215,0.014673317881720431,-0.194761673625576,0.8844759024573736
326.0,0.13527326626952907,-0.060062258813832384,-0.024909726124911026,-3.1706087257877185,1.9178290528642616,9.070977248885393,0.40221036585365855,-0.2786492872129182,0.0711201809598741,129.00625122934696,-18.86621280347308,-11.931309476977258,-0.4221151132131523,0.01917641721564385,-0.191946514503681,0.8857546272997922
327.0,0.14165180210557868,-0.07411657487542618,-0.025907628039414043,-3.1584380034468547,1.8912234742047884,9.081405483121653,0.4901796836948784,0.9871010476377805,-0.2195210347120753,129.17917568187778,-18.792211384455435,-11.759522346015512,-0.42087894425999395,0.018477012279672925,-0.19074062812645648,0.88661671689932
328.0,0.13451463039976025,-0.07993574613165488,-0.029275411187291604,-3.2946463227305083,1.9165123075193895,9.02668277696602,0.12811317485294668,0.8836487486418643,-0.29998290622307144,129.29004392866509,-19.63801351579184,-11.978795520962121,-0.4194317711294069,0.016830630352365965,-0.19795638710482932,0.885737204167697
329.0,0.12539507699224456,-0.08258457907159719,-0.029666366940167107,-3.3905080364167697,1.9173603461841076,8.99095650219175,0.33661042111573186,1.0644236353077816,-0.10343842493724477,129.36203448728034,-20.23777443707617,-12.031672661196659,-0.4184611967451576,0.014881804959349593,-0.20269831363474583,0.8851644572694917
330.0,0.12199093327338806,-0.08780150612566034,-0.03936083323966882,-3.3782570904050053,1.9280158105728527,8.993327713461468,0.25531077891424075,-0.7680233973998726,-0.18631982690794652,129.5198709302761,-20.15532155033532,-12.094561369000786,-0.4172883125930089,0.015960088416694763,-0.20228142939417781,0.8857992116608595
331.0,0.12351110861339029,-0.08506200591959837,-0.04186692143419131,-3.3029702896107302,1.9379431268967064,9.019333670525643,-0.06571620583717358,-0.20351546401408716,-0.16990628863661908,129.71333501929487,-19.685535386459854,-12.118855606758832,-0.4161069674860439,0.018415852469933682,-0.1987890867442209,0.8870992315973549
332.0,0.11861039301637255,-0.08989659435764863,-0.04839121801356264,-3.239780075680941,1.8987872316511183,9.05059233449477,0.1408410138248848,-0.13159164137724327,-0.0009717695103218238,129.80444016709754,-19.294860627177698,-11.840341781874038,-0.4157230018613015,0.018099979863999097,-0.19477908582218723,0.8881776739668802
333.0,0.10197894421340525,-0.0907643025739013,-0.05452512082724515,-3.196767075044023,1.8829077217039452,9.06919186242553,-0.08908667715709415,0.21768339515192384,0.23268376981004835,129.8407492225844,-19.02836162002173,-11.719905586152635,-0.41565688065677553,0.018365972802068108,-0.19229483536060843,0.8887514950312839
334.0,0.09125960061443932,-0.08087557603686636,-0.05710445468509985,-3.204669738863288,1.8838248847926267,9.066121351766512,0.37888824884792627,0.3118759600614439,-0.3288690476190476,129.71644585253455,-19.075748847926267,-11.73137480798771,-0.4165937248387096,0.018046764999999996,-0.19272685023809524,0.8882329100537635
335.0,0.09054838709677417,-0.07972196620583717,-0.055529953917050706,-3.2030706605222736,1.8896359447004605,9.066135176651308,0.1675595238095238,0.4485119047619048,-0.015591397849462368,129.80091205837175,-19.067703533026112,-11.764948156682028,-0.41592960382334865,0.018482457854070662,-0.19274863922580646,0.8885341763533028
336.0,0.0973149001536098,-0.08900307219662058,-0.056477726574500786,-3.064639016897081,1.9132642089093697,9.10715360983103,0.46148233486943163,-0.8737423195084486,-0.290312980030722,129.93859447004607,-18.20819892473118,-11.852726574500767,-0.4152958413732718,0.022867435457757303,-0.1864725558970814,0.8900296877096776
337.0,0.09669892473118279,-0.08347323644097837,-0.053438260664067136,-2.999576391350585,1.9321611721611722,9.12609807396904,0.26638529481271417,-0.43124926149119697,0.05842269289849936,130.16646800779864,-17.80755125251093,-11.95161659576982,-0.4136975484232542,0.025580519324353068,-0.18370153473189177,0.8912849204107294
338.0,0.10979032258064515,-0.08090712513293158,-0.050529422190712533,-2.969560085076214,1.9427695261727527,9.134205719012167,0.2737648440269408,0.042876713340423034,-0.1569253663003663,130.20562743707904,-17.62613065697743,-12.014234757178304,-0.41349337878612785,0.026831176830379302,-0.18252077964551577,0.8916026919027533
339.0,0.1182231182795699,-0.07994665012406947,-0.048187138130686535,-2.9917969396195208,1.9523248552522743,9.125106699751864,0.24839355872622002,0.20563094499586437,-0.15813818238213398,130.23851840363938,-17.761039598842018,-12.074004859387923,-0.41319029932009926,0.026788217433622825,-0.18379849065839537,0.891493947206369
340.0,0.13192007605559927,-0.07835294740664528,-0.03908815993867136,-3.0565174705965434,1.9607073725513926,9.10167844822369,0.24987476421755533,0.5921736304444309,-0.2629664898928765,130.24553649332245,-18.162693038996146,-12.150226515059815,-0.4128742353085547,0.025768350932881434,-0.18714945948498055,0.8909681744485818
341.0,0.13960078303548012,-0.07876729551591864,-0.03681212912448162,-3.1481316231630947,1.948923386736526,9.071849208750859,0.07107673502736445,1.0583455997844275,-0.22320151491571633,130.2207125150944,-18.726867832862126,-12.118212815901643,-0.4127624295680639,0.023181735666901543,-0.19137276343219844,0.8901851279675705
342.0,0.1294025420553745,-0.07566652616986999,-0.03630101907009854,-3.2809359521936234,1.9329745138810837,9.02768142819677,0.21972984807613052,0.6612499297516016,-0.03335944232138173,130.23651423935033,-19.55047382544678,-12.08031194972088,-0.4121933722157938,0.01957684601211082,-0.19752316123057395,0.8891803566777472
343.0,0.12895313963508304,-0.06614610730208685,-0.037517936757708606,-3.272377299464239,1.908367371023941,9.036625725900116,0.05055630877449328,0.31281664465550185,0.04713690944513131,130.01143362931325,-19.493180461110487,-11.914049562586639,-0.4139928353774681,0.018211581860205685,-0.1965403417747087,0.8886046408914894
344.0,0.1228435053014125,-0.06199644074781762,-0.03917429095949947,-3.2936644561837323,1.902836911318422,9.031566895208119,0.0826622269678918,0.2746290884567832,0.10229829343224307,129.9508781049792,-19.621010593458465,-11.884897765164286,-0.414399465140347,0.017360992288973812,-0.19742370237525758,0.888247509288487
345.0,0.13303622944063545,-0.0630493612078978,-0.03844631149076469,-3.2600596081076016,1.8627921771383613,9.050915626990372,0.10435727398748643,-0.6370953692255816,-0.25050309561275336,130.14252205799707,-19.414847350230414,-11.619651872353977,-0.4131103420320146,0.0165330994780825,-0.19482680288235737,0.8894282347937321
346.0,0.1340302911093627,-0.06435306845003935,-0.04118823760818255,-3.168613690007867,1.8680826121164433,9.082005900865461,0.21085513375295042,-0.3326465381589299,-0.022972806845003926,130.42615066876476,-18.852774636113296,-11.623612067269868,-0.4112462895422896,0.019291048748819827,-0.19046101665145554,0.8911678698916209
347.0,0.14071675845790718,-0.07461605035405192,-0.03936428009441387,-3.1245810385523205,1.8814284028324149,9.095123918174671,0.07301829268292682,0.05696302124311567,-0.1899390243902439,130.5234583988985,-18.581503245476,-11.67967397718332,-0.4106379211542093,0.020994298749409918,-0.1886080957450826,0.891819788328875
348.0,0.13980987973474207,-0.07779676670038588,-0.038100333445730786,-3.119270587463939,1.8803740118391974,9.097531799108317,0.19337616144018582,0.16241710688996291,-0.18281045108838184,130.6397580762242,-18.54814409585628,-11.674775497826982,-0.4097381196657487,0.02126812872748305,-0.18831438788340632,0.8922944141814846
349.0,0.13743719793188716,-0.07911612528567682,-0.036711457045446046,-3.133284487280357,1.875231360758308,9.093455415683191,0.19557920975235096,0.4031339566707879,-0.18087095135064254,130.71501512682175,-18.63710128179911,-11.650064160203813,-0.40906584384900324,0.0209112033274512,-0.18888451927234834,0.892493638227839
350.0,0.12293053838372484,-0.07175141433441984,-0.03650777415608259,-3.192703120902178,1.8858937094900898,9.06950878573302,0.35140204095013294,0.6170991626390918,-0.27831595856281144,130.95011918811582,-19.001968594282715,-11.742171635570042,-0.4070090654041435,0.020496680996141024,-0.19197541570413246,0.8927805838341202
351.0,0.10921743284253119,-0.0776483271514743,-0.03909810422989024,-3.214642669813796,1.9151506312989395,9.056061237870443,0.6240094390431232,-0.5328499072721141,-0.27854625622869134,131.12919511726798,-19.133724265670075,-11.932508909838521,-0.40546531218672954,0.02172156151144581,-0.1936155965609569,0.8930923906094284
352.0,0.11869742609868496,-0.07759029260799521,-0.04397647146978384,-3.068958431681092,1.9578414446817272,9.096022554419093,0.053158953392529296,-0.6614350342812183,0.28073695253081565,131.12493021992432,-18.238283503802776,-12.134878446854744,-0.4059502426094938,0.026786797433142252,-0.18746971448209138,0.8940125229619722
353.0,0.11351921996178488,-0.07670221235622493,-0.05469560900678132,-2.9557656981754157,1.9578838559814165,9.13367563972875,0.17534099743359183,-0.11062343111910378,0.21371717058184408,130.99852501779625,-17.54358491626391,-12.087312495316773,-0.40733673996450115,0.028988162533775428,-0.18198027775563858,0.894449648335825
354.0,0.10399117680116893,-0.08179599865123073,-0.07273528530216176,-2.9658419504701956,1.9446477651642882,9.133260630924287,-0.18813715297291222,1.0128478466524298,0.331546565321644,130.71507472087967,-17.606753095612753,-12.00887202146791,-0.40955102069077587,0.027680306902832415,-0.18225169760074553,0.8934288977374207
355.0,0.10070919973024614,-0.09474536360570976,-0.060958515979169015,-3.0572954834963095,1.9229179030384775,9.107928505863402,0.11115860683376416,0.9174683765126821,-0.2977642861826083,130.55993704572703,-18.168517185099844,-11.91449698634371,-0.4104857644130512,0.024471027389260422,-0.18626352230548682,0.8922677043329118
356.0,0.11601677531752276,-0.10557763852984149,-0.05359816042860889,-3.12435909107939,1.9170717563972872,9.086853808399836,0.29239947454198045,0.30878028876774943,0.009586213517665143,130.67774524886664,-18.577306020756062,-11.900434837585703,-0.4093576819355775,0.022957664574154213,-0.18936505337825482,0.8921809296313459
357.0,0.11245419804428458,-0.09823817016972011,-0.045277247012101465,-3.136849687160466,1.9148980929901462,9.083421003334458,0.29514864561088006,0.13268049155145928,-0.36614636019632085,130.88753816829643,-18.65357236521674,-11.89236189164887,-0.40767070363793034,0.022937496715184896,-0.18988604105616125,0.8928530357459443
358.0,0.1078397212543554,-0.08943613952268552,-0.0453902064366266,-3.129991008205012,1.9162474242253946,9.085939080588957,0.22695969615226103,0.07742778464651007,-0.13178014124611293,131.1559760312465,-18.610431652991643,-11.895370864710952,-0.40563178434078906,0.023588332747555358,-0.18951468127683488,0.8938512059027389
359.0,0.10489221085759245,-0.08809441384736427,-0.05054917387883556,-3.099875688434304,1.9072604248623133,9.098527143981116,0.08571007081038551,-0.18369394177812745,-0.286536191974823,131.31521439811172,-18.427734067663256,-11.83282848151062,-0.4045320250920535,0.024070258440597955,-0.18780352384579072,0.8947002947962234
360.0,0.11732022029897718,-0.09471911880409127,-0.04758457907159718,-3.0682612116443746,1.9219370574350902,9.106272226593234,0.41119197482297404,-0.1381392604248623,-0.17052517702596381,131.47408536585365,-18.233221872541307,-11.910444531864673,-0.40335921929976404,0.025652975773406764,-0.186543798368214,0.8954489471219511
361.0,0.11443958637743058,-0.08482293657037954,-0.04725768985800459,-3.045523584728935,1.9339976396538168,9.11082615863025,0.22386642501217638,-0.06048995916226443,-0.11389115244839085,131.55115137124875,-18.0928997602188,-11.974608482259939,-0.40283289069536543,0.026811786727323816,-0.1856856967507025,0.8958365568045781
362.0,0.11902545801955713,-0.0705349930688247,-0.04908517852459632,-3.0077499906335463,1.9380255704169946,9.122073189464611,0.3608759741111236,0.03375482372335245,-0.08273727567344796,131.59658276666292,-17.859121988685324,-11.990525130193697,-0.40258234213367794,0.027928515271608403,-0.18394346177818371,0.8962720685950507
363.0,0.12934750477689105,-0.07299369637705594,-0.056780984226892976,-3.008446199093327,1.9375926435877264,9.122511811097375,0.10857036313738713,0.2672953898317785,-0.29481080935521337,131.57260786641564,-17.864602300400886,-11.985034398299053,-0.4028021976404031,0.027884930877346302,-0.18397418512984715,0.8961679595217583
364.0,0.12345748566932671,-0.06682070735453899,-0.05617697913154247,-3.02189933872841,1.9329075531077895,9.119500693117534,0.26391650041212394,0.37321914456183736,-0.1847867726949159,130.56556054709455,-17.947504484189427,-11.961527820707355,-0.41056814577751855,0.025738455091800613,-0.1847418921462572,0.8924934365253361
365.0,0.12209115432168144,-0.06311865422801695,-0.055313214192049764,-3.0449188865160535,1.9282179386310003,9.112561912255075,0.22016082199992507,0.31903544265857403,-0.10839210782660821,129.26570402944813,-18.091573470458208,-11.95822444831591,-0.42054916099940054,0.02296924574407104,-0.18608187307912782,0.88759174801375
366.0,0.1297324940991345,-0.05915814319433518,-0.051070023603461856,-3.0645554681353264,1.9288670338316298,9.106184107002365,0.18243509047993706,0.12322974036191975,-0.14471872541306058,128.46380802517703,-18.21361132966168,-11.963611329661685,-0.42668419682926834,0.021221122328874905,-0.18720202686860743,0.8844968976160503
367.0,0.12531864673485443,-0.061510621557828486,-0.05405192761605036,-3.059866247049567,1.9042014162077106,9.112651455546818,0.11241148701809599,0.2555566483084185,-0.09638080251770259,128.01529307631785,-18.182336742722264,-11.806304091266718,-0.4302164566483083,0.01944735693154996,-0.18644823569630214,0.8830126530527146
368.0,0.11658461653740958,-0.06259263422127309,-0.05352216102806191,-3.0464452437151097,1.9219100071185042,9.113590723464842,0.1881697013974748,-0.12660868832190628,-0.20238095238095236,127.86446039863624,-18.096010827619796,-11.904288898879772,-0.43139951341201144,0.02032079271027687,-0.18619104023041477,0.8824954442085347
369.0,0.12743321718931475,-0.06594245251208272,-0.06383649919448503,-2.76776703757821,1.8404683226555765,9.21258401708441,-0.046839290397512306,-1.146643531527481,-0.09981360758308043,128.0305674197295,-16.395341594544977,-11.297312296279644,-0.4312582910943763,0.02302071854707579,-0.17088185848900378,0.8854249354040687
370.0,0.12357498782361095,-0.0732820051702821,-0.06855869019519689,-2.680756060095163,1.8533576861114232,9.238022929077218,0.08911477651642874,0.22587670001123972,-0.3223792664193923,128.1131397287475,-15.869803960136375,-11.34016381926492,-0.43090064578322274,0.025672796386047733,-0.16701343121539095,0.8863337031190286
371.0,0.11906837510771422,-0.0762562661571316,-0.06397564722191001,-2.7622741748154804,1.8496143269266798,9.216620433854109,0.19065789966655425,0.46164999438012816,-0.10430529017271738,128.30277855831554,-16.363535929714132,-11.339903900191075,-0.4291980186052228,0.023995896701285074,-0.17079269393893076,0.8865313313557379
