time,linaccel_x,linaccel_y,linaccel_z,gravity_x,gravity_y,gravity_z,gyro_x,gyro_y,gyro_z,euler_x,euler_y,euler_z,quaternion_w,quaternion_y,quaternion_x,quaternion_z
0.0,-0.03282051282051282,-0.0003846153846153846,-0.0332051282051282,0.0,-0.0001282051282051282,-0.0001282051282051282,0.0,-0.20592948717948717,-0.0016025641025641025,0.0,0.0,-0.0016025641025641025,0.0,-0.0004022061538461538,-0.00020032051282051281,-0.00020501589743589734
1.0,-0.01094017094017094,-0.00021367521367521368,-0.011153846153846151,-0.01094017094017094,-0.0001282051282051282,-0.0001282051282051282,-0.06837606837606837,-0.06917735042735042,-0.0010683760683760683,0.0,-0.0005341880341880341,-0.0016025641025641025,0.0,-0.0002681374358974359,-6.677350427350427e-05,-0.00020292905982905975
2.0,-0.014187717044859901,-0.038310499024784735,-0.005151277294134436,-0.033185861757290325,-0.000277579563293849,-0.038273868988154706,-0.0293040293040293,-0.029647435897435893,-0.2379346843632558,0.0,-0.0002289377289377289,-0.0006868131868131868,0.0,-0.00023177749108034817,-0.0002605281623138766,-0.0002047370182198753
3.0,-0.006620934620934621,-0.0703910533910534,-0.0027458097458097457,-0.015486735486735487,-0.00012953712953712952,-0.035365412365412366,-0.06837606837606838,-0.12409188034188035,-0.11231823731823731,0.0,-0.00010683760683760684,-0.0003205128205128205,0.0,-0.0003222554103674103,-0.00012199717660117661,-9.721341192141189e-05
4.0,-0.00320367804238772,-0.03412635751345429,-0.0013947880076912334,-0.007493581687130074,-0.01713463955399439,-0.034250426992362484,-0.033085194375516956,-0.060044458229942095,-0.2669199080489403,0.0,-5.1695616211745244e-05,-0.0005686517783291976,0.0,-0.00015593003727455338,-5.903089190379513e-05,-0.00015042998012739948
5.0,-0.01801209543145027,-0.03412893558054848,-0.00036033858614503776,-0.012216600603697378,-0.00863142234109976,-0.017189316060283802,-0.016542597187758478,-0.026700785773366417,-0.23930672821801852,0.0,-2.5847808105872622e-05,-0.21200372208436724,0.0,-7.228563071337263e-05,-2.6284469938663488e-05,-7.271609014641271e-05
6.0,-0.009006047715725135,-0.03491767459509395,-0.0003175958014667692,-0.014771256061578641,-0.0044531376789441295,-0.008732084538536153,-0.06241477209219145,-0.013773388773388772,-0.12094819957723184,0.0,-0.00043591979075850045,-0.10684785281559475,0.0,-3.417642745513712e-05,-0.0003400820780382071,-3.437903517000291e-05
7.0,-0.021174524400330852,-0.01657858851407238,-0.00034683566941631457,-0.01505108085753247,-0.0024187959671830633,-0.0034857934857934862,-0.08414369704692286,-0.007300259316388348,-0.05418469027339995,0.0,-0.00021795989537925023,-0.15929654840945162,-5.1695616211745244e-05,-1.459751324525518e-05,-0.0001643029736436188,-0.0001180644776786712
8.0,-0.014583099869260121,-0.010697042596106075,-0.004158916380560504,-0.015783604944895235,-0.005238534299928684,-0.005242669949225624,-0.06539157423652742,-0.07856758343230767,-0.05223567540164835,-0.02497398543184183,0.34786188373597327,-0.104830376181833,-7.645622433896318e-05,-2.5621285612195096e-05,-0.00010693596783784507,-0.00013601124510951288
9.0,-0.00735857967907916,-0.02257309779682308,-0.0022784795989790802,-0.007958832216896717,-0.019312412714077645,-0.0022198278795573295,-0.03311472302107058,-0.03970272761896071,-0.1279793498445944,-0.0665297241780072,0.06584547894381404,-0.054078007798091035,-0.00014337123743131652,-0.00011959036630840167,-5.5104582159391745e-05,-0.00017237266916406103
10.0,-0.0031499267295313086,-0.044632289179635694,-0.03514461614357556,-0.0037147345534442227,-0.009654138532390352,-0.018047465635394878,-0.01655736151053529,-0.12572398581113461,-0.1669673424160937,-0.0332648620890036,0.03292273947190702,-0.021249094883330058,-7.168561871565826e-05,-5.976993915089232e-05,-2.7552291079695872e-05,-8.616109057872199e-05
11.0,-0.028000769816378553,-0.05713021026839965,-0.017843217691084493,-0.001578378610636671,-0.022508731573663936,-0.009157008028392003,-0.06158876503309386,-0.17338600482070826,-0.08473312630830841,-0.07168619448536201,0.01561477717565127,-0.011457517508506062,-3.584280935782913e-05,-2.9845056759404312e-05,-3.5592754439455813e-06,-0.00015056751419374926
12.0,-0.01354692312645425,-0.028786605645074154,-0.028573849394367235,-0.0005245077503141999,-0.05010964238878789,-0.0047241031967970816,-0.029614506099478858,-0.08715446180800897,-0.16427014778900068,-0.0970385431629846,-0.2360256284899732,-0.0043177725235324545,-1.6305916672297524e-05,-1.4897284376393637e-05,-1.7543937186642712e-06,-0.00019108666421505688
13.0,-0.006648591636067916,-0.031428047474347284,-0.014229084514473508,-4.1893590280687055e-06,-0.025062970173406605,-0.0023702005774112033,-0.12127440712355324,-0.041969733302750376,-0.18943359613188834,-0.047738834536747245,-0.12930583963790793,-0.0017908814777884987,-6.571445328864683e-06,-6.673732718894008e-06,-1.0228739002932552e-07,-9.395445953161322e-05
14.0,-0.0033222011385199237,-0.06678859432787326,-0.007443406940940147,0.0,-0.012060182196045575,-0.018407555253096047,-0.16829063883617962,-0.022228582612833087,-0.20024937033238738,-0.022180581910183426,-0.16852284022113243,-0.10850960077240912,0.0,0.0,0.0,-4.361479155885228e-05
15.0,-0.0016611005692599619,-0.032401741332671125,-0.0027250119899076253,0.0,-0.023035881007038503,-0.008872925682792854,-0.19001794141974407,-0.11450552372990702,-0.09845750154336493,-0.11696291295674598,-0.2964202290435687,-0.16134226936883483,-5.1695616211745244e-05,-0.00020759027295285358,-0.00010379513647642679,-2.342301199117138e-05
16.0,-4.743833017077799e-06,-0.01509549432224954,-0.0013539038444161783,0.0,-0.02769044628819327,-0.03794788246845509,-0.09328854060234515,-0.0537984607896847,-0.049188428191037296,-0.0567610263708461,-0.14818323280135423,-0.0806442529639873,-0.00012793029075185055,-0.00010539030185004868,-0.0001547776335710023,-1.0744039002255079e-05
17.0,-0.00846980976013234,-0.024546421320614867,-0.00019496632399858206,-0.01693961952026468,-0.012895483446728853,-0.01930004934496564,-0.046629445822994206,-0.027297970846357943,-0.12748407506472023,-0.026468155500413565,-0.17234445661865017,-0.041089958428668104,-6.396514537592528e-05,-0.00015608638334851482,-7.738881678550114e-05,-2.4592298840400105e-06
18.0,-0.012597501858424684,-0.01186763828250149,-0.00022605406027210846,-0.02519500371684937,-0.05681513260116771,-0.010037832046815305,13.072727658553505,-0.0156644515821731,-0.1669384786983807,-0.013234077750206782,-0.08615913656236236,-0.22959681192633416,-8.30238140109516e-05,-7.923956570447383e-05,-3.9491991079561516e-05,-0.00010488169111411249
19.0,-0.014768560689344682,-0.02139287621321104,-0.0003010647988189842,-0.021067311618557023,-0.04541126153008554,-0.02155254368606757,6.486792097245344,-0.008620080409586329,-0.0813060799279664,-0.006617038875103391,-0.03972808105872622,-0.1114338269937494,-4.15119070054758e-05,-3.9619782852236915e-05,-1.9745995539780758e-05,-5.284474960999255e-05
20.0,-0.007384280344672341,-0.01069437028195705,-0.017088084095025702,-0.019003465569410852,-0.022240370219137058,-0.02777585827810409,3.087895635057742,-0.002216367748217483,-0.2535872831401618,0.0,-0.013234077750206782,-0.05278318727685816,-0.00012253169791961134,-0.00011752173592570486,-7.437207860874664e-06,-2.7583598957188172e-05
21.0,-0.0036921401723361705,-0.005347185140978525,-0.008544042047512851,-0.018429370099439513,-0.010737017131463843,-0.013049804366668392,1.432352351094695,-0.0019800234556257425,-0.12766548115159793,0.0,-0.22980797174345563,-0.02769935301070458,-0.00011256574522193142,-0.00016854244014344463,-9.293385932340607e-07,-1.4994236215044706e-05
22.0,-0.0015813885311639496,-0.0021421616358325217,-0.004267885374459487,-0.017265129229196194,-0.005427267011587141,-0.006581592804540946,0.7161761755473475,-0.1082246789423188,-0.1681649003515071,0.0,-0.11201440233698298,-0.014242764600053286,-5.628287261096571e-05,-0.00029132649458215806,-4.6466929661703034e-07,-9.926771464917645e-06
23.0,-0.003245831700840191,-0.003783466109442341,-0.016436593966305285,-0.01082637089428261,-0.003901264690738376,-0.00604028957169874,-0.06803643136410538,-0.14346562903438964,-0.09829586882855133,-0.016977928692699488,-0.14485836132695218,-0.018131963059806862,-0.00011414544675013218,-0.00016303625109499473,-1.7617800681705617e-05,-0.00016061658883003487
24.0,0.0027540132786726835,-0.003959860311676123,0.011384025032623344,-0.007750129908397333,-0.004062789136912291,-0.01591439320724177,-0.04862411856490286,-0.08796712931071496,-0.06536932530374287,-0.024749126947975757,-0.15582807916859018,-0.025588404818652447,-7.295304857831813e-05,-0.00016296362253149946,-2.468922554410485e-05,-9.643213189408702e-05
25.0,-0.007092803120795999,-0.0021784413220911633,-0.010916755060197838,-0.02055000291945921,-0.0360409065618391,-0.041635856653248676,-0.07228559112695102,-0.04477192280258659,-0.13314216885534538,-0.012374563473987878,-0.07791403958429509,-0.012781278505273287,-8.494116448767023e-05,-7.903339935507975e-05,-1.2723272821680217e-05,-0.00015318504857731645
26.0,-0.0035464015603979995,-0.0010892206610455817,-0.005458377530098919,-0.009996012793644166,-0.018016094083011965,-0.03775100905002764,-0.13852805923906175,-0.02318584627375882,-0.06737096930013821,-0.006187281736993939,-0.031982303140011534,-0.006763336701946997,-4.076777056118472e-05,-3.64883718211475e-05,-6.348332138826159e-06,-0.00028414288442546996
27.0,-0.010700838094933088,-0.018469632126512328,-0.020723957727560353,-0.004729887419025686,-0.027000721324502847,-0.019082651345063865,-0.06926402961953088,-0.008241435914424444,-0.030756825471409927,-0.11468910730267308,-0.016849899404560054,-0.11583588261970389,-2.038388528059236e-05,-0.00012065268827133418,-3.1741660694130794e-06,-0.00014242046337465937
28.0,-0.013735339164135387,-0.009282267197294735,-0.07780571226676655,-0.0022800540660493454,-0.013546396968898934,-0.009719702756681513,-0.08703776553894571,-0.1076126207912203,-0.0156572969810578,-0.11016386931021077,-0.11276166773806427,-0.0590239554145927,-7.858376404607719e-06,-0.00026818035049150704,-0.00010483814480824709,-0.00027545071055198504
29.0,-0.006996177318757964,-0.004693892274537436,-0.03964929432671368,-0.01821834079898596,-0.00682464585690392,-0.0045742937678421546,-0.09663454824745148,-0.05413605211992308,-0.008158390214841828,-0.05457380457380458,-0.0541935541935542,-0.029414587882329816,-3.432928039702233e-06,-0.00013195415302512075,-5.233196180163922e-05,-0.00034709819188077245
30.0,-0.011813214393859555,-0.002474802152221507,-0.01942314006830136,-0.017159614578969418,-0.002550550292485776,-0.0014191707740094837,-0.04666301440494989,-0.02704217825185567,-0.10797949507626926,-0.02728690228690229,-0.13434436821533596,-0.12237382096253063,-5.2467963864092894e-05,-0.0003805629091745221,-2.656250845928265e-05,-0.000276638205862722
31.0,-0.02284622671719446,-0.0013697418536128213,-0.009843910811652748,-0.01704961704961705,-0.0014076159237449558,-0.00031256305449853835,-0.02002298776492325,-0.013495241317821961,-0.05437746465972272,-0.013643451143451144,-0.06717218410766798,-0.06117398657721238,-2.6233981932046447e-05,-0.0002936600650090973,-1.3281254229641325e-05,-0.00013223581095452063
32.0,-0.01983682418317393,-0.00026053742522333357,-0.004495442305289504,-0.017217508015470666,-0.00020938314656481042,-0.00021765444515868965,-0.010011493882461624,-0.1154063642921877,-0.13625830168699438,-0.05766373906229593,-0.03398329528422907,-0.02749683819293327,-1.3116990966023224e-05,-0.00014383894224620882,-0.00011275268144419246,-0.0001726311886415791
33.0,-0.00965373053658283,-0.00012613306331472717,-0.03400537210384409,-0.008608754007735333,-0.0001667263127364995,-0.0001667263127364995,-0.1625739851546303,-0.05644956345295903,-0.07017112768386113,-0.02716468590831918,-0.22538960049571255,-0.014937418269336774,-7.353681587229974e-06,-6.661874324882814e-05,-5.394055081308052e-05,-8.139352649614109e-05
34.0,-0.013406672557776124,-0.00019293666152749345,-0.017132556181792175,-0.012347946337759581,-0.00021323328623837963,-0.00021323328623837963,-0.1332350445253671,-0.029036470038167825,-0.14314484327217775,-0.01358234295415959,-0.11268170850089355,-0.2219507996248234,-4.085990353732289e-06,-0.00013925801008272994,-0.0001321006147446215,-0.00024524265348686397
35.0,-0.006435217301091665,-9.227897173567802e-05,-0.008562088731868018,-0.005905854191083393,-0.00010033260457708676,-0.00016650299332812067,-0.06661752226268355,-0.014518235019083912,-0.0682209344136339,-0.007618301336467719,-0.05381649688737974,-0.10843795070238194,-4.065268065268065e-07,-0.0003711828183248556,-0.0002732238903484744,-0.00012172067062535651
36.0,-0.01126805283002227,-0.01726864815998941,-0.004410968205535268,-0.01126805283002227,-0.00011306039744070305,-0.00014614559181622,-0.03330876113134178,-0.007259117509541956,-0.034097543302764016,-0.0038091506682338596,-0.13415583956224872,-0.1618855023725567,-0.00010534638866509833,-0.00018399703138966293,-0.0002425733695563067,-0.00016762743681332808
37.0,-0.013832189316060284,-0.008696249986572565,-0.019207029529610172,-0.005362379555927943,-0.000120578346384798,-0.00013712094357255648,-0.01665438056567089,-0.2119792170195396,-0.01446705176543886,-0.05314309346567411,-0.1733508427056814,-0.08217018196856905,-5.2673194332549166e-05,-9.198556153523893e-05,-0.00011797068308036047,-8.088866660221496e-05
38.0,-0.015385904418162483,-0.004414295382037316,-0.008677129322290611,-0.011150999538096312,-0.0001243917372949631,-0.017072282556153524,-0.0033514872224549644,-0.10592498898950511,-0.21891415036576328,-0.026571546732837056,-0.0800583824777373,-0.14691894127377997,-2.6311353162966064e-05,-0.000253141283662574,-5.896009753687172e-05,-4.200946150623568e-05
39.0,-0.03251262416636039,-0.019058817866494465,-0.004530373668797515,-0.005307380791251759,-0.01678320046633644,-0.008597284707942118,0.0,-0.05293631100082713,-0.10607940446650124,-0.013285773366418528,-0.14456165346835007,-0.06716482612256398,-1.3142890657729366e-05,-0.0002261394126521362,-0.0002303592913959594,-0.00011808536159634564
40.0,-0.033195931603444875,-0.043607159140029696,-0.002596038778153927,-0.0026536903956258795,-0.00839160023316822,-0.02123619404958727,0.0,-0.026468155500413565,-0.05303970223325062,-0.006617038875103391,-0.07308210878545708,-0.034797260042258,-5.8267061540609925e-05,-0.0003105252811813204,-0.0001091089757227936,-0.0001643777014764193
41.0,-0.01632984682392604,-0.02126524693490802,-0.0012938300300488947,-0.0010587262200165426,-0.004458386992074212,-0.027820303420548413,-0.05293631100082713,-0.014061207609594707,-0.027760545905707198,-0.0033085194375516956,-0.033189567170273576,-0.014447615981405286,-2.5847808105872622e-05,-0.00015601930500151815,-0.0002580256581964381,-0.00028644225733161623
42.0,-0.024839861377223566,-0.010762896420307607,-0.017253614766885493,-0.017468982630272953,-0.002359466448890704,-0.06485928322392184,-0.0794044665012407,-0.0008271298593879239,-0.014267990074441688,0.0,-0.01368690517322612,-0.008012166137931757,-1.2923904052936311e-05,-0.00018180478897718587,-0.00012901282909821905,-0.00024781145124645325
43.0,-0.029094868653872327,-0.022451340683272085,-0.025760802420663594,-0.00846980976013234,-0.001243835788547916,-0.03196438106605522,-0.09263854425144748,-0.10669975186104218,-0.0013440860215053765,0.0,-0.11271607458826732,-0.1069837505627624,-6.4619520264681555e-06,-0.0001882229569368973,-6.450641454910953e-05,-0.00012547085382835484
44.0,-0.013763440860215054,-0.02770471464019851,-0.029946236559139784,-0.03811414392059553,-0.01723738626964433,-0.016244830438378825,-0.04631927212572374,-0.05334987593052109,-0.0006720430107526882,-0.10587262200165426,-0.053504962779156326,-0.05389267990074441,-3.2309760132340777e-06,-9.130038047973532e-05,-0.00012926428453267162,-0.00016329063688999172
45.0,-0.014822167080231596,-0.01291976840363937,-0.03210090984284533,-0.019057071960297767,-0.0086848635235732,-0.007659222497932175,-0.02315963606286187,-0.027088502894954507,-0.0007495864350703061,-0.10587262200165426,-0.027140198511166252,-0.02732113316790736,0.0,-3.957952026468155e-05,-0.00016801075268817206,-7.87551364764268e-05
46.0,-0.007411083540115798,-0.006459884201819685,-0.016050454921422666,-0.017998345740281224,-0.03827956989247312,-0.0034904880066170384,-0.11579818031430934,-0.12063172043010753,-0.10827646815550042,-0.05293631100082713,-0.1202698511166253,-0.015301902398676591,-5.1695616211745244e-05,-2.016842018196857e-05,-7.794732837055418e-05,-3.369818031430935e-05
47.0,-0.003176178660049628,-0.03710504549214227,-0.024627791563275433,-0.00846980976013234,-0.03620760959470637,-0.00035153019023986766,-0.05624483043837883,-0.060302936311000824,-0.054125310173697275,-0.026468155500413565,-0.06012200165425972,-0.11349772539288669,-2.5847808105872622e-05,-0.0002152386931348221,-0.00034914736145574853,-0.0003265812737799835
48.0,-0.0010587262200165426,-0.01808435677565935,-0.011908994775470888,-0.012597501858424684,-0.051617457675032195,-0.0003696956371517417,-0.13100061772989496,-0.13217914690454502,-0.0282617970704945,-0.013234077750206782,-0.13128494361905957,-0.053835749285422625,-1.2923904052936311e-05,-0.00041102198783386204,-0.00017457368072787427,-0.0001652341056004021
49.0,-0.00945700042474236,-0.026435769249162473,-0.0055604929614729535,-0.0052400247091957996,-0.025273162253562416,-0.035956872945439707,-0.12129804208203554,-0.06652549324303102,-0.12616228476018185,-0.0033085194375516956,-0.06606546769623536,-0.13937225675435147,-6.095192587128071e-05,-0.00020592410861972315,-8.448160105514945e-05,-0.0001887791391793842
50.0,-0.012933628417499385,-0.03028570927305104,-0.01938281058330058,-0.0026200123545978998,-0.012700683690883773,-0.018042539036822416,-0.06064902104101777,-0.033249822717462574,-0.16935440540738622,0.0,-0.13889243194571899,-0.17595939140447103,-3.0475962935640356e-05,-0.0003097318971551883,-3.9009824514340645e-05,-0.0001985759881174009
51.0,-0.006466814208749692,-0.04902209367705489,-0.009823746069152357,-0.009515134382427156,-0.005421888578278942,-0.009147406821967866,-0.027015991082957193,-0.01327762020902078,-0.08130406374587673,-0.10587262200165426,-0.17239803565855016,-0.19462775194706594,-1.362249346120314e-05,-0.00015566113468181252,-1.9896194308452375e-05,-0.000203461790584755
52.0,-0.006660826459213558,-0.026879739973349612,-0.007803725805461209,-0.00818498654605229,-0.005604864884672971,-0.007994919291877236,-0.03492936650922053,-0.028060181072252326,-0.0620734028406803,-0.07435768196856907,0.3439925144287894,-0.11567874363275546,-2.7978343504795133e-05,-0.00015548925634007853,-2.1422265888717516e-05,-0.00011336283904754709
53.0,-0.017560138885319772,-0.02781226306719976,-0.005971943004088017,-0.005712380085495855,-0.003636284138432166,-0.005872552665023273,-0.0259556561102103,-0.022495542771064702,-0.043057510028087734,-0.04893645328455586,0.1635052843587947,-0.06988570104478681,-2.5472126229334564e-05,-0.00023038350690368224,-2.219408742129576e-05,-0.00014406024193078308
54.0,-0.008501080776574445,-0.030285594122739887,-0.019987402213152136,-0.01979580956301261,-0.0019504828467181508,-0.0019504828467181508,-0.011234148892071149,-0.011234148892071149,-0.018027774194514658,-0.02446822664227793,0.08176626467285854,-0.1377144341407512,-1.103325143201689e-05,-0.00011558235323276349,-0.00011447497186212442,-6.901509738101311e-05
55.0,-0.003985858833283088,-0.014609298302064734,-0.07728278299243214,-0.018367714541638644,-0.01797896350772632,-0.03498475341674203,-0.058553385446862706,-0.007271334164811422,-0.00817383333381647,-0.17104304632362036,-0.0625081000870612,-0.06677646851785286,-5.516625716008445e-06,-0.00025891949754276716,-0.000161032622407489,-3.2866944885709206e-05
56.0,-0.010462739176773884,-0.0571309518805609,-0.038968107790674306,-0.008919175715815186,-0.009183857270819322,-0.034626371745591855,-0.029276692723431353,-0.10992185401375393,-0.11120023345764438,-0.13514931472508562,-0.028346171631619937,-0.030880996872656784,-2.7583128580042226e-06,-0.00012943450476807507,-8.050368920209024e-05,-0.0002203636213262293
57.0,-0.005124262733548233,-0.028458369085441738,-0.019376947040498443,-0.004352481003068884,-0.03985686479132364,-0.017481347835161518,-0.013968928518973741,-0.16439903604585546,-0.05536080641296197,-0.1770127664015213,-0.02847678625263792,-0.2358384739067585,-7.176846548085625e-07,-6.250696481683325e-05,-3.959037282685157e-05,-0.00011035276778677055
58.0,-0.002117452440033085,-0.013779983457402811,-0.009693403080499855,-0.011114836921288533,-0.037934160463192715,-0.008960874522164843,-0.06241477209219145,-0.19386347886347885,-0.13977086267408848,-0.08813895781637718,-0.013870967741935483,-0.452328789707822,-0.00016346992153443767,-2.7461268343281244e-05,-2.071355419936065e-05,-5.37210585831489e-05
59.0,-0.0010587262200165426,-0.006426799007444168,-0.0213210605146089,-0.005028055350635995,-0.01896294458229942,-0.021482091520801196,-0.031207386046095725,-0.09734530436143339,-0.0702989962667382,-0.04406947890818859,-0.006935483870967742,-0.32871557351396063,-8.173496076721883e-05,-1.4121916222922673e-05,-7.125801086446247e-06,-0.0001310469478192833
60.0,-0.008999172870140612,-0.020285359801488833,-0.02567914067914068,-0.002249346120313862,-0.02588966087675765,-0.02668397380010283,-0.013949433304272014,-0.04903452149419891,-0.035899084568439404,-0.01707196029776675,-0.00013337468982630273,-0.27019163704647575,-4.086748038360942e-05,-9.776661346209731e-07,-3.1930252833478635e-07,-6.628079400889723e-05
61.0,-0.00423490488006617,-0.05937138130686518,-0.01316008316008316,-0.001124673060156931,-0.013137138130686517,-0.013137272259852903,-0.059911027652963134,-0.021609382335188786,-0.1208884380658574,-0.006881720430107527,-5.3763440860215054e-05,-0.13548353564482596,-0.0001238249726152952,-0.00010549568170254618,-9.674593700400152e-07,-2.8685343241007757e-05
62.0,-0.010587262200165426,-0.046691480562448304,-0.006712382357543648,-0.0005623365300784655,-0.005529363110008271,-0.023631994277155562,-0.0828918248273087,-0.007777395882234592,-0.06125790803210158,-0.05293631100082713,-0.10628618693134821,-0.06166029553126328,-6.19124863076476e-05,-0.00015652985044597946,-4.837296850200076e-07,-0.0002219066908099166
63.0,-0.005293631100082713,-0.02347808105872622,-0.003552522746071133,0.0,-0.0022001654259718776,-0.011873449131513645,-0.03970223325062035,-0.0003877171215880893,-0.13298697270471463,-0.026468155500413565,-0.053143093465674106,-0.020368072787427628,-2.5847808105872622e-05,-0.00018202014888337467,-0.00010359318444995864,-0.0001125290488006617
64.0,-0.0026468155500413565,-0.01173697270471464,-0.0012448304383788256,0.0,-0.001167112457435038,-0.022698967698967693,-0.019851116625310174,-0.0005998705595479789,-0.281394680588229,-0.013653013653013652,-0.24148566487276163,-0.008132324664582729,-1.2923904052936311e-05,-9.181575156026769e-05,-0.00015653056792669696,-0.0001585605792057405
65.0,-0.02679814808847067,-0.005536076826399407,-0.0002879378685830299,0.0,-0.00012122286315834703,-0.028044697238245618,-0.009925558312655087,-0.0002870113757210531,-0.24791908360456746,-0.006826506826506826,-0.12074283243638081,-0.000757642894739669,-6.4619520264681555e-06,-4.589525377847958e-05,-7.826528396334848e-05,-0.00018439817086139665
66.0,-0.013399074044235335,-0.0011799490831748895,-0.0001336298110491659,0.0,-0.00012143770208286337,-0.01407903924032956,-0.0033085194375516956,-0.00013058178380759026,-0.3351332806977968,-0.057037048972532846,-0.16803794323955612,-0.0012037693489306393,-0.00010473397570171764,-2.048446198962328e-05,-0.00014425052324020063,-0.00019768825024437926
67.0,-0.006434855467113532,-5.8543606930703705e-05,-6.267925622764332e-05,0.0,-5.865102639296188e-05,-0.006506020860859569,0.0,-5.236698785085882e-05,-0.3820359747779103,-0.026864264767490573,-0.08069752827817343,-0.21549015500628405,-0.00015710096355257646,-8.635231220392511e-06,-0.00017808668600216983,-0.00019872750303459978
68.0,-0.011797235023041475,-9.216589861751152e-05,-9.216589861751152e-05,-0.008579807289484709,-0.00016338500209467951,-0.003385002094679513,0.0,-2.618349392542941e-05,-0.18812840385421029,-0.013432132383745287,-0.04034876413908672,-0.21499266862170088,-0.00013091746962714705,-1.8923167155425219e-06,-8.622151654796814e-05,-0.00010094986175115206
69.0,-0.005898617511520737,-4.608294930875576e-05,-4.608294930875576e-05,-0.004289903644742354,-7.95978215333054e-05,-0.0011520737327188938,0.0,0.0,-0.08734813573523251,-0.006702974444909929,-0.013458315877670716,-0.1074570590699623,-6.545873481357352e-05,-1.3297360703812317e-06,-4.02469710934227e-05,-0.00015272869710934226
70.0,-0.002144951822371177,-1.6757436112274822e-05,-0.01717637201508169,-0.002144951822371177,-3.770423125261835e-05,-3.770423125261835e-05,0.0,0.0,-0.04032258064516129,-0.0033514872224549644,-0.22164327607875994,-0.05540427314620863,-0.0001898303309593632,-1.4831671554252199e-06,-2.0941784666945956e-05,-7.38969250104734e-05
71.0,-0.0010724759111855886,-8.378718056137411e-06,-0.008588186007540846,-0.00954228567131793,-0.00014909821361434265,-0.01708871773387902,-0.05293631100082713,-0.00041356492969396195,-0.22603068974036714,0.0,-0.1074570590699623,-0.027675953079178882,-9.164222873900293e-05,-0.00020790238063012254,-7.185169669040635e-06,-3.5265570128795935e-05
72.0,-0.009116045245077503,-0.00013824884792626728,-0.02158776707163804,-0.004771142835658965,-0.0001415788512562706,-0.00861138861138861,-0.080091951059693,-0.0006257183676538515,-0.1067313063280805,-0.10724759111855886,-0.054566401340594886,-0.008378718056137411,-9.532431503979892e-05,-0.00010553664486051582,-1.5087390029325512e-06,-1.5945302869173836e-05
73.0,-0.012869710934227063,-0.017293674067867613,-0.010925848345203184,-0.019277067019002503,-0.00020065955549826518,-0.004435564435564435,-0.09366977108912593,-0.001150730989440667,-0.05419043322269128,-0.05362379555927943,-0.027702136573104313,-0.10850439882697947,-4.602568914956012e-05,-0.0001574767262844682,-7.415835777126099e-07,-8.73980685980686e-06
74.0,-0.006434855467113532,-0.008646837033933806,-0.022402543692866275,-0.018108343269633592,-0.0001665001665001665,-0.0022839526065332513,-0.0997711965453901,-0.0014024953541082574,-0.027922346470733564,-0.026811897779639715,-0.11972369028820641,-0.054665764343183695,-2.301284457478006e-05,-0.00018252071369490724,-3.5800586510263927e-07,-0.0001052704353710805
75.0,-0.003217427733556766,-0.004394121124125542,-0.010735736497998982,-0.009054171634816796,-0.00015395269040872222,-0.0012126789104252647,-0.1630097697265174,-0.11515109301510096,-0.01617062970907425,-0.013405948889819858,-0.1662699504060529,-0.02772240647848248,-6.597017176372015e-06,-9.166635371404262e-05,-5.849997991403206e-07,-5.304121455212925e-05
76.0,-0.001608713866778383,-0.002197060562062771,-0.005367868248999491,-0.03000182613085839,-0.01736651476377504,-0.00027392992925471936,-0.13347442070376228,-0.05798155850630442,-0.10952789109550046,-0.007121910347716799,-0.0839728470086402,-0.014699075044854982,-3.2985085881860077e-06,-0.00014491087765085113,-0.00020976045130300543,-0.0001324315436515171
77.0,-0.009006047715725135,-0.03503975035128372,-0.019281637496396664,-0.015000913065429194,-0.008747333091124519,-0.00020104067386435924,-0.06506146674065366,-0.028977687506189495,-0.055164418730481474,-0.00020946795140343527,-0.041960240010394674,-0.007310262281539347,0.0,-7.321210323628353e-05,-0.0003116243327272227,-6.69724362366165e-05
78.0,-0.01281471216955088,-0.017115602029433227,-0.00983771862251756,-0.006964218577121803,-0.021596121509952704,-0.0002303904668023095,-0.030854989759099345,-0.014462660259169318,-0.027556025871315306,-0.00010473397570171764,-0.020967028258234623,-0.00029055217135199457,0.0,-0.00013847624013929802,-0.00015581216636361135,-0.00034848087249618833
79.0,-0.01487716584490778,-0.008623971403467648,-0.038401076019281936,-0.020157047253821447,-0.010994504096580983,-0.0003116385750057867,-0.013773235160773827,-0.007619047251172748,-0.014165730057245743,-0.00046593191754482077,-0.007588559621259577,-0.21311829097401344,-5.1695616211745244e-05,-0.00027398869906055057,-7.87138912876783e-05,-0.00038059400944908664
80.0,-0.0160183902119386,-0.004376805989709216,-0.01933238804206546,-0.02723813820588014,-0.005629102080714983,-0.000421728808825583,-0.0033514872224549644,-0.00023296595877241039,-0.11426141063237838,-0.10748055707733127,-0.10834461237687043,-0.10780214409246666,-2.5847808105872622e-05,-0.00013739001256807707,-0.00014407743482324127,-0.00029542664346406274
81.0,-0.0080091951059693,-0.002188402994854608,-0.00966619402103273,-0.01281471216955088,-0.0022741237257366286,-0.00020458036587068845,0.0,-0.00010339123242349049,-0.05375303459980879,-0.05372718679170292,-0.16139371381306866,-0.05429382445511478,-1.2923904052936311e-05,-0.00017053962295768743,-6.590199349038058e-05,-0.0001452203263403263
82.0,-0.003739915997980514,-0.01719302203173171,-0.004364560171011784,-0.00640735608477544,-0.0011349940382198445,-0.0001672521027359737,0.0,-0.10771822263757747,-0.0277014652014652,-0.02686359339585146,-0.08069685690653433,-0.1348134392489231,-6.4619520264681555e-06,-8.565371703565251e-05,-2.689819427883944e-05,-0.0002828711696905245
83.0,-0.00160183902119386,-0.008592321656837786,-0.0021759960469637887,-0.00320367804238772,-2.916438400309368e-05,-7.943669233991815e-05,0.0,-0.05385911131878873,-0.0138507326007326,-0.12699785944648959,-0.041232211042750155,-0.1814146736677669,-3.2309760132340777e-06,-3.9541135853393916e-05,-1.344909713941972e-05,-0.00013202277148981523
84.0,-0.017695852534562212,-0.0044281524926686215,-0.017318810222036025,-0.009652283200670297,-7.54084625052367e-05,-0.00010054461667364893,0.0,-0.02691663175534143,-0.006912442396313364,-0.06348600581919185,-0.127850772735881,-0.08447046214942812,0.0,-1.3679899455383325e-05,-7.108454126518643e-06,-6.027937882709424e-05
85.0,-0.008658008658008658,-0.0022901829353442257,-0.008811618489037842,-0.014299678815807848,-0.00011171624074849881,-0.00012009495880463622,-0.06256109481915934,-0.13906926406926406,-0.0010822510822510823,-0.02839151568714096,-0.18566990528987878,-0.16780690402541926,0.0,-6.827163803937997e-06,-2.8129032258064516e-07,-0.00014952094622125553
86.0,-0.012798814089136669,-0.0012774322451741807,-0.004538150022020989,-0.015619649168036265,-0.00012202850912528332,-0.01706583738841803,-0.03128054740957967,-0.06953463203463203,-0.0005411255411255411,-0.06713206884439761,-0.1961832172835266,-0.19100367705648308,0.0,-0.00020771813219039025,-5.317632904729679e-07,-0.00017974174989835617
87.0,-0.0063994070445683345,-0.00010247816699429603,-0.02141611544136088,-0.007809824584018132,-6.101425456264166e-05,-0.0276799591245594,-0.07548132092311616,-0.031870245229291515,-0.0007118874580305154,-0.033566034422198805,-0.0980916086417633,-0.09213725955882385,0.0,-0.00010384628017144145,-2.5309572148281826e-07,-0.00020017647496860697
88.0,-0.011779510811768876,-0.0001182688279462473,-0.027934702044098952,-0.003904912292009066,-9.753687173042012e-05,-0.0139070093067288,-0.09136445602083751,-0.016354058517452627,-0.0007748796318221283,-0.06685787330948621,-0.049437122017767184,-0.15059134413973124,-0.00010473397570171764,-5.233228964583803e-05,-5.356974208587112e-07,-0.00010048390052210528
89.0,-0.005429418778564889,-0.00013084638321829973,-0.03293356507365252,-0.0211150772061588,-0.00027437774117091004,-0.0071791139586701,-0.10640329062901457,-0.008651412560434094,-0.000861823117618844,-0.15487106189193475,-0.021841457088136406,-0.07623134692631846,-0.0001116649005643313,-2.8006565730284893e-05,-1.6449679100153482e-06,-5.2069585244664856e-05
90.0,-0.01987188017548549,-0.00019703888774097504,-0.016595954440191713,-0.010244733128983604,-0.03445397423575792,-0.0037211726754668756,-0.05124661110140856,-0.00040036414922975437,-0.0008193000520366249,-0.07785446684877424,-0.007429596020677614,-0.1422757942563445,-0.00010819943813302447,-1.5639881105611656e-05,-1.6407830752422783e-06,-0.00012898117301613215
91.0,-0.01814106829287095,-0.00016055418332458181,-0.00836001195954995,-0.004857685009487666,-0.03416453881349517,-0.018401115700843445,-0.0785596165515314,-0.001027311934002801,-0.0012367798854062363,-0.09020928470643841,-0.10666661769602945,-0.06861773583784968,-5.409971906651224e-05,-0.00010512788099945595,-8.077695359668795e-07,-6.24208346470239e-05
92.0,-0.009070534146435475,-8.027709166229091e-05,-0.003581595507591712,-0.002428842504743833,-0.017216328895645783,-0.008803236611585758,-0.14465736666875187,-0.10858450926050546,-0.0022795239232620635,-0.045104642353219204,-0.0537522447508216,-0.03472780382173171,-2.745900909337342e-05,-5.3382239619962576e-05,-1.222183888218044e-06,-2.878545833672968e-05
93.0,-0.00426714809542134,-0.017264688189735623,-0.001386524607587226,-0.009794228541856626,-0.008673099512757958,-0.004466553370727944,-0.07065293972314846,-0.054279162883290016,-0.0015456061174751877,-0.07491930902746842,-0.027700902434061828,-0.015243038902906073,-1.0456567806008034e-05,-0.00013141230958794525,-5.983060203553562e-07,-1.4789092804728476e-05
94.0,-0.002131202131202131,-0.008629972178359273,-0.00014985014985014985,-0.004289903644742354,-0.004395604395604396,-0.002292331324589389,-0.08636524765557024,-0.027951886822854564,-0.0015851084399471497,-0.03449171795945989,-0.01466275659824047,-0.008419000354484226,-0.00015846207276594374,-6.685995423930908e-05,-0.00010445475900443642,-8.952249900636997e-06
95.0,-0.0005293631100082713,-0.004310796730151568,-7.073571589700622e-05,-0.002144951822371177,-0.0011253262866166092,-0.0012098880180374239,-0.04318262382778512,-0.013975943411427282,-0.10986265432360509,-0.01765721545008472,-0.008167182986792493,-0.11076391774609091,-7.759456801263252e-05,-3.4622432745522726e-05,-5.3030873868632776e-05,-2.3828579117543464e-06
96.0,0.0,-0.0022270632593213236,-0.00018076547108805173,-0.010510263929618768,-0.00018076547108805173,-0.00021891068750151942,-0.01993705219511671,-0.12539530362111007,-0.05582713833987178,-0.007174348006266512,-0.11873449838220636,-0.17517177926770455,-3.924734852244529e-05,-1.5417811906260124e-05,-2.696550145044542e-05,-2.5037564993014907e-06
97.0,0.0,-0.0011135316296606618,-9.038273554402586e-05,-0.013834939254294094,-0.00022025286541415575,-0.00023723079410685523,-0.006617038875103391,-0.05931998109417464,-0.027861202182085033,-0.003587174003133256,-0.059354157444140465,-0.19482038900544843,-0.0001247540135993039,-0.00021837873418940987,-1.4275477997949984e-05,-3.2592682789762586e-06
98.0,-0.009049933716305789,-8.913578688214128e-05,-0.0001117046159025832,-0.00664935064935065,-0.0001787343603516825,-0.00018722332469803222,-0.05987060516446287,-0.030101881841828815,-0.014359400638821296,-0.00010475164337643114,-0.2558992381357895,-0.2113788733051414,-6.280857551374828e-05,-0.0003272936464388694,-7.5693077130713244e-06,-3.3431230721197925e-06
99.0,-0.012994776618285235,-0.00024307905969417237,-0.0002522956495559235,-0.011794485084807665,-0.00021964013302943925,-0.00022388461520261413,-0.028281042863455588,-0.12089771511446279,-0.0079809823706927,-2.652801358234295e-05,-0.23379639326144314,-0.21194977577581303,-0.00018164467237225877,-0.00016522457342621713,-0.00010472747436935618,-3.6405937941244127e-06
100.0,-0.0064973883091426175,-0.017281154108816504,-0.00019317756922706105,-0.005897242542403832,-0.0001768498109638189,-0.0001768498109638189,-0.014140521431727794,-0.2749440397943491,-0.001419513245629021,-0.05362379555927943,-0.3317857867570638,-0.10421525374022059,-9.082233618612938e-05,-8.339172335456559e-05,-0.00015707180456721065,-2.5997335385192212e-06
101.0,-0.003315723899020408,-0.008705302651391914,-0.00015901023413175425,-0.011233497685110588,-0.00015084635500013318,-0.00015084635500013318,-0.06069405627514333,-0.13418991893362198,-0.0010998906823034087,-0.08043569333891915,-0.26987278445519713,-0.1564488501629465,-9.776409142779447e-05,-0.00025234906821268286,-0.00018366496302931124,-3.303421021459024e-06
102.0,-0.001657861949510204,-0.06448950372061286,-0.04043141127542365,-0.005348629864758897,-0.00014943518699594706,-0.020168985529126934,-0.03132454524412103,-0.06807247657336035,-0.001527462447701069,-0.04021784666945957,-0.26005858186591724,-0.07536169641229296,-4.559632304946489e-05,-0.00011959030285372307,-9.180690966714828e-05,-1.5877808919611834e-06
103.0,-0.0005461205461205461,-0.032309572148281826,-0.03757419999355483,-0.0026743149323794485,-7.250813702426606e-05,-0.01008228330808976,-0.01389470744309454,-0.034022429183719505,-0.0007499221208898629,-0.020108923334729786,-0.12295903021709473,-0.03411809964229319,-2.2784675002416938e-05,-0.0002627542143877628,-4.588996831125863e-05,-0.00021225364356074026
104.0,-8.378718056137411e-06,-0.03337522692361401,-0.053301214914118135,-0.0010724759111855886,-3.211841921519341e-05,-0.02219662058371736,-0.00694735372154727,-0.013702695154308057,-0.0003491132523390588,-0.010054461667364893,-0.05817099567099567,-0.12098519759810082,-6.955023041474655e-06,-0.00023687889400921656,-0.00012483188940092164,-0.00021243428571428568
105.0,-4.1893590280687055e-06,-0.016151375506214212,-0.06298965285708547,-0.01863610538820437,-0.0001553697444108403,-0.011237620826661921,-0.003473676860773635,-0.00014837313224409999,-0.00014837313224409999,-0.0033514872224549644,-0.02236943164362519,-0.06044023181119955,-3.4775115207373274e-06,-0.00011927701258529361,-5.9143007959782145e-05,-0.0004397678856362373
106.0,0.0,-0.008073593073593073,-0.03155976149347779,-0.017629741005790497,-0.00014261993714048508,-0.005683745478266026,-6.109481915933529e-05,-6.109481915933529e-05,-6.109481915933529e-05,-0.10724759111855886,-0.11548666387376064,-0.13534684401619884,-5.246927524088814e-05,-0.000262931376003581,-2.6694930875576033e-05,-0.00022145661143981954
107.0,0.0,-0.0021575198994553827,-0.01451888367929022,-0.017864804219201037,-0.0001395687829625081,-0.0022845206053336855,0.0,-0.00044189129474149356,-0.00044189129474149356,-0.05362379555927943,-0.05383326351068286,-0.0676581483033096,-2.623463762044407e-05,-0.0002432332178294529,-0.00023472468152263112,-0.00022292740426166845
108.0,0.0,-0.03539589442815249,-0.07555646739473516,-0.017512209399085227,-0.00013681413593035334,-0.018368904626085356,-0.00041893590280687055,-0.21513506378729533,-0.10872534447435021,-0.08085462924172601,-0.02775450356095517,-0.03508588186007541,-6.589345622119816e-05,-0.00032534420003328527,-0.00011818063988155017,-0.00010649049727117775
109.0,0.0,-0.034319229157938835,-0.03683353323653809,-0.01733591198902732,-0.00013543681241427594,-0.008715244101898983,-0.00020946795140343527,-0.32206271413076537,-0.055200544042788846,-0.040427314620863006,-0.013877251780477586,-0.014610389610389612,-3.2933942186845414e-05,-0.00016019189054869125,-5.580459727634275e-05,-5.073946732013014e-05
110.0,0.0,-0.051545873481357356,-0.017482195224130706,-0.00810233513724455,-0.00013032923770882234,-0.004420232882451176,-0.00010473397570171764,-0.16103135706538269,-0.027600272021394423,-0.020213657310431503,-0.006938625890238793,-0.0077241307080016764,-1.6466971093422707e-05,-8.04781217898319e-05,-2.7902298638171373e-05,-1.6172922508335675e-05
111.0,0.0,-0.08014324164567205,-0.02719238340095609,-0.021882916023437456,-0.00020447515365765477,-0.0023494269760288315,-5.236698785085882e-05,-0.08051567853269134,-0.2400484789183419,-0.006755341432760787,-0.11322890542952407,-0.22716153709304393,-6.597017176372015e-06,-3.411197020390127e-05,-1.393836339533202e-05,-8.466886273249507e-06
112.0,-7.48013090229079e-05,-0.040146422131858935,-0.052118865847275604,-0.010658647583084171,-0.0001748294293780278,-0.0012473053405636164,-2.618349392542941e-05,-0.040244030163385,-0.12001043035621028,-0.0033776707163803935,-0.17629654715141468,-0.11404827672791513,-3.2985085881860077e-06,-0.00013044029514312978,-5.114369501466276e-08,-0.00011897402822631586
113.0,-3.740065451145395e-05,-0.05520047001996703,-0.042290874923970656,-0.005061204813745689,-8.532003517497955e-05,-8.532003517497955e-05,0.0,-0.013405948889819858,-0.05661445271476204,0.0,-0.0881220900817819,-0.056984863123069426,0.0,-0.0001691215259280736,0.0,-0.000281676223931179
114.0,-1.8700327255726973e-05,-0.02706399705439072,-0.07268712158431459,-0.002262483429076447,-4.056533807345542e-05,-0.00010759508252255471,0.0,-0.00041893590280687055,-0.028699978766262457,0.0,-0.04406104504089095,-0.028479339814572,-5.236698785085882e-05,-0.00029441229208008204,-4.0914956011730207e-07,-0.00014203998879843408
115.0,-9.350163627863487e-06,-0.012658517169843035,-0.07085759514490134,-0.018290856293507643,-0.00015224747842089193,-0.00018576235064544157,-0.00041893590280687055,-0.0006284038542103058,-0.014768925285938098,0.0,-0.12927811363900432,-0.015064449965937025,-2.618349392542941e-05,-0.0002523364853781223,-2.0457478005865104e-07,-7.179993574819065e-05
116.0,-4.675081813931743e-06,1.0592659173394634,-0.08653206240306857,-0.008579807289484709,-0.01723131940523245,-0.00015549200682440516,-0.00020946795140343527,-0.0007331378299120235,-0.0007331378299120235,0.0,-0.06110392646157022,-0.001286026969757685,-1.3500896522832007e-05,-0.00012656390572686292,-5.114369501466276e-07,-0.00014102960661361474
117.0,0.0,0.5295673844958678,-0.04213010934921765,-0.004289903644742354,-0.008681233876480057,-0.00014332017727603468,-0.00010473397570171764,-0.00036656891495601173,-0.00036656891495601173,0.0,-0.026811897779639715,-0.10928714748748702,-6.7504482614160035e-06,-0.00016615613263263004,-2.557184750733138e-07,-6.80631899114677e-05
118.0,-0.0036814798105120707,0.26223345415196003,-0.024172075801956957,-0.0058264316328832475,-0.0080220967487521,-0.003753139899150088,-0.02306161580355129,-0.023192533273178436,-0.023192533273178436,-0.02300924881570043,-0.09416390061551351,-0.13562710634017933,-2.6287599497276932e-05,-0.00010275847724431765,-2.304023460410559e-05,-5.0219270576622036e-05
119.0,-0.0030410399802747903,0.12991642700096126,-0.011675529429704816,-0.019477356851700437,-0.0053313784568966805,-0.0032548203563325774,-0.019032683370642862,-0.019460144131937078,-0.019460144131937078,-0.11503050587821781,-0.054958919550067334,-0.07569052241240024,-1.956662620200506e-05,-5.287987404075375e-05,-1.956662620200506e-05,-0.00012690401570159617
120.0,-0.010100327279622104,0.06489746779457364,-0.02198564908854323,-0.009202440470257424,-0.0026614998694202713,-0.0016232208191382202,-0.009503249938358715,-0.010135916221812695,-0.010135916221812695,-0.11113904849838833,-0.024546908455385572,-0.14548560473364042,-9.78331310100253e-06,-0.00012829733961777946,-1.0192462661119833e-05,-0.0002741218360870779
121.0,-0.005050163639811052,-0.000798019349466422,-0.009377826638951129,-0.004601220235128712,-0.0008615417235664407,-0.0008765454745041749,-0.004751624969179358,-0.005054866363943634,-0.005054866363943634,-0.05556952424919417,-0.012273454227692786,-0.2872118011100125,-4.878870626747599e-06,-6.454503344525336e-05,-5.4925949669235525e-06,-0.00023891832064094152
122.0,-0.002525081819905526,-0.0003968874336466236,-0.004686791078388977,-0.002300610117564356,-0.0004286486206966329,-0.0004361504961655001,-0.1110345561178664,-0.003376329616606791,-0.003376329616606791,-0.02863365855923206,-0.007834519983116342,-0.250566851319013,-2.4394353133737994e-06,-2.8943560865241285e-05,-2.7462974834617763e-06,-0.00022553235217106498
123.0,-0.026886916534328387,-0.00028448670609210744,-0.0024964682729123836,-0.026774680683157803,-0.0003003672996171121,-0.01746373281632096,-0.108422034592722,-0.0013880616856196276,-0.0013880616856196276,-0.013597790254125391,-0.0013935740001302442,-0.12275269026586791,-9.128554865989227e-07,-1.4158033534357615e-05,-1.066286571642911e-06,-0.00011286157874738677
124.0,-0.03034556841008454,-0.00017090436445275155,-0.0012768951478628896,-0.029809330454491745,-0.00024126411223185417,-0.00882107140171656,-0.05397658368795889,-0.10714762741502978,-0.002102135272763456,-0.00397727626080767,-0.0008641966409368786,-0.16741637677545995,-6.08478832994962e-07,-7.63497190981062e-06,-1.0890984284532671e-06,-0.0001578514608877257
125.0,-0.014904665227245872,-8.335750271234142e-05,-0.00016802665359541422,-0.023597364717908013,-0.00025645548565752304,-0.0045463591303998765,-0.026988291843979446,-0.05398517017786966,-0.21920435959060747,-0.00031289451917635276,-0.00041900657350572455,-0.18900235305158902,-7.187725234584318e-07,-0.00010788741694072762,-1.3608295043948694e-06,-7.39996316190883e-05
126.0,-0.007452332613622936,-4.167875135617071e-05,-8.401332679770711e-05,-0.03720811163935103,-0.000258473840816795,-0.002403425663187972,-0.013494145921989723,-0.02699258508893483,-0.21588836672665196,-0.00015644725958817638,-0.00020950328675286228,-0.08779820208088458,-3.593862617292159e-07,-0.0001585338671289095,-0.00010446276530487056,-0.00013872094178034753
127.0,-0.003726166306811468,-2.0839375678085355e-05,-4.2006663398853555e-05,-0.027183863109160225,-0.00019626666485749678,-0.0013357723204921845,-0.056975282781734395,-0.013888700433691944,-0.21558418237110935,-5.1695616211745244e-05,-5.1695616211745244e-05,-0.040450459274737706,-1.7969313086460794e-07,-0.00018441005882628968,-0.00015696535835415292,-0.00017241504313456768
128.0,-0.0010587262200165426,-4.1356492969396195e-06,-1.2624613643289365e-05,-0.012787574621190921,-0.017709053594961915,-0.00019418137041227028,-0.08186566122049993,-0.007361365996764977,-0.1086392144923554,-2.5847808105872622e-05,-2.5847808105872622e-05,-0.020225229637368853,-7.706064167863827e-08,-9.219224348939118e-05,-7.84698932533228e-05,-8.618194971977652e-05
129.0,0.0,0.0,-0.01792926627816271,-0.023719698830055366,-0.008989885481226739,-0.00023244936895191565,-0.040932830610249965,-0.00034631575272492084,-0.054267911629965956,0.0,-0.0013077593722755014,-0.008098930849355297,-0.00010900585600881017,-4.649661444583345e-05,-3.9635439327799254e-05,-4.024786954613778e-05
130.0,0.0,0.0,-0.026122125476964186,-0.0201680098454292,-0.0045577280028892934,-0.017338624525721297,-0.020466415305124983,-0.00015989386957128893,-0.02031625632432084,-0.10766652702136573,-0.0014917514917514919,-0.10873934261031035,-0.00010685696169567138,-2.0711742166580872e-05,-0.0001249349366065495,-2.0890417254933375e-05
131.0,-7.373271889400921e-05,-7.373271889400921e-05,-0.013134795457376102,-0.009363692976596201,-0.0024221937899357258,-0.008812642051351727,-0.06921938276776987,-0.0005407764278732021,-0.007297514313643345,-0.05429409300377042,-0.0012067052389633035,-0.173263680521745,-5.342848084783569e-05,-8.437222613480678e-06,-6.012399932064448e-05,-8.51393815600267e-06
132.0,-0.028835370333266542,-0.01941040539638015,-0.04523967449353143,-0.0044137275105017035,-0.0012838035244767364,-0.004476932975670703,-0.03293394777265745,-0.00025729646697388633,-0.00028417818740399386,-0.02714704650188521,-0.0006033526194816518,-0.20631393469752513,-8.515276309806464e-05,-1.8460630228596566e-06,-0.00014412269545821296,-0.00011872310837115326
133.0,-0.014417685166633271,-0.009705202698190075,-0.02276943986481153,-0.0022068637552508518,-9.136412782976598e-05,-0.002236315950200943,-0.014746543778801843,-0.0001152073732718894,-0.0001152073732718894,-0.07434958683205527,-0.001704200853920349,-0.10455949189294209,-4.303296873930815e-05,-0.00023513370939829282,-7.25179349193823e-05,-0.00017760836110469766
134.0,-0.0072088425833166355,-0.022146275416962652,-0.01102565223462839,-0.0005454545454545455,-4.1322866007297986e-05,-0.0011137987771928865,-0.007373271889400922,-5.76036866359447e-05,-5.76036866359447e-05,-0.03759372931883451,-0.0012301688493834356,-0.05265781436889431,-1.8110861004353288e-05,-0.00011755355042713245,-3.62456631876772e-05,-0.00029866797724388745
135.0,-0.0036044212916583177,-0.011140167452930425,-0.0050436179061705,-4.608294930875576e-06,-8.559649793871393e-05,-8.559649793871393e-05,-0.003686635944700461,-0.10769532886468369,-0.0008666736489317135,-0.015432285689999574,-0.001007836833573159,-0.024208044176487375,-7.418962131837307e-06,-0.00016348517906777653,-1.4837108929406262e-05,-0.0003591855177379889
136.0,-0.0017999064983637212,-0.0247917159978871,-0.041116980261440284,-0.01914913510986442,-0.0001877925720842972,-0.0001877925720842972,0.0,-0.05383326351068286,-0.00041893590280687055,-0.0077017419233408,-0.0004895174951275933,-0.008388584300225254,-3.7094810659186534e-06,-8.170039598550118e-05,-7.390425432445066e-06,-0.00017955056532060738
137.0,0.0,-0.011790434904039391,-0.05329539091109918,-0.01804437731506455,-0.00015772913388621663,-0.00015772913388621663,-0.05293631100082713,-0.027330196685035394,-0.0006230328810973972,-0.0038508709616704,-0.00024475874756379665,-0.10674041363031544,-2.853669939223936e-08,-4.122556534629465e-05,-2.853669939223936e-08,-8.690214639964989e-05
138.0,0.0,-0.058051414395992526,-0.07900295246202088,-0.017714888148194413,-0.00021468799648470424,-0.00021468799648470424,-0.026468155500413565,-0.013665098342517697,-0.0003115164405486986,-0.05435555531056379,-0.0005029986990937754,-0.053750826140469596,0.0,-0.00011940575331855466,0.0,-4.0584926697524317e-05
139.0,-0.008579807289484709,-0.028552309627824502,-0.03956222193691744,-0.026017058653066624,-0.0002414034871405507,-0.0002414034871405507,-0.013234077750206782,-0.007251485074065719,-0.0005746941230812199,-0.02758362181112605,-0.0010762794081979141,-0.028119129031692697,0.0,-0.0002691708280627126,0.0,-1.4552103063885746e-05
140.0,-0.004289903644742354,-0.03150070445781673,-0.07139191951475113,-0.02158833661601802,-0.017345251387474756,-0.0002526665529544396,-0.006617038875103391,-0.0002611635676151805,-0.0002611635676151805,-0.06741560646484246,-0.10819157497850197,-0.22977227922049653,0.0,-0.00013131247729067762,0.0,-0.0001054513678285495
141.0,-0.002144951822371177,-0.015216633960267234,-0.05171643297279969,-0.010195757835825749,-0.02582756519089286,-0.00018868793911238735,-0.0033085194375516956,-0.00013058178380759026,-0.00013058178380759026,-0.0341267391352281,-0.05451472339205786,-0.222552666631614,0.0,-0.00017079936390717373,0.0,-5.436228215474396e-05
142.0,-0.0011472772202084966,-0.026832253399020945,-0.06339489789755531,-0.004833197362908739,-0.012911714770797961,-9.227614490772386e-05,0.0,-5.236698785085882e-05,-5.236698785085882e-05,-0.01706336956761405,-0.02725736169602893,-0.10795488997420236,0.0,-0.0003191411506485198,0.0,-2.852565864489095e-05
143.0,-0.0005736386101042483,-0.06326508928191957,-0.04748893462778455,-0.010724759111855886,-0.02374528697109342,-0.00024298282362798492,0.0,-2.618349392542941e-05,-2.618349392542941e-05,-0.006833891914537075,-0.013615416841223292,-0.053964180980310014,0.0,-0.00015666372318658432,0.0,-1.4646070563377717e-05
144.0,-1.8700327255726973e-05,-0.051957993385763374,-0.08496321630683482,-0.025153685024652768,-0.01194785859301988,-0.00019670651928716445,0.0,0.0,0.0,-0.0039001321259385774,-0.007277802842318971,-0.027439093164899613,-4.846848635235732e-07,-0.00019634015188364697,-4.846848635235732e-07,-0.00013330568179646435
145.0,-9.350163627863487e-06,-0.05989395270461188,-0.05836346822882586,-0.012308723534529987,-0.005435596661403112,-9.416390061551352e-05,-0.00041893590280687055,-0.00041893590280687055,-0.00041893590280687055,-0.0002743224517418066,-0.0002743224517418066,-0.006977296896651735,-1.0606415519963908e-06,-9.89883750620581e-05,-1.0606415519963908e-06,-0.00016893217897950572
146.0,-4.675081813931743e-06,-0.030019682981814816,-0.028718202788329015,-0.006154361767264993,-0.0022563616841316694,-0.0001197885798166303,-0.00020946795140343527,-0.00020946795140343527,-0.00020946795140343527,-0.0005915776603013629,-0.0005915776603013629,-0.0005915776603013629,-0.00011740736612429178,-0.00016399868459544196,-0.00011786395331456759,-0.00020266175271385926
147.0,0.0,-0.014475263866568212,-0.013285271063672185,-0.0030771808836324967,-0.0011943512308168686,-0.00019223506741038296,-0.00010473397570171764,-0.00010473397570171764,-0.00010473397570171764,-0.00029578883015068144,-0.00029578883015068144,-0.00029578883015068144,-5.870368306214589e-05,-0.00017848966343987941,-0.00016232320908077428,-0.0003092822483136312
148.0,0.0,-0.02278853264547514,-0.023324663181605674,-0.00985027875350456,-0.00012377804523667075,-0.0001568632396121877,-5.236698785085882e-05,-0.10729995810640972,-0.00047130289065772937,-0.0005668303178822113,-0.0005668303178822113,-0.21506201255499993,-8.212797894204907e-05,-0.00019519347017825557,-8.197990366062175e-05,-0.00015626493647353113
149.0,0.0,-0.02791864516969706,-0.044135439128426504,-0.021449518223711772,-0.0001934671219383702,-0.00021000971912612867,-2.618349392542941e-05,-0.05364997905320486,-0.00023565144532886468,-0.4698950535205795,1.628973819541842,0.1136826590893912,-4.104884306903942e-05,-9.370441747126178e-05,-4.0974805428325764e-05,-7.419471141294424e-05
150.0,0.0,-0.03004227189360429,-0.02158803795549939,-0.027884373690825304,-0.00023079304986738368,-0.00023906434846126292,0.0,-0.026811897779639715,-0.00010473397570171764,-0.288990258222376,0.8136490379653072,0.05516558593346811,-2.049884968701238e-05,-4.6826636888123554e-05,-2.046183086665555e-05,-0.00013894197238012104
151.0,-0.00846980976013234,-0.015084968794646214,-0.044737090866123125,-0.013942186845412652,-0.00011305898402672596,-0.00011719463332366558,0.0,-0.11927857089147412,-0.0008794968472387827,-0.1444805194805195,0.4068391286133221,-0.18456140633559986,-7.000921229308326e-06,-0.00022732264703038895,-0.00011035937589292427,-6.779529373851953e-05
152.0,-0.00423490488006617,-0.0076074463171237365,-0.03959105410718314,-0.006971093422706326,-5.446166736489317e-05,-5.446166736489317e-05,0.0,-0.05963928544573706,-0.00043974842361939136,-0.07224025974025974,0.20341956430666105,-0.3071948213077245,-5.586744846551298e-05,-0.00011123602462054074,-0.000157091837195063,-0.00013295010365978107
153.0,-0.002117452440033085,-0.003267485202969074,-0.019257194418484738,-0.003217427733556766,-2.5136154168412233e-05,-2.5136154168412233e-05,0.0,-0.026468155500413565,-0.00020678246484698098,-0.03610703812316715,0.10172287390029325,-0.1481381521704102,-2.669361949878079e-05,-0.00015785899262028293,-7.892949631014147e-05,-6.846965593546238e-05
154.0,-0.0011324589389105518,-0.001244970083679761,-0.008701492056330766,-0.0010724759111855886,-8.378718056137411e-06,-8.378718056137411e-06,0.0,-0.013234077750206782,-0.00010339123242349049,-0.003838500209467951,-0.0005131964809384164,-0.08144234797460602,-1.3346809749390394e-05,-0.0001945869340981599,-0.00015467212142696013,-0.00015079239478800767
155.0,-0.0005662294694552759,-0.00015327683069618555,-0.05589452483000869,0.0,0.0,0.0,0.0,-0.006617038875103391,-5.1695616211745244e-05,-0.0002304147465437788,-0.0002304147465437788,-0.25516398923656985,-6.673404874695197e-06,-0.0003067614184525152,-7.733606071348007e-05,-0.00017766274955152375
156.0,-1.8433179723502303e-05,-0.0181744380233112,-0.04505703841010955,0.0,0.0,-0.018099867432611577,0.0,0.0,0.0,-0.05667729310018307,-0.2268054415756581,-0.1222777057233531,-3.3240804356933388e-06,-0.00025779790559595064,-3.5424432341851696e-05,-0.00020053579459515294
157.0,-0.00858902387934646,-0.009219183821039765,-0.022258305547744342,0.0,-6.702974444909929e-05,-0.009116963460754888,-0.05362379555927943,-0.10766652702136573,-0.0008378718056137411,-0.028338646550091533,-0.11340272078782905,-0.05442278666980391,-2.557184750733138e-08,-0.0001296916800707026,-0.00011916046920821115,-9.778768782962508e-05
158.0,-0.004377758557779369,-0.026087219381903854,-0.054084407716640116,0.0,-3.3514872224549644e-05,-0.004558481730377444,-0.026811897779639715,-0.05383326351068286,-0.00041893590280687055,-0.014689614638209138,-0.0572216517570779,-0.028212700820340553,0.0,-0.00019162017223800813,-5.9567448680351906e-05,-4.933805165296408e-05
159.0,-0.002186575131424247,-0.013109704003179689,-0.02717900077770646,0.0,-1.6757436112274822e-05,-0.002279240865188722,-0.013405948889819858,-0.02691663175534143,-0.00020946795140343527,-0.007330406397445583,-0.028596424956879963,-0.01409194948851129,0.0,-9.21957911881285e-05,-2.618349392542941e-05,-2.10266018633484e-05
160.0,-0.0010932875657121235,-0.006552757322075811,-0.02913830642153023,-0.008579807289484709,-0.000142438206954336,-0.0013407096659416588,-0.006702974444909929,-0.013458315877670716,-0.10735232509426058,-0.0036652031987227914,-0.014298212478439981,-0.3220857736550223,0.0,-4.03703212329415e-05,-0.00011823487222454963,-8.442241023840099e-06
161.0,-0.0005466437828560617,-0.0027107578037687935,-0.014001322897022297,-0.004289903644742354,-7.1219103477168e-05,-0.00010473397570171764,-0.0033514872224549644,-0.006729157938835358,-0.05367616254713029,-6.503642039542143e-05,-6.503642039542143e-05,-0.16100145951862913,0.0,-0.00012145337405570495,-5.9117436112274816e-05,-1.5466843250402041e-06
162.0,-5.202913631633715e-06,-0.001351189542856328,-0.0069922827304550106,-0.002144951822371177,-0.00010054461667364893,-0.00011730205278592375,0.0,-0.0008378718056137411,-0.027649769585253454,-0.054075249672284005,-0.0008703900158114518,-0.08133860156492831,0.0,-6.111026474046245e-05,-2.6285781315458732e-05,-0.0001058908955768477
163.0,-7.373271889400921e-05,-0.019101193106495797,-0.021324296560708396,-0.0010724759111855886,-5.0272308336824466e-05,-5.865102639296188e-05,-0.0004608294930875576,-0.0008797653958944282,-0.014285714285714285,-0.027021365731043148,-0.00041893590280687055,-0.040636782572266446,0.014688940092165897,-0.0003725625404273146,-1.3592955173858398e-05,-5.472982656053623e-05
164.0,-0.0001038961038961039,-0.026842061164641804,-0.010858818600754081,-0.0005362379555927943,-2.5136154168412233e-05,-2.932551319648094e-05,-0.0002304147465437788,-0.0004398826979472141,-0.114390448261416,-0.013510682865521574,-0.00020946795140343527,-0.12756598240469208,0.007344470046082949,-0.0001870995693338919,-0.00011193960284876413,-2.818321240050272e-05
165.0,-0.00012674936097095983,-0.01349583189134381,-0.0049679726538071544,0.0,-8.378718056137411e-06,-8.31800270790453e-05,-0.0001152073732718894,-0.00021994134897360704,-0.05384373690825304,-0.007222849614153961,-0.0005722421570948919,-0.05419603771637432,0.003613339913177052,-9.443738719999028e-05,-5.359725314050138e-05,-0.00013184346815783558
166.0,-6.337468048547992e-05,-0.006747915945671905,-0.01993729702299865,-0.00869269949066214,-0.017457500055123143,-0.00017741344308111858,-5.76036866359447e-05,-0.00010997067448680352,-0.02692186845412652,-0.058365244841032844,-0.0011350175131824205,-0.02837136351013962,0.001806669956588526,-0.0003622819198474319,-2.679862657025069e-05,-6.713976155229331e-05
167.0,-0.00850149710037508,-0.0034401283615869862,-0.010100989289001393,-0.012816159505463411,-0.00879282573679857,-0.00015278243077755885,-2.880184331797235e-05,-2.880184331797235e-05,-0.01343475073313783,-0.027493787062326223,-0.0005413252626657808,-0.014159498261144383,0.000903334978294263,-0.00028451940642345273,-1.3399313285125345e-05,-3.149587027052325e-05
168.0,-0.004248444402722103,-0.001259113416786702,-0.021972638714352743,-0.015100779243393845,-0.004464324583170083,-0.0001443029301595774,-0.05432937181663836,-0.0004244482173174872,-0.007127422662227416,-0.06807626534780148,-0.0006951108486503776,-0.007504197347889679,-7.361888733052829e-06,-0.00023755700178072954,-6.685592126433641e-06,-0.00012221826450707824
169.0,-0.002122127521847017,-0.017315773717191,-0.02827370938650188,-0.0075503896216969225,-0.0022991920360341408,-0.000139181209528888,-0.02716468590831918,-0.0002122241086587436,-0.0002122241086587436,-0.03445706857670761,-0.0007664913271320593,-0.1080671384728556,-3.6809443665264144e-06,-0.00011875292904285742,-5.707339878447872e-08,-0.00027136981092970163
170.0,-0.0010587262200165426,-0.008722579062137635,-0.014201546896793074,-0.0037751948108484612,-0.0011495960180170704,-6.725306385747812e-05,-0.01358234295415959,-0.0001061120543293718,-0.0001061120543293718,-0.01721392465768527,-0.0007875719357043635,-0.16168548662712498,0.0,-5.934792782203647e-05,0.0,-0.00023755623592027663
171.0,-0.0005293631100082713,-0.004361289531068817,-0.006850288364719603,-0.0016159505463410387,-0.0001031147686495734,-0.0001031147686495734,-0.006791171477079795,-5.30560271646859e-05,-5.30560271646859e-05,-0.006895905452781513,-0.0003672579542698388,-0.19877530152360373,-0.00011565743778801842,-0.00013583346112178705,-9.001290322580645e-07,-0.00012053951354587685
172.0,0.0,-0.020349146980656155,-0.0036331163545387786,-0.0005432937181663837,-0.00012019216683495586,-0.01822005959944653,-0.05995767146545107,-0.0004684193083238365,-0.0004684193083238365,-0.06001003845330193,-0.0006255202718764129,-0.09982954205654336,-5.782871889400921e-05,-0.00017515857823303285,-4.5006451612903225e-07,-0.00017113628316744537
173.0,0.0,-0.010469534244246534,-0.0015682252130214624,0.0,-5.79738423308905e-05,-0.009107907558636679,-0.028281042863455588,-0.00022094564737074678,-0.00022094564737074678,-0.02877473453877419,-0.0007670043105402094,-0.050369015202873686,-8.826605650170307e-05,-8.608963617982687e-05,-2.051381019167835e-06,-8.452212167771643e-05
174.0,0.0,-0.03870801430504787,-0.000574537235645038,0.0,-2.6892241651410897e-05,-0.004551859099804305,-0.014140521431727794,-0.00011047282368537339,-0.00011047282368537339,-0.01437427552242438,-0.00037041040830739,-0.3398513595666759,-4.4133028250851534e-05,-0.00014683995456634023,-1.0256905095839176e-06,-3.6497423615866153e-05
175.0,0.0,-0.03657855679642841,-0.017712907495074297,0.0,-1.3446120825705448e-05,-0.0022759295499021523,-0.007070260715863897,-5.5236411842686694e-05,-5.5236411842686694e-05,-0.00718713776121219,-0.0005910493599978508,-0.16698003671672715,-0.00023153446552886105,-7.423827640340472e-05,-1.331144375026563e-06,-1.5768502339981673e-05
176.0,-0.00951152073732719,-0.01843674383600222,-0.02787027863232977,0.0,-4.418912947414936e-06,-0.0011356606274856385,-0.0035351303579319484,-2.7618205921343347e-05,-0.11799996843633609,-0.003593568880606095,-0.0002955246799989254,-0.07980338241366311,-0.00011215293783355495,-3.4390907786955816e-05,-0.00011584481642714462,-0.0001243855599257512
177.0,-0.013931387608806963,-0.027073480672358652,-0.032423134602657736,0.0,-0.01835125448028674,-7.168458781362007e-05,0.0,0.0,-0.05898617511520737,-2.9219261337073397e-05,-0.1148292937388309,-0.15503125127949813,-5.6076468916777474e-05,-1.4180740877324327e-05,-5.792240821357231e-05,-0.00017117174888318785
178.0,-0.0069656938044034816,-0.030754034495969976,-0.050655505784538035,-0.017159614578969418,-0.009309686729041568,-0.0001699017828050086,-0.05362379555927943,-0.00041893590280687055,-0.1371596145789694,0.0,-0.05740003723874691,-0.07750101600908052,-2.618349392542941e-05,-7.442446599994987e-06,-2.9313280268118977e-05,-0.00029539163365666587
179.0,-0.0034828469022017408,-0.04863338453661034,-0.04267811758134338,-0.008579807289484709,-0.004654843364520784,-8.49508914025043e-05,-0.026811897779639715,-0.10787599497276916,-0.06941767909509845,-0.469208211143695,1.4937130521807942,0.29921478610994734,-1.3091746962714705e-05,-4.776252851091561e-07,-1.4656640134059488e-05,-0.00014767057282502442
180.0,-0.01032123074058558,-0.02384538937764744,-0.020995531350370057,-0.012869710934227063,-0.0024614811711585905,-0.00017653493459945073,-0.013405948889819858,-0.05435693338919145,-0.0351277754503561,-0.23544197737746123,0.746031746031746,0.1479447411907089,0.0,-2.1324079504724665e-07,-7.302748219522413e-06,-0.00017895283982683982
181.0,-0.004863380347251315,-0.011991819112786854,-0.02885260438486245,-0.006434855467113532,-0.0012307405855792953,-8.826746729972536e-05,-0.007163803937997487,-0.027639296187683283,-0.014338081273565144,-0.11772098868873061,0.373015873015873,0.07397237059535446,-5.805375115207373e-05,-1.4286849136526556e-06,-1.4013372434017595e-06,-0.00020329169180282081
182.0,-0.002144951822371177,-0.02280559169183957,-0.03130165589927898,-0.011910127224218905,-0.01749520428637576,-0.00017771701982228298,-0.0035819019689987434,-0.013819648093841641,-0.1158277842700593,-0.058860494344365306,0.19009216589861752,-0.06807432804886115,-2.9441408682997815e-05,-0.00010722725605803363,-1.1152017286618305e-06,-9.937554737283089e-05
183.0,-0.0010724759111855886,-0.010998522699711154,-0.03186783674729345,-0.005418825656516658,-0.008743412784159812,-0.0001516988953321721,-0.0001152073732718894,-0.007315668202764977,-0.054968249068418844,-0.029430247172182653,-0.0122015081692501,-0.03445609992723745,-1.4720704341498907e-05,-0.0001583348178069808,-5.448149405772495e-07,-0.00014827223954313936
184.0,-0.0005362379555927943,-0.021586400017639406,-0.01545842612396093,-0.011289220117743038,-0.0044387361365290055,-0.00014287919211518533,-0.053681399245915376,-0.1083787180561374,-0.13596233986726347,-0.00047130289065772937,-0.054095098449937165,-0.028316759641038074,-7.360352170749454e-06,-7.91674089034904e-05,-2.7240747028862475e-07,-7.495441889180429e-05
185.0,0.0,-0.010791105329305668,-0.0077229290234383605,-0.005376491081075122,-0.002215178709236434,-6.725023702952396e-05,-0.026840699622957688,-0.054176267281105986,-0.06796807818666901,-0.00020946795140343527,-0.13426895684960202,-0.22902013097259277,-3.680176085374727e-06,-0.00024986995497541505,-0.00010487017943686195,-3.582808502193901e-05
186.0,0.0,-0.005393248517187397,-0.020495942936520184,-0.01984786011950698,-0.0012416488435164155,-0.00016768460741296056,-0.013405948889819858,-0.027073732718894006,-0.033969638171675524,-0.00010473397570171764,-0.06755341432760788,-0.11534793729191013,-2.590831918505942e-08,-0.00022962675964103806,-5.239289617004388e-05,-0.00022412059047913037
187.0,0.0,-0.002220360284876414,-0.009769585253456219,-0.018232090490155006,-0.01730205278592375,-0.00021365731043150398,-0.006702974444909929,-0.12078445747800587,-0.014008169250104733,-0.16092375366568915,-0.03461457896941768,-0.055535190615835776,-8.182991202346041e-07,-0.00021703669878508585,-2.7001793045664014e-05,-0.0002179828571428571
188.0,-7.48013090229079e-05,-0.0011807920924330462,-0.023643103040017485,-0.009116045245077503,-0.008725827701984783,-0.00017953528472462553,-0.06319253444078128,-0.06084664517343339,-0.007458501059482827,-0.08046187683284457,-0.013955802262253875,-0.1474365979976078,-4.0914956011730207e-07,-0.00022212245800015782,-1.3500896522832007e-05,-0.00010661888028754787
189.0,-3.740065451145395e-05,-5.415809062372877e-05,-0.02904610116391322,-0.004289903644742354,-0.004360819171478357,-8.767296284827841e-05,-0.02992052360916316,-0.027045651870336303,-0.0007574239692051753,-0.04021784666945957,-0.006964809384164224,-0.1813586425262442,-2.0457478005865104e-07,-0.00011106122900007891,-6.7504482614160035e-06,-0.00015924529267833613
190.0,-1.8700327255726973e-05,-0.017186693624281282,-0.031749694905375124,-0.002144951822371177,-0.0021804095857391784,-4.3836481424139206e-05,-0.06858405736386101,-0.013941761837975023,-0.0007976478874094583,-0.020108923334729786,-0.00013091746962714705,-0.08438219097405633,-0.00015720325094260577,-0.0001553297431133616,-1.3297360703812317e-06,-0.00018676037570657485
191.0,-9.350163627863487e-06,-0.02575296139111006,-0.015470574306478933,-0.017695852534562212,-0.0012871046671888184,-0.00028584785948039803,-0.03429202868193051,-0.006970880918987512,-0.00039882394370472913,-0.06367825722664433,-0.00047130289065772937,-0.14983143901446846,-7.901077503142019e-05,-0.00017953506007783705,-1.0740175953079179e-06,-0.00029751692853196356
192.0,-4.675081813931743e-06,-0.047781007408231144,-0.025458150028903698,-0.025965206270808987,-0.0002410431280291766,-0.017659956981578004,-0.017146014340965254,-0.00013395323703879104,-0.00018632022488964984,-0.026811897779639715,-0.00020946795140343527,-0.07487644426634608,-3.9479815668202766e-05,-8.646902145073251e-05,-5.114369501466275e-07,-0.0003576712784127857
193.0,0.0,-0.041114810486627115,-0.012327078693801952,-0.013049632879853593,-0.00018521376755672173,-0.008894670694331135,-0.006702974444909929,-5.236698785085882e-05,-7.855048177628823e-05,-0.013824884792626727,-0.0005236698785085882,-0.03453602848764139,-2.0149057394218684e-05,-0.00024945920402178465,-6.648680351906158e-07,-0.00018044370074746984
194.0,0.0,-0.020557405243313558,-0.022784821290763563,-0.015104623729411504,-0.00015963662822746015,-0.004514365091614667,-0.056975282781734395,-0.0008640552995391705,-0.0008640552995391705,-0.006912442396313364,-0.0002618349392542941,-0.12115102639296188,-1.0483678257226644e-05,-0.00022987272727272725,-7.415835777126099e-07,-8.772885498202986e-05
195.0,0.0,-0.009809494410513084,-0.028080722333693468,-0.007552311864705752,-7.981831411373008e-05,-0.01941679712477675,-0.026811897779639715,-0.00041893590280687055,-0.00041893590280687055,-0.003456221198156682,-0.00013091746962714705,-0.06056242144951822,-3.324340175953079e-07,-0.00011161228320067029,-3.324340175953079e-07,-0.00014524875090953188
196.0,0.0,-0.004368509249663748,-0.031489482503913736,-0.011932617467422222,-0.00010153683328555994,-0.009767931559103037,-0.013405948889819858,-0.0006339161687209224,-0.0006339161687209224,-5.236698785085882e-05,-0.10871111062112758,-0.13599982360593565,-5.320945824972989e-05,-5.293495204286376e-05,-5.67964192004939e-07,-6.645467730910854e-05
197.0,0.0,-0.018320067029744445,-0.04984521420854188,-0.005423015015544727,-4.65239344696051e-05,-0.00433642757921196,-0.006702974444909929,-0.0003169580843604612,-0.0003169580843604612,-2.618349392542941e-05,-0.05435555531056379,-0.06799991180296783,-2.6604729124864944e-05,-2.646747602143188e-05,-2.839820960024695e-07,-0.0002364724362225211
198.0,-6.702974444909929e-05,-0.008755760368663592,-0.025050382554627035,-0.011289220117743038,-8.819703216986749e-05,-0.0022331488545410446,-0.0033514872224549644,-0.10782500606354596,-0.10866287786915971,0.0,-0.02716468590831918,-0.14122136352611736,-1.3289578638678806e-05,-7.084228165722223e-06,-1.2920512424756907e-07,-0.0001185942239763632
199.0,-3.3514872224549644e-05,-0.021537494763301215,-0.012055983066169822,-0.013956298370559832,-0.00017606332546909797,-0.0012485392366546866,0.0,-0.053886319537847546,-0.05430525544065442,0.0,-0.01358234295415959,-0.06725919454060371,-6.632003395585738e-06,-2.5639141842876987e-07,-5.181663837011884e-08,-0.00026873949154410955
200.0,-1.6757436112274822e-05,-0.010766652702136573,-0.005489658897978082,-0.015557956474764625,-0.00022209115163274756,-0.00022209115163274756,-0.05362379555927943,-0.027781031574537512,-0.028409435428747822,0.0,-0.006791171477079795,-0.03404853317310873,-3.316001697792869e-06,-9.46494829448989e-07,-0.0001047598840209027,-0.00013191510815161071
201.0,-8.378718056137411e-06,-0.0226770004189359,-0.01956011730205278,-0.00750733137829912,-0.00010892333472978634,-0.00010892333472978634,-0.026811897779639715,-0.013877251780477586,-0.014610389610389612,0.0,0.0,-0.12128194386258902,0.0,-0.00010601256807708418,-5.277613741097612e-05,-6.717204859656473e-05
202.0,-4.1893590280687055e-06,-0.01080016757436112,-0.04360373073446078,-0.00375366568914956,-0.00012237338213569115,-0.00012237338213569115,-0.013405948889819858,-0.11602181774083302,-0.00815409123982978,0.0,0.0,-0.06064097193129451,0.0,-5.300628403854209e-05,-2.638806870548806e-05,-0.0001335539523295041
203.0,0.0,-0.05694176790950983,-0.022199854474896915,-0.001608713866778383,-0.0001261217560029105,-0.0001261217560029105,-0.006702974444909929,-0.05464632990099883,-0.001105219059378652,-0.054042731462086296,-0.0008378718056137411,-0.13505446166736487,0.0,-2.649035609551738e-05,-1.319403435274403e-05,-0.00017149816594271602
204.0,0.0,-0.04522832006702973,-0.01136595153573082,-0.0005362379555927943,-0.00012590126342248585,-0.00012590126342248585,-0.0033514872224549644,-0.027323164950499416,-0.000552609529689326,-0.027021365731043148,-0.00041893590280687055,-0.06752723083368244,0.0,-1.3654327607875993e-05,-6.597017176372015e-06,-8.002150861023527e-05
205.0,0.0,-0.022614160033514866,-0.005750005512314509,-0.008579807289484709,-0.0001257910171322735,-0.0001257910171322735,-0.05362379555927943,-0.12130192600269,-0.21557008356668797,-0.013510682865521574,-0.00020946795140343527,-0.24824570590699624,-0.00010473397570171764,-7.619891076665269e-06,-0.00010516869710934226,-4.0803481577844906e-05
206.0,0.0,-0.010766652702136571,-0.0023324807620223576,-0.004289903644742354,-6.289550856613675e-05,-6.289550856613675e-05,-0.026811897779639715,-0.060650963001345,-0.2274540444730339,-0.006755341432760787,-0.00010473397570171764,-0.3601224628573857,-5.328016223141048e-05,-0.0001183016566789919,-5.3484737011469125e-05,-2.2189731778764775e-05
207.0,0.0,-0.0053833263510682855,-0.053641232350909764,-0.002144951822371177,-2.932551319648094e-05,-9.9072679717841e-05,-0.013405948889819858,-0.25010756462369366,-0.22660372002938622,-0.0033776707163803935,-0.0004882867786093593,-0.18093307101020986,-2.664008111570524e-05,-5.957656504394233e-05,-2.6742368505734563e-05,-0.00011759733113051486
208.0,0.0,-0.0010808546292417258,-0.044193447079694956,-0.009765175401847728,-8.047979185500408e-05,-0.00011535337511568411,-0.007127422662227416,-0.23456142237975855,-0.2236453047702771,0.0,-0.00021795989537925023,-0.08751331300604202,-1.332004055785262e-05,-3.0617348735893063e-05,-0.00011948323858223908,-5.6354795038500654e-05
209.0,-0.008579807289484709,-6.702974444909929e-05,-0.02215537456624044,-0.004882587700923864,-3.814521641346769e-05,-5.55820080438077e-05,-0.05718750689039314,-0.11769964709268614,-0.1126605241907523,-0.00041893590280687055,-0.10777550696905536,-0.045013464211441624,-7.0691698390436124e-06,-0.00012084816326614509,-6.055991841135414e-05,-0.00013452239961392982
210.0,-0.012869710934227063,-0.00010054461667364893,-0.011142622348055286,-0.002173174872665535,-8.400767314179878e-05,-9.272606895696879e-05,-0.026918009833969088,-0.1631517715982911,-0.15810550298352027,-0.0006284038542103058,-0.1615542805058934,-0.23113681170354233,-2.6164817884312974e-07,-6.039850978556521e-05,-2.699423654124473e-05,-6.764477751957488e-05
211.0,-0.006434855467113532,-0.00012097491549546344,-0.005712716388344921,-0.019186454868944346,-0.00018340905088817734,-0.00018776824879576233,-0.013459004916984544,-0.08157588579914556,-0.07531268604061474,-0.056876287654016325,-0.0812190315476882,-0.10853016624422188,-5.533869923271602e-05,-2.6949879240352524e-05,-1.3900150285326458e-05,-3.41968840750993e-05
212.0,-0.003217427733556766,-6.048745774773172e-05,-0.0013147669751618863,-0.009593227434472173,-9.170452544408867e-05,-9.170452544408867e-05,-0.006729502458492272,-0.033813226247436774,-0.03454168214354971,-0.028438143827008162,-0.0405958932803829,-0.05423783813518853,-2.766934961635801e-05,-1.4269443454034934e-05,-7.3539791955995395e-06,-0.0003258594276633739
213.0,-0.001608713866778383,-0.00010504503789677375,-0.0002636923874603753,-0.023674101968017315,-0.00019333263968127269,-0.019342467749545695,-0.0033514872224549644,-0.13316659380824877,-0.014289707487463449,-0.014219071913504081,-0.02029794664019145,-0.027105655060803095,-1.4291261998454833e-05,-7.5654005981082375e-06,-8.175750902827311e-07,-0.0002806940252413471
214.0,-0.0005362379555927943,-0.00011745758388345181,-0.00019678125866525259,-0.011837050984008658,-9.666631984063634e-05,-0.009671233874772847,0.0,-0.17381779627572053,-0.007537606152613166,-0.007096444209789326,-0.006784394350678045,-0.013513552289513403,-7.132845075473751e-06,-0.00020995214311430338,-3.832156976340342e-07,-0.00013784123130521482
215.0,0.0,-5.663411242769155e-05,-9.629594981859194e-05,-0.005918525492004329,-4.623848040628382e-05,-0.00483352225787239,0.0,-0.08354431916844259,-0.0003780406129634741,-0.0035351303579319484,-2.7618205921343347e-05,-0.10769414522728707,-5.593341038859569e-05,-0.00021052834637910392,-1.0099069690516212e-06,-7.054442796932295e-05
216.0,0.0,-0.01725275192315865,-0.03456404745324801,-0.010973449178217761,-8.573007170482626e-05,-0.002479371960437879,0.0,-0.04177215958422129,-0.00018902030648173705,-0.05362379555927943,-0.10766652702136573,-0.0546711353162966,-2.624056732421389e-05,-0.0002099846623689541,-4.914669622103003e-07,-3.6895325702815174e-05
217.0,0.0,-0.025785990540548743,-0.017344917821776166,-0.005486724589108881,-4.286503585241313e-05,-0.0012396859802189396,0.0,-0.020886079792110646,-8.158624918793221e-05,-0.026811897779639715,-0.054252199413489736,-0.13542103058232088,-1.3529433222224247e-05,-0.00021011021244300346,-6.422610395681924e-07,-9.509923923668663e-06
218.0,0.0,-0.012890657729367407,-0.008733954217825185,-0.002144951822371177,-8.292782486330873e-05,-8.292782486330873e-05,0.0,-0.006702974444909929,-2.618349392542941e-05,-0.013405948889819858,-0.027126099706744868,-0.06812408022085441,-6.7504482614160035e-06,-0.0002084320702952961,-3.0686217008797657e-07,-2.285729754116851e-06
219.0,0.0,-0.040762463343108506,-0.004565971662745856,-0.0010724759111855886,-4.146391243165437e-05,-4.146391243165437e-05,-0.00041893590280687055,-0.00041893590280687055,-0.00041893590280687055,-0.006702974444909929,-0.335305823209049,-0.14256643893740667,-3.3752241307080018e-06,-9.84884607865253e-05,-0.00010529655634687892,-1.9355921497856984e-06
220.0,-0.008579807289484709,-0.037674905739421866,-0.03680330422265907,-0.0005362379555927943,-2.0731956215827184e-05,-2.0731956215827184e-05,-0.00020946795140343527,-0.00020946795140343527,-0.00020946795140343527,-0.0033514872224549644,-0.1676529116045245,-0.06833757640209252,-5.114369501466276e-08,-4.594572180507664e-05,-5.262270632593213e-05,-9.166523798781864e-07
221.0,-0.004289903644742354,-0.05456955770698589,-0.03570557002284797,0.0,-8.271298593879239e-06,-8.271298593879239e-06,-0.00010473397570171764,-0.00010473397570171764,-0.00010473397570171764,0.0,-0.08090376812758607,-0.03458449600186233,-0.00011049839553288072,-0.00013060431656132935,-2.6742921877062398e-05,-2.996594779502424e-06
222.0,-0.002144951822371177,-0.02674854089790015,-0.03501030491087937,0.0,-7.116539374603891e-05,-7.116539374603891e-05,-5.236698785085882e-05,-0.00047130289065772937,-0.00047130289065772937,-0.00041893590280687055,-0.04085772821963719,-0.12241897611153024,-5.5236411842686694e-05,-6.201643561623233e-05,-1.3358675014777533e-05,-1.8818751023611827e-06
223.0,-0.0010724759111855886,-0.01344044083770111,-0.017701595797044313,-0.01693961952026468,-0.00023202603847765138,-0.00023202603847765138,-2.618349392542941e-05,-0.10610827344698312,-0.10652183837667707,-0.00020946795140343527,-0.12630148611147285,-0.1674827510830604,-2.802210997427966e-05,-2.81811458478184e-05,-7.083241560325077e-06,-1.3069755991541232e-06
224.0,-0.009116045245077503,-0.005848833741012264,-0.02620521767229677,-0.03420923162858647,-0.00031710225258612355,-0.00031710225258612355,-0.05362379555927943,-0.053878916782142586,-0.05408569924698956,-0.00010473397570171764,-0.05309628138837153,-0.2948457953153048,-1.401105498713983e-05,-1.4474150636519172e-05,-6.650476758474991e-07,-1.0370655121870323e-06
225.0,-0.004289903644742354,-0.019543604134854686,-0.012157908375318893,-0.025684423103777942,-0.017385195449711576,-0.00029261061519126035,-0.027230833682446585,-0.027777330196685032,-0.027880721429108524,-5.236698785085882e-05,-0.026548140694185766,-0.1474098059106897,-7.005527493569915e-06,-0.00021670502672169485,-3.3252383792374953e-07,-0.00031594790854159825
226.0,-0.002144951822371177,-0.00877241038531361,-0.022798169572363122,-0.012842211551888971,-0.008692597724855788,-0.00014630530759563018,-0.013615416841223292,-0.12113625621690138,-0.014359296617361132,-2.618349392542941e-05,-0.013260261244132212,-0.07369109385238418,-5.048800661703887e-08,-0.00020962072680008164,-1.5277539664636438e-07,-0.0003677701361004586
227.0,-0.0010724759111855886,-0.021545819771626222,-0.011063936063936065,-0.015000913065429194,-0.004411233927362959,-0.00013808771873288002,-0.006807708420611646,-0.06055503636148797,-0.00716655656171785,0.0,-0.006617038875103391,-0.033454784462848976,-2.5244003308519435e-08,-0.00020995348866187575,-0.00010481036340004082,-0.00018469058124671026
228.0,-0.0005362379555927943,-0.010770842061164642,-0.005525764558022623,-0.015550900712191035,-0.0022664432341851695,-0.00012987012987012987,-0.11065144532886469,-0.13505446166736487,-0.0015186426476749056,0.0,-0.00041893590280687055,-0.2287390029325513,0.0,-0.00021010724759111855,-5.239255969836615e-05,-9.315096774193547e-05
229.0,0.0,-0.005379136992040218,-0.002287390029325513,-0.006971093422706326,-0.0011939673229995808,-0.00019271051529116045,-0.05364997905320486,-0.06750104733975701,-0.0007331378299120235,-0.05362379555927943,-0.0006284038542103058,-0.10850439882697947,0.0,-0.00021018396313364054,-2.618349392542941e-05,-4.779014662756598e-05
230.0,0.0,-0.0021533305404273146,-0.019310075695404903,-0.003217427733556766,-5.865102639296188e-05,-9.216589861751152e-05,-0.026811897779639715,-0.03372434017595308,-0.11346455687485293,-0.026811897779639715,-0.0003142019271051529,-0.2805005423211344,-5.5667980556783035e-05,-9.940924551365559e-05,-1.3954884390907369e-05,-1.4901042748678629e-05
231.0,0.0,-0.0011403876259563866,-0.02656792122917666,-0.001608713866778383,-2.932551319648094e-05,-4.608294930875576e-05,-0.013405948889819858,-0.013510682865521574,-0.16580237854105798,-0.013405948889819858,-0.00015710096355257646,-0.1406747193778847,-2.7833990278391518e-05,-4.6431686016149117e-05,-6.9774421954536846e-06,-0.00010741844940556104
232.0,0.0,-0.0001662966348874668,-0.013674698908552432,-0.009006047715725135,-0.00014490885458627394,-0.00015328757264241135,-0.006702974444909929,-0.006755341432760787,-0.18877381127218323,-0.006702974444909929,-7.855048177628823e-05,-0.1762099816905966,-1.432089919213207e-05,-2.114183250245115e-05,-0.00010401092083347496,-0.00036547296633748983
233.0,0.0,-0.018253718357213948,-0.006978754668593494,-0.031384706028983536,-0.00028246756925501954,-0.00028665692828308824,-0.056562085726911175,-0.00044189129474149356,-0.09478952168994498,-0.11647565867627732,-0.00046807478866692297,-0.08181772420120444,-7.160449596066035e-06,-7.716762300889565e-06,-0.00016247828410211087,-0.0002940468724348036
234.0,0.0,-0.009126859178606974,-0.02158715008739429,-0.015692353014491768,-0.00013913910511347542,-0.0002098417122721144,-0.028281042863455588,-0.00022094564737074678,-0.04739476084497249,-0.056562085726911175,-0.00022094564737074678,-0.2671310215143215,-3.5802247980330173e-06,-0.00022151830585675922,-8.123914205105543e-05,-0.0001482797845884298
235.0,0.0,-0.004563429589303487,-0.027519418797821937,-0.03358559837570001,-0.00027065878590403554,-0.0003060100894833551,-0.014140521431727794,-0.00011047282368537339,-0.020162250064554296,-0.028281042863455588,-0.00011047282368537339,-0.12649525004129686,-0.00010478446370833467,-0.00032060928084730116,-4.1001747541014004e-05,-0.0001800743436316534
236.0,0.0,-0.002279592553565156,-0.047533522597596835,-0.025372606477334712,-0.01736197371637053,-0.0002870645336398761,-0.06069405627514333,-0.00047417231464955725,-0.007091211189752949,-0.014140521431727794,-5.5236411842686694e-05,-0.06323436101385725,-5.239223185416734e-05,-0.0002658569152456028,-0.00012564399903234192,-0.0001926696403405108
237.0,0.0,-0.018295275206455058,-0.0238884138398058,-0.01242162168366322,-0.008676851208888326,-0.00013939661752299844,-0.08397082369685109,-0.0010749579629385198,-0.0014938938657453904,-0.007070260715863897,-0.21452280044303906,-0.1368130598963564,-7.855048177628823e-05,-0.00023803371687967356,-5.998755106139993e-05,-8.740970324417074e-05
238.0,-0.008579807289484709,-0.008713866778382907,-0.012073847495853681,-0.013942186845412652,-0.021625471302890654,-0.0002641591726876747,-0.04021784666945957,-0.0009426057813154587,-0.001152073732718894,0.0,-0.21449518223711772,-0.06881165674802439,-3.9275240888144114e-05,-0.00011982167103775587,-2.6541499790532045e-05,-0.00014577787765923864
239.0,-0.013569799376250991,-0.02036214681375966,-0.0082865521575199,-0.01619885490853233,-0.013419447935576968,-0.00273658241400177,-0.07810827165665876,-0.017089093701996926,-0.017193827677698646,-0.01596611274030629,-0.2066284969510776,-0.04362751943397105,-3.5548992226411595e-05,-6.891765582088163e-05,-2.918212167760556e-05,-8.939630591630591e-05
240.0,-0.009665619868170508,-0.013101803589425469,-0.006523578946684726,-0.015297071021002005,-0.009664180114292643,-0.00436275735600567,-0.05680857443798179,-0.026298985460650876,-0.026351352448501737,-0.025737494979805556,-0.12106868708519121,-0.03956819832663794,-3.1841254296258064e-05,-4.5239863429060744e-05,-3.191796983878006e-05,-5.8726553369944234e-05
241.0,-0.02293267736669683,-0.006692307009030013,-0.0023307187764740524,-0.016430350249010392,-0.004364460029198132,-0.0022478919261334053,-0.02672854360776341,-0.23938474389100742,-0.12717053852059348,-0.012868747489902778,-0.060534343542595605,-0.01978409916331897,-7.115703899081573e-05,-2.018456055453703e-05,-0.0001235776546544274,-2.691511960122511e-05
242.0,-0.020046145972833124,-0.0029439750378204106,-0.0012952295181071559,-0.025374789703474614,-0.0023162895034972647,-0.0013250351964140005,-0.011688528192654224,-0.22691377957013714,-0.06438386582502235,-0.0068533096477582595,-0.023983133229194743,-0.006920223021123246,-3.394205112506853e-05,-0.00011276798199490568,-0.00016651001710517766,-0.00011980256189529202
243.0,-0.018334761298104872,-0.0015348279043312359,-0.0007104551444746085,-0.02099908316342562,-0.017844361760546282,-0.0007902930485630959,-0.005844264096327112,-0.22069138915666472,-0.033016712971162196,-0.0034266548238791297,-0.11588767051070127,-0.11111354678496463,-6.933801341339308e-05,-5.717671827018011e-05,-8.366415811270613e-05,-0.00016215504718141221
244.0,-0.008877383907442792,-0.00033342142139889536,-0.00033342142139889536,-0.018680983795413088,-0.008973061898896096,-0.000512197931655536,-0.0011096524131032758,-0.10982638861547801,-0.22773429452603527,-0.0012143863888049934,-0.05566531180747235,-0.16174740176053004,-3.417177633849843e-05,-3.01106490315735e-05,-0.00014553388921751802,-8.257992427246162e-05
245.0,-0.004348669448094989,-7.543789249489647e-05,-7.543789249489647e-05,-0.017560239142209978,-0.00452634859616742,-0.017234285820233675,0.0,-0.05435836810118737,-0.11331232105646599,-5.236698785085882e-05,-0.027277829697184536,-0.08031887467371338,-1.6544022702882623e-05,-1.4917363102356469e-05,-0.00017561631156588292,-0.0004547169304167625
246.0,-0.010188521156263092,-0.00016735952219823188,-0.00016735952219823188,-0.01707711643195514,-0.0024620540749573003,-0.008816022686990428,0.0,-0.020108923334729786,-0.16075993898574542,-2.618349392542941e-05,-0.22813409708570997,-0.04099730914247043,-6.545873481357352e-06,-7.840858066664515e-06,-0.00018907636922217566,-0.00033247461742558513
247.0,-0.004826141600335149,-7.949040207104723e-05,-7.949040207104723e-05,-0.008002320260384777,-0.0012268376784505815,-0.004401727304953111,0.0,-0.11873436066984454,-0.08122562558046428,0.0,-0.11405395679589228,-0.1329528688399656,-5.776291058549123e-05,-0.00011001481891546405,-9.169098457485555e-05,-0.00027274464937561714
248.0,-0.010614761582503518,-0.00010382091027252318,-0.0001699912990235571,-0.020672660672660673,-0.01727938727938728,-0.002527526237203656,0.0,-0.056015693112467305,-0.040586629296306714,-0.05293631100082713,-0.054089056105185135,-0.06352542038025909,-2.724498692240628e-05,-5.578964571609732e-05,-0.0001492239387871646,-0.00023727285662898564
249.0,-0.014235018105985847,-0.01797486442647733,-0.00022242215790602886,-0.01899928609606029,-0.008775052323439421,-0.0013970539776991388,0.0,-0.028007846556233652,-0.1252717422072261,-0.026468155500413565,-0.027018680244486695,-0.02842834294447197,-1.362249346120314e-05,-0.00013766313394829522,-0.0001803356970666648,-0.00022883047610918573
250.0,-0.007117509052992924,-0.02621407653665718,-0.000245270567851213,-0.009234961493026009,-0.0045174500013209695,-0.01745870229741197,0.0,-0.014003923278116826,-0.06263587110361304,-0.06685787330948621,-0.014347211927857088,-0.015052043277849727,-5.9178234581460385e-05,-6.922809453261066e-05,-8.734602208021563e-05,-0.00020703098682195453
251.0,-0.0032906355487000646,-0.02982804286601755,-0.00018377871379096367,-0.012711958747075121,-0.0023831065399052332,-0.02557892664466776,-0.052266231114740706,-0.007410291569642325,-0.028770016443556663,-0.033428936654743106,-0.0004706315190186158,-0.2169730925345462,-0.00013167159993670815,-0.00013748132667534054,-4.119765698624009e-05,-0.00020430621010955022
252.0,-0.0016453177743500323,-0.03220769550087639,-0.00029297859024277973,-0.023515593952506977,-0.018485227337820234,-0.012990552555681177,-0.07975691111664979,-0.10787069198665768,-0.015195635040469667,-0.07033826388665099,-0.0006542516623161785,-0.2126384699756484,-6.413298828570368e-05,-0.0002747896871037908,-2.0585524221106093e-05,-9.994832182579832e-05
253.0,-0.0005579773321708805,-0.016101779925789723,-0.00014235364582445024,-0.011228433866245217,-0.025644598780572646,-0.006551107543349274,-0.03987845555832489,-0.05393534599332884,-0.007597817520234833,-0.08645118322537677,-0.10660038885845337,-0.10713344094315919,-0.00013545772656634232,-0.00024116473602501368,-7.465690150255279e-06,-4.79296530551655e-05
254.0,0.0,-0.007490733031770188,-6.68176250046401e-05,-0.0053352282670371684,-0.012884110581129772,-0.020276984482782767,-0.12581184978081672,-0.02738123792635838,-0.0007251153637433752,-0.04322559161268839,-0.053300194429226684,-0.15943934247323385,-6.772886328317116e-05,-0.00011755404015611447,-3.2722170982685476e-07,-0.0001243144268226669
255.0,-0.008579807289484709,-0.02043367820419678,-0.017322893521341868,-0.0026676141335185842,-0.006437865931536818,-0.00959806492677052,-0.06290592489040836,-0.01369061896317919,-0.0003625576818716876,-0.01993705219511671,-0.13387150483924676,-0.08011242364549837,-3.2227963271246244e-05,-0.0001643165089762558,-0.00010529395019299469,-0.0002699632544670519
256.0,-0.004289903644742354,-0.009694176790950982,-0.008659405111018014,-0.01801209543145027,-0.0033471904439646375,-0.004404627630434081,-0.08275595372369565,-0.11311873610260706,-0.0013964530093562352,-0.009968526097558356,-0.06693575241962338,-0.033510172623075846,-1.2923904052936311e-05,-8.015496460528719e-05,-0.00015682109116689757,-0.0003397234155092219
257.0,-0.002144951822371177,-0.004306661080854628,-0.004323418516966904,-0.01693961952026468,-0.0182051282051282,-0.019334160463192723,-0.09263854425144748,-0.15948097601323408,-0.0014991728701406121,-0.0033085194375516956,-0.033454784462848976,-0.22513575134542876,-0.00010985318444995865,-3.4339416927158865e-05,-0.00018220568205987557,-0.0001710350621421589
258.0,-0.0010724759111855886,-0.002153330540427314,-0.03610711868776385,-0.01693961952026468,-0.008639371381306863,-0.026803143093465674,-0.04631927212572374,-0.07974048800661704,-0.0007495864350703061,0.0,-0.013405948889819858,-0.11254202786460851,-5.1695616211745244e-05,-0.00011893295908392678,-0.0002978726838752645,-0.00019089041775428866
259.0,-0.009006047715725135,-0.001142835658964691,-0.018119729732632962,-0.03387923904052936,-0.004714640198511166,-0.013267162944582299,-0.12572373862696443,-0.0406844499586435,-0.0011889991728701406,0.0,-0.006702974444909929,-0.05296249449475256,-2.5847808105872622e-05,-0.00016324899401673593,-0.00014934024599056855,-0.000197612363550428
260.0,-0.022090179509534347,-0.018027854156886413,-0.02658395368072787,-0.02586725683499877,-0.020352089061766478,-0.006842822971855229,-0.06286186931348221,-0.02034222497932175,-0.0010304193771935707,0.0,-0.11203138622493461,-0.027339995081930565,-0.00012190385174256142,-7.917746182907472e-05,-7.223587373974469e-05,-0.00020204058569735982
261.0,-0.027984709275031855,-0.00908009746719424,-0.013358147229114969,2.1473972235262555,-0.010238079270337333,-0.0034834462253817092,-0.02977667493796526,-0.006849669148056244,-0.0008900029061319383,0.0,-0.056015693112467305,-0.014083562470659245,-6.095192587128071e-05,-4.03586730154472e-05,-3.326562090626606e-05,-0.00019871951534661204
262.0,-0.022462164397648268,-0.004606219122348154,-0.006811414392059552,1.0654934835579997,-0.004717881653365523,-0.0014708380837413094,-0.06617038875103391,-0.0005169561621174524,-0.0012462835043480205,-0.10587262200165426,-0.028834976415621577,-0.0012518722196141552,-2.724498692240628e-05,-0.00012394922898084187,-1.3793116491181008e-05,-0.00010012969977421587
263.0,-0.011231082198824134,-0.002303109561174077,-0.0023449131513647637,0.5160718038137393,-0.002555384168287394,-0.01733798314443476,-0.08602150537634409,-0.0006720430107526882,-0.0014502716115619343,-0.10587262200165426,-0.22657629714081323,-0.0022801958285829254,-1.362249346120314e-05,-0.00016248828694699662,-4.3460621912234813e-07,-4.7578571971475185e-05
264.0,-0.005350859544407931,-0.01808910647620325,-0.03511579818031431,0.258829946571882,-0.001265285136252878,-0.008656584624326561,-0.1455748552522746,-0.0011373035566583953,-0.0015264178570630184,-0.10587262200165426,-0.11370171350010058,-0.3191715288489482,-6.81124673060157e-06,-7.800054545860997e-05,-2.0468110790691436e-07,-0.00012429033644065901
265.0,-0.002117452440033085,-0.025488006617038872,-0.06801075268817205,0.12122415219189411,-0.00020264681555004136,-0.004520264681555005,-0.12572373862696443,-0.0013957816377171215,-0.00157671629445823,-0.05293631100082713,-0.05334987593052109,-0.1595585194375517,-5.1695616211745244e-05,-3.978147229114971e-05,-4.796360628618692e-07,-5.9924648469809755e-05
266.0,-0.0005293631100082713,-0.02974772539288668,-0.06801488833746899,-0.006881720430107527,-9.925558312655087e-05,-0.0023242349048800664,-0.11579818031430934,-0.0011114557485525228,-0.10747518610421836,-0.026468155500413565,-0.026674937965260544,-0.07976633581472291,-2.5847808105872622e-05,-1.9865492142266335e-05,-2.2719602977667491e-07,-2.7110008271298593e-05
267.0,0.0,-0.01501128920483759,-0.069923099277938,-0.012103815974783716,-0.00018498647530905594,-0.001293340486888874,-0.05624483043837883,-0.0005428039702233251,-0.05371174524400331,-0.009925558312655087,-0.0137475409652829,-0.040729159680772585,-1.2923904052936311e-05,-0.00011652056915476268,-1.0097601323407774e-07,-1.4806970245679923e-05
268.0,0.0,-0.05839067355196387,-0.05236436188049091,-0.005522544877383587,-0.017092079672724834,-0.00024344443699282408,-0.026468155500413565,-0.10654466501240693,-0.027657154673283706,-0.0033085194375516956,-0.0006573726331790848,-0.12701263608521673,-6.4619520264681555e-06,-5.5016686562493004e-05,-5.048800661703887e-08,-0.0003175519383900029
269.0,0.0,-0.06254521270650303,-0.07613875662262758,-0.011231082198824134,-0.008744551002615519,-0.0003202333847495138,-0.009925558312655087,-0.15911910669975185,-0.014629859387923903,0.0,-0.0003157624125366061,-0.0539814007555943,-3.2309760132340777e-06,-0.0001313034797576733,-2.5244003308519435e-08,-0.0002597314117094762
270.0,0.0,-0.06468658484787518,-0.03667359667359667,-0.022290479064672613,-0.004500480629512887,-0.0003524243846824492,-0.0033085194375516956,-0.07953370554177006,-0.007289081885856079,-0.05293631100082713,-0.10644406813761652,-0.1341040171685333,0.0,-0.0002724089607225091,0.0,-0.0001322512641673932
271.0,0.0,-0.04894999217579863,-0.05141785706301834,2.1486562493014105,-0.0023825810922585115,-0.00030648514519482264,0.0,-0.03975392886683209,-0.00031017369727047146,-0.026468155500413565,-0.05322203406880826,-0.17333819551561486,0.0,-0.0001370122884671272,-0.00010339123242349049,-6.692081818791495e-05
272.0,0.0,-0.09596148257438579,-0.11421154405025372,1.0746071133167907,-0.0011869313482216707,-0.0001488833746898263,0.0,-0.019876964433416047,-0.00015508684863523573,-0.1248295441843829,-0.027469234122459926,-0.19910915878657812,0.0,-0.0002834595444079315,-0.00016067556390137036,-0.00014410339078532622
273.0,0.0,-0.04639058413251961,-0.10751313348087542,0.528833746898263,-0.00019437551695616212,-0.00020264681555004136,0.0,-0.006617038875103391,-0.105924317617866,-0.16828739409384572,-0.01454882301656495,-0.09746090693671337,-5.1695616211745244e-05,-0.00024592881273332885,-0.00018413291842711197,-0.00016696171193526026
274.0,-0.00846980976013234,-0.056081975275523666,-0.06943274540048733,0.2646815550041356,-9.098428453267163e-05,-0.017034739454094294,0.0,0.0,-0.05334987593052109,-0.08414369704692286,-0.007274411508282475,-0.04913109449399771,-2.5847808105872622e-05,-0.0001205286164576487,-0.00019545769163704647,-8.143634810989647e-05
275.0,-0.00423490488006617,-0.08054601748150135,-0.07069970715132004,0.123942503297342,-0.00018085082601211632,-0.026505935215612633,-0.05579773321708806,-0.1124673060156931,-0.027982697337536045,-0.04041758880468558,-0.0007516822032951065,-0.021654175888046853,-1.2923904052936311e-05,-0.00016363377730087405,-9.772884581852324e-05,-0.00015132533655243328
276.0,-0.002117452440033085,-0.09068864149509309,-0.11944414637963023,-0.005522544877383587,-8.628976370911854e-05,-0.013248831958509377,-0.02789886660854403,-0.05623365300784655,-0.013991348668768023,-0.02020879440234279,-0.00037584110164755324,-0.2192508886057273,-6.4619520264681555e-06,-0.0002885741094941095,-4.563344689602754e-05,-0.000283631601278698
277.0,-0.0010587262200165426,-0.0769894708604386,-0.07412558960946056,-0.011231082198824134,-0.00010931527060559318,-0.05750944492879976,-0.013949433304272014,-0.028116826503923276,-0.006995674334384011,-0.006617038875103391,-0.10603329756555563,-0.21239702792122145,-3.2309760132340777e-06,-0.00013867421590324814,-0.0001232062365591398,-0.00024376771287416442
278.0,-0.004612662415847392,-0.050940631714416845,-0.03958653552569436,-0.009434158850247051,-0.004133821291844978,-0.03283388612094206,0.00017105713308244834,-0.03957903391345613,0.13455955936305058,-0.02552062066149449,-0.07851142163616644,-0.13188452787523836,-2.4725063291139258e-05,-9.080595122622074e-05,-8.30845835558208e-05,-0.00019438131903301288
279.0,-0.0020416496529195604,-0.02440952181254341,-0.01925356552959656,-0.004717079425123526,-0.002133081034673523,-0.03289336985947847,-0.052850782434285905,-0.020203081886422027,0.06687913865588427,-0.012760310330747244,-0.14512833281973747,-0.0663429049632602,-1.2362531645569629e-05,-0.00014917286808622865,-0.00014170254818816682,-9.796060161741629e-05
280.0,-0.0010208248264597802,-0.028386103539227242,-0.008571856871162709,-0.01100718836121041,-0.018987203115418714,-0.016023842732703488,-0.02468171205410895,-0.006586937630220603,0.03304451701756724,-0.06217788838246168,-0.07298646370716604,-0.14518921621310352,-6.1812658227848145e-06,-0.00018141135993674987,-7.212848420742255e-05,-4.7650143877583465e-05
281.0,-0.0005104124132298901,-0.012600826790291866,-0.01924184241407598,-0.005503594180605205,-0.02711080585878463,-0.008149555774953894,-0.12244838290877491,-0.11426121075059417,0.014371720874375018,-0.03108894419123084,-0.036923339380464736,-0.0668377842852118,-3.0906329113924072e-06,-8.466378815696054e-05,-0.00014359112382414138,-0.00012527219584284466
282.0,-0.004262419189985014,-0.00924890015849946,-0.013090499781805908,-0.006494328518668536,-0.017592605791980874,-0.0065238914200406945,-0.08626927260045036,-0.08217568652136,-0.017859220708875405,-0.04058955324167833,0.11367874716266695,-0.05534289059623269,-2.6201024730591034e-05,-6.714541657281624e-05,-9.320767217207718e-05,-8.438908062361963e-05
283.0,-0.0020036064916850345,-0.02075164485262662,-0.022997271124059346,-0.0031195611560267955,-0.008668699792682965,-0.0031343426067128744,-0.04335794173101326,-0.0402903238650083,-0.013140512763584291,-0.07111016045097392,0.05723366717055356,-0.02767399736018249,-1.2327854137447415e-05,-3.3193856510172925e-05,-4.622498430980339e-05,-0.00014220852071197316
284.0,-0.00478674948240166,-0.014160768662872454,-0.015283581798588816,-0.009749027889841328,-0.008151636910402693,-0.004855095207409376,-0.0436806251252254,-0.04378815200694583,-0.03021324645623383,-0.059210994203981585,-0.046784324396526356,-0.092748805958834,-2.9477269004207597e-05,-3.6666672175682015e-05,-4.319485807715151e-05,-9.439235828816196e-05
285.0,-0.0033008543583578666,-0.007429886616422383,-0.008603808393569968,-0.00550300489599226,-0.00442314114123371,-0.0033306680229541396,-0.07253155680224403,-0.11866826955186001,-0.021473716792791125,-0.033179081320736305,-0.028695803086581484,-0.13893864725737096,-1.993168661128494e-05,-2.0773258963570337e-05,-0.0001153716246947069,-5.301511684108319e-05
286.0,-0.010120236939311274,-0.03766035273749159,-0.020889497248894166,-0.00275150244799613,-0.018732993233975002,-0.0019257144912123883,-0.03282491818606825,-0.05586639284044614,-0.010669654095320294,-0.016589540660368152,-0.12020708268472995,-0.06985600683794933,-9.96584330564247e-06,-0.00011416863907649152,-0.0001577168297170805,-2.4345928643866657e-05
287.0,-0.004934893063925323,-0.035644570483280166,-0.027391483516483513,-0.0012505258182677504,-0.026179888928276024,-0.0009028004253810709,-0.015629800307219662,-0.0271505376344086,-0.004552168261845681,-0.0075121115443696086,-0.17041572506794278,-0.035379778151955574,-5.5908046980976015e-05,-5.71155217535153e-05,-7.84918280278861e-05,-1.2601955583126554e-05
288.0,-0.0024674465319626613,-0.017306156209382015,-0.013177596596951434,-0.009095072669266216,-0.01322228524164008,-0.0005837409901926033,-0.06075121115443696,-0.014815963606286186,-0.0035167789200047264,-0.002143152546378353,-0.08519526172751979,-0.01766468746307456,-2.7954023490488008e-05,-0.00013193668684863524,-3.9233607562330146e-05,-0.00010730059090157155
289.0,-0.009585253456221198,-0.008667139312300603,-0.006602859506085312,-0.004291622356138485,-0.006491787782110363,-0.05099137421718067,-0.029636358265390524,-0.006668734491315136,-0.0010191421481744061,-0.0003323289613612194,-0.14601057544605933,-0.007193075741462838,-1.3248469809760132e-05,-6.564370554177006e-05,-0.0001222794942691717,-5.332565756823821e-05
290.0,-0.004764267990074442,-0.022728149986214502,-0.021765922249793217,-0.011293079680176454,-0.021640474221119383,-0.025610697546181418,-0.013234077750206782,-0.00031017369727047146,-0.00031017369727047146,-0.05734767025089605,-0.07328715191618418,-0.11573786876206231,-6.4619520264681555e-06,-3.3513057623380205e-05,-0.0001702152247036118,-2.735403363661428e-05
291.0,-0.002117452440033085,-0.010371192663213038,-0.010483217970484522,-0.014339239330750366,-0.010354650066025279,-0.030250388170591905,-0.006617038875103391,-0.00015508684863523573,-0.00015508684863523573,-0.028673835125448025,-0.03333505652054039,-0.16651475411025496,-3.2309760132340777e-06,-1.3927463903762715e-05,-0.00018798869066794362,-1.4468217027266263e-05
292.0,-0.0010587262200165426,-0.004725980388119608,-0.04055815381791612,-0.016097256980109272,-0.022642730885515265,-0.033187642389679736,-0.05910625265463976,-0.0009493830058346187,-0.0009493830058346187,-0.014336917562724013,-0.013346084918665563,-0.19481407177714477,0.0,-8.215698061911984e-06,-0.0002038131444308354,-8.473452622009498e-06
293.0,-0.0005293631100082713,-0.019980194495135075,-0.0379650984143344,-0.0077839469350505005,-0.02893443409453596,-0.03427570705091927,-0.02789886660854403,-0.00043591979075850045,-0.22065097355419935,-0.007168458781362006,-0.11678056934105321,-0.09826725094233582,0.0,-1.7169934478294408e-06,-0.0003169603356562779,-0.00010934750844499975
294.0,0.0,-0.028935270354030967,-0.03800145503252464,-0.0038919734675252502,-0.03334279308413434,-0.01569722963322284,-0.07293560841947938,-0.0006787893884668078,-0.1112471457632748,-0.06303123399897594,-0.05600342421915002,-0.050029436649237154,-4.5006451612903225e-07,-1.295939238389493e-06,-0.0001556992563310339,-5.511119673697465e-05
295.0,0.0,-0.013891918331137346,-0.018489800271464105,-0.0016592483825081448,-0.01616270944063813,-0.007911164274322167,-0.09009159976901912,-0.10800592171559913,-0.05646144468725114,-0.030142438206954333,-0.028406647116324533,-0.021835423940687094,-0.00010495900795978215,-1.4389210691784546e-06,-7.516770327141464e-05,-0.00013430797420054056
296.0,-0.008579807289484709,-0.0241704812479006,-0.060853558879365326,-0.009204814366104689,-0.008280321712579777,-0.020770869990224827,-0.04504579988450956,-0.16125055197635843,-0.02906859414923931,-0.015071219103477166,-0.12145091467672113,-0.007941062134610523,-5.2479503979891074e-05,-1.5248054952313017e-06,-3.426784993791445e-05,-6.794637790131983e-05
297.0,-0.004289903644742354,-0.029938335654464684,-0.029376212743954678,-0.004323418516966904,-0.0035778243262114227,-0.027745940662069694,-0.02077922077922078,-0.19262941722619142,-0.01625073125073125,-0.06333334276882664,-0.061161377129119066,-0.0013550123227542583,-0.00013521969967957064,-1.5739633404665664e-06,-1.4127429764074926e-05,-3.478474954351083e-05
298.0,-0.019304566401340595,-0.014619719426171037,-0.014336507433281626,-0.01074151654796816,-0.0013054042731462086,-0.013387311903440936,-0.01038961038961039,-0.20398123563446144,-0.0020815170008718397,-0.03166667138441332,-0.02755876425231264,-0.0014884962465607627,-0.00011997683769064414,-1.579027027027027e-06,-1.1615838947451851e-06,-0.00011955818077650333
299.0,-0.018232090490155006,-0.0067847235589171065,-0.006640813415006963,-0.00537075827398408,-0.00019689987431922916,-0.006890136890136889,-0.21784666945957268,-0.10323302460399235,-0.10993529138690429,-0.013975616798197444,-0.22824576251995607,-0.00155331808557615,-0.00011234134218005186,-0.00010591857425921941,-9.758769913608624e-07,-6.058332499235724e-05
300.0,-0.009116045245077503,-0.0033923617794585532,-0.003318312027989447,-0.01126518642647675,-0.00016338500209467951,-0.0035100035100035097,-0.1608713866778383,-0.04867086923538537,-0.055360398102333584,-0.007393652554942878,-0.11452872541582218,-0.001182503198632231,-5.289773434934725e-05,-0.00026281081624565493,-4.623666481730998e-07,-0.0001333253700789184
301.0,-0.004289903644742354,-0.01809746777488713,-0.00011242317693930597,-0.005362379555927943,-0.00027391962875833844,-0.0014109909271199594,-0.13337200433974628,-0.021397512324931683,-0.028067580486935327,-0.003696826277471439,-0.053912875485456126,-0.0009917247820473627,-2.6448867174673627e-05,-0.00023477106869881063,-2.311833240865499e-07,-6.744492129782449e-05
302.0,-0.002144951822371177,-0.008490756555272684,-5.4031989515860484e-05,-0.01173112349426976,-0.0002076624215378082,-0.0002160411395939456,-0.12324808789678432,-0.007639666637678126,-0.1275453630181867,-0.00010473397570171764,-0.1400669867030892,-0.11403468015266512,-6.505522206472272e-05,-0.00022869488691894344,-5.338561041256579e-07,-3.542212696126968e-05
303.0,-0.008651474311851636,-0.024851794583991702,-0.004078350134345268,-0.009557678111192817,-0.004061971873109204,-0.0040661612321372725,-0.08637551483498174,-0.025206725236010957,-0.0884979689017575,-0.024803837874440432,-0.14670938517122828,-0.13388302105796,-5.546070241044971e-05,-0.00013889143136039208,-2.4810915952983184e-05,-3.918025625175094e-05
304.0,-0.01252742793826176,-0.02942959252149753,-0.0021694211651606676,-0.0047788390555964086,-0.002092966966277567,-0.002092966966277567,-0.1423574049742352,-0.01339121723650526,-0.04167226009996085,-0.012401918937220216,-0.17252434014235846,-0.06732889196474853,-0.00012988901931131232,-6.737170517457263e-05,-1.360438421154686e-05,-2.1180172490113383e-05
305.0,-0.00626371396913088,-0.014926904082224681,-0.0012968184040562506,-0.011171234266307596,-0.0011150914107833881,-0.0011150914107833881,-0.06950295887589011,-0.007124408166031408,-0.021264929597759205,-0.06274995344855856,-0.087574752208441,-0.034977028119636024,-6.537607836975249e-05,-2.7558761896271634e-05,-7.233760819869763e-06,-0.00011817039820883306
306.0,-0.00313185698456544,-0.006934088931104069,-0.01787298570079817,-0.014165424422638507,-0.000618371975895384,-0.0006854017203444833,-0.03309721971916921,-0.0035492801789627675,-0.011038476797633538,-0.03137497672427928,-0.0437873761042205,-0.017475590155765077,-0.00013742201488659388,-1.1775853615253645e-05,-4.844329090286787e-06,-0.00016502137948317753
307.0,-0.0016396612111767293,-0.003540777184446044,-0.009010225569293094,-0.006799901782684697,-0.00030697653147398454,-0.0003404914036985342,-0.13275339491103338,-0.0026824899726958272,-0.120864308154514,-0.01568748836213964,-0.018358557694178303,-0.006571344096252591,-6.743493408934201e-05,-3.308807055085948e-06,-3.308807055085948e-06,-8.380693720071382e-05
308.0,-0.009036039229587617,-0.0011924120951960103,-0.004444482605331036,-0.020215813057174084,-0.0003605828550592139,-0.0003773402911714887,-0.06560321399031077,-0.0005677615211419895,-0.16594485754339927,-0.06000657171669103,-0.11348249997167363,-0.21428230500534962,-3.294966830253264e-05,-0.00010508564531476771,-0.0001046817412618314,-0.00014654023062105076
309.0,-0.004253338059789673,-6.477511294126406e-05,-0.019377720232337997,-0.010107906528587042,-0.00017822360288113713,-0.00018660232093727455,-0.029493087557603687,-0.10750562407102399,-0.1906131079849595,-0.030003285858345514,-0.05385166645109199,-0.21479475561998762,-1.3231236136377983e-05,-0.0001580572314743733,-0.00015744612988778786,-0.00017918105168597784
310.0,-0.0021266690298948365,-9.278893149860891e-05,-0.009749261491196974,-0.004771142835658965,-8.69023449668611e-05,-9.10917039949298e-05,-0.014746543778801843,-0.16098659405111018,-0.09571168079232595,-0.013234077750206782,-0.02688440591666398,-0.1073559505011118,-6.602131545873481e-06,-7.942427877498844e-05,-7.911872798169571e-05,-0.00029641101410417535
311.0,-0.009643141804432128,-0.00011342421019840374,-0.004403327854940758,-0.002117452440033085,-0.00010838623741849548,-0.03442761539535733,-0.007373271889400922,-0.18774088814411394,-0.155509275670566,-0.006617038875103391,-0.01344220295833199,-0.16092556636911476,-2.8129032258064516e-08,-4.131037985670243e-05,-0.00014425498192130448,-0.00014693996034073452
312.0,-0.013289076514882966,-0.017126368255400513,-0.019337490466522722,-0.0010587262200165426,-0.01699381263897393,-0.017346148475180734,0.0,-0.19971426423039326,-0.07486632990665247,-0.0037220843672456576,-0.007548231338553919,-0.1871193322806226,0.0,-0.00033160856627243714,-7.25032659813305e-05,-7.544730688666171e-05
313.0,-0.023539471281406765,-0.008695175791949986,-0.00980073689751109,-0.008579807289484709,-0.008553596940693714,-0.008729764858797118,-0.05362379555927943,-0.1002760680180035,-0.14177824863308733,-0.05383057802412641,-0.0008586843264262619,-0.1945574586703619,0.0,-0.00026769118838151093,-3.341718453589422e-05,-0.0002451249675056126
314.0,-0.021419104504658504,-0.004497190514020808,-0.0045137331112085665,-0.023439038754606775,-0.0044264010883926725,-0.004514485047444374,-0.026811897779639715,-0.046786546786546784,-0.06799205352851916,-0.026915289012063207,-0.00041625041625041625,-0.2135962448024159,0.0,-0.00013100367279284529,-0.00013029991495180836,-0.00011970777643114247
315.0,-0.01975948596863504,-0.002317203184655009,-0.0023254744832488876,-0.011719519377303388,-0.0022839031513549753,-0.002398647738039465,-0.013405948889819858,-0.020041786170818428,-0.033982935017296864,-0.013457644506031603,-0.00020812520812520813,-0.21992229385503032,-4.315687140963323e-07,-0.00017768814901442768,-0.00017690470137981287,-5.5440286457188215e-05
316.0,-0.03535104587497525,-0.0012905664017116686,-0.0012947020510086082,-0.005859759688651694,-0.0012068866406125527,-0.00019178302276920886,-0.11395056556346879,-0.11475486878712685,-0.014883696247651367,-0.006728822253015802,-0.10735165372262147,-0.32152377784498476,-2.1578435704816615e-07,-9.042952905266838e-05,-0.00029464736535266304,-2.9292811850294988e-05
317.0,-0.01741084138248349,-0.017338428764969136,-0.000245843930448822,-0.020089494423295266,-0.00014110995474710434,-0.0001587856065367641,-0.056975282781734395,-0.054068914956011724,-0.11466359143427868,-0.0033514872224549644,-0.1608975701717637,-0.2655129846010074,-1.0789217852408308e-07,-3.590574204344074e-05,-0.00014731106067467726,-1.54015950371108e-05
318.0,-0.00816918273564895,-0.0086650250234565,-0.00018943521335498126,-0.009776628233851236,-0.0001391629050181568,-0.00014800073091298668,-0.026811897779639715,-0.1401455371848655,-0.05440910804246315,0.0,-0.08131947592840214,-0.130275695920569,-5.5290357931948736e-05,-1.5098717071384362e-05,-7.407431312768129e-05,-0.00022249378235078017
319.0,-0.012362855880310587,-0.004394867174363417,-0.01731668684828207,-0.004289903644742354,-6.490637069514666e-05,-0.0001363550280916609,-0.06702974444909929,-0.17773929561379848,-0.13527540731473564,0.0,-0.04065973796420107,-0.061816718411945984,-2.7645178965974368e-05,-7.944239746113364e-06,-0.0001381187245984241,-0.0002163757480875289
320.0,-0.014591317002182877,-0.0022631358454787993,-0.0261094446637624,-0.002144951822371177,-0.00016606715841546179,-0.017584981011964287,-0.08784424404118801,-0.0901429924588517,-0.06933549652663777,0.0,-0.02075431719941802,-0.02779767706535853,-1.4223636067632624e-05,-1.7094973645095747e-06,-0.00017209321442843037,-0.00010936404075306975
321.0,-0.015071108857186957,-0.0011944083081604302,-0.01318459246175133,-0.009652283200670297,-0.00014796864414279583,-0.008857425570917208,-0.040570634798139035,-0.04169382551304546,-0.03546634482804448,0.0,-0.007444607280060917,-0.11484929936217235,-0.00011184579373553395,-2.031053667592031e-06,-0.00018464385899469275,-0.00016059230106358973
322.0,-0.007535554428593478,-0.0001267832337441845,-0.0067239303013891935,-0.004289903644742354,-0.017457288623881642,-0.004494529820715368,-0.07461468921570788,-0.021695809191157704,-0.015230581626202248,-0.10865874363327672,-0.10987845648548722,-0.163979067249935,-5.5922896867766974e-05,-0.00010752932834637509,-0.00019843398382671817,-8.109964489820944e-05
323.0,-0.01223758697442908,-0.00012956200562312615,-0.003425926082971923,-0.002144951822371177,-0.008858775632969182,-0.002377396231386044,-0.03730734460785394,-0.007312774237646902,-0.11388766864148867,-0.16020199381829262,-0.055325174966516226,-0.18824810235039435,-2.623531056379953e-05,-0.00015795021818023513,-0.00020299864186747036,-3.524740065819861e-05
324.0,-0.008972422688398374,-0.003184434502277759,-0.004296378585359363,-0.004194224090165819,-0.01824832642210367,-0.0043915982332653584,-0.03648885481132592,-0.02006287994961389,-0.07333723540457206,-0.09987206870935442,-0.11403095376837778,-0.11414217691002428,-9.746329524027592e-05,-9.85256114077791e-05,-0.00011778967243447172,-3.415533458454211e-05
325.0,-0.0064816733183990834,-0.0038572038433353807,-0.0038698821667097986,-0.016760964924190536,-0.011579972994781586,-0.004108315182196046,-0.030716064744412304,-0.024161078162452724,-0.05078499188314063,-0.01556762916926871,-0.1480483388948834,0.1654323775415288,-9.994734585728949e-05,-0.00013902055462095158,-0.0001450680570255122,-0.00010712985093951094
326.0,-0.0029727176814031446,-0.002001308551176564,-0.0020055530333497385,-0.008112363484298871,-0.005787891817876758,-0.0020520629115839887,-0.015358032372206152,-0.012548047262619537,-0.02583382062903806,-0.00825132276602753,-0.07447858588187216,0.08561325955878892,-4.71573233782419e-05,-6.992850672949061e-05,-6.970489303859958e-05,-5.0710218148091626e-05
327.0,-0.0014863588407015723,-0.0009985320345016944,-0.0009985320345016944,2.1666350624974817,-0.0025517414241192932,-0.001224998448052705,-0.05960501887611256,-0.006666431520534297,-0.013309318203743557,-0.0007300756444738691,-0.1410647703073727,-0.061424519483057854,-7.594564953997976e-05,-3.2453596627594506e-05,-3.194559438162423e-05,-0.00013088147557681297
328.0,-0.00047849786534665044,-0.0004971981926023774,-0.0004971981926023774,1.0561677300998236,-0.019654412924008838,-0.01906174404313418,-0.02980250943805628,-0.003775107055008642,-0.003775107055008642,0.0029434816153147613,-0.07051946124963342,-0.027390816399924297,-3.8404393484086216e-05,-1.4265284439543658e-05,-1.359233660411644e-05,-0.0001771577796094518
329.0,-0.00014169430208019302,-0.0002304489322092972,-0.0002304489322092972,0.5078538762561873,-0.009554173563581302,-0.00958952486716062,-0.014291538277821064,-0.0012697075337478171,-0.0012697075337478171,-0.061930264315211425,-0.03355327500967222,-0.014061988484921725,-0.00014063587440153245,-7.005974325751178e-06,-6.6695004080375685e-06,-8.844428226450338e-05
330.0,-0.008927637314734088,-0.00011412448158591216,-0.00011412448158591216,0.24545754621583168,-0.004769957252502546,-0.0047876329042922045,-0.06293662745275648,-0.001499818445148807,-0.0019357382359073074,-0.03203914481964973,-0.013931446066789685,-0.12557927948881667,-6.871704181336797e-05,-0.00011052826415527346,-0.00010951775487284197,-4.310974275859917e-05
331.0,-0.014038386212299254,-0.0001295260089088981,-0.0001295260089088981,0.12272877310791584,-0.002384978626251273,-0.0023938164521461022,-0.09130936094470456,-0.001202807773299041,-0.24125246472337675,-0.0164724709605495,-0.24678281045742476,-0.18385964909457195,-9.323936242141049e-05,-5.616303810849227e-05,-5.565778346727653e-05,-0.00013933082275844867
332.0,-0.024178807685119045,-0.00013179274890354832,-0.00013179274890354832,-0.015116551862464368,-0.018479879342451145,-0.0013917134208782458,-0.09760273242040422,-0.10825483916105254,-0.22869860353889826,-0.00823623548027475,-0.12003991800625742,-0.08898418148067516,-4.498321284036591e-05,-0.00013278992290845644,-2.7816105809884596e-05,-6.718520191127294e-05
333.0,-0.012089403842559522,-6.589637445177416e-05,-6.589637445177416e-05,-0.015402544135990655,-0.00873339270283243,-0.000187100285572272,-0.04880136621020211,-0.0541136104775656,-0.11433549266648846,-0.004118117740137375,-0.06001995900312871,-0.04449209074033758,-7.553414706255334e-05,-6.676903499424264e-05,-1.4295612967272227e-05,-3.0928931862443925e-05
334.0,-0.006044701921279761,-3.0466797647723313e-05,-3.0466797647723313e-05,-0.007066036335985402,-0.004428763316708987,-0.00015561710807890773,-0.024400683105101056,-0.13430439635734165,-0.16525320925741682,-5.8438522674146794e-05,-0.24447414436895504,-0.02305289980605548,-0.00013862387801711343,-0.00013933079547720574,-0.00011268493490360322,-1.749506732982336e-05
335.0,-0.01132316958403915,-8.008354431916845e-05,-0.000214143033217367,-0.02041364408087668,-0.019572905871717415,-0.00034374793288205854,-0.010443039896055323,-0.06711133069828722,-0.0825721146548636,-2.9219261337073397e-05,-0.12223707218447752,-0.1152866826955186,-6.931193900855672e-05,-6.664231538939149e-05,-0.00015767081978821846,-0.00011383744183869081
336.0,-0.014412313272233732,-0.0001791094455698963,-0.0002461391900189956,-0.019256755756744126,-0.028027725582787565,-0.00038398178791694613,-0.05991357294936614,-0.033982947013216566,-0.14734276991236778,0.0,-0.05362379555927943,-0.280107789912253,-3.281549732101515e-05,-3.3292620995303505e-05,-7.880687319471699e-05,-0.0001637106002381924
337.0,-0.01524972597000878,-0.00015448978772001308,-0.00018800465994456273,-0.009358164221061633,-0.013473435476772919,-0.00018570685541637,-0.18957136544410075,-0.014883702245611218,-0.17921704896958984,0.0,-0.026811897779639715,-0.14045973911197066,-1.6816898220624875e-05,-1.4191672877207681e-05,-4.0221735717593096e-05,-8.387547607217537e-05
338.0,-0.00762486298500439,-7.724489386000654e-05,-9.400232997228136e-05,-0.012987242540932333,-0.006801625241748972,-0.00015776093107069687,-0.09478568272205037,-0.22193703335992332,-0.09044639629040867,0.0,-0.013405948889819858,-0.07022986955598533,-6.7504482614160035e-06,-7.492031839128613e-06,-2.009791369920402e-05,-0.0002517889306804552
339.0,-0.003812431492502195,-0.016978241967194684,-0.0001131715537371746,-0.03190305055086319,-0.020603019016629264,-0.0004738081185275176,-0.04739284136102519,-0.10803059438720067,-0.042259092358517894,-0.10587262200165426,-0.0008271298593879239,-0.03591588114345516,-5.1797903601774567e-05,-0.00010463376193698775,-7.5582563672886256e-06,-0.00023043348030375867
340.0,-0.0016380967684547004,-0.025872425285407587,-0.0001182134530972822,-0.024107986810500942,-0.027212298210274807,-0.0003643487707492173,-0.023696420680512593,-0.054015297193600334,-0.021553994396576435,-0.053360759218144614,-0.0012624613643289363,-0.23319728526777853,-2.5898951800887283e-05,-5.271862815170116e-05,-9.207245499265873e-07,-0.00021845760492377974
341.0,-0.02627565982404692,-0.013065853218654576,-0.00018874730249942475,-0.011771182976615915,-0.013103139079369977,-0.017402190339372,-0.010080645161290322,-0.026993839493839496,-0.11489458475876133,-0.026680379609072307,-0.0006312306821644681,-0.10952838191802537,-1.3358625460560944e-05,-2.676846363596788e-05,-8.695118350805958e-07,-0.0003156536276852745
