time,linaccel_x,linaccel_y,linaccel_z,gravity_x,gravity_y,gravity_z,gyro_x,gyro_y,gyro_z,euler_x,euler_y,euler_z,quaternion_w,quaternion_y,quaternion_x,quaternion_z
0.0,-0.0004761904761904763,-0.2685714285714284,0.05174603174603172,-0.08999999999999993,-9.799999999999999,-0.24841269841269842,-0.23511904761904762,0.1984126984126984,0.11011904761904762,352.25,-0.5625,91.4295634920635,0.6963471892063492,-0.04101562000000002,-0.7149696992063503,0.04705811000000003
1.0,-0.00037037037037037057,-0.26994708994708977,0.04825396825396824,-0.08999999999999993,-9.799999999999999,-0.2486243386243386,-0.06316137566137567,0.06812169312169311,0.038690476190476185,352.25,-0.5625,91.4348544973545,0.6963375011640215,-0.04101562000000002,-0.7149839080952392,0.04705811000000002
2.0,-0.0011408730158730153,-0.26604875283446705,0.04344812925170067,-0.08999999999999993,-9.799999999999997,-0.24369614512471666,0.013667446145124721,0.006873582766439911,-0.0068558673469387744,352.25,-0.5625,91.4291117488662,0.6964842090702954,-0.041015620000000017,-0.7148618539158167,0.04705811000000003
3.0,-0.002479497354497354,-0.2686640211640211,0.03652976190476191,-0.08999999999999993,-9.799999999999997,-0.24172486772486784,0.07621941137566138,0.023313492063492064,-0.00901951058201058,352.25,-0.5625,91.4002521494709,0.6965428922328049,-0.04101562000000003,-0.7147870944940473,0.04705811000000003
4.0,-0.0007158858166922679,-0.26709549411162303,0.03840149769585255,-0.08999999999999991,-9.8,-0.23930235535074262,0.003614231310803892,0.015312980030721965,-0.01293282770097286,352.25,-0.5625,91.3821784594214,0.6966259990642605,-0.04101069822580648,-0.7147011568519583,0.04706352395161292
5.0,-0.0035453469022017404,-0.2713562467997951,0.04040402585765489,-0.09442396313364046,-9.8,-0.2400889656938045,-0.05994083621351766,-0.039578533026113666,-0.021043346774193547,352.1926523297491,-0.5625,91.39153405817972,0.6965861022561444,-0.04135418317844346,-0.7146969171842996,0.04741883790770609
6.0,-0.0043072356630824375,-0.26894745263696873,0.05386048707117255,-0.09737327188940081,-9.8,-0.2511274321556579,-0.08410188252048131,-0.009084581413210445,-0.018250168010752688,352.15681003584234,-0.5625,91.45394355238734,0.6961953643794805,-0.041594429331157215,-0.7150569762291186,0.047616497179659455
7.0,-0.0037075818013643192,-0.26766994119881726,0.06041871583007119,-0.098847926267281,-9.8,-0.2558862967229901,-0.06349212801232182,-0.008594872652494921,-0.013666455298300382,352.1388888888889,-0.5625,91.47818460381464,0.6960482783187727,-0.041714552407514094,-0.7152035630616356,0.04771532681563614
8.0,-0.0024608800769700873,-0.26823688328956263,0.0601028220644831,-0.0995852534562211,-9.8,-0.2582657290066563,-0.019290041014237813,-0.0012634356985943879,-0.017063043647696678,352.1299283154122,-0.5625,91.49110843093959,0.6959747352884187,-0.04177461394569253,-0.7152776408856563,0.04776474163362448
9.0,-0.0016617940967576766,-0.2676905670349998,0.06794691376377121,-0.09995391705069115,-9.8,-0.2671620170787703,-0.1131840179706985,0.04398733131823662,0.020872561650397234,352.1254480286739,-0.5625,91.54715553408322,0.6955815425540526,-0.04182817283864361,-0.7156460646989743,0.04778927985663074
10.0,-0.0010640371306344255,-0.269174471037114,0.07632327436697883,-0.09999999999999991,-9.8,-0.2742082486827543,-0.11333680194242107,0.02336975372875477,0.009275432337347008,352.125,-0.5625,91.58967799745635,0.6952697108545992,-0.0418522716753382,-0.7159402469552223,0.04779052999999992
11.0,0.0004935830731876516,-0.2692108914325354,0.08216163718348943,-0.09999999999999991,-9.8,-0.2786888657648281,-0.09799904613250085,0.016187565036420395,0.016705688518903916,352.125,-0.5625,91.61773326396116,0.69508548722095,-0.04186218035379813,-0.7161164369497053,0.047782128795698875
12.0,0.00038083053285796324,-0.2674653849871773,0.09399624139244755,-0.09999999999999991,-9.8,-0.28482830385015573,-0.09913220802556535,0.012470680302280752,0.0005831243638514064,352.125,-0.5625,91.65564082552896,0.6948426253846682,-0.04186713469302811,-0.7163542721845295,0.04775482488172042
13.0,0.0007939532476984922,-0.27066557490774057,0.09632954629455884,-0.09999999999999991,-9.8,-0.28173777315296544,0.10658634135662418,0.024331724126166392,-0.015512287974161706,352.125,-0.5625,91.64233654179674,0.6949767684103363,-0.041856400291363186,-0.716219143017343,0.04775794145750951
14.0,0.0033592926636886993,-0.2684134078393814,0.10865000678287726,-0.0999999999999999,-9.8,-0.2902096856779477,-0.09756061299610112,0.032784988138764945,-0.012762916033395043,352.125,-0.5625,91.69967997951869,0.6946828434675518,-0.04183551101927557,-0.7165128308483559,0.04769372992230313
15.0,0.0026731550776944064,-0.2700129490677673,0.10713263598315031,-0.09942652329749095,-9.8,-0.30148989148208705,-0.11145915665413797,0.008199969747825893,-0.007356746241595527,352.125,-0.5625,91.7637224782386,0.6942740476323934,-0.04182481149530086,-0.7169177146663694,0.04764362165598002
16.0,0.0013070076463740851,-0.2692134637811954,0.09804481261523107,-0.0945519713261648,-9.8,-0.29844655864426906,-0.14309516972491845,-0.0031076764164096353,-0.016648803228324644,352.125,-0.5625,91.74348758320531,0.6944386458430782,-0.041817438005714955,-0.7167556179998509,0.047621353446269554
17.0,0.0021831177840543085,-0.2683045108435326,0.08975482301835057,-0.0921146953405017,-9.8,-0.2942232793221343,-0.09213854202798011,-0.01731104339064797,-0.019165226574500767,352.125,-0.5625,91.71549379160265,0.6946658856634743,-0.041812274486728446,-0.7165281662579897,0.04761241785216702
18.0,0.001073348694316437,-0.272237583205325,0.07604806707629286,-0.09089605734767017,-9.8,-0.28802995391705033,-0.006608422939068104,-0.04652297747055811,-0.07057051651305683,352.11290322580646,-0.5625,91.67629528289811,0.694891621629864,-0.041878524379160245,-0.7162983407200456,0.047695041764272875
19.0,0.0009919180282083506,-0.26938160405902334,0.0633885077735884,-0.0902867383512544,-9.799999999999999,-0.2705878485313967,0.06505070869990225,-0.1334314487036261,-0.15001551008355443,352.07007575757575,-0.5625,91.57284193461109,0.6954592340572635,-0.04214964483585856,-0.7157140255825252,0.04799636045691647
20.0,0.0021587854349951123,-0.2703103616813293,0.049760050097751696,-0.08999999999999991,-9.799999999999999,-0.2550238269794721,0.11115438660801565,-0.20708470796676443,-0.15360478525171067,352.0330217497556,-0.5625,91.47327292583088,0.6960076632959127,-0.04241338964015153,-0.7151444809197829,0.04832376853234966
21.0,0.0026674820475223703,-0.27081561818557776,0.0409944403714565,-0.08999999999999991,-9.799999999999999,-0.24662481671554262,0.048423812410707576,-0.11920273317072713,-0.083356508243101,352.0144947458456,-0.5625,91.4185606060606,0.6963013952694278,-0.04255221576765643,-0.7148400512613029,0.048501175891678835
22.0,0.0006406966689224754,-0.267870006673434,0.03683290566959922,-0.08999999999999991,-9.8,-0.2425059567448682,-0.040619242988194595,-0.026855020819234535,-0.032763183557034364,352.00523124389053,-0.5625,91.39173998044964,0.6964438774734234,-0.04262167498060243,-0.7146922664371034,0.04858983342971036
23.0,0.0025784128505902705,-0.2685141364012331,0.030135202834799618,-0.08999999999999991,-9.8,-0.22082203079178886,0.10229622528009624,-0.07425790355477856,-0.02554867847206557,352.00097751710655,-0.5625,91.27834226845063,0.6972108103647361,-0.04260701399987783,-0.7139454482966769,0.048659971304068864
24.0,0.0038130428039702246,-0.26915446650124064,0.0243784894540943,-0.08999999999999991,-9.8,-0.20436995967741933,0.023852357320099257,-0.01782674860421836,-0.0012445719602977683,352.0,-0.5625,91.1959740423387,0.6977630437600807,-0.04257650922379033,-0.7134125922983878,0.04868993151713705
25.0,0.00550620347394541,-0.2695570719602977,0.017288926799007454,-0.08999999999999991,-9.8,-0.1972242555831265,0.04476775744416873,0.07885584677419355,0.022678543734491317,352.00545905707196,-0.5625,91.15972394540944,0.6980175796619104,-0.042524295356389574,-0.7131676627965267,0.04866838891315134
26.0,0.00649379652605459,-0.2695973945409428,0.005838011786600499,-0.08999999999999991,-9.8,-0.1876443858560793,0.10132308467741935,-0.023583863213399503,-0.010116993641439203,352.00474565756826,-0.5625,91.0985111662531,0.6984596701535358,-0.042427565420130244,-0.7127461167208435,0.04861732469851118
27.0,0.005378496503496503,-0.2672204959019474,0.0008030632002406209,-0.08999999999999991,-9.799999999999999,-0.1810558195165049,0.030226279936461382,0.025323171032596438,-0.01216888370366193,352.00237282878413,-0.5625,91.04320719602978,0.6987111725156735,-0.042388060613290895,-0.7124963103203437,0.04861732945580495
28.0,0.004231586961425671,-0.26797516730581233,-0.00225471839987969,-0.08999999999999991,-9.799999999999999,-0.17501631701631692,-0.060334188660801556,0.015607024024362735,-0.012290339029250318,352.00118641439207,-0.5625,91.01870541253102,0.6988289066661029,-0.04236978485049623,-0.7123720315109785,0.04863028263112826
29.0,0.0061654212722761104,-0.26811909730054884,-0.0032712797954733428,-0.08999999999999991,-9.799999999999999,-0.17210617339649592,-0.023420816414768026,0.03311368570945184,-0.02624442509775171,352.00059320719606,-0.5625,91.00386263182382,0.6989159934744903,-0.042361139199441636,-0.7122886672343971,0.04863182011209018
30.0,0.004923600928641251,-0.26812113222798695,-0.005880771110609821,-0.08999999999999991,-9.799999999999999,-0.16554192044514626,-0.06901875845928265,0.025681589076246333,-0.010352267440221068,352.0001260080645,-0.5625,90.96754856156949,0.6991150513030016,-0.0423578462399193,-0.7121157237263791,0.04863840497912198
31.0,0.006234171742236259,-0.26850977517106533,-0.005887190766223025,-0.08999999999999991,-9.799999999999999,-0.16244837957741187,-0.03101120150011279,0.023262146120009024,0.008900663348748027,352.0,-0.5625,90.95074441687345,0.6992047117301294,-0.04235839999999995,-0.7120386285466568,0.048642943107000486
32.0,0.006544899992480638,-0.26838512294157435,-0.009247076847883302,-0.08999999999999991,-9.799999999999999,-0.16095781637717127,0.02986200207722385,0.002499277436273404,0.004664163541431687,352.0,-0.5625,90.9431141439206,0.6992485901588081,-0.04235839999999995,-0.7120013007493786,0.04864441414392055
33.0,0.0060806075644785325,-0.2677040378975861,-0.008761410632378376,-0.08999999999999991,-9.8,-0.160317617866005,-0.033948981126400476,-0.0047371982855853815,-0.0004408226182419728,352.0,-0.5625,90.93929900744416,0.6992700968535972,-0.04235839999999995,-0.7119832782779145,0.04864471707196025
34.0,0.007437326114745471,-0.26927633656665895,-0.010040754943980755,-0.08999999999999991,-9.8,-0.1600000000000001,0.00467563350627867,-0.007145274080757952,-0.015977235130460937,352.0,-0.5625,90.9375,0.6992797899999992,-0.04235839999999995,-0.711975099999999,0.048645019999999956
35.0,0.007627791563275436,-0.2684764267990073,-0.006957816377171218,-0.08999999999999991,-9.8,-0.1600000000000001,-0.030645161290322576,-0.006420595533498759,0.01423697270471464,352.0,-0.5625,90.9375,0.6992797899999992,-0.04235839999999995,-0.711975099999999,0.048645019999999956
36.0,0.005881946010978269,-0.2669877434393562,-0.006512670125573352,-0.08999999999999991,-9.799999999999999,-0.1600000000000001,-0.032126475674862764,-0.03426573426573427,0.03553650650424844,352.0,-0.5625,90.9375,0.6992797899999992,-0.04235839999999995,-0.711975099999999,0.048645019999999956
37.0,0.005099631551244455,-0.26758523197232864,-0.006655086848635238,-0.08999999999999991,-9.799999999999997,-0.1600000000000001,0.024574216106474173,0.0036431310624858992,0.024122114444695086,352.0,-0.5625,90.9375,0.6992797899999992,-0.04235839999999995,-0.7119750999999989,0.048645019999999956
38.0,0.005666741860290247,-0.26829235280848174,-0.005463869463869465,-0.08999999999999991,-9.799999999999997,-0.1600000000000001,0.02170463944657493,0.015204150688021655,0.04147962252800962,352.0,-0.5625,90.9375,0.6992797899999992,-0.04235839999999995,-0.7119750999999988,0.048645019999999956
39.0,0.0067584028874351455,-0.26905556808782616,-0.006541544477028349,-0.08999999999999991,-9.799999999999997,-0.16195503421309876,-0.014756748627716369,0.0033273178434468764,0.0456895255282352,352.0,-0.5625,90.94825268817203,0.6992559228641252,-0.04235028520039097,-0.7119779625610944,0.048645019999999956
40.0,0.005992179863147605,-0.26933040078201353,-0.0028152492668621705,-0.08999999999999991,-9.799999999999997,-0.16613880742913,0.046004398826979466,0.002229960899315738,0.04951735092864125,352.0,-0.5625,90.97513440860214,0.6990793169990226,-0.04235434260019545,-0.7121340383773217,0.048645019999999956
41.0,0.006681329423264908,-0.26707722385141724,0.0017399804496578688,-0.08999999999999991,-9.799999999999997,-0.17245356793743882,-0.0238880742913001,0.011363636363636364,0.022880009775171066,352.0,-0.5625,90.98857526881721,0.6989695380156401,-0.0423563713000977,-0.7122383300488757,0.048645019999999956
42.0,0.004619670651928717,-0.26690044364237897,0.004873223550642906,-0.08999999999999991,-9.799999999999997,-0.1765493646138806,-0.04055286111737724,0.016454714640198514,0.03754417625385367,352.0,-0.5625,90.99529569892474,0.6989041478787875,-0.042357385650048825,-0.7122957266373409,0.048645019999999956
43.0,0.00400827129859388,-0.26760711331679055,0.004462515978645011,-0.08999999999999991,-9.799999999999997,-0.17859726295210154,-0.025408395368072784,0.0029273817580269196,0.034473456650876005,352.0,-0.5625,90.9986559139785,0.6988714528103612,-0.04235789282502439,-0.7123244249315734,0.048645019999999956
44.0,0.0028154748477329117,-0.26935341003082924,-0.0009285660575983163,-0.08999999999999991,-9.799999999999997,-0.17228739002932547,0.02717544552221972,0.0011123956688472818,0.04188848785622979,352.0,-0.5625,90.97800586510263,0.6990935491104592,-0.04233739698924731,-0.7121219893352877,0.048645019999999956
45.0,0.004974810136100459,-0.2679371381306863,-0.002699827054665765,-0.08999999999999991,-9.799999999999997,-0.16598240469208214,0.00996832468606662,0.03478410030829386,0.046887923904052935,352.0,-0.5625,90.95674486803519,0.6993185691544475,-0.04231639397849464,-0.7118885337371224,0.048645019999999956
46.0,0.005028949545078577,-0.2674876306489209,-0.0035566583953680732,-0.08999999999999991,-9.799999999999997,-0.16269794721407632,0.025527295285359804,0.025410745168809687,0.0327609218738251,352.0,-0.5625,90.94611436950147,0.6994317503030301,-0.0423058924731183,-0.7117685620836145,0.048645019999999956
47.0,0.003723513046093691,-0.26668448755545515,-0.005184374765019926,-0.08999999999999991,-9.799999999999997,-0.16102639296187693,0.01606041807654711,-0.0018253252124219854,0.01311470787277239,352.0,-0.5625,90.9407991202346,0.6994886690224826,-0.04230064172043013,-0.711708412170839,0.048645019999999956
48.0,0.005378750281976088,-0.26662222723513035,-0.00821159485675615,-0.08999999999999991,-9.799999999999997,-0.1601906158357772,0.0384558989397699,-0.0017524813895781633,0.01596360628618693,352.0,-0.5625,90.93814149560117,0.699517128382209,-0.042298016344086045,-0.7116783372144513,0.048645019999999956
49.0,0.004248138957816378,-0.2653560418076546,-0.008211594856756148,-0.08999999999999991,-9.799999999999999,-0.1600000000000001,0.009569328520941422,0.015019926310248892,0.015128017144146176,352.0,-0.5625,90.9375,0.6995239299999998,-0.04229736000000003,-0.711670071464019,0.048645019999999956
50.0,0.006623806301225657,-0.26554297315587627,-0.002394089781186555,-0.08999999999999991,-9.799999999999997,-0.16578690127077222,-0.09730383863448379,0.05482696067373487,0.05169232649071359,352.0,-0.5625,90.95656158357771,0.6993191658162263,-0.04231693098729226,-0.7118756387878782,0.04862879040078201
51.0,0.0053727347920896305,-0.26615286863673937,0.0007746447101285815,-0.08999999999999991,-9.799999999999999,-0.1732160312805473,-0.10185305286111737,0.019709658620948943,0.01711923828859313,352.0,-0.5625,90.97928885630499,0.6990750240371452,-0.04233865000977513,-0.7121193032649067,0.048605400684262
52.0,0.007014512369351081,-0.26655432739303686,0.003586735844800362,-0.08999999999999991,-9.799999999999999,-0.1769305962854349,-0.00038254755996691703,0.03213399503722084,0.0274945484622904,352.0,-0.5625,90.99065249266863,0.6989529531476046,-0.04234950952101657,-0.7122411355034208,0.04859370582600199
53.0,0.006174749981201596,-0.26714068726971935,0.004190390254906385,-0.08999999999999991,-9.8,-0.17878787878787866,-0.0185070306038048,-0.003753101736972707,-0.011873073163395741,352.0,-0.5625,90.99633431085044,0.6988919177028343,-0.04235493927663729,-0.7123020516226779,0.04858785839687199
54.0,0.007404992856605763,-0.2670740657192268,0.0038942025716219263,-0.08999999999999991,-9.8,-0.17971652003910055,0.03716397849462366,-0.0028691066997518612,-0.008169787202045264,352.0,-0.5625,90.99917521994135,0.6988613999804492,-0.042357654154447644,-0.7123325096823065,0.048584934682306985
55.0,0.005305210918114144,-0.26781141439205935,0.007612903225806454,-0.08999999999999991,-9.8,-0.17999999999999983,-0.02537220843672456,0.02236352357320099,-0.01293424317617866,352.0,-0.5625,91.01935483870967,0.698833637290322,-0.04235839999999995,-0.7123786276377171,0.04858398000000004
56.0,0.007182382133995039,-0.2676674937965259,0.008988833746898267,-0.08999999999999991,-9.8,-0.17999999999999983,0.024240074441687347,0.0013337468982630267,-0.03694944168734492,352.0,-0.5625,91.04193548387096,0.6988115841290315,-0.04235839999999995,-0.7124229726898265,0.04858398000000004
57.0,0.007970843672456578,-0.26678660049627767,0.008107320099255586,-0.08999999999999991,-9.8,-0.17999999999999983,-0.03381668734491315,-0.013120347394540943,-0.03720921215880893,352.0,-0.5625,91.05322580645162,0.6988005575483863,-0.04235839999999995,-0.7124451452158811,0.04858398000000004
58.0,0.008334057071960301,-0.26673697270471447,0.00906482630272953,-0.08999999999999991,-9.8,-0.17999999999999983,-0.013341346153846155,-0.006443858560794043,-0.00622092121588089,352.0,-0.5625,91.05887096774194,0.6987950442580637,-0.04235839999999995,-0.7124562314789085,0.04858398000000004
59.0,0.008869261786600498,-0.2673697270471461,0.008754497518610422,-0.08999999999999991,-9.8,-0.17999999999999983,-0.031802496898263026,-0.021351581885856077,0.000983832196029778,352.0,-0.5625,91.0616935483871,0.6987922876129025,-0.04235839999999995,-0.7124617746104221,0.04858398000000004
60.0,0.0049445564516129034,-0.2673387096774192,0.018553427419354847,-0.08999999999999991,-9.8,-0.19814516129032256,-0.3002142137096774,0.011718750000000002,-0.0663117439516129,352.0226814516129,-0.5388104838709677,91.17086693548387,0.6980969805645159,-0.04248489830645159,-0.7131185235483872,0.04848209193548385
61.0,0.003360887096774194,-0.2672009925558311,0.03603101736972704,-0.08999999999999991,-9.8,-0.21599069478908203,-0.1785049627791563,0.014114841811414394,-0.03269133839950372,352.04359879032256,-0.5183971774193548,91.2829365694789,0.6974027372351117,-0.042584003098635255,-0.7137767203498762,0.04837552887096769
62.0,0.001297379032258065,-0.2673756978908187,0.04346409739454095,-0.08999999999999991,-9.8,-0.2238017990074444,-0.11105187655086848,0.0064588825992555835,-0.03442782645781638,352.05405745967744,-0.5081905241935484,91.3340086073201,0.6970890566820722,-0.04262870864609185,-0.7140651082394545,0.048322247338709615
63.0,-0.00028396401985111646,-0.26937600806451595,0.046665089950372204,-0.08999999999999991,-9.8,-0.2277073511166256,-0.06703483638337468,0.014163306451612904,-0.0051692385235732,352.0592867943549,-0.5030871975806451,91.35954462624069,0.6969322164055524,-0.04265106141982014,-0.7142093021842436,0.04829560657258057
64.0,0.0003519696029776677,-0.27036592741935467,0.04932800868486352,-0.08999999999999991,-9.8,-0.2296601271712162,-0.04588195952233251,-0.00495211693548387,-0.03849691764888337,352.06190146169354,-0.5005355342741935,91.37231263570098,0.6968537962672925,-0.04266223780668428,-0.7142813991566381,0.04828228618951605
65.0,-0.009687810173697272,-0.2649057071960297,0.058438740694789076,-0.08904714640198505,-9.799602977667494,-0.2430918114143922,-0.5003625155086848,-0.1183370812655087,-0.11789799162531017,352.05852977667496,-0.4970223325062035,91.44379652605458,0.6963608513200993,-0.04277291900248141,-0.7147598126401987,0.048266693037220795
66.0,-0.0015322285761716725,-0.2717162653339391,0.06516145960752104,-0.07963715793520426,-9.796675636948237,-0.3032444692971727,-0.25523468626585816,0.14140113049575365,-0.05893348712779156,351.91330907279905,-0.44807954426309715,91.78225544332994,0.694144833634362,-0.044389033155348985,-0.7167660432829137,0.04892896865627509
67.0,-0.003263297637231947,-0.2712779618889809,0.07519739844702426,-0.07571041957481278,-9.797730607847932,-0.308367965198871,-0.08704459941850784,0.51001100464541,-0.04785928833381988,352.4395174396253,-0.43039650837443283,91.81012677289837,0.69418010275646,-0.041349422108983805,-0.7171229428274148,0.04569921760138236
68.0,-0.0034616736325117554,-0.2702159040214135,0.07818554785874784,-0.07769391946482576,-9.798865303923964,-0.29499043421233867,-0.11070592253803803,0.24105544028796555,-0.05203913548204642,352.76713775207077,-0.4329401896710874,91.75385370902983,0.694721690410488,-0.039202821215782224,-0.7168427612524166,0.043744306703917005
69.0,-0.004976804558191361,-0.26968456491393245,0.07730849973582554,-0.07868566940983227,-9.799432651961983,-0.2883016687190725,-0.04083053183353514,0.131002140506886,-0.05211898810392643,352.93094790829343,-0.4342120303194147,91.72571717709556,0.6949924842375022,-0.03812952076918143,-0.7167026704649178,0.04276685125518434
70.0,-0.0033903873907582117,-0.26928272910709017,0.076294448379079,-0.07921132105727346,-9.79972873292888,-0.28455033808162056,-0.03344256120212737,0.03432085933532886,-0.019887037476280834,353.01297705588365,-0.43494100275275943,91.70950871261726,0.6951427386075848,-0.03758946285605473,-0.7166181613763791,0.04227850218590484
71.0,-0.006960981973434536,-0.27015476755218204,0.07764290796963946,-0.079753320683112,-9.799962049335864,-0.28099620493358624,-0.03871412476280835,0.010884873102466795,-0.011455615512333966,353.0584677419355,-0.4367884250474383,91.6918880455408,0.6952797529316889,-0.03727062471062617,-0.7165203644592024,0.04201344221062624
72.0,-0.0050697115384615386,-0.26831862593052097,0.0785168269230769,-0.08000000000000004,-9.8,-0.2799999999999999,-0.05186782723325062,-0.0067961964950372196,-0.021015721929280397,353.0625,-0.4375,91.6875,0.6953125,-0.037231449999999985,-0.7164916999999993,0.04199219000000004
73.0,-0.00562205334987593,-0.26876868796526043,0.07723976426799006,-0.08000000000000004,-9.8,-0.27612903225806434,0.005410592431761785,-0.03623895006203474,-0.05097220068238213,353.0625,-0.4375,91.63608870967741,0.695511356129032,-0.037231449999999985,-0.7163169606451607,0.042016306693548444
74.0,-0.008824364143920597,-0.27312895471464005,0.06574751861042183,-0.07968238213399509,-9.8,-0.2718709677419353,0.007227047146401985,0.02672679513027295,-0.02761321339950372,353.07540322580644,-0.4375,91.60819633995038,0.6956988383176175,-0.03715148192059553,-0.7161363207940443,0.041946088704094345
75.0,-0.00906646176404241,-0.2658784589066846,0.07146857846454621,-0.07467990074441688,-9.799999999999999,-0.2617028347996089,-0.0047908324874050695,0.03253428359275133,0.054036326157041875,353.089968230694,-0.4375,91.53250115140236,0.6961204363924355,-0.03711175499255584,-0.7157417241018118,0.04181640058371873
76.0,-0.007838478835800697,-0.2673027946916668,0.06728069029149313,-0.07741698455612755,-9.799999999999997,-0.24989811937380535,0.08496108502013955,0.18959405561438242,0.10169228177435627,353.1551941538641,-0.45820293692826186,91.45882098975993,0.6966098087450863,-0.036457397777934136,-0.7153206980306843,0.04144445829619254
77.0,-0.015981825577260703,-0.26777408827497595,0.061676463149606495,-0.07569773958989173,-9.799999999999995,-0.26494905968690263,-0.209230582386539,1.482295304619984,0.11182628977055283,354.05418757872417,-0.4429231530519446,91.54851891781902,0.6963404911467366,-0.031043237150615813,-0.7160772720619372,0.035954766513687675
78.0,-0.01846098287311576,-0.26767076629570613,0.0532053830724991,-0.07907774844317936,-9.8,-0.2607982625623454,0.33225916877216827,-0.6172597857660449,0.16473160926699684,354.8763161395925,-0.4663252478009339,91.524377966494,0.6967428408277845,-0.0256482973080268,-0.7161279364361146,0.030963710785285654
79.0,-0.016543776717585102,-0.2669819426815094,0.04861494093559572,-0.08208848231958489,-9.800000000000002,-0.2498819781833745,0.425575111976773,-1.2163391862777997,0.16131190333766166,355.36378210973476,-0.48007442625581764,91.45559139177037,0.6972938859042225,-0.02239164067902423,-0.7158440631317995,0.028032575811840113
80.0,-0.012565608975093814,-0.2664246165485934,0.04526532086113213,-0.08505601791350467,-9.800000000000004,-0.2357615914284186,0.29449096682486187,-1.061883721752222,0.12871211817257797,355.68406646682104,-0.4889971465636487,91.3663433265699,0.6979117848390914,-0.02020161861959404,-0.7153995149442689,0.0261317856780422
81.0,-0.007550819252432159,-0.2654788786482335,0.04311251920122888,-0.0876868919610855,-9.800000000000004,-0.2199979518689196,0.0477630568356375,-0.5363583269329237,0.0835293458781362,355.91920282898104,-0.4948596710189452,91.26605462749615,0.6985646508177159,-0.018564749809395806,-0.7148721121575784,0.024752809185995903
82.0,-0.00133230926779314,-0.2680067745874197,0.04017353972192682,-0.08909882232462873,-9.8,-0.21386994367639545,0.018378530072078476,-0.3199766631218244,0.03689688447752964,356.0096966205837,-0.49859190988223245,91.2194828469022,0.6988483417798251,-0.01790423344188428,-0.71463699359447,0.02422801205939578
83.0,0.00085517350033479,-0.269359407617472,0.0399946039623459,-0.08967229902713768,-9.8,-0.2111746031746034,0.05158779392650361,-0.09914332978849108,0.01062172594430659,356.0432987711214,-0.4994879672299027,91.19840309779826,0.6989732115504342,-0.017657970868407577,-0.7145298431643623,0.024035784002048102
84.0,0.0021137106620977585,-0.2690081728307534,0.040410768443026504,-0.08991807475678437,-9.8,-0.21010547875064034,0.008608797116861636,-0.01923372326598133,0.012927350427350427,356.0576996927804,-0.49987199180747566,91.18963773681514,0.6990246270005109,-0.017552392260112647,-0.7144860217050688,0.023953363043522753
85.0,0.0019896608767576507,-0.26878019023986754,0.04079197684036393,-0.08999999999999994,-9.8,-0.2098494623655917,-0.01759460297766749,0.009010545905707195,-0.008503928866832093,356.0625,-0.5,91.18702956989247,0.6990393152903214,-0.0175171556344086,-0.7144738647311824,0.02392584563440857
86.0,0.00361848635235732,-0.2710245037220843,0.04398200992555832,-0.08999999999999997,-9.8,-0.21000000000000016,0.042613988833746896,0.0045052729528535975,0.004753411910669973,356.0625,-0.5,91.1875,0.6990356399999994,-0.017517090000000003,-0.7144775399999999,0.023925779999999987
87.0,0.004090768102864877,-0.2723816405368824,0.04108732799458607,-0.09,-9.800000000000002,-0.21000000000000008,0.007062972309948118,0.008381386758402887,0.022997617302052784,356.0625,-0.5,91.1875,0.6990356399999997,-0.017517090000000006,-0.7144775400000001,0.023925779999999994
88.0,0.008107869952628017,-0.2702424782878412,0.04195128863072413,-0.09000000000000001,-9.800000000000004,-0.21000000000000002,-0.015816303152492668,-0.01984353851793368,0.005773284175501917,356.0625,-0.5,91.1875,0.69903564,-0.017517090000000006,-0.7144775400000003,0.02392578
89.0,0.005885404917662982,-0.26873629596210236,0.04377577261448231,-0.09000000000000002,-9.800000000000004,-0.21000000000000002,-0.04574780058651026,-0.00705222197157681,-0.0032934807128355515,356.0625,-0.5,91.1875,0.69903564,-0.017517090000000006,-0.7144775400000003,0.02392578
90.0,0.004325513196480939,-0.27033137829912024,0.04280645161290324,-0.09000000000000002,-9.800000000000004,-0.21000000000000002,-0.04279692082111437,-0.009530791788856305,-0.01589076246334311,356.0625,-0.5,91.1875,0.69903564,-0.017517090000000006,-0.7144775400000003,0.023925780000000008
91.0,0.002082111436950147,-0.2675366568914956,0.04283870967741937,-0.09000000000000002,-9.800000000000004,-0.21000000000000002,0.002895894428152492,0.004912023460410556,-0.011473607038123166,356.0625,-0.5,91.1875,0.69903564,-0.017517090000000006,-0.7144775400000003,0.023925780000000008
92.0,0.002844574780058651,-0.2682404692082111,0.039102639296187694,-0.09000000000000002,-9.800000000000004,-0.21000000000000002,0.019501466275659823,-0.006524926686217009,-0.009310850439882697,356.0625,-0.5,91.1875,0.69903564,-0.017517090000000006,-0.7144775400000003,0.023925780000000008
93.0,0.0017008797653958944,-0.2672727272727273,0.04091495601173022,-0.09000000000000002,-9.800000000000004,-0.21000000000000002,-0.013159824046920822,-0.028922287390029326,-0.013269794721407623,356.0625,-0.5,91.1875,0.69903564,-0.017517090000000006,-0.7144775400000003,0.023925780000000008
94.0,0.0038885630498533726,-0.266099706744868,0.040369501466275666,-0.09000000000000002,-9.800000000000004,-0.21000000000000002,-0.047324046920821115,-0.00810117302052786,0.003225806451612903,356.0625,-0.5,91.1875,0.69903564,-0.017517090000000006,-0.7144775400000003,0.023925780000000008
95.0,0.006592375366568915,-0.26989736070381226,0.03827859237536658,-0.09000000000000002,-9.800000000000004,-0.21000000000000002,0.012170087976539585,-0.003867302052785924,0.028464076246334312,356.0625,-0.5,91.1875,0.69903564,-0.017517090000000006,-0.7144775400000003,0.023925780000000008
96.0,0.006111436950146628,-0.26580645161290317,0.0400293255131965,-0.09000000000000002,-9.800000000000004,-0.21000000000000002,-0.0005865102639296214,-0.005168621700879766,0.03192815249266862,356.0625,-0.5,91.1875,0.69903564,-0.017517090000000006,-0.7144775400000003,0.023925780000000008
97.0,0.002058651026392962,-0.2688563049853372,0.03868035190615837,-0.09000000000000002,-9.800000000000004,-0.21000000000000002,0.010887096774193548,-0.008174486803519062,0.03071847507331378,356.0625,-0.5,91.1875,0.69903564,-0.017517090000000006,-0.7144775400000003,0.023925780000000008
98.0,-0.0031143695014662757,-0.2674222873900292,0.040844574780058665,-0.09000000000000002,-9.800000000000004,-0.21000000000000002,0.01907991202346041,-0.012939882697947214,0.031763196480938415,356.0625,-0.5,91.2100806451613,0.6989537360000001,-0.017517090000000006,-0.7145594440000003,0.023925780000000008
99.0,0.0035073313782991193,-0.26832258064516123,0.049806451612903244,-0.09000000000000002,-9.800000000000004,-0.19686217008797657,0.1252199413489736,-0.024266862170087975,0.05370234604105572,356.0625,-0.5,91.14600439882697,0.6993698518709679,-0.017514225953079186,-0.7141461954604107,0.023934372140762467
100.0,0.008175953079178884,-0.26628739002932555,0.04730791788856306,-0.09000000000000002,-9.800000000000004,-0.18794721407624637,0.046847507331378296,0.020124633431085046,0.020161290322580648,356.0625,-0.5,91.09050586510264,0.6996724149090909,-0.01754716249266863,-0.71385365541349,0.023961580586510267
101.0,0.0016539589442815237,-0.2654604105571847,0.04127859237536659,-0.09000000000000002,-9.800000000000004,-0.18348973607038127,-0.04677419354838709,0.024816715542521996,0.027126099706744865,356.0625,-0.5,91.05982404692082,0.699886701706745,-0.01756363076246335,-0.7136472465043987,0.023975184809384167
102.0,0.006017595307917887,-0.26150733137829907,0.040683284457478014,-0.09000000000000002,-9.800000000000004,-0.18126099706744872,-0.03665689149560117,-0.00031158357771260935,0.0034274193548387098,356.0625,-0.5,91.05914589442816,0.6999431538211145,-0.01757186489736071,-0.7135804118328446,0.023981986920821118
103.0,0.006891495601173019,-0.2658181818181818,0.03700879765395895,-0.09000000000000002,-9.800000000000004,-0.18014662756598243,0.025256598240469205,0.003079178885630498,0.012939882697947214,356.0625,-0.5,91.05810117302053,0.6999644880234606,-0.01757598196480939,-0.7135538848035192,0.023985387976539593
104.0,0.007976539589442815,-0.266516129032258,0.036803519061583585,-0.09000000000000002,-9.800000000000004,-0.18000000000000005,0.053042521994134895,0.007954545454545454,0.025806451612903226,356.0625,-0.5,91.05993401759531,0.6999608717536658,-0.017578130000000008,-0.7135548150557187,0.023986820000000006
105.0,0.006621700879765395,-0.26731378299120223,0.03690909090909092,-0.09,-9.800000000000006,-0.18,-0.006085043988269791,0.016678885630498533,0.03082844574780059,356.0625,-0.5,91.06158357771261,0.6999561103343106,-0.017578130000000004,-0.7135579650498536,0.023986819999999992
106.0,0.006579248708280966,-0.2660413350090769,0.033940045617464984,-0.08999999999999996,-9.800000000000002,-0.1799999999999999,0.010421612437741468,0.018121887073499977,-0.0010086463715495968,356.0625,-0.5,91.0625,0.6999517607096769,-0.017578129999999997,-0.7135614193870965,0.023986819999999985
107.0,0.004934785644463063,-0.26589163524647386,0.033959270120560464,-0.08999999999999994,-9.800000000000002,-0.17999999999999988,0.01797962342317181,0.0008620188055671919,-0.010416957594376948,356.0625,-0.5,91.0625,0.6999511699999993,-0.017578129999999994,-0.7135620099999996,0.02398681999999998
108.0,0.005704929479123029,-0.2675157100963551,0.030372596937113083,-0.08999999999999994,-9.800000000000002,-0.17999999999999988,0.01890550086114602,0.008403883303076851,-0.012026660615370291,356.0625,-0.5,91.0625,0.6999511699999992,-0.01757812999999999,-0.7135620099999995,0.023986819999999978
109.0,0.0055445468509984636,-0.2675975422427034,0.028434587813620085,-0.08999999999999993,-9.800000000000002,-0.1784516129032257,0.06506736431131592,-0.051895321300563235,0.025603238607270866,356.0625,-0.5,91.05174731182797,0.6999889743870962,-0.01757812999999999,-0.7135347096989241,0.023986819999999978
110.0,0.008014076704187759,-0.2673926368008862,0.023346788883013114,-0.08999999999999991,-9.8,-0.17406451612903218,0.018759967851057217,0.022804239799216,-0.00308861734364114,356.0625,-0.5,91.02486559139786,0.7001275844516122,-0.01757812999999999,-0.7134223521075265,0.023986819999999978
111.0,0.006404590505109092,-0.26686613159106787,0.021327689735760234,-0.08999999999999991,-9.8,-0.17187096774193542,-0.003979322682997562,0.003277728970846625,0.013519881242785577,356.0625,-0.5,91.0114247311828,0.7001968894838702,-0.01757812999999999,-0.7133661733118275,0.023986819999999978
112.0,0.006891941454427597,-0.2662579877518293,0.01885366450020756,-0.08999999999999991,-9.8,-0.17077419354838702,-0.008619582430642035,-0.003295231941909327,-0.003846957574930485,356.0625,-0.5,91.00470430107526,0.7002315419999992,-0.01757812999999999,-0.7133380839139782,0.023986819999999978
113.0,0.007003983214206515,-0.26681048884643144,0.018814449315660495,-0.08999999999999991,-9.8,-0.17022580645161284,0.013547583914751825,-0.00502138027896715,-0.008485653605363266,356.0625,-0.5,91.0013440860215,0.7002488682580637,-0.01757812999999999,-0.7133240392150535,0.023986819999999978
114.0,0.00619874019901314,-0.26672244872429085,0.016347700848306442,-0.08999999999999991,-9.8,-0.16999999999999993,-0.032897547008317894,0.005381014929640848,-0.011907317330075384,356.0625,-0.5,91.0,0.700256349999999,-0.01757812999999999,-0.7133178699999997,0.023986819999999978
115.0,0.006537502271113093,-0.267095370232727,0.015324975637150464,-0.08999999999999991,-9.8,-0.16999999999999993,-0.04209972664056951,-0.009599065953124226,0.0016940439026807393,356.0625,-0.5,91.0,0.700256349999999,-0.01757812999999999,-0.7133178699999996,0.023986819999999978
116.0,0.005894240457195713,-0.2669690137588159,0.01398105478750641,-0.08999999999999991,-9.8,-0.16999999999999993,-0.021667451233007944,0.009269238392547445,0.012168520720810002,356.0625,-0.5,91.0,0.700256349999999,-0.01757812999999999,-0.7133178699999996,0.023986819999999978
117.0,0.0070901673190955205,-0.26658854037626134,0.014991823992864584,-0.08999999999999991,-9.8,-0.16999999999999993,0.01649912045983846,0.004797210247262276,-0.000230724443783757,356.0625,-0.5,91.0,0.700256349999999,-0.01757812999999999,-0.7133178699999996,0.023986819999999978
118.0,0.007363031233998979,-0.2661239119303634,0.014152585765488997,-0.08999999999999991,-9.8,-0.16999999999999993,-0.01177675371223758,0.006080389144905274,-0.007584485407066051,356.0625,-0.5,91.0,0.700256349999999,-0.01757812999999999,-0.7133178699999996,0.023986819999999978
119.0,0.006497695852534563,-0.26706733230926766,0.013378136200716853,-0.08999999999999991,-9.8,-0.16999999999999993,-0.03393817204301075,0.0028481822836661543,-0.0066084229390681,356.0625,-0.5,91.0,0.700256349999999,-0.01757812999999999,-0.7133178699999996,0.023986819999999978
120.0,0.006281362007168461,-0.265429467485919,0.013310931899641585,-0.08999999999999991,-9.8,-0.17322580645161278,-0.020185291858678955,-0.007816500256016386,-0.009072580645161291,356.0625,-0.5,91.0,0.7002159881451608,-0.01757812999999999,-0.7133380525806454,0.023986819999999978
121.0,0.006443292370711728,-0.2665562596006143,0.013625512032770105,-0.08999999999999991,-9.8,-0.17677419354838697,-0.01106870839733743,0.0027161738351254476,0.006184395801331286,356.0625,-0.5,91.0,0.7001731652016128,-0.01757812999999999,-0.713359465806452,0.023986819999999978
122.0,0.006475614439324119,-0.2660008640552994,0.012763856886840765,-0.08999999999999991,-9.8,-0.17854838709677406,-0.03763240847414234,0.006398409498207885,-0.002748175883256528,356.0625,-0.5,91.0,0.7001517537298388,-0.01757812999999999,-0.7133701724193554,0.023986819999999978
123.0,0.006421370967741936,-0.2654889112903224,0.010680443548387101,-0.08999999999999991,-9.8,-0.17943548387096758,-0.014679939516129031,-0.0014490927419354835,-0.01020665322580645,356.0625,-0.5,91.0,0.7001410479939518,-0.01757812999999999,-0.713375525725807,0.023986819999999978
124.0,0.006345766129032258,-0.2660030241935482,0.01158770161290323,-0.08999999999999991,-9.8,-0.17987903225806434,-0.04322076612903226,-0.005260836693548387,-0.016097530241935484,356.0625,-0.5,91.0,0.7001356951260083,-0.01757812999999999,-0.7133782023790329,0.023986819999999978
125.0,0.006330179900744418,-0.2659558777915631,0.010740927419354842,-0.08999999999999991,-9.8,-0.17999999999999983,-0.036868990384615385,-0.006797650434243176,-0.023260119416873448,356.0625,-0.5,91.0,0.7001342800000002,-0.01757812999999999,-0.7133789100000006,0.023986819999999978
126.0,0.0076560173697270495,-0.26511251550868475,0.009823588709677422,-0.08999999999999991,-9.8,-0.17999999999999983,-0.027979606079404466,0.008981467121588088,0.0021363213399503717,356.0625,-0.5,91.0,0.7001342800000002,-0.01757812999999999,-0.7133789100000006,0.023986819999999978
127.0,0.009770549007444172,-0.2656938585607939,0.004072580645161291,-0.08999999999999991,-9.8,-0.17217741935483866,0.04948675946029776,-0.025908712003722086,-0.011343633684863522,356.0625,-0.5,90.97681451612902,0.7003685754032261,-0.01755351709677419,-0.7131460871774197,0.024010444516129034
128.0,0.009620657568238215,-0.26623402605459046,0.00012096774193548422,-0.08999999999999991,-9.8,-0.16576612903225807,0.011528283964019854,-0.02037308080024814,-0.02000523418114144,356.0625,-0.5,90.95614919354838,0.7005669392338713,-0.01753431903225806,-0.7129474740725807,0.02403013161290324
129.0,0.008282723325062037,-0.2643610421836228,-0.003396712158808933,-0.08999999999999991,-9.8,-0.15890787841191079,0.03669064050868486,0.006828667803970224,-0.015115151985111663,356.0625,-0.5,90.92249147022332,0.7007843662025433,-0.017524719999999997,-0.7127541488998141,0.02403997516129034
130.0,0.009121510545905712,-0.26399193548387084,-0.005353442928039703,-0.08999999999999991,-9.8,-0.15397006823821358,0.02875164779776675,0.026878974100496278,0.01773708901985112,356.0625,-0.5,90.89672960607939,0.700963354069013,-0.017519920483870965,-0.7125939978370041,0.024044896935483895
131.0,0.008014369031506131,-0.2645842497556206,-0.009157201669298447,-0.08999999999999991,-9.799999999999999,-0.15150116315136497,0.052309501654259724,0.034062329639446574,0.016736411689788705,356.0625,-0.5,90.88384867400742,0.701052848002248,-0.017517520725806448,-0.712513922305599,0.024047357822580672
132.0,0.00810601361004587,-0.26528809261974573,-0.009005089668396124,-0.08999999999999991,-9.799999999999999,-0.1505111662531019,0.015268623345740284,-0.012296727550003762,0.000325256480750432,356.0625,-0.5,90.87813275434243,0.7010902732375146,-0.01751709,-0.712481160253102,0.024047850000000023
133.0,0.00930130084968795,-0.2653942401684336,-0.009528987141890372,-0.08999999999999991,-9.799999999999999,-0.1500942928039704,-0.0028742762613730346,-0.013852545304158208,-0.02270565456049327,356.0625,-0.5,90.87555831265507,0.7011064478511155,-0.01751709,-0.712467348029777,0.024047850000000023
134.0,0.008527257688548014,-0.26453176930596267,-0.00966764418377322,-0.08999999999999991,-9.799999999999999,-0.1500000000000002,-0.06248496127528385,-0.016251221896383186,-0.01215974885329724,356.0625,-0.5,90.875,0.701110839999999,-0.01751709,-0.7124633800000004,0.024047850000000027
135.0,0.008154447702834803,-0.2666529814271748,-0.012426874201067754,-0.08999999999999991,-9.799999999999999,-0.1500000000000002,-0.01616803895029701,-0.01580240995563576,-0.015788311151214377,356.0625,-0.5,90.875,0.701110839999999,-0.01751709,-0.7124633800000003,0.024047850000000023
136.0,0.008808481840739908,-0.26618136702007655,-0.011970824874050686,-0.08999999999999991,-9.799999999999999,-0.1500000000000002,-0.002312203925107151,-0.014513309271373787,0.005245695165050005,356.0625,-0.5,90.875,0.701110839999999,-0.01751709,-0.7124633800000003,0.024047850000000023
137.0,0.007922851342206182,-0.2659318745770357,-0.01227821640724867,-0.08999999999999991,-9.8,-0.1500000000000002,0.010537446424543202,-0.0013478457026844127,0.016782276862922024,356.0625,-0.5,90.875,0.701110839999999,-0.01751709,-0.7124633800000003,0.024047850000000023
138.0,0.008239341303857435,-0.2662909993232573,-0.013285510188736003,-0.08999999999999991,-9.8,-0.1500000000000002,0.007595025941800136,-0.0014183397247913374,-0.0037831791864049915,356.0625,-0.5,90.875,0.701110839999999,-0.01751709,-0.7124633800000003,0.024047850000000023
139.0,0.008914392059553352,-0.26558684863523563,-0.0125347394540943,-0.08999999999999991,-9.8,-0.1500000000000002,0.013740694789081886,0.0030939826302729526,-0.0033731389578163765,356.0625,-0.5,90.875,0.701110839999999,-0.01751709,-0.7124633800000003,0.024047850000000023
140.0,0.009250000000000001,-0.264267369727047,-0.012155707196029781,-0.08999999999999991,-9.8,-0.1500000000000002,-0.017803970223325062,0.006300403225806451,-0.005943703473945409,356.0625,-0.5,90.875,0.701110839999999,-0.01751709,-0.7124633800000003,0.024047850000000023
141.0,0.009312344913151367,-0.26478380893300235,-0.013553039702233257,-0.08999999999999991,-9.8,-0.1500000000000002,-0.0025666873449131516,0.011904854218362283,0.00820215570719603,356.0625,-0.5,90.875,0.701110839999999,-0.01751709,-0.7124633800000003,0.024047850000000023
142.0,0.0092117673992674,-0.2660686542400251,-0.012064518590728273,-0.08999999999999991,-9.8,-0.1500000000000002,0.007064513667336247,0.008869536881129621,0.002130736367127496,356.0625,-0.5,90.875,0.701110839999999,-0.01751709,-0.7124633800000003,0.024047850000000023
143.0,0.009466925883256531,-0.2655889176907321,-0.01136848758320533,-0.08999999999999991,-9.8,-0.1500000000000002,-0.0010660682283666154,0.005977882584485407,0.00953311011904762,356.0625,-0.5,90.875,0.701110839999999,-0.01751709,-0.7124633800000003,0.024047850000000023
144.0,0.009095862135176654,-0.26545826932923694,-0.009366199436763955,-0.08999999999999991,-9.8,-0.1500000000000002,-0.005825372823860727,-0.002161638344854071,0.00027751776113671325,356.0625,-0.5,90.875,0.701110839999999,-0.01751709,-0.7124633800000003,0.024047850000000023
145.0,0.009555491551459296,-0.2643172363031233,-0.008505904377880187,-0.08999999999999991,-9.8,-0.1500000000000002,-0.006252900185611879,0.009530109927035329,-0.04836259520609319,356.0625,-0.5,90.875,0.701110839999999,-0.01751709,-0.7124633800000003,0.024047850000000023
146.0,0.009868471582181263,-0.266427771377368,-0.010142569124423967,-0.08999999999999991,-9.8,-0.1500000000000002,0.04858410938300051,-0.01868819604454685,-0.05276937724014337,356.0625,-0.5,90.875,0.701110839999999,-0.01751709,-0.7124633800000003,0.024047850000000023
147.0,0.00937612007168459,-0.26547195020481296,-0.008504464285714289,-0.08999999999999991,-9.8,-0.1500000000000002,0.013779381880440346,-0.007391973086277523,-0.040673603110599074,356.0625,-0.5,90.875,0.701110839999999,-0.01751709,-0.7124633800000003,0.024047850000000023
148.0,0.008873847926267284,-0.26552019329237053,-0.00964925755248336,-0.08999999999999991,-9.8,-0.1500000000000002,0.013687876024065538,-0.011935763888888888,-0.022124915994623653,356.0625,-0.5,90.875,0.701110839999999,-0.01751709,-0.7124633800000003,0.024047850000000023
149.0,0.009623578489668504,-0.26475557661496774,-0.009864951356886843,-0.08999999999999991,-9.8,-0.1500000000000002,0.01740727535594536,-0.012574159584923113,-0.02080623482483524,356.0625,-0.5,90.875,0.701110839999999,-0.01751709,-0.7124633800000002,0.024047850000000023
150.0,0.01022141546091208,-0.26519396854301885,-0.008903289810547877,-0.08999999999999991,-9.8,-0.1500000000000002,0.0011511543190377092,-0.0020148063669623243,-0.014003347827164165,356.0625,-0.5,90.875,0.701110839999999,-0.01751709,-0.7124633800000002,0.024047850000000023
151.0,0.010517813785243548,-0.2657379052904546,-0.010814132104454689,-0.08999999999999991,-9.8,-0.14795186891961104,0.10033571180813636,-0.024860429777183154,-0.027112961035957915,356.0625,-0.5,90.86322324628776,0.7011738440348174,-0.01751709,-0.7123988757501278,0.024047850000000023
152.0,0.010620914061080556,-0.2662355681086169,-0.015272913466461861,-0.08999999999999991,-9.8,-0.13865335381464416,0.07790723122408866,-0.030236154468724706,-0.017409527112961037,356.0625,-0.5,90.80459549411162,0.7014573613722477,-0.017517090000000003,-0.7121161085202252,0.024047850000000023
153.0,0.009574556818172587,-0.2665818536236133,-0.027176802397320652,-0.08999999999999991,-9.8,-0.1304504209580889,0.1572014457682563,-0.03072668274249192,-0.006012656835420863,356.0625,-0.5,90.75518643029218,0.7018015606543943,-0.017501079508196737,-0.7117707348894093,0.024047850000000023
154.0,0.008471271604005607,-0.26445476903964465,-0.044640628541210245,-0.08999999999999991,-9.8,-0.11204292681288976,0.15917671845752226,-0.05457849630245189,-0.007817733121805042,356.0625,-0.5,90.6630194824272,0.7024462651710267,-0.017477580237969352,-0.7111259921298045,0.02406985315412187
155.0,0.008640108656007395,-0.26288699834801044,-0.05582393979296113,-0.08999999999999991,-9.8,-0.10005372147096098,0.048090601436778575,-0.008182476930771058,0.014981632753634254,356.0625,-0.5,90.60771941863297,0.7028496235532549,-0.017465830602855663,-0.7107236150971605,0.024090356093189963
156.0,0.006938136639369986,-0.2651486018743484,-0.0670514190835236,-0.08999999999999991,-9.8,-0.09031561364189603,0.03145351254886447,0.004080300906576899,-0.0003142733128574382,356.0625,-0.5,90.55505401526025,0.703191350663628,-0.017459955785298818,-0.7103819091604342,0.024100607562724013
157.0,0.006793383269390161,-0.2646311861262134,-0.07500368387405454,-0.08999999999999991,-9.8,-0.08435135520804482,0.0668990377520597,-0.00364891042080104,0.001538146035211933,356.0625,-0.5,90.5234947495656,0.7034013335576209,-0.017457018376520392,-0.7101724063544106,0.024105733297491036
158.0,0.007574375399898679,-0.2633044878277814,-0.07487624701370628,-0.08999999999999991,-9.8,-0.08148027834437144,0.048256499309662845,-0.009260996722827807,-0.001428838140511432,356.0625,-0.5,90.5083430913349,0.7034999987354476,-0.017456050000000035,-0.7100740296393944,0.024108296164874546
159.0,0.007107720214030241,-0.2636619725365225,-0.07496756539113372,-0.08999999999999991,-9.8,-0.08049180327868857,0.01647976015150321,0.0017219081926055542,0.002517787790983403,356.0625,-0.5,90.50287546271815,0.7035345624219996,-0.017456050000000035,-0.7100395930301426,0.024108889999999994
160.0,0.006324411615860073,-0.26222380624744956,-0.07572519788807466,-0.08999999999999991,-9.8,-0.08008461131676366,0.02640130047117304,0.0002593672076451289,0.009518519285710222,356.0625,-0.5,90.50042966684293,0.7035493128239034,-0.017456050000000035,-0.710024874902168,0.024108889999999994
161.0,0.006155075257444716,-0.26299083729407324,-0.07692445391068749,-0.08999999999999991,-9.8,-0.08008324661810617,-0.028232880410427704,0.027473766782205734,0.005023670007741415,356.0625,-0.5,90.5,0.7035507256711766,-0.017456050000000035,-0.710023494328824,0.024108889999999994
162.0,0.005753734711787287,-0.26363976233664566,-0.06664938319140735,-0.08999999999999991,-9.8,-0.09249426027781912,-0.18471316484720385,0.07537592506396347,0.034209089434605884,356.07990911418335,-0.5,90.557859703021,0.7031209592948817,-0.017335044039938574,-0.710453260459343,0.023966380875576045
163.0,0.0070968567794790485,-0.2651726045950811,-0.04375039228317063,-0.08999999999999991,-9.8,-0.11503745271955465,-0.1771083671935649,-0.018011733396098642,0.027251292469814843,356.1034626216078,-0.5,90.69022017409114,0.702324602228086,-0.017175036052227352,-0.7112496176490266,0.023754115437788013
164.0,0.00860219183059974,-0.26461907239482674,-0.030107403002824443,-0.08999999999999991,-9.8,-0.12945421023074505,-0.1866804636787077,-0.001101360809672467,0.01856996267115934,356.11523937532,-0.5,90.76244879672299,0.7018575124850108,-0.01709503205837174,-0.711715230114836,0.023647982718893998
165.0,0.007862650385803352,-0.26515508970737894,-0.009537972693279669,-0.08999999999999991,-9.8,-0.14474695623199785,-0.09288422647635056,-0.05017847196811167,-0.01580531923273859,356.12112775217616,-0.5,90.84859412540864,0.7012940719124805,-0.017071506647051878,-0.7122668062311155,0.023594916359446987
166.0,0.007947974516522904,-0.2668699485997873,0.02649011875221553,-0.08999999999999991,-9.8,-0.18245152182047353,-0.2785245794192367,-0.06224129113494033,-0.02302362735830478,356.1240719406042,-0.5,91.07248254657529,0.6998685907689356,-0.017101348646106573,-0.7136684411254435,0.023539836889400922
167.0,0.008095378411910669,-0.268844758064516,0.05212205334987593,-0.08999999999999991,-9.8,-0.2147671370967743,-0.15482562422456575,-0.04247004885235732,-0.0005932071960297776,356.125,-0.5,91.25242323200992,0.6987534758306452,-0.017124973662531004,-0.7147696802879964,0.023513797500000003
168.0,0.008499414116349602,-0.2695597478238606,0.05730974659301272,-0.08999999999999991,-9.8,-0.21874193548387114,-0.1623399974521446,-0.0010534828075150666,0.02601408028575367,356.125,-0.5,91.29052613213399,0.6985228154051621,-0.01713989570223324,-0.7149943706777122,0.023505184395161298
169.0,0.009007771574303835,-0.2702788658474141,0.058627151522312806,-0.08999999999999991,-9.8,-0.22063104838709696,-0.08414693925026585,-0.014387628500531727,-0.005799663486155425,356.125,-0.5,91.30938857009924,0.6984251383502629,-0.017147356722084353,-0.71508910634188,0.02350087784274195
170.0,0.00856792927055024,-0.2692282903028869,0.060065397416203856,-0.08999999999999991,-9.8,-0.2213229683622831,-0.052857175166902984,-0.009739207924691795,-0.008780823511166254,356.125,-0.5,91.31725631978907,0.6983866090634692,-0.01715057233870966,-0.7151265126151085,0.02349872456653227
171.0,0.009881242861081576,-0.26931676611918526,0.05982100515971483,-0.08999999999999991,-9.8,-0.22072952853598038,-0.046857645043128913,-0.010287950736539445,0.007674860421836228,356.125,-0.5,91.31553970223325,0.6984030884354647,-0.017150879999999986,-0.7151100315494896,0.023498540000000012
172.0,0.00924459165386585,-0.269406522017409,0.05953084997439835,-0.08999999999999991,-9.8,-0.22000000000000022,-0.02227342549923195,0.0037192380312339986,0.002457157258064516,356.125,-0.5,91.3125,0.6984243212698418,-0.017150879999999986,-0.7150888588888884,0.023498540000000012
173.0,0.01141441052227343,-0.26873295890937016,0.06380024321556577,-0.08999999999999991,-9.8,-0.22209677419354856,-0.06233198924731183,0.018924711181515615,0.035678783442140295,356.125,-0.5,91.3125,0.6983859136290327,-0.017150879999999986,-0.7151272684677419,0.023498540000000012
174.0,0.011682507680491554,-0.26967645929339473,0.06548883128520222,-0.08999999999999991,-9.8,-0.2262096774193551,-0.04761004704301075,-0.0027131736431131592,0.033039114503328214,356.125,-0.5,91.3125,0.6983110985887099,-0.017150879999999986,-0.7152020876209682,0.023498540000000012
175.0,0.01256552419354839,-0.26865927419354824,0.06879536290322577,-0.08999999999999991,-9.8,-0.22826612903225835,0.005260836693548387,0.0002835181451612905,0.03184853830645161,356.125,-0.5,91.3125,0.6982736910685485,-0.017150879999999986,-0.7152394971975813,0.023498540000000012
176.0,0.010378024193548389,-0.2675655241935483,0.07835685483870965,-0.08999999999999991,-9.8,-0.23792338709677432,-0.07160408266129033,0.03562878024193548,0.021106350806451613,356.125,-0.5,91.36844758064515,0.6979837751310483,-0.017150879999999986,-0.7155294137600803,0.023498540000000012
177.0,0.008703008684863523,-0.26807568238213386,0.08546138337468981,-0.08999999999999991,-9.8,-0.2444455645161291,-0.01844806529156328,-0.04151044897642679,-0.04450217121588089,356.125,-0.5,91.40498991935485,0.6977950099848789,-0.017150879999999986,-0.7157181796219751,0.023498540000000012
178.0,0.005802264267990074,-0.26859165632754334,0.08840617245657564,-0.08999999999999991,-9.8,-0.2476411290322581,-9.450604838709842e-05,-0.018328842276674938,-0.019383432847394536,356.125,-0.5,91.42326108870967,0.6977018579233869,-0.017150879999999986,-0.7158113319758055,0.023498540000000012
179.0,0.009322503101736976,-0.27001155397022325,0.0875599410669975,-0.08999999999999991,-9.8,-0.24914314516129032,0.005008820564516127,0.013910805676178663,0.006484568858560795,356.125,-0.5,91.4323966733871,0.6976570046068546,-0.017150879999999986,-0.715856185342741,0.023498540000000012
180.0,0.005253489454094294,-0.26955970843672444,0.0840748294044665,-0.08999999999999991,-9.8,-0.24029737903225823,0.09031628024193548,0.08755331110421836,-0.038056858715880895,356.2016129032258,-0.5,91.40672253024195,0.6978644435131043,-0.016738893548387083,-0.7156738471874997,0.023060463548387096
181.0,0.0057189826302729545,-0.26910949131513634,0.08095626550868486,-0.08999999999999991,-9.8,-0.23487903225806475,0.04952116935483871,0.05023456885856079,-0.008112980769230768,356.26008064516134,-0.5,91.39012096774194,0.6979987882661283,-0.016440855806451597,-0.7155584514516129,0.022743966290322576
182.0,0.005121179447792352,-0.26916745194769376,0.07947277610382447,-0.08999999999999991,-9.8,-0.23211693548387125,0.050331451982157625,0.012625900365315688,-0.023840402708850288,356.289314516129,-0.5,91.38155241935483,0.6980673296169346,-0.016291836935483854,-0.7154993845967743,0.022585717661290312
183.0,0.007024609575012801,-0.2688728078597029,0.07714581733230924,-0.08999999999999991,-9.8,-0.2307358870967745,-0.034038678475422426,0.012772317428315413,-0.02514910954301075,356.3039314516129,-0.5,91.37726814516128,0.6981016002923379,-0.016217327499999983,-0.7154698511693551,0.022506593346774184
184.0,0.00838501664106503,-0.26736559139784943,0.06979054659498206,-0.08999999999999991,-9.8,-0.2226720910138252,0.0770529313876088,0.0681453613031234,0.037596906201996926,356.3112399193549,-0.5,91.31675427227341,0.6984097512163171,-0.016151068624551963,-0.7151645660736692,0.022467031189516116
185.0,0.010393625192012292,-0.26738711277521754,0.060799091141833066,-0.08999999999999991,-9.8,-0.21599078341013855,0.09924635176651306,0.04537740415386585,-0.002455157130056323,356.3125,-0.5,91.2812980030722,0.698632149370199,-0.01612831340501792,-0.7149423173476699,0.02246093999999999
186.0,0.01142274912045984,-0.26813351151247866,0.05378046388517252,-0.08999999999999991,-9.8,-0.21250631782369583,0.09690668589886527,0.024533602408618668,-0.011459636642551573,356.3125,-0.5,91.26207199841434,0.6987638116882212,-0.01611981218637993,-0.7148110396415766,0.02246093999999999
187.0,0.01176616206663033,-0.26722471786581425,0.048286801323026596,-0.08999999999999991,-9.8,-0.20705961052475103,0.028988097173702983,0.1583801524587896,0.06399464404431561,356.3125,-0.5,91.22176180565879,0.69898832802153,-0.0160919370609319,-0.7145886683691756,0.02246093999999999
188.0,0.01385255107939811,-0.2647845539533884,0.04529427431742729,-0.08999999999999991,-9.8,-0.20304593429463347,0.08802150434401995,0.07642514927406967,0.023702291140181353,356.3125,-0.5,91.19802247989031,0.6991377603958138,-0.016070124659498204,-0.7144398480862775,0.02246093999999999
189.0,0.02585612705019573,-0.2663093276679384,0.03825901631897991,-0.08999999999999991,-9.8,-0.20585732454619043,-0.05058730210346366,0.23646526280907784,-0.010726299386386536,356.4169546850999,-0.5,91.21972296549559,0.6990718733238671,-0.015369078694316446,-0.7145485271716585,0.02173989373271888
190.0,0.029486531791657097,-0.26692645670412274,0.03266345761094338,-0.08999999999999991,-9.8,-0.2066594925216409,-0.01987428781904231,0.153231592649534,0.01913782820545782,356.53976700410465,-0.5,91.22587153034166,0.6990622362735439,-0.014573024085391954,-0.7145991097390783,0.020931226554355205
191.0,0.029363453200719293,-0.26531806706173866,0.030879075319519562,-0.08999999999999991,-9.8,-0.20317365885187133,-0.03118779427372511,0.06510434991477741,0.012479293915424017,356.6196818891491,-0.5,91.20572647796999,0.6991776025852627,-0.014083074623341135,-0.7145031684179258,0.02043600069653243
192.0,0.029974065310037077,-0.2662786048555652,0.026830790634376392,-0.08999999999999991,-9.8,-0.2015465068452904,0.027823369273105712,0.035932444573332646,0.026292229503322793,356.6596393316713,-0.5,91.196613238985,0.6992303268294253,-0.01383883815844476,-0.7144600956454544,0.020188387767621045
193.0,0.029540556867453382,-0.2674981282778829,0.023039051231166695,-0.08999999999999991,-9.8,-0.20365003819260835,-0.01212539157239009,0.12222391117219761,0.00812992486304951,356.74149007831585,-0.5,91.19216862666096,0.6992359014933727,-0.013311053714336085,-0.7144805330574229,0.01963594841051596
194.0,0.027909452244076365,-0.2658712747991333,0.018658501219699433,-0.08999999999999991,-9.8,-0.2013486634482523,0.03374217430613603,-0.014863487487419176,0.036979068934340935,356.81405341089373,-0.5,91.17022376793298,0.699385889969635,-0.012912202637109576,-0.7143627135966633,0.019237254112348813
195.0,0.0232622227854312,-0.27256311257437127,0.0024895840187288687,-0.08999999999999991,-9.8,-0.18359417761065633,0.44572318942531836,-0.026460109100076002,0.05051597760215405,356.84249693619734,-0.5,91.07009584097253,0.700034659472281,-0.012779132990761482,-0.7137457583839965,0.01912652060263089
196.0,0.019695401308111697,-0.26113263231004835,-0.04359105229533025,-0.08446470313230477,-9.799999999999997,-0.04137165636026039,0.851810436498842,-0.154527333199995,0.055097216884745906,357.1642504550084,-0.48270219728845254,90.2092093276859,0.705395611346706,-0.010976076967564,-0.7084728588600673,0.01726196480575677
197.0,0.01394356616973054,-0.26190386019238426,-0.059029607526472086,-0.07727324207046854,-9.799999999999997,-0.009681739129698573,-0.32372958820964004,-0.0048173214215763704,0.034578293160943505,356.73459853509166,-0.4490975775174657,90.02002663113055,0.7064870902962517,-0.0140166544674258,-0.7072602374491161,0.01994830374999334
198.0,0.0076887884486183874,-0.27386512795069085,-0.0599940664360471,-0.07169192057440477,-9.799999999999997,-0.0771749331744285,-0.042687960230075,0.38373670833053536,0.09026546296635979,356.9049683013148,-0.4169451021227881,90.43325640312287,0.703971770762011,-0.013421321467753844,-0.7098141802475617,0.018823637035380446
199.0,-0.014573460951059602,-0.26906346316124247,-0.048832192672023676,-0.0659692999456464,-9.799999999999997,-0.0832658041032821,0.13404811298651112,0.6100812298462372,0.05883054931999204,357.7690164087219,-0.370237256943747,90.47320261852906,0.7038196482251629,-0.008574811962835726,-0.7101439264367515,0.013506013151802972
200.0,-0.009852014653717205,-0.2660012656308004,-0.04768414549115775,-0.06298464997282323,-9.799999999999997,-0.09071124306546591,0.151397456390849,0.39834258624928354,0.057625080087543384,358.24002695756116,-0.37060249943961543,90.51316300921332,0.703606544057538,-0.005709122179574547,-0.7104450438148935,0.010615291216198468
201.0,-0.009042973421384303,-0.26717392251463656,-0.05850301800259706,-0.061181432045785175,-9.799999999999997,-0.08730167999351796,0.16922262676841143,0.22407932202109984,0.057063391576530655,358.5137548521415,-0.37132567702228547,90.49811626717928,0.7037529992316233,-0.004067428184446548,-0.7103533892083658,0.008971221089855281
202.0,-0.008809276007568229,-0.2623685068357743,-0.06649663174165071,-0.06065267133246264,-9.799999999999997,-0.0815087695879916,-0.06404744021264419,0.11025672487959016,0.04295308482630589,358.59487461743004,-0.372467132014096,90.47593159331181,0.7039498415762153,-0.0035143938621625586,-0.7101883806350502,0.008434765357271893
203.0,-0.011245023424814697,-0.26648511921875295,-0.06694912581357076,-0.06537702691047095,-9.799999999999997,-0.10626911737324453,-0.03572475697268154,0.10943074688330856,0.001117130319869885,358.67612263548506,-0.3872027916738543,90.62296789133542,0.703063326205787,-0.0027578735912544396,-0.7110757596405947,0.007900895274362805
204.0,-0.0020105141274496126,-0.2658326205604431,-0.06323557434948562,-0.06783082844574781,-9.799999999999997,-0.11873465356328258,-0.0061366654738630524,0.4874621066657357,0.007919143188800448,358.872724990763,-0.41116813294232646,90.6899825225178,0.7026082916338867,-0.001374480421568799,-0.7115300785925789,0.006681566215037764
205.0,-0.012765958056280642,-0.2642901471288568,-0.05581742272064852,-0.06906158357771261,-9.799999999999997,-0.11333250978412261,0.08370227442808087,0.2145301383204609,-0.0039018776922002726,359.30175559207817,-0.39308406647116323,90.66389537881473,0.7028205740941997,0.001306528503933343,-0.7113403360538886,0.004045045067312616
206.0,-0.00813948417174224,-0.26624249943604783,-0.04985164298067524,-0.06969208211143693,-9.799999999999997,-0.1067016317016316,0.09452214452214452,0.34171789232273103,-0.057115196631325665,356.56944131137675,-0.407991202346041,90.6370159410482,0.7030267085466575,0.0018156146871945256,-0.7111446101302352,0.0035717182176855404
207.0,-0.012105844564679426,-0.26200239385073276,-0.023725919242048275,-0.06630235917188253,-9.799999999999997,-0.13691295384121566,-0.2564622466283516,0.3547627865634606,-0.15515928562690717,172.6649921355326,-0.3914956011730205,90.81027840719705,0.7019133604490486,0.004684562610700167,-0.7122279465907739,0.0005781304048918499
208.0,-0.01616289295682652,-0.2627203332602521,0.006601044749052336,-0.06625364637911013,-9.799999999999997,-0.17472236157358942,-0.2714948804299253,0.09655654134682144,-0.16714734306070791,80.83631269705732,-0.39183341958484275,91.02550318496819,0.70057248090203,0.006993673658866271,-0.7135287964609609,-0.0017014830061102236
209.0,-0.010718882465632589,-0.26566802615945884,0.022813952292385555,-0.06812682318955507,-9.799999999999997,-0.19881279369002064,-0.2773355954796948,0.17397311025847656,-0.1781849261079061,84.6327407305044,-0.41475835202116035,91.16555611824239,0.6996863141133483,0.00704151732570544,-0.7144075305648497,-0.001568074338365364
210.0,-0.008562915178225723,-0.26644195352637945,0.03751615728763198,-0.06906341159477752,-9.799999999999997,-0.21590267476064323,-0.2685220161021302,-0.21243962353081136,-0.1399919667760374,36.67063525358967,-0.4271372405267092,91.24994617326512,0.6991112333544409,0.007406032474267112,-0.714967923123616,-0.0018530770178179178
211.0,-0.00978732269175216,-0.26695997969574103,0.04964028783247679,-0.06953170579738875,-9.799999999999999,-0.22997724158364527,-0.2801707099083476,0.10619160074681329,-0.05418769893054069,12.813292944487893,-0.4325782732447818,91.32489060862669,0.6986361386004852,0.007799709731757207,-0.7154209661292572,-0.0022053841100819795
212.0,-0.00849019480759972,-0.26875442412808237,0.05316872359847237,-0.06988140417457304,-9.799999999999997,-0.23621153846153867,-0.16364698230130909,0.5032944041288231,-0.017855765690595337,6.814611686495271,-0.41727011880823583,91.35653533801579,0.6984159181639886,0.009271947670404361,-0.715599818086295,-0.0036866511234088287
213.0,-0.012021772341765125,-0.2676529017443797,0.0590734509832969,-0.06999999999999998,-9.799999999999999,-0.23858964019851137,-0.09074600246287175,0.2104356088663383,-0.017525624050961076,4.002729412799526,-0.3958533943187289,91.36816923447279,0.6983116237902486,0.011154232036924549,-0.715664476004723,-0.005594802563455988
214.0,-0.011966184122810272,-0.26829469278915596,0.06397393152105477,-0.06999999999999998,-9.799999999999999,-0.23961740074441706,-0.0940663366634569,0.08149970139994815,0.022473994018740045,1.019329318821525,-0.3844186326432354,91.37298387096773,0.6982661956986871,0.012050326064201311,-0.7156896889460309,-0.0064950247001199085
215.0,-0.013017831515499432,-0.2687974704640568,0.06359242481759934,-0.06999999999999998,-9.8,-0.23998487903225824,-0.034129942525276846,0.005963870551090711,0.006879056562719898,1.0854400936539386,-0.3787012518054887,91.375,0.6982471807128672,0.012485773396864913,-0.7156989168750012,-0.0069321585659408505
216.0,-0.010781674752786938,-0.2681685863486536,0.06325069441872522,-0.06999999999999998,-9.8,-0.2400000000000002,-0.006604847968593754,0.002566108662642127,-0.009904725750898114,1.1175058331172918,-0.3758425613866153,91.375,0.6982434241165143,0.012697694097625995,-0.7156982400000012,-0.007144986407466396
217.0,-0.011076923076923083,-0.26972704714640183,0.06404590570719602,-0.06999999999999998,-9.8,-0.2400000000000002,-0.011840880893300248,-0.018509615384615385,-0.004109801488833747,1.1264888337468981,-0.375,91.375,0.69824219,0.012761257022332486,-0.7156982400000012,-0.0072079353895781705
218.0,-0.014683530239620757,-0.2686110144068736,0.055641633643198386,-0.06999999999999998,-9.799999999999999,-0.23530091478093423,0.14086324349098178,-0.1816984208918188,0.028152545276100886,1.1086302359171882,-0.375,91.35092681752528,0.6984039313577273,0.01258144234472796,-0.7155473128550802,-0.007047459735194997
219.0,-0.010964593903929488,-0.2670201474019479,0.042925035183882077,-0.06999999999999998,-9.799999999999999,-0.21811695863116176,0.04975854482241397,-0.05302352806377541,0.06430890291100329,0.931207177511944,-0.375,91.26966316062368,0.6989879950312212,0.011459702723232464,-0.7150043668990039,-0.0059306344259101515
220.0,-0.0031020147401948097,-0.2669047627865634,0.03400812701381432,-0.06999999999999998,-9.799999999999997,-0.20841331802525817,0.10307869095126107,0.29359744488630046,0.06459862018999296,0.9332552498055626,-0.375,91.22555738676346,0.6993100159628906,0.01144413266879004,-0.7146850588274507,-0.005935879974149103
221.0,-0.011888698566719752,-0.26579588718936326,0.02901043364134663,-0.07454501685122775,-9.799999999999997,-0.2074902411021815,0.02102103133911707,0.06426682547637125,0.0495537636337543,1.2207501574015776,-0.4043692826191623,91.20254157253434,0.6993816937373435,0.013428027333432098,-0.714562079071886,-0.007650896315914222
222.0,-0.004333617273434318,-0.2681159957038627,0.02902766564201327,-0.07743379874819453,-9.799999999999997,-0.20984933891337376,-0.02492222510277397,-0.04263129143365062,0.02375282396948261,1.334165401281434,-0.42194270582571014,91.21184770934408,0.6993363279331873,0.014194758989296702,-0.7145941427021965,-0.008249450959445948
223.0,-0.003082793229880375,-0.2678085996814932,0.03737252323988,-0.07887818969667793,-9.799999999999999,-0.21474893522462152,-0.0770148559312618,-0.009835746824191702,0.008423414873523204,1.39138457834895,-0.4307294174289841,91.26191807710825,0.699099223904003,0.014583590681456256,-0.7148043891147002,-0.008549684873078778
224.0,-0.0038044239102255476,-0.26643531721047353,0.039539859634828346,-0.07960038517091964,-9.799999999999999,-0.2176623088033779,-0.021928643846524196,-0.012532637680085926,0.010554759545942743,1.447615366097552,-0.4351227732306211,91.28911660679233,0.6989649471083288,0.01497656097100108,-0.71492412114544,-0.00889948852338803
225.0,-0.0014931900670345543,-0.2671565497574163,0.04380281748824118,-0.07996148290804048,-9.8,-0.21915373504685035,-0.04666739773526906,0.0200016897522314,-0.0021822976463834673,1.4505620162216215,-0.43731945113143955,91.30282443242842,0.6988968715512753,0.0151472795827562,-0.7149854820074824,-0.009047085349801861
226.0,-0.003322425558312655,-0.26648511166253086,0.04399457196029777,-0.08000000000000004,-9.8,-0.2197766749379655,-0.032466462468982625,-0.042869882133995035,-0.0071621045285359805,1.4430831265508686,-0.4375,91.30970843672456,0.6988656254193544,0.015095089704714633,-0.7150150163672468,-0.008992062028535974
227.0,-0.0016252326302729529,-0.2682351116625309,0.02933351426799008,-0.08000000000000004,-9.8,-0.22362903225806474,-0.06753596076302729,0.0640721929280397,0.004010448976426799,1.4402915632754343,-0.4375,91.32459677419354,0.6987339140322577,0.015046501303970226,-0.7151499126612905,-0.008943107988213392
228.0,-0.00204528535980149,-0.26653753101736966,0.007893610421836228,-0.08000000000000004,-9.8,-0.1937847394540944,0.31103442928039704,0.008522022332506204,0.020446262406947892,1.434925558312655,-0.4375,91.14137717121588,0.6997935356612903,0.015014127927419357,-0.714122969437345,-0.008944598495347391
229.0,-0.008253411910669976,-0.26461616004962774,-0.012680986352357326,-0.08000000000000004,-9.8,-0.15774100496277918,0.09943781017369725,-0.13350263647642677,-0.018809126861042184,1.3317928039702234,-0.4375,90.92321650124069,0.7011564548033499,0.014414077832196032,-0.7128015910462158,-0.008375989148418108
230.0,-0.004935638957816377,-0.26369021401985104,-0.026479450992555838,-0.08000000000000004,-9.8,-0.1475801799007444,0.0899639423076923,-0.1060968517369727,0.003203997363523574,1.2233560794044664,-0.4375,90.85979373449132,0.7016110986919974,0.01373726891361664,-0.7123706229424631,-0.0077449808173852335
231.0,-0.0050383839950372215,-0.2636873449131513,-0.04523317307692308,-0.08000000000000004,-9.8,-0.1449191222084368,-0.038876395781637714,-0.03367468594913151,-0.014353772487593052,1.1978675558312655,-0.4375,90.84874767369726,0.7016715597492252,0.013454417385235732,-0.7123229861486509,-0.007500529393067615
232.0,-0.0035700992555831265,-0.2627307692307691,-0.05302233250620346,-0.08000000000000004,-9.8,-0.14621712158808947,0.014962003722084366,-0.023468517369727045,-0.016485732009925556,1.1886515198511165,-0.4375,90.85443936104218,0.701588843387718,0.01332129802729528,-0.7124109950980146,-0.007387102365384612
233.0,-0.0052937344913151375,-0.26346339950372205,-0.05261290322580644,-0.08000000000000004,-9.8,-0.14785545905707215,0.009365307071960299,-0.08761825372208437,-0.022929590570719603,1.1655183777915632,-0.4375,90.86319982940446,0.701512518500311,0.013219058887096772,-0.7124890142462774,-0.007276420265818858
234.0,-0.0051183312655086865,-0.2634339330024813,-0.05288461538461536,-0.08000000000000004,-9.8,-0.14933467741935502,0.03570002326302729,0.030477473635235716,0.006308157568238215,1.1434601814516128,-0.4375,90.8715347782258,0.701448321421372,0.013158950776054591,-0.7125532709072575,-0.007225957170130276
235.0,-0.005034351736972705,-0.2631214330024813,-0.056078784119106675,-0.08000000000000004,-9.8,-0.14982862903225824,0.004528051333746896,0.023489357165012402,-0.00025783188585607863,1.1342300907258063,-0.4375,90.87427545362902,0.7014233108719768,0.013140679737903227,-0.7125782204536284,-0.007214477684320724
236.0,-0.00431829113986372,-0.26166408311670397,-0.05942204054905665,-0.08000000000000004,-9.8,-0.1500000000000002,-0.012002637399562805,0.007609163909567134,0.004983411246012053,1.1287172379032255,-0.4375,90.875,0.701416020000001,0.01312988173387097,-0.7125854499999993,-0.007206591087624075
237.0,-0.004829916499271339,-0.2632570367580447,-0.07120575593761078,-0.07786994367639533,-9.8,-0.1500000000000002,0.02676902860244594,0.31217431761786596,0.009943682549529324,1.2251849118343574,-0.4375,90.875,0.7014435214848955,0.013709289251472096,-0.7125449464055291,-0.007782938610888328
238.0,-0.004679903206112885,-0.26180624975383027,-0.07295846872661388,-0.073773681515617,-9.8,-0.1500000000000002,0.022719361731458505,-0.014073731488045998,0.024870114764267988,1.3820404505888377,-0.4375,90.875,0.7014927746134153,0.014613155104966712,-0.7124706898156674,-0.00867031024010399
239.0,-0.005078165002560165,-0.261493695596518,-0.07587501600102406,-0.07172555043522785,-9.8,-0.1500000000000002,0.013468862007168458,-0.05307439676139273,0.01341985887096774,1.4470686123911929,-0.4375,90.875,0.7015174011776752,0.014970427875063993,-0.7124335615207367,-0.009007386804915524
240.0,-0.0036898361495135692,-0.26152073732718883,-0.07754544290834611,-0.07070148489503326,-9.8,-0.1500000000000002,0.027593766001024065,0.010620679723502304,0.014484927035330261,1.4795826932923706,-0.4375,90.875,0.7015297144598052,0.015149064260112635,-0.7124149973732712,-0.00917583420890938
241.0,-0.003721518177163338,-0.26261008704557076,-0.07961629544290832,-0.07018945212493598,-9.8,-0.1500000000000002,0.01684507808499744,-0.023811523937531998,0.034820228494623656,1.4958397337429594,-0.4375,90.875,0.7015358711008702,0.015238382452636956,-0.7124057152995384,-0.009260057910906309
242.0,-0.0030051523297491035,-0.26245711725550425,-0.07960845494111622,-0.06999999999999998,-9.8,-0.1500000000000002,0.02733574948796723,-0.005153329813108037,0.011041706669226829,1.5008640552995391,-0.4375,90.875,0.7015380899999998,0.015264759134664605,-0.7124023399999992,-0.009284027982590898
243.0,-0.004758196137456022,-0.2628858104983234,-0.07807008809854153,-0.06999999999999998,-9.8,-0.1500000000000002,0.030533470271129612,0.022066460640577774,-0.0075741782957980276,1.5,-0.4375,90.875,0.7015380899999998,0.015258789999999986,-0.7124023399999994,-0.009277340000000012
244.0,-0.0044209487471714316,-0.2633070245527971,-0.07366074009381762,-0.06999999999999998,-9.8,-0.1500000000000002,0.02848508110970715,-0.007053677241795085,-0.00281027663189799,1.5,-0.4375,90.875,0.7015380899999998,0.015258789999999986,-0.7124023399999994,-0.009277340000000012
245.0,-0.005121380671588789,-0.264003742691145,-0.06915243865929999,-0.06999999999999998,-9.8,-0.1500000000000002,0.03049958100544241,-0.13219107313190623,0.0034751740240407647,1.4902713773681517,-0.4375,90.875,0.7015380899999998,0.015236788648233478,-0.7124023399999992,-0.009256838863287261
246.0,-0.0036656591183126044,-0.2637753332342301,-0.06398625770113801,-0.06999999999999998,-9.8,-0.1500000000000002,0.028178319541482914,-0.000665849065953128,-0.014737459326429149,1.4628776241679469,-0.4375,90.875,0.7015380899999998,0.015184785453148995,-0.7124023399999994,-0.009204085560675888
247.0,-0.005041045207538444,-0.2639304296120112,-0.06758617841864459,-0.06999999999999998,-9.8,-0.1500000000000002,0.05977105115372545,0.037136312207852275,-0.023826040995655978,1.4512619130204978,-0.4375,90.875,0.7015380899999998,0.0151618323467618,-0.7124023399999995,-0.009182789949952926
248.0,-0.005775399302974747,-0.2640432419932939,-0.06737822704524056,-0.06999999999999998,-9.8,-0.1500000000000002,0.051878416992881086,-0.01685165915134697,-0.0028182448838015954,1.475630956510249,-0.4375,90.875,0.7015380899999998,0.015210311173380894,-0.7124023399999994,-0.00926156949110549
249.0,-0.005196967444626135,-0.2632735411195347,-0.06902449498703397,-0.06999999999999998,-9.8,-0.1500000000000002,0.037811968353071365,-0.02420283930429612,-0.0045133211106155955,1.4878154782551243,-0.4375,90.875,0.7015380899999998,0.015234550586690439,-0.7124023399999992,-0.009300959261681771
250.0,-0.004964075120162529,-0.2639383578613546,-0.0676254067357085,-0.06999999999999998,-9.8,-0.1500000000000002,0.0060891639000379884,-0.002484804188758403,-0.010097162347422492,1.4942117585848074,-0.4375,90.875,0.7015380899999998,0.015247357835587916,-0.7124023399999992,-0.009321294807492185
251.0,-0.004166047272186711,-0.26502510612292085,-0.06742521843978658,-0.06999999999999998,-9.8,-0.1500000000000002,0.004686235402936756,0.010566353665989462,-0.014289430652594023,1.4981139438085327,-0.4375,90.875,0.7015380899999998,0.015255042788761693,-0.7124023399999992,-0.009332790790842864
252.0,-0.004930875576036867,-0.2641679467485918,-0.06385560675883253,-0.06999999999999998,-9.8,-0.1500000000000002,-0.002688172043010752,0.0015360983102918578,0.0005440348182283667,1.5,-0.4375,90.875,0.7015380899999998,0.015258789999999986,-0.7124023399999992,-0.00933837999999999
253.0,-0.005309779825908859,-0.26341013824884785,-0.06090629800307218,-0.06999999999999998,-9.8,-0.1500000000000002,-0.03533026113671275,0.01875320020481311,-0.00819252432155658,1.5,-0.4375,90.875,0.7015380899999998,0.015258789999999986,-0.7124023399999992,-0.00933837999999999
254.0,-0.0034818228366615468,-0.26592421915002545,-0.06069124423963133,-0.06999999999999998,-9.8,-0.1500000000000002,-0.057475678443420386,0.07491679467485919,-0.016289042498719916,1.5,-0.4375,90.875,0.7015380899999998,0.0152622899283154,-0.7124023399999992,-0.009341879928315405
255.0,-0.005743190790017014,-0.2646360438035775,-0.06457459987116593,-0.06999999999999998,-9.8,-0.1500000000000002,-0.03563789372842443,0.1345768709842591,-0.03287849132021869,1.5260145681581685,-0.4375,90.875,0.7015197983870965,0.015463269953751866,-0.7124201234755458,-0.00954285995375187
256.0,-0.0030636076837949893,-0.2636134648101348,-0.06381315759047287,-0.06999999999999998,-9.8,-0.1500000000000002,-0.06447793303932742,0.050983391969344094,-0.007430669111210214,1.5452653485952133,-0.4375,90.875,0.7014029364516128,0.015613045460746891,-0.7125372394797078,-0.009692635460746899
257.0,-0.003021323687296632,-0.26341790132633,-0.06364451712006342,-0.06999999999999998,-9.8,-0.1500000000000002,-0.0435733693407991,-0.011889277042762998,-0.012264010703136614,1.5548907388137356,-0.4375,90.875,0.701344505483871,0.015687933214244405,-0.7125957974817889,-0.009767523214244412
258.0,-0.00208446888987992,-0.2648287993657399,-0.06093470756321953,-0.06999999999999998,-9.8,-0.1500000000000002,-0.04468002081165452,-0.032487240473712896,-0.020964438498257437,1.5597034339229967,-0.4375,90.875,0.7013152899999999,0.01572537709099316,-0.7126250764828295,-0.009804967090993169
259.0,-0.0031441289661893195,-0.26310052359480024,-0.0597991510166328,-0.06999999999999998,-9.8,-0.1500000000000002,-0.02622825925375353,0.01961467469401913,-0.02289901392398791,1.5621097814776275,-0.4375,90.875,0.7013006822580645,0.01574398965660768,-0.7126397159833497,-0.00982357965660769
260.0,-0.0046396775845267,-0.2639533885007349,-0.05755231818707364,-0.06999999999999998,-9.8,-0.1500000000000002,-0.028759518028508662,-0.11765707844011694,-0.005548742216276034,1.5625,-0.4375,90.875,0.70129395,0.01574706999999998,-0.712646479999999,-0.00982665999999999
261.0,-0.0037273508085162617,-0.2643473233899871,-0.054063145202583276,-0.06999999999999998,-9.8,-0.1500000000000002,-0.0019975471978593735,-0.005783079794526205,-0.0014855144277620864,1.5625,-0.4375,90.875,0.70129395,0.01574706999999998,-0.7126464799999991,-0.00982665999999999
262.0,-0.0038623788051467553,-0.2639239879094195,-0.05714079249459061,-0.06999999999999998,-9.8,-0.1500000000000002,0.014207877046066431,-0.017081867433064103,0.0036136506284789325,1.5625,-0.4375,90.875,0.70129395,0.01574706999999998,-0.712646479999999,-0.00982665999999999
263.0,-0.004410377748046843,-0.2647663644021602,-0.05730868969162412,-0.06999999999999998,-9.8,-0.1500000000000002,0.018940567034999918,-0.012768301042234444,-0.017882950960474372,1.5625,-0.4375,90.875,0.70129395,0.01574706999999998,-0.712646479999999,-0.00982665999999999
264.0,-0.0051698586128867095,-0.26579844077762893,-0.058101349454106985,-0.06999999999999998,-9.8,-0.1500000000000002,-0.02313980352807096,-0.014736685083329204,-0.01673397420015526,1.5625,-0.4375,90.875,0.70129395,0.01574706999999998,-0.712646479999999,-0.00982665999999999
265.0,-0.004451288753447963,-0.2651982475265512,-0.05649819136811852,-0.06999999999999998,-9.8,-0.1500000000000002,-0.015170132178782023,-0.0024560281535437618,-0.005966833490246602,1.5625,-0.4375,90.875,0.70129395,0.01574706999999998,-0.712646479999999,-0.00982665999999999
266.0,-0.003633032514080901,-0.2645398105478749,-0.0591205837173579,-0.06999999999999998,-9.8,-0.1500000000000002,-0.03413618471582181,0.003682235663082437,0.012088773681515617,1.5625,-0.4375,90.875,0.70129395,0.01574706999999998,-0.712646479999999,-0.00982665999999999
267.0,-0.0041283442140296975,-0.26434363799283145,-0.06193100358422938,-0.06999999999999998,-9.8,-0.1500000000000002,-0.01906822036610343,0.007953509024577572,0.006428411418330774,1.5625,-0.4375,90.875,0.70129395,0.01574706999999998,-0.712646479999999,-0.00982665999999999
268.0,-0.003921530977982592,-0.26345206093189955,-0.06818324372759854,-0.06999999999999998,-9.8,-0.1500000000000002,0.010784690220174092,0.06764232910906298,-0.009260592677931386,1.5625,-0.4375,90.875,0.70129395,0.015756915161290314,-0.712646479999999,-0.00983650516129032
269.0,-0.00448638682106424,-0.26376242417976276,-0.06966785566583951,-0.06999999999999998,-9.8,-0.1500000000000002,0.04314097640710544,0.002283392290952771,-0.010329614941510103,1.5625,-0.4375,90.875,0.70129395,0.015783497096774197,-0.712646479999999,-0.0098630870967742
270.0,-0.003041964531883886,-0.265247827553271,-0.0717193721377189,-0.06999999999999998,-9.799999999999999,-0.1500000000000002,0.012412083883858076,0.0025759697571693537,0.0319008374577931,1.5625,-0.4375,90.875,0.70129395,0.015796788064516138,-0.712646479999999,-0.009876378064516139
271.0,-0.0037783488912521168,-0.26343435887589106,-0.07250697980335077,-0.06999999999999998,-9.799999999999999,-0.1500000000000002,-0.0068706872764332455,0.006046000930073511,0.02589972471524891,1.5625,-0.4375,90.875,0.70129395,0.01580343354838711,-0.712646479999999,-0.009883023548387108
272.0,-0.004832299421009099,-0.2639533447063688,-0.06395592008797653,-0.06999999999999998,-9.799999999999999,-0.15389081885856093,-0.011327787216144072,-0.03784779988157004,0.025837087140010526,1.5625,-0.4375,90.88839950372208,0.7012105899205954,0.01572921004714642,-0.7127293553945401,-0.00980831536228289
273.0,-0.004817204301075269,-0.2647923904052935,-0.050478231445973375,-0.06999999999999998,-9.8,-0.1622679900744417,-0.02963474697345665,-0.03083408526956914,-0.010989548086322277,1.5307382133995038,-0.4375,90.91395781637718,0.7010317538312651,0.015585166952853599,-0.7129084338263021,-0.009660152446650132
274.0,-0.004788254755996692,-0.2646319272125722,-0.04593390480487254,-0.06999999999999998,-9.8,-0.16645657568238212,-0.032838465298142716,0.03966980600045117,-0.011760282728024662,1.5143610421836229,-0.4375,90.92673697270472,0.7009423357866,0.015507621702233243,-0.7129979730421832,-0.00958490944913152
275.0,-0.005305210918114145,-0.2644317617866004,-0.044972704714640196,-0.06999999999999998,-9.8,-0.1685508684863523,0.03101736972704714,-0.01743176178660049,0.007351116625310175,1.5061724565756824,-0.4375,90.9331265508685,0.7008976267642675,0.01545043406947892,-0.7130427426501238,-0.009511424287841193
276.0,-0.004327543424317618,-0.26441191066997505,-0.045925558312655074,-0.06999999999999998,-9.8,-0.16626302729528536,0.0988213399503722,-0.053535980148883375,0.016253101736972704,1.5477357320099254,-0.4375,90.93632133995038,0.7009164669727045,0.015625877890818866,-0.7130084235334988,-0.009684536198511168
277.0,-0.004372208436724565,-0.26324565756823814,-0.03707196029776676,-0.07412903225806455,-9.8,-0.16380645161290325,0.028815136476426795,-0.08405707196029776,0.0032568238213399507,1.4583436724565757,-0.4375,90.94097394540943,0.7009590224615383,0.014996324064516139,-0.713002244818859,-0.009038805776674937
278.0,-0.004729528535980148,-0.2648684863523573,-0.022684863523573205,-0.07206451612903227,-9.8,-0.17389081885856078,-0.03647642679900744,0.04215260545905708,-0.036321339950372206,1.4334987593052109,-0.4375,91.013182382134,0.7005789398014886,0.014835119062034753,-0.7133728781290325,-0.008869149200992552
279.0,-0.004136661605125737,-0.2655206844190956,-0.003341802155475722,-0.07342031776600869,-9.799999999999999,-0.18704410947742695,-0.108226084219103,-0.26419623347283433,-0.03577321210325543,1.3511981037739342,-0.4375,91.08222612125476,0.7001473206999742,0.014373995566164217,-0.7138053855281659,-0.008380495919706674
280.0,-0.015955014011826724,-0.26806720738738066,0.027870868980161223,-0.0725703739367678,-9.799999999999997,-0.22103101531219027,-0.21732471842606654,0.7678105543416087,-0.041633848952096424,1.8485381199873254,-0.4204749103942652,91.2804723796238,0.6988229644001662,0.017359552517297712,-0.7149625923877391,-0.011413206262031447
281.0,-0.008076984803031989,-0.2700498253151118,0.06993817512931619,-0.0712851869683839,-9.799999999999997,-0.26471938899382325,-0.35487291622944006,0.5932933553901296,-0.0332567415198614,2.2650425498644084,-0.4068401273203873,91.54182201070742,0.6971545893330782,0.019879892337682968,-0.7164794415592257,-0.013934652764029314
282.0,-0.008345808741090399,-0.26804002657589554,0.11653288935426634,-0.07051356122612742,-9.796402737047897,-0.30805831845360027,-0.3458955527834921,0.49007005539263604,-0.017466309702708353,2.6587309523515588,-0.3899119991440646,91.8045573321452,0.6954983150459668,0.02228642438073712,-0.7179605916008771,-0.01634106716944227
283.0,-0.009329343020965556,-0.2682297092251352,0.14199741760406182,-0.0702567806130637,-9.793579317488799,-0.331405886014697,-0.15111339988717215,0.18849013121100266,-0.002227377287560243,2.8549858235703205,-0.38144793505590324,91.94599278777179,0.6945899595729446,0.023439715913638054,-0.7187951293219745,-0.017488401613571916
284.0,-0.010769630586072571,-0.26740565865686217,0.13077964284151095,-0.0700537634408602,-9.796789658744398,-0.3251853695841421,-0.010619290218020362,0.039553804170739684,-0.02655603337175316,2.93315010966672,-0.39599298534210664,91.90350012522919,0.6948429565245559,0.024019323500872963,-0.7185309072320034,-0.017998050226622254
285.0,-0.010109277658627683,-0.26969755328927214,0.11856728089756496,-0.06999999999999999,-9.798394829372198,-0.31336105396769853,0.024780788141404414,0.21027560146481666,-0.031327052421178565,2.9929585941261436,-0.41535267212325466,91.83139836010562,0.6952894968744261,0.02449498017230563,-0.718074119681942,-0.018398286223720098
286.0,-0.005947439901093793,-0.2689970744264144,0.1150049985949381,-0.07,-9.799197414686098,-0.3028778712582695,0.009718358037683571,-0.24731801276671592,0.003880452702698413,2.927365277399817,-0.4233783746066302,91.7692400311968,0.6956689031269481,0.024135132148875665,-0.717727316574275,-0.017984517996378548
287.0,-0.011439018093264397,-0.26839149909003995,0.11596535364742017,-0.07,-9.7997111218103,-0.30586708812180324,0.04875580658482419,-0.01820934851434526,0.003925807974027603,2.8625096181720493,-0.4314472518194441,91.78732651608715,0.695668320207169,0.023750249725464224,-0.7177582213565412,-0.017557166112070022
288.0,-0.010560698991336827,-0.26945683415131405,0.11245773554768553,-0.07,-9.799999999999997,-0.30534297783047026,0.08630707707160995,0.1665784934818449,0.0233027772015861,2.8745588169061618,-0.43548169042585105,91.78327859776724,0.6956675896955804,0.02381935440694653,-0.7177574823059825,-0.017611426292127273
289.0,-0.008978582894431424,-0.2691485496633389,0.11136597380695265,-0.06999999999999999,-9.799999999999997,-0.29726465213141207,0.044190305692576946,0.08676411804198536,0.045218200941076744,2.9106762270894277,-0.4369121259062332,91.73295188915804,0.6959288257607568,0.024018282285322084,-0.7174857282614311,-0.017823068835778826
290.0,-0.009005420479473777,-0.26897846356541993,0.10955756562278302,-0.06999999999999998,-9.799999999999997,-0.29347103574312516,0.06717970989973093,0.0652811322034674,0.012611206874004908,2.9548566498952193,-0.4372662459093034,91.70921788006291,0.6960539172881787,0.024272607175400567,-0.7173493847830987,-0.01809271076598761
291.0,-0.008387250799841855,-0.2679332589886699,0.10917501861648582,-0.06999999999999998,-9.8,-0.29169110459433,-0.009272916317986553,0.05697926823869852,0.009868939484899421,2.9797658658545756,-0.4375,91.6980083088954,0.6961125651564789,0.02441743730205278,-0.7172839988104365,-0.018245727736897484
292.0,-0.008087139100926826,-0.2690865330039366,0.10512672035733951,-0.06999999999999998,-9.8,-0.29052297165200347,0.012887408236491222,0.01356081943767297,0.013718328097067689,2.9930445898187834,-0.4375,91.69073802541544,0.6961486374169497,0.02449515978494623,-0.7172442150503794,-0.01832802942318968
293.0,-0.008556905676702767,-0.27035518755582477,0.10337539760361039,-0.06999999999999998,-9.8,-0.28999999999999954,-0.005239952726701556,-0.020162405530430375,-0.0014933705136781356,2.9982940446650126,-0.4375,91.6875,0.6961667779851127,0.024525891935483865,-0.7172247258560791,-0.018360857255583094
294.0,-0.007925425936937387,-0.2686408652734419,0.10192859052656787,-0.06999999999999998,-9.8,-0.28999999999999954,0.0372255275950564,0.026226597857101564,0.0018139709328493796,3.0,-0.4375,91.6875,0.6961669900000012,0.02453612999999999,-0.7172241199999996,-0.018371579999999964
295.0,-0.006719769420081596,-0.26909613828188217,0.104308549295542,-0.06999999999999998,-9.8,-0.28999999999999954,-0.02011896503311696,0.02935258824306691,0.0022458211519085607,3.0,-0.4375,91.6875,0.6961669900000012,0.02453612999999999,-0.7172241199999996,-0.018371579999999964
296.0,-0.006810817232253236,-0.269438687887439,0.10185238558989856,-0.06999999999999998,-9.8,-0.28999999999999954,0.010644861916323932,0.0023428874137771116,-0.009925276408757159,3.0,-0.4375,91.6875,0.6961669900000012,0.02453612999999999,-0.7172241199999996,-0.018371579999999964
297.0,-0.007245559100397809,-0.2697167424869037,0.09915327996376379,-0.06999999999999998,-9.8,-0.2856327543424314,0.07421601136318877,-0.08035671206034109,-0.0141720454724487,2.981637717121588,-0.42360421836228285,91.6602047146402,0.6963293465657575,0.024366020143920582,-0.7170782408138952,-0.018257204218362265
298.0,-0.010782061128835323,-0.26959455620544326,0.08898512397101102,-0.06999999999999998,-9.8,-0.2774937965260542,0.06321847675174287,0.02699492767537122,-0.005853451543975738,2.9416873449131513,-0.3982940446650124,91.60933622828784,0.696630553672457,0.024060453533498755,-0.7168046565359794,-0.018061893528535967
299.0,-0.010116935483870968,-0.26921068548387084,0.08145742866004958,-0.06999999999999998,-9.8,-0.2734243176178657,0.07105594758064515,-0.0347850108560794,0.0049017137096774195,2.9385856079404467,-0.38563895781637714,91.58390198511165,0.6967767950620349,0.023951773057071954,-0.7166678643970215,-0.01799622579652604
300.0,-0.0107741935483871,-0.2675161290322579,0.08094292803970221,-0.06999999999999998,-9.8,-0.27138957816377135,0.022580645161290318,-0.018432071960297766,-0.003629032258064516,2.937034739454094,-0.3793114143920595,91.57118486352357,0.696849915756824,0.023897432818858554,-0.7165994683275425,-0.017963391930521076
301.0,-0.011627791563275437,-0.2696364764267988,0.08118610421836227,-0.06999999999999998,-9.8,-0.2703722084367242,0.029047766749379648,0.012496122828784118,0.003489454094292804,2.936259305210918,-0.37614764267990075,91.56482630272953,0.6968864761042186,0.023870262699751853,-0.7165652702928029,-0.017946974997518593
302.0,-0.010771712158808937,-0.2692624069478906,0.0811985111662531,-0.06999999999999998,-9.8,-0.2699999999999997,0.011856389578163772,0.008310716501240694,0.005497828784119106,2.9364454094292802,-0.375,91.5625,0.6968996826352358,0.023861993573200985,-0.716552729999999,-0.017942340774193533
303.0,-0.009915632754342436,-0.2699612282878411,0.08133250620347393,-0.06999999999999998,-9.8,-0.2699999999999997,-0.007983095533498758,0.021734452543424317,0.00019773573200992543,2.9375,-0.375,91.5625,0.6968994100000001,0.02386474999999999,-0.716552729999999,-0.017944339999999982
304.0,-0.010126550868486357,-0.2688888027295284,0.0822593052109181,-0.06999999999999998,-9.8,-0.2699999999999997,-0.008240927419354838,-0.008503121122828786,0.005309785980148883,2.9375,-0.375,91.5625,0.6968994100000001,0.02386474999999999,-0.716552729999999,-0.017944339999999982
305.0,-0.008852047146401986,-0.267366004962779,0.08388864764267988,-0.06999999999999998,-9.8,-0.2699999999999997,-0.012612437965260546,-0.02408692617866005,0.01475457506203474,2.9375,-0.375,91.5625,0.6968994100000001,0.02386474999999999,-0.716552729999999,-0.017944339999999982
306.0,-0.008038926799007447,-0.26841749379652596,0.08524705334987592,-0.06999999999999998,-9.8,-0.2699999999999997,-0.03268649193548387,-0.019161949441687344,0.0032519773573200994,2.9375,-0.375,91.5625,0.6968994100000001,0.02386474999999999,-0.716552729999999,-0.017944339999999982
307.0,-0.007489686724565758,-0.2686616004962778,0.08558010235732011,-0.06999999999999998,-9.8,-0.2699999999999997,-0.04858580179900744,0.008579695254342429,-0.010075314050868487,2.9375,-0.375,91.5625,0.6968994100000001,0.02386474999999999,-0.716552729999999,-0.017944339999999982
308.0,-0.007248759305210919,-0.26876488833746887,0.08109987593052109,-0.06999999999999998,-9.8,-0.26745905707196005,-0.008498759305210917,-0.005753722084367248,0.010425713399503723,2.9375,-0.375,91.5625,0.6969483604714644,0.02386474999999999,-0.7165037821488832,-0.017959847374689822
309.0,-0.007904776674937962,-0.26592338709677416,0.07216532258064515,-0.06999999999999998,-9.8,-0.2576923076923076,0.14621588089330026,-0.17542648883374687,0.08742439516129032,2.8968052109181137,-0.38492555831265507,91.51039081885855,0.6973028806104223,0.023640842426799,-0.716168166665012,-0.01775047836228288
310.0,-0.01805873360510457,-0.2631623316199929,0.04709258684863523,-0.07656221198156679,-9.799999999999997,-0.22004891882311234,0.39412442396313363,0.7138287619638426,0.11476856057249202,3.142498227578873,-0.43434065934065935,91.28252835873803,0.698661397102446,0.025654615568238212,-0.7147160456781281,-0.019319901347040064
311.0,-0.001350060193668218,-0.26891482533538696,0.006086327674483621,-0.0811320828194976,-9.799999999999997,-0.17509261025208314,0.2701085545531252,0.7396693787102266,0.07431889042848905,3.7442244659021124,-0.4710038144499753,91.01769818663844,0.7001918625607643,0.029720582738685206,-0.7129265478390638,-0.023071241146032526
312.0,0.019493676700400916,-0.2624704455017949,-0.03845100378948629,-0.09635866813785936,-9.799999999999997,-0.11452787194631806,0.22269828649315246,0.2370095885486617,0.09005628061170995,3.8583737536883835,-0.5571032897134669,90.66567513018558,0.7023641324278475,0.031428861171185915,-0.7106884819794398,-0.023854202443984007
313.0,0.013768816372178477,-0.25570881367610127,-0.06153283971821,-0.09969546310118768,-9.799999999999997,-0.10253688882675704,-0.07300259372612848,0.20405291550793592,0.10076856923176777,4.274895402189814,-0.5784940411700975,90.5951935558762,0.7027151908941789,0.03427617804642244,-0.7101267644764266,-0.026425588386118203
314.0,0.013626781562238708,-0.2697947075240819,-0.08758367281487789,-0.10033160251833571,-9.799999999999997,-0.10980121335221957,0.3615509947731932,-0.25166917062145167,0.1279806209171538,4.240296737731894,-0.5855450062805676,90.63834995265711,0.7024666448492205,0.03414928367756825,-0.7103995415123341,-0.026199430592270898
315.0,0.020308782486188476,-0.263339750075405,-0.08723884101573387,-0.09852755241124157,-9.799999999999997,-0.09305728870375957,0.22052204116539842,0.030703433122453883,0.07926968833876122,4.015957700663182,-0.579034023877611,90.54200043715804,0.7031129946435043,0.03261891829270118,-0.7098845423990243,-0.024841698561112402
316.0,0.011967470859311467,-0.2658381675250745,-0.08577392247221469,-0.09244348061805363,-9.799999999999997,-0.10781268636486846,0.17916101924640823,-0.2717453917050691,0.09603551097858498,4.084228449444294,-0.5394602195716997,90.62609616427216,0.7025746993320683,0.032656912436432636,-0.7104055368826239,-0.025244858359718087
317.0,0.01474117154193056,-0.26688675587537064,-0.10395999572849668,-0.09003433631517116,-9.799999999999997,-0.0862408635008255,0.30046062413235086,-0.42255097053484153,0.11968983341137042,3.703391891947395,-0.517555570615343,90.50139686373082,0.7034562010309273,0.02998840885988649,-0.7097305080878697,-0.022972526409086792
318.0,0.010662858014850427,-0.26591431023119827,-0.12422512370614835,-0.08982361977048878,-9.799999999999997,-0.051894625298799846,0.23389191256245334,-0.0238652140869883,0.06801356257594399,3.4761675429251326,-0.5072800894551368,90.30622838578246,0.7046802142269137,0.02840985481597657,-0.708619087525856,-0.02163206744825131
319.0,0.00401340974016496,-0.26417048163727475,-0.13485059279746187,-0.08808302576613769,-9.799999999999997,-0.035188883223038814,0.2711093539603976,0.02757736412859752,0.030012610728929513,3.5677030788629462,-0.5022465437788018,90.2077339564294,0.7052964261433066,0.028818350186779695,-0.7079746512213281,-0.02218262210735438
320.0,0.004260161091280636,-0.26374653114121804,-0.12317644847246365,-0.08377884007200895,-9.799999999999999,-0.045179695067740624,0.11635824840877024,0.06809455764033562,-0.002678026432770266,3.626132645422256,-0.5,90.25311813028843,0.704953048235248,0.028998996411362176,-0.7083122990069775,-0.022463649714967518
321.0,0.003517651703135574,-0.26431633957440404,-0.11767456199714266,-0.08178742762613733,-9.8,-0.05157466726821569,0.05242722667117829,0.049701927776524546,-9.375704940220962e-05,3.649241014361982,-0.5,90.27636041713663,0.7047498589681935,0.02906123286412509,-0.7085223146837545,-0.022567945291544482
322.0,-0.006807674062180701,-0.2658310465625455,-0.1168516274996351,-0.08075930521091815,-9.799999999999999,-0.05571401985111667,0.021910920850970666,0.11458397952853597,-0.012774366880747337,3.845672164647497,-0.5,90.29340687034738,0.7045576585547367,0.030257449165085378,-0.708608299069351,-0.02380057853818786
323.0,0.00464280590054557,-0.26433958916396416,-0.11163061829543557,-0.08021836228287846,-9.799999999999997,-0.05850217121588093,-0.06067061394427768,-0.8607562984365447,-0.023060143486405244,3.200262629596018,-0.5,90.33122307051731,0.7045485986009565,0.026339424010924015,-0.7088660340541848,-0.019876191635224763
324.0,0.005770534463920428,-0.2641846829194511,-0.10732399401124135,-0.08000000000000004,-9.799999999999997,-0.060424782878411944,-0.09758096454037707,-0.19404130058303665,-0.002054265291589717,2.6688968234828723,-0.5,90.33327592731821,0.70456145208956,0.02313679817915928,-0.7090315410965713,-0.01666515293671908
325.0,0.0002611589813398653,-0.2645034766954575,-0.11119285928849909,-0.08000000000000004,-9.799999999999997,-0.055196029776674926,-0.016477410387434187,-0.2428156157846945,-0.006943211274827117,2.515667394371709,-0.5,90.30168977235948,0.7048084472878016,0.022140491119356325,-0.7088558999707035,-0.015671274044933663
326.0,0.0013755391680892878,-0.2633807706057932,-0.11106013932166892,-0.08000000000000004,-9.799999999999999,-0.05243672456575679,-0.019217157814684836,-0.0656807413600892,-0.002558047169671623,2.3929143423471446,-0.5,90.27483682166361,0.704984632514869,0.02134925572096849,-0.708734076598255,-0.01488125911924102
327.0,0.0005430826770237707,-0.26423307980005023,-0.11752722336102421,-0.08000000000000004,-9.8,-0.051057071960297726,0.045760847088862515,0.07754269383608443,-0.007505304419750422,2.497542322976229,-0.5,90.26141034631567,0.7050463312289719,0.02199289925754307,-0.7086486285861295,-0.01552977100411767
328.0,0.0026383571625507103,-0.2639540696758438,-0.11601533144275078,-0.08000000000000004,-9.8,-0.050367245657568185,0.012753862401039822,0.15022404510811768,0.00392714364488558,2.6193785325337746,-0.5,90.2539081885856,0.7050627724067117,0.0227167093926799,-0.708593018507651,-0.016272841180836183
329.0,0.0006052682032283545,-0.26229202535025586,-0.11583192495360427,-0.08000000000000004,-9.799999999999999,-0.04355334987593047,0.07899862876291958,-0.6239519827006486,0.03724765443811934,2.5638118396138436,-0.5,90.23123266676397,0.705236860975214,0.022405235511111517,-0.7084312908134522,-0.01595929066004296
330.0,-0.002157643971567122,-0.2627895197057316,-0.11685089492786362,-0.08000000000000004,-9.799999999999999,-0.036451612903225794,0.052331643342821005,-0.3315440129344749,0.04186691477666336,2.146360014099726,-0.5,90.20801707779886,0.7054416162196171,0.019800074477679508,-0.7083662186920863,-0.013348695950959676
331.0,-0.0017643058567513034,-0.26450211872383356,-0.11978129423812532,-0.08000000000000004,-9.799999999999999,-0.033629032258064524,-0.0022174948608475638,0.06383043808921418,0.009309213436718772,2.0418985050337337,-0.5,90.1967504743833,0.7055153338356153,0.01920862034871879,-0.708317945475075,-0.012751961060157257
332.0,-0.0008695521219240388,-0.263314847444354,-0.1191747613023704,-0.08000000000000004,-9.8,-0.031491935483870984,0.022248247417246472,0.05142846789253336,0.004347337053100811,2.0427801496942863,-0.5,90.19111717267552,0.7055486398815176,0.019189460340690058,-0.7082798562934849,-0.012726065663647172
333.0,-0.006068998469377978,-0.26480479606309765,-0.12781248887629343,-0.08000000000000004,-9.799999999999999,-0.02995417888563052,0.11121489315423139,-0.06632074720161771,-0.009780551088959533,2.085763649301363,-0.5,90.18439045339544,0.7055966593940476,0.019467184989504366,-0.708231912618883,-0.013017103686220086
334.0,-7.755864207477283e-05,-0.2642168411785346,-0.1341459174785788,-0.08000000000000004,-9.799999999999999,-0.014769273065644043,0.13627701123920882,-0.4031095598509913,-0.04024528758651743,1.7177253693886758,-0.5,90.09025960598541,0.7061737710004468,0.01715675517385013,-0.7077400843274678,-0.010728020756954733
335.0,-0.0005328909441812675,-0.26205465714840703,-0.13980721373160893,-0.08000000000000004,-9.799999999999999,-0.006900765565080087,0.04671313439584609,-0.22384420644879313,-0.024938952036986314,1.5080562330814347,-0.5,90.04210560944432,0.7064676403389331,0.015827902906945558,-0.7074910016798628,-0.00940997195297813
336.0,-0.0008290105085110294,-0.2646751400986571,-0.14393448290638722,-0.08000000000000004,-9.8,-0.002943830363185204,0.023213791931273722,-0.1279967690997868,-0.0209521560067866,1.400008459282653,-0.5,90.01802861117378,0.7066154209381157,0.015141540286638111,-0.7073669833802538,-0.008729091165501156
337.0,0.00040474717790014314,-0.2636944568900863,-0.1468981170292305,-0.08000000000000004,-9.8,-0.0009880442138506661,-0.04754889000466524,-0.08212754481615044,-0.010972109749425047,1.3441574554477778,-0.5,90.0059901120385,0.7066894496626063,0.014788668369125516,-0.7073054357223847,-0.008379083324686058
338.0,-2.1139457143619117e-05,-0.2627792910061379,-0.1470112812381283,-0.08000000000000004,-9.8,-2.4813895781637717e-05,0.20437522790540483,0.004411216312881244,0.019694409821881205,1.3153535980148883,-0.4885856079404467,89.98470843672456,0.7068578048238214,0.014587491081885872,-0.7071485939950368,-0.008261675588089322
339.0,-0.0015100057763949568,-0.2636786145984896,-0.12474227495247267,-0.0814076246334311,-9.799999999999999,-0.03049853372434015,0.016508709523797988,-0.4371709427120457,0.01091730416652373,1.1832271223400255,-0.49429280397022335,90.17217083991277,0.7057636386460636,0.013858919344311611,-0.7082624462682907,-0.007461118178660048
340.0,-0.008630819881661533,-0.2639645444908956,-0.10436520392001815,-0.08070381231671558,-9.799999999999997,-0.0522132137312403,0.07674720889279867,0.32055962216525663,-0.016709354904479466,1.2526073941870906,-0.47390162020143045,90.30477612204368,0.7049731933742656,0.014175444226235501,-0.7090410447375612,-0.007893110673770253
341.0,-0.004870676445629009,-0.2635856367962629,-0.09380132749392711,-0.0803519061583578,-9.799999999999997,-0.062235639123684655,0.04813474528844548,-0.029919974606881644,-0.012686567596434769,1.242615141025957,-0.45469274558458617,90.37819451263474,0.7045895542677779,0.01407690401787965,-0.7094182999494261,-0.007859399860694649
342.0,-0.006065650562804264,-0.2649443800980802,-0.08685458079765479,-0.08017595307917894,-9.799999999999999,-0.06724685181990683,0.03920434141022376,-0.018000181875893452,-0.019640134796681284,1.2130414414807205,-0.4450883082761641,90.41490370793028,0.704397734714534,0.013891124912165626,-0.7096069275553585,-0.0077040355755086136
343.0,-0.006100543203438473,-0.2641048643466467,-0.08210062746758588,-0.08008797653958949,-9.8,-0.06975245816801792,-0.02976847685752319,0.026606848948389623,-0.01059550164151682,1.1982390830232386,-0.44064278937381407,90.43373907480881,0.7042976902406417,0.013798719999507124,-0.709705209412915,-0.007624248244329988
344.0,-0.007020620249487241,-0.26320799703856557,-0.07903057719792739,-0.08000000000000004,-9.8,-0.07005218216318783,0.0035853072585260264,0.020247868918639257,-0.016562471762898705,1.1949009442486673,-0.438063330170778,90.43705526565466,0.7042839460294117,0.013774555603370368,-0.7097175527514236,-0.00760993710603596
345.0,-0.005147911401813588,-0.26481459458566636,-0.08302512264010703,-0.08000000000000004,-9.8,-0.06999999999999998,0.030906752225690833,-0.0210387658358522,-0.014752944188428058,1.189036098310292,-0.4375,90.4375,0.70428467,0.013741441812595994,-0.7097168000000005,-0.007577016804915512
346.0,-0.005914969525791587,-0.2648112911484398,-0.0844593099119634,-0.08000000000000004,-9.8,-0.06999999999999998,0.0003004063227788536,-0.016855788447880014,-0.00672043010752688,1.1875,-0.4375,90.4375,0.70428467,0.01373290999999999,-0.7097168000000005,-0.007568359999999997
347.0,-0.0075898947855243416,-0.2651361841996596,-0.08802363609335515,-0.08000000000000004,-9.8,-0.06999999999999998,-0.012752816180235535,-0.03172899839783294,-0.005025353880712881,1.1875,-0.4375,90.4375,0.70428467,0.01373290999999999,-0.7097168000000004,-0.007568359999999997
348.0,-0.009351535272450988,-0.26653039988107613,-0.08803395933468772,-0.08000000000000004,-9.8,-0.06999999999999998,-0.05677473035693639,-0.07334250037163668,-0.008145037411426588,1.1875,-0.4375,90.4375,0.7042591663440864,0.01373290999999999,-0.7097668029902712,-0.007568359999999997
349.0,-0.007214211386948122,-0.2636430305733114,-0.08598285516079478,-0.08000000000000004,-9.8,-0.07432882414151926,-0.1537533240837091,-0.06038063855441586,0.007725913813322763,1.1875,-0.4375,90.4375,0.704213994842178,0.013703442861602489,-0.7098048053661029,-0.007538888033298644
350.0,-0.008463736517846822,-0.263439538840163,-0.084763060964934,-0.08000000000000004,-9.8,-0.0773257023933403,-0.08092492113043623,-0.008748947029384072,0.0010147746229952274,1.1875,-0.4375,90.4375,0.7041863285501208,0.013686677075962533,-0.7098238065540188,-0.007522119500520287
351.0,-0.0051919297028558235,-0.2618887402342136,-0.08449878598681927,-0.08000000000000004,-9.8,-0.07882414151925082,-0.0901776423368515,0.09636797400194903,0.003051550137918505,1.1921082949308757,-0.4375,90.4375,0.7041699950456692,0.013708795852369386,-0.7098368070762924,-0.007544237476834643
352.0,-0.011049832350560763,-0.26476598901156656,-0.09137325387065239,-0.08000000000000004,-9.799999999999999,-0.07652350770977198,0.038390351410642766,0.2756996154498756,0.015276050981045779,1.451289973467393,-0.4375,90.43456744868035,0.7041590775863731,0.015258245770759467,-0.7098025761285662,-0.009108011270186627
353.0,-0.009816247536905437,-0.26503077709819756,-0.09719334067843859,-0.08000000000000004,-9.799999999999997,-0.06941004465893028,0.028996161177346817,0.14731333876405864,0.04199795586935071,1.6949366333393776,-0.4514624458353394,90.40136834157659,0.704351498591774,0.016854938270550658,-0.7095597084462825,-0.010623727320216086
354.0,-0.005903355725214177,-0.26558374862178424,-0.1006312037077564,-0.08000000000000004,-9.799999999999997,-0.06487066135597666,0.06702809441133947,0.06140506968022616,0.03749250535480675,1.7565770070885622,-0.4497773230621088,90.37947268788024,0.7044806941688428,0.017251261122011776,-0.7094270528052313,-0.010996018756323118
355.0,-0.004987706350248478,-0.26547515876837,-0.1062879986327266,-0.08000000000000004,-9.799999999999997,-0.056951459710246365,0.043873982968831306,0.01587249480846014,0.029106188440564944,1.7301030196733134,-0.44363866153105436,90.34397021490786,0.7047311696650665,0.017162675077134926,-0.7091919291445515,-0.010889775184613181
356.0,-0.005239727372611341,-0.2641591792896559,-0.1093527905251545,-0.08000000000000004,-9.799999999999997,-0.05299185888738122,-0.006767861010759421,0.033584165794083944,0.0070289203654634565,1.716722016749099,-0.4405693307655272,90.32621897842166,0.7048564855493791,0.017117428877533165,-0.7090742579414517,-0.010835700203673727
357.0,-0.005971653126202959,-0.26411435715624443,-0.11141013856950305,-0.08000000000000004,-9.799999999999997,-0.05110736639383721,-0.020905833453979818,-0.026886153487020115,0.02282680607788937,1.7020040924410207,-0.4390346653827636,90.31743500240731,0.7049192294511313,0.01704673107366395,-0.7090166951901788,-0.010760140375541662
358.0,-0.006260594164301436,-0.2637174133842405,-0.10955496373310526,-0.08000000000000004,-9.799999999999997,-0.0503514684641309,-0.01269380595331486,-0.11045800211664439,-0.0025580702398227666,1.6910808858931152,-0.43783100625902743,90.31403466538276,0.7049444425662011,0.01698569568608571,-0.7089949197400103,-0.010699428300433335
359.0,-0.004945415040744844,-0.26338013182452263,-0.10757237835186798,-0.08000000000000004,-9.799999999999997,-0.04999999999999994,-0.005940668022396477,-0.00715786480410939,-0.017693936419863235,1.6875,-0.4375,90.3125,0.7049560499999998,0.016967770000000014,-0.7089843700000007,-0.010681150000000018
360.0,-0.005388152290655902,-0.26450775897188983,-0.10772069552979516,-0.08000000000000004,-9.799999999999999,-0.04999999999999995,0.004269402059182994,-0.022289220769601128,-0.02428868375245361,1.6875,-0.4375,90.3125,0.7049560499999998,0.016967770000000014,-0.7089843700000007,-0.010681150000000018
361.0,-0.004274721306618275,-0.26332087700455525,-0.1056593552090663,-0.08000000000000004,-9.799999999999999,-0.04999999999999995,0.025909514925373137,-0.12916570219621495,-0.022333547831561794,1.673604218362283,-0.45288461538461533,90.3125,0.7049560499999998,0.016828677116625314,-0.7089843700000007,-0.010556112580645174
362.0,-0.0027388568941891047,-0.2639751675863855,-0.10500237491204026,-0.08000000000000004,-9.8,-0.04999999999999995,-0.00494110750527758,0.08941422308433022,-0.007813425891633644,1.6482940446650123,-0.4774503722084367,90.3125,0.7049560499999998,0.01659289726550868,-0.7089843700000007,-0.01034335537965261
363.0,-0.005563803964050715,-0.26513924933195504,-0.10496024452798042,-0.08000000000000004,-9.799999999999999,-0.04999999999999994,0.044023543547910125,-0.00896468708931094,-0.011323623991760125,1.635638957816377,-0.4897332506203474,90.3125,0.7049560499999998,0.01652831814888338,-0.7089843700000007,-0.010291741722084365
364.0,-0.004638798560527229,-0.26385101687247875,-0.10455546355959333,-0.07941727367325706,-9.718501560874088,-0.04966701352757539,0.038080621075832766,0.056983383232488985,-0.011408798965299356,1.6293114143920593,-0.49587468982630273,90.3125,0.7049560499999998,0.01649602859057073,-0.7089843700000006,-0.01026593489330024
365.0,-0.004493992999716205,-0.26558844831893724,-0.1034004254503734,-0.07970863683662854,-9.759250780437043,-0.049833506763787665,-0.03593691254981578,-0.02760576225716704,-0.004254352134164829,1.6261476426799006,-0.4989454094292804,90.3125,0.7049274142228739,0.01646604318580345,-0.7090130104692091,-0.01023918858545755
366.0,-0.0035447632492377557,-0.2657768544324214,-0.10251162711724625,-0.07985431841831431,-9.77962539021852,-0.0499167533818938,0.0006729829310474465,0.05685468710962989,-0.0032903274318466826,1.6279776674937962,-0.5,90.3125,0.7049102327565984,0.016454216183472453,-0.709030194750734,-0.01022805463764193
367.0,-0.0039070062681506,-0.26628052380522593,-0.10934699536670431,-0.07992715920915716,-9.789812695109259,-0.049958376690946875,0.03990886841452561,-0.03364350567299143,0.0044897942485964916,1.7184483908003405,-0.474000962927299,90.3125,0.704930321464963,0.01700640600685048,-0.7089856546430606,-0.01076929277961871
368.0,-0.002666470555035017,-0.26450371589365484,-0.11283551020140703,-0.07996357960457862,-9.794906347554628,-0.04997918834547341,0.03631758728352373,-0.12049054232016242,0.020784895081725183,1.6717241954001703,-0.4870004814636495,90.3125,0.7050061896034496,0.016711448648586532,-0.7089220084505625,-0.010448597518841614
369.0,-0.0025246236671369075,-0.26486908116758856,-0.11401385133883929,-0.08000000000000004,-9.799999999999997,-0.04999999999999994,0.003969521892006245,-0.08420675777440341,0.010587556802048856,1.648362097700085,-0.49350024073182475,90.3125,0.705044123672693,0.016563969969454556,-0.7088901853543135,-0.010288249888453066
370.0,-0.0014225443951009675,-0.26478233241641996,-0.11428607245747353,-0.08000000000000004,-9.799999999999997,-0.04999999999999994,0.07639642695612844,0.050183536973378094,0.02837348616717899,1.6366810488500425,-0.4967501203659124,90.3125,0.7050639855753498,0.016490663149438915,-0.7088733787915262,-0.010208508663679124
371.0,-0.004945586270574237,-0.26590977663004634,-0.11824938149637236,-0.08000000000000004,-9.799999999999997,-0.04122580645161289,0.15326157753336375,0.4105556997167493,0.033127278354769925,1.8699179792282823,-0.4734902675562281,90.24567972350229,0.7053710280964309,0.017914388542815882,-0.708509365934934,-0.011670884100006879
372.0,0.0023707311786271812,-0.2651575845114603,-0.12003947168222566,-0.08000000000000004,-9.799999999999997,-0.03428887818969668,0.028228646253441625,-0.011997667715048538,0.03658951784854529,1.9838726872549692,-0.4552995391705069,90.20783324162596,0.7056286383212056,0.01859161040044021,-0.7082425748981356,-0.012362117931081915
373.0,-0.0029627269649926775,-0.262153546567662,-0.12114735202961999,-0.08000000000000004,-9.799999999999997,-0.027647285394658595,0.09135649226206874,-0.4481497373099018,0.03480081970197804,1.964777899604714,-0.4453917050691244,90.16766187697996,0.7058717758968455,0.01845750669927134,-0.7080108842801873,-0.01224114260880471
374.0,0.0030257198690742527,-0.2658468379166785,-0.12812908080902075,-0.08000000000000004,-9.799999999999997,-0.0202584043728228,0.09328934751560711,-0.12324311284456006,-0.0013766724792950435,1.637931800067162,-0.44043778801843314,90.11104868042547,0.7061336703364821,0.016394654548480155,-0.7078187790635412,-0.010200994068003701
375.0,0.005742955789572799,-0.2655052313042343,-0.12861590382202687,-0.08000000000000004,-9.799999999999997,-0.014484040896088825,0.0678331777189363,-0.06884898234253214,0.01862856897037276,1.5351804650384686,-0.43796082949308757,90.08274208214823,0.7062674383940473,0.01577890010903969,-0.7077105008220934,-0.009601286398615733
376.0,-0.0029672317826329557,-0.2638931686475089,-0.1320245417727646,-0.08000000000000004,-9.799999999999997,-0.012460914457261005,0.11509458425117322,0.5543859926997017,0.009645505683343061,1.8652428822888194,-0.4375,90.06099949729531,0.706359694344489,0.017828856794151176,-0.7075221132520604,-0.011657985796082064
377.0,-0.002962292887566897,-0.2639858017264769,-0.14256448051273732,-0.08000000000000004,-9.799999999999997,-0.005777881398105707,-0.024555938057807265,0.23565171084190667,0.0007695219287872719,2.194144197596752,-0.4375,90.02768619544592,0.70658840145355,0.019931882278475054,-0.7071950908006842,-0.013773123917868575
378.0,-0.004742396104938235,-0.2635531475425553,-0.14238267397824453,-0.08000000000000004,-9.799999999999997,-0.0062221610839810195,0.03275625433786243,-0.3668714710902963,0.04685568804490326,2.250183544989756,-0.45455069124423964,90.03335253456221,0.706518207151348,0.02034154524360185,-0.707250872024427,-0.014143205534022384
379.0,-0.0050155663438395896,-0.26519227515052934,-0.12625194476617627,-0.08000000000000004,-9.799999999999997,-0.025047980482515577,0.004941595406491044,0.09664158185268243,0.06528597509384985,2.0924018067637613,-0.4479228788289509,90.13663594470046,0.705897567039947,0.01930716930338352,-0.7079183842078576,-0.013124959859253965
380.0,-0.005335944418472952,-0.2661336552654063,-0.10989086492915545,-0.08000000000000004,-9.799999999999997,-0.03824618571549945,-0.04063114128217926,-0.29049215497465236,0.1186802225595451,2.0557396739717464,-0.44271143941447544,90.22234120297131,0.7054004071550238,0.019045650199539035,-0.7084278992777371,-0.012879337796888914
381.0,-0.0053316010695432375,-0.2647224091720112,-0.10253209592148674,-0.08000000000000004,-9.799999999999997,-0.04474982096834877,-0.037890713360671444,-0.01380822068837162,-0.00857506514226472,1.954961409652494,-0.4401057197072377,90.271755278905,0.7051545035475579,0.018369133017370448,-0.7087074172710297,-0.01220606673505632
382.0,-0.009271372382278948,-0.2665962974501307,-0.09870495314158403,-0.08000000000000004,-9.799999999999997,-0.04818136209707758,0.03351981927274345,-0.07332945247517311,0.021723586685954636,1.9814824154811834,-0.4388028598536189,90.29716796203314,0.705001403210729,0.01854132094905668,-0.7088479546276942,-0.012382986226765695
383.0,-0.002734463991179545,-0.2668402244613908,-0.08865859424927997,-0.08000000000000004,-9.799999999999997,-0.05681324833632348,-0.095055316103293,0.42304984332095213,-0.057928278786856385,2.031337197188264,-0.43761859582542695,90.33537791843726,0.704732051661699,0.018846199480839702,-0.7091082414157301,-0.012686836332276855
384.0,-0.00621914652163129,-0.2665440678793968,-0.08568001507190554,-0.08000000000000004,-9.799999999999997,-0.06384305680573289,-0.13773151011485985,0.2541913186838979,-0.06588217905753649,2.4229063071103742,-0.4375,90.35745710437992,0.7044777071086046,0.021262367762843314,-0.7092422134924949,-0.015113134673261254
385.0,-0.004970151156749718,-0.2660761410339606,-0.09374948539211377,-0.08000000000000004,-9.799999999999997,-0.06724170172978026,-0.19236641445329772,-0.21621583368380587,-0.04873955163618349,2.309147317727314,-0.4375,90.36743221131368,0.7044111098416249,0.02056497908422949,-0.7093452643221483,-0.014402844543164576
386.0,-0.008990986882071433,-0.26735786937216677,-0.09793610256338689,-0.08000000000000004,-9.799999999999995,-0.06679289387564279,-0.09213255992552008,0.8813734398156694,-0.09034868503544584,2.738744538337256,-0.4375,90.37222417017297,0.7043296217129273,0.023185314729885567,-0.7092653547545582,-0.01704421204181714
387.0,-0.003363360848864607,-0.26600961996934447,-0.08916143918090705,-0.08000000000000004,-9.799999999999997,-0.06740944645635773,-0.12417691812094273,0.2030408674253789,-0.0748716678412519,3.1975893673288533,-0.4375,90.39773040477834,0.7041517920840861,0.025999697750587865,-0.7092650217730418,-0.019875373342985864
388.0,-0.0021999865097141694,-0.26574287282614506,-0.0837239934037154,-0.08000000000000004,-9.799999999999997,-0.06880757502808535,-0.1043796329246707,0.22052525183805144,-0.06325693877503552,3.360015970288808,-0.4375,90.418813192104,0.7040253530710281,0.026917821722209433,-0.7093400471908685,-0.02080391547987041
389.0,-0.0031028820367540507,-0.26531245711600937,-0.07964726391418317,-0.08000000000000004,-9.799999999999997,-0.07279329160648373,-0.01710315300542635,0.1895386249560984,0.0017429798180672133,3.441517975515131,-0.4375,90.44553442465093,0.7038893312273773,0.027382171994951604,-0.7094539274736238,-0.02125947273512055
390.0,-0.004931525169849676,-0.26553671646654303,-0.07181160424660665,-0.08000000000000004,-9.799999999999997,-0.07655793612582254,-0.1199978236870389,0.17523251745913637,-0.02120233388288275,3.491899123334938,-0.4375,90.47185079003808,0.7037158215610306,0.027701798813575082,-0.7096133574739023,-0.0215611951871021
391.0,-0.006169737821158139,-0.265290556017566,-0.07125078420215637,-0.08000000000000004,-9.799999999999997,-0.07850746268656719,-0.0014598926190163564,0.30777016676150043,-0.030955924191359917,3.621701791628368,-0.4375,90.4801213871989,0.7036348636411784,0.028497175714827603,-0.7096332025364376,-0.022364425959060973
392.0,-0.0041152011204972205,-0.2638778249514887,-0.07206737573131408,-0.08000000000000004,-9.799999999999997,-0.07945594607607129,0.0016623261989174368,-0.006171488598065378,-0.024685954392261567,3.7493288688522197,-0.4375,90.45909656264135,0.7036934828485142,0.029307153362950634,-0.709524953177222,-0.02318911095256853
393.0,-0.0006355320173326913,-0.2653689032841655,-0.08614814490596867,-0.08000000000000004,-9.799999999999997,-0.06612582250040125,0.13080400782013685,0.11446251148947346,-0.011959082884696751,3.793647233042996,-0.4375,90.37938332530894,0.7041725376803669,0.029609153475292155,-0.7090310765006345,-0.02352895241402955
394.0,-0.0022835966793598003,-0.2656548635123502,-0.10214440991523323,-0.08000000000000004,-9.799999999999997,-0.045434995112414486,0.11620234604105571,-0.005902489021169813,0.016961563151982023,3.7978500094833745,-0.4375,90.26521260997067,0.7048645732244205,0.029576919099662972,-0.7083435652052781,-0.02354661116514204
