time,linaccel_x,linaccel_y,linaccel_z,gravity_x,gravity_y,gravity_z,gyro_x,gyro_y,gyro_z,euler_x,euler_y,euler_z,quaternion_w,quaternion_y,quaternion_x,quaternion_z
0.0,-0.03527777777777779,-0.05916666666666669,-0.0011111111111111113,-4.41611111111111,-0.3297222222222223,8.74222222222222,0.06597222222222222,1.4340277777777777,-0.23958333333333334,101.41319444444444,-26.76909722222222,2.1666666666666665,-0.6157887766666668,-0.16038004583333326,-0.16828918416666663,0.7528347444444444
1.0,-0.04305555555555557,-0.05805555555555557,-0.004814814814814814,-4.477037037037036,-0.3252777777777779,8.71185185185185,-0.04513888888888888,0.25115740740740733,0.052083333333333315,101.41550925925927,-27.16261574074074,2.1446759259259256,-0.6152326783333334,-0.16230943509259255,-0.17097134101851846,0.752270735
2.0,-0.051785714285714296,-0.05900793650793652,-0.011746031746031747,-4.4012698412698406,-0.3111507936507938,8.749682539682535,0.12053571428571426,-0.22966269841269843,-0.07291666666666666,101.38740079365078,-26.667906746031747,2.042162698412698,-0.6160241978571429,-0.15907844646825392,-0.16821022646825395,0.7529262964285715
3.0,-0.05525238095238097,-0.05999417989417991,-0.015843386243386246,-4.395411640211641,-0.3152608465608467,8.753661375661373,-0.008511904761904762,0.1480621693121693,0.005972222222222233,101.4122156084656,-26.62978505291005,2.052056878306878,-0.6159796336666667,-0.15893712888518516,-0.16792425867566133,0.753059242638095
4.0,-0.06558806963645675,-0.07275704045058884,-0.023150025601638508,-4.41899846390169,-0.3095348182283667,8.741879160266254,-0.004118663594470048,0.3341877880184332,-0.09478046594982079,101.3822548643113,-26.788605670762927,2.0126440092165896,-0.615937130842294,-0.15954972601971323,-0.16910579584664615,0.7527009824951356
5.0,-0.06218919610855095,-0.07054966717869945,-0.017435227854582694,-4.453540450588838,-0.31934178187404,8.723699436763951,-0.056886840757808504,0.06511136712749617,0.06310483870967742,101.4362551203277,-27.01272241423451,2.089655337941628,-0.6152547897401434,-0.16110420865053765,-0.1703163436267281,0.7526523560862776
6.0,-0.053784434203789054,-0.06988658474142347,-0.013771377368151563,-4.480483358934972,-0.33540040962621603,8.70924910394265,-0.09041378648233488,0.023297491039426514,0.10485791090629801,101.44919514848951,-27.190426587301587,2.203040194572452,-0.6149691757268305,-0.1627400794126984,-0.17093650709421399,0.7523939721262161
7.0,-0.049894009216589874,-0.06752841781874042,-0.011200204813108038,-4.473395801331286,-0.3414905273937531,8.7131146953405,-0.05273937532002048,-0.18402777777777776,0.10440028161802355,101.41134152585765,-27.133435739887354,2.249033538146441,-0.6153096015238095,-0.16283121797695854,-0.17031606294674856,0.7522418029313878
8.0,-0.05554813108038915,-0.07120558115719407,-0.012311827956989246,-4.452195084485408,-0.3396525857654889,8.723700204813106,-0.03247567844342038,-0.13378296210957502,0.09220910138248847,101.39132424475164,-26.996166154633894,2.242713133640553,-0.6156412460665643,-0.1620771777268305,-0.1693991758251408,0.7523385145568355
9.0,-0.05502073732718896,-0.06977547363031236,-0.015552227342549924,-4.419978238607271,-0.34217383512544797,8.73981362007168,0.10265616999487967,-0.25481950844854073,-0.048539106502816176,101.42958109318997,-26.791717869943675,2.2517025089605736,-0.6156206312196622,-0.16095252281080386,-0.16804381897107012,0.7529006231326163
10.0,-0.052237071172555063,-0.07077931387608809,-0.018201740911418334,-4.390826932923707,-0.3369605734767025,8.753347670250893,0.13544546850998462,-0.2154473886328725,-0.1575300819252432,101.48021953405018,-26.60822452636969,2.210976702508961,-0.6154690684951356,-0.1596593679421403,-0.16707109662263187,0.7535162093799284
11.0,-0.05468372940574081,-0.07192611668323245,-0.016681515616999487,-4.404155130869551,-0.3263173699587362,8.747857353694162,0.2158201183699286,0.27034624333604407,0.03459393165868499,101.52110393888738,-26.694763523689044,2.1403250278606065,-0.615145513304765,-0.15963090851484896,-0.16807040317740432,0.7535638216343935
12.0,-0.053727297370561145,-0.0689791873738743,-0.016307987711213515,-4.425696229029246,-0.3124149573808018,8.738223095689886,0.03428934745941385,0.04941963344477572,0.05723152164091443,101.5448541647842,-26.829951846329926,2.0655702200234933,-0.6148434298050962,-0.159847622984639,-0.16941740763785734,0.7534657465564438
13.0,-0.048587663022198135,-0.0747266648594922,-0.014570404505888375,-4.448792686967259,-0.3140126502213788,8.726510165356462,0.028456597692840573,0.26724853920062647,-0.21967692991174964,101.63967858648836,-26.981900206319086,2.076065479955423,-0.6140081416411554,-0.16058291811469533,-0.17048621950594867,0.7537453533758922
14.0,-0.051218050661124684,-0.0687975362187886,-0.01400153609831029,-4.453384054697146,-0.32824134815216405,8.722831631577362,-0.017264916719375925,-0.14570560751182196,0.08049051609891267,101.69317518674137,-27.01535166485949,2.1621078807867233,-0.6135922704012229,-0.1612139096159754,-0.17033755195317915,0.7539822674401222
15.0,-0.04057766332339388,-0.06750808710581009,-0.009249871991807474,-4.4468891599650595,-0.33826941959579515,8.72628140718653,-0.01837708201560194,-0.16052641486702207,0.03624100177705491,101.64897894641729,-26.973541647841934,2.212718366916659,-0.613968685209572,-0.16141361855350744,-0.16968378973555015,0.7537795008481973
16.0,-0.047330261136712765,-0.06454889912954431,-0.009400921658986174,-4.4466298003072176,-0.34538760880696345,8.725958013312855,0.017607526881720428,0.06922683051715309,0.005542754736303121,101.67300307219662,-26.967601126472093,2.2699884792626728,-0.6138294484802869,-0.16171641123911928,-0.1693865342089093,0.7538938805089606
17.0,-0.046186379928315424,-0.06146082949308758,-0.01261904761904762,-4.431720942140297,-0.3529447004608293,8.73316794674859,0.014692140296979005,-0.5323988735279058,0.06151113671274961,101.70556515617,-26.86783154121864,2.315997823860727,-0.6136578337035331,-0.16141250179774708,-0.16858414177316944,0.7542786495197131
18.0,-0.05335125448028674,-0.056388888888888905,-0.020008960573476703,-4.287553763440862,-0.37094086021505357,8.802786738351253,0.12169578853046593,-0.4843189964157706,-0.08876568100358424,101.81154793906809,-25.927419354838708,2.410114247311828,-0.6141156706362008,-0.15690579934587812,-0.1619862647759856,0.7562500881362006
19.0,-0.04544802867383513,-0.051120071684587834,-0.01967741935483871,-4.27491935483871,-0.36345878136200693,8.809704301075268,0.0823252688172043,-0.19562051971326164,0.0985103046594982,101.83562948028674,-25.847558243727597,2.362343189964158,-0.6140463227598568,-0.15610977138888887,-0.1617485778942652,0.756553240062724
20.0,-0.044056067588325656,-0.05118049155145932,-0.017278801843317974,-4.287150025601637,-0.35647030209933417,8.805230414746545,-0.024051139272913462,0.025755248335893488,0.09927675371223757,101.76938844086021,-25.92281906041987,2.306925243215566,-0.6143661946781874,-0.15628486305273936,-0.1624190849682539,0.756126760485151
21.0,-0.04724756784434205,-0.056849206349206365,-0.019091909882232465,-4.300689708141318,-0.3532127496159752,8.798645673323094,-0.01748591909882232,0.015005760368663586,0.07500800051203277,101.72836021505377,-26.008704557091654,2.277342549923195,-0.614526228329237,-0.15666730440271376,-0.1630678042941628,0.7557903826036867
22.0,-0.04973220686123914,-0.06198617511520739,-0.021235279057859706,-4.307440604198666,-0.3514674859190986,8.795129288274449,-0.0033250128008192516,0.0022705453149001534,0.09553571428571428,101.7072020609319,-26.053614631336405,2.262047171018945,-0.6146946339820787,-0.15684970198438294,-0.1634127733799283,0.7555469213658474
23.0,-0.047841013824884815,-0.06040168970814134,-0.020075524833589355,-4.284576036866357,-0.3411100870455709,8.806225038402456,-0.03750480030721966,-0.3032162058371736,0.20676203277009728,101.55126568100357,-25.908555747567846,2.2019521249359957,-0.615930511408602,-0.15586191986763953,-0.1625358567795699,0.7549295165834613
24.0,-0.04631131592421917,-0.06646646185355864,-0.020641065028161806,-4.255342549923196,-0.33514285714285713,8.81999897593446,-0.00464989759344598,-0.30946620583717355,0.1595622119815668,101.43786482334869,-25.720519713261645,2.180728366615463,-0.6169306738576549,-0.1548437209252432,-0.16122987704301073,0.7545930565391705
25.0,-0.04856682027649772,-0.06207654889912957,-0.021841781874039942,-4.198758320532514,-0.32121863799283157,8.847441884280594,0.1412970430107527,-0.3896889400921659,0.19202508960573475,101.35997183819764,-25.352659370199692,2.0800307219662058,-0.6179282676548898,-0.15239334863671278,-0.15921995935919098,0.7547021856505378
26.0,-0.058880184331797245,-0.0598509984639017,-0.026503328213005634,-4.134101382488479,-0.31051971326164873,8.878649257552482,0.04659498207885305,-0.6663946492575524,0.1498879928315412,101.22714093701997,-24.93512224782386,2.001932923707117,-0.6192753185407067,-0.1499056493855607,-0.15662127918228366,0.7546317626236559
27.0,-0.0527857142857143,-0.05022964669738865,-0.01936687147977471,-4.12652073732719,-0.31344879672299036,8.88210343061956,0.06275601638504864,0.17904345878136202,0.06201196876600103,101.16515456989247,-24.884064580133128,2.01997567844342,-0.6197186702150538,-0.1498373646282642,-0.15614596159575012,0.7543872230583718
28.0,-0.04987403993855609,-0.047108550947260644,-0.02070046082949309,-4.166907322068613,-0.3165227854582694,8.86368612391193,0.04941116231438812,0.40120967741935487,-0.007888504864311321,101.13776881720429,-25.147817460317462,2.0397817460317462,-0.6195905762724014,-0.15138862341628262,-0.1577596272002048,0.7538521431152072
29.0,-0.05636559139784948,-0.043780081925243235,-0.021658986175115212,-4.226366103430619,-0.31588812083973383,8.83543753200205,0.015949820788530467,0.4672523041474654,0.12595206093189965,101.1232910906298,-25.535227854582693,2.0494991679467485,-0.6192224057537123,-0.15347053968049157,-0.16029823658166917,0.7531936341843319
30.0,-0.06220609318996417,-0.046482334869431666,-0.022505120327700977,-4.284858678955453,-0.3129664618535587,8.80708704557092,-0.008994175627240142,-0.14893433179723503,0.023577508960573472,101.08914330517153,-25.91518337173579,2.046450972862263,-0.6189193538894009,-0.15551516710727087,-0.1627927436492575,0.7524857372892986
31.0,-0.0586047107014849,-0.04796825396825399,-0.025796722990271383,-4.12746953405018,-0.3117695852534563,8.880136200716846,0.0939548131080389,-1.437618407578085,-0.1539746543778802,101.11556259600614,-24.900508832565283,2.0132296466973885,-0.6199910603031233,-0.1499033123358935,-0.15620141243420377,0.7540760578474143
32.0,-0.0612347670250896,-0.04768868407578086,-0.03907552483358935,-3.9670926779313884,-0.3005857654889913,8.95343164362519,0.175667242703533,-0.9068372375832052,-0.0022689452124936005,101.14094822068611,-23.868966013824885,1.9180811571940604,-0.6210239052467998,-0.14381523808960572,-0.1498780031546339,0.7556712485867896
33.0,-0.05802611367127497,-0.04259293394777267,-0.03422529441884281,-3.899955965181772,-0.31958320532514073,8.983206349206347,0.0144905273937532,-0.2868183563748079,-0.27195980542754733,101.31185995903738,-23.439660138248847,2.0326868919610854,-0.6203986924285715,-0.14200525086175117,-0.1466419567782898,0.7572017451075268
34.0,-0.05711239119303636,-0.040126472094214036,-0.03280593958013313,-3.9078346134152584,-0.3340542754736302,8.980793138760879,0.02990591397849462,0.16830357142857144,-0.04959677419354838,101.45244495647722,-23.486503136200717,2.1147977470558117,-0.6193880309070661,-0.14262667808320534,-0.1466736295550435,0.757939606873272
35.0,-0.06330977982590887,-0.036039938556067595,-0.033517665130568364,-3.877080389144905,-0.3499841269841269,8.994204813108038,0.0019041218637992838,-0.2979326676907321,0.011267921146953408,101.5012000768049,-23.28662634408602,2.2216013824884793,-0.619305948155146,-0.1421483572002048,-0.1448804911484895,0.7584522503138762
36.0,-0.05914797747055813,-0.027540706605222738,-0.03062570404505889,-3.8902232462877633,-0.3522096774193547,8.987988735279059,0.04359799027137737,0.1091461853558628,0.055563556067588324,101.50907738095238,-23.371513376856118,2.2401785714285714,-0.619168098016641,-0.14271890138863288,-0.1453399954877112,0.7583740476331284
37.0,-0.06114234511008705,-0.025690732206861248,-0.03233179723502305,-3.9473312852022535,-0.35604966717869935,8.962520737327193,0.060135048643113156,0.5355254736303123,-0.03721518177163339,101.53114119303635,-23.738504864311317,2.2730638760880697,-0.6185926331991807,-0.14479880115053761,-0.14769121469943675,0.7579902294777265
38.0,-0.06883077316948284,-0.02255965181771634,-0.03404710701484896,-4.019900153609831,-0.3552255504352277,8.93023988735279,-0.0008112519201228796,0.5597526241679467,0.085767089093702,101.51155113927291,-24.198515104966717,2.2757760496671784,-0.6181705722544801,-0.14724166890194573,-0.15075909873988735,0.7572530773579109
39.0,-0.08153456221198155,-0.022140040962621614,-0.03960419866871482,-4.093131080389146,-0.3500724526369686,8.897167434715824,0.02308787762416795,0.39263952892985143,0.19507328469022017,101.4588165642601,-24.668309971838198,2.253059395801331,-0.6179623902939068,-0.14964621976907322,-0.15395930473732716,0.7563029517524322
40.0,-0.09199743983614952,-0.025734767025089617,-0.04108038914490529,-4.14125755248336,-0.3374206349206349,8.876169226830523,0.038692076292882745,0.3413594470046083,0.1167210701484895,101.3774657578085,-24.97309427803379,2.172990271377368,-0.6181526432537121,-0.15090813305350745,-0.15630135216436253,0.7554280101600106
41.0,-0.10174244751664105,-0.029032258064516137,-0.04360471070148492,-4.167635944700461,-0.3243061955965182,8.864988735279065,0.07168138760880696,0.07883384536610344,0.026494495647721456,101.3123047875064,-25.137560803891446,2.0950076804915514,-0.6184251348750639,-0.1514537732785458,-0.15768481702304143,0.7548120618766001
42.0,-0.10203917050691243,-0.03404813108038915,-0.04762467997951871,-4.167425243215565,-0.31724372759856634,8.863932667690738,0.017490719406041987,0.04337237583205324,0.09495487711213518,101.27197740655402,-25.14564292114695,2.0481854838709674,-0.6187272419034817,-0.15124665440783414,-0.15786603097491034,0.7545674640873017
43.0,-0.10627572964669738,-0.038083973374295976,-0.052584485407066076,-4.171562724014338,-0.31291397849462366,8.861298771121358,0.015311379928315412,0.09165226574500768,0.034342997951868924,101.25709645417305,-25.17589605734767,2.019668458781362,-0.6187870606500254,-0.15123783549411163,-0.15821996864951354,0.7544466500993343
44.0,-0.10281976446492572,-0.04033230926779316,-0.0480798771121352,-4.174831541218638,-0.312326164874552,8.860098310291864,0.057078853046594984,-0.0736015104966718,0.03383256528417819,101.24735983102917,-25.200291218637993,2.0177867383512544,-0.6188073713241167,-0.15136048364311316,-0.1583681543113159,0.7543773034726062
45.0,-0.0968154121863799,-0.032520993343574,-0.043855606758832585,-4.191438812083973,-0.31606630824372767,8.85297542242704,0.052588965693804404,0.017116295442908346,0.02457757296466974,101.21555779569891,-25.302248143881208,2.0395385304659497,-0.6187875165053762,-0.15204267668330773,-0.15898267791141835,0.7541238313998977
46.0,-0.0991111111111111,-0.03309293394777267,-0.03911418330773171,-4.2011226318484365,-0.3181541218637994,8.846631080389145,-0.008539746543778794,-0.02641609062980031,-0.016329045058883766,101.22194220430107,-25.370294098822328,2.051635304659498,-0.6187146242741937,-0.15245253118663596,-0.15932236899155147,0.7540310938630315
47.0,-0.09349155145929339,-0.04246748591909884,-0.03834562211981568,-4.200142857142856,-0.3192114695340503,8.847331797235023,-0.006502816180235532,-0.12070852534562213,-0.007891705069124424,101.23611111111111,-25.36939004096262,2.05790770609319,-0.6186670495704045,-0.1524979166794675,-0.15923382146646187,0.7540800133742964
48.0,-0.08426395289298515,-0.05282360471070151,-0.03388300051203278,-4.183161546338967,-0.3127419354838711,8.854956221198158,0.09514208909370199,-0.16139752944188426,-0.17477598566308242,101.27979390681003,-25.24887512800819,2.017305107526882,-0.6185398226162315,-0.15154105181848432,-0.15873079271018947,0.7544805096098313
49.0,-0.0919979518689196,-0.062454173067076305,-0.03703072196620584,-4.185160266257042,-0.30660727086533546,8.854689708141319,0.057062852022529434,0.12291346646185358,-0.006954045058883765,101.32952508960574,-25.267425115207374,1.9815604198668715,-0.6182184619938557,-0.151308086922171,-0.15913869021658986,0.7547011574546851
50.0,-0.08768305171530977,-0.06150716845878137,-0.035795954941116245,-4.203504352278547,-0.31014951356886855,8.847386840757807,-0.026905721966205838,0.042617127496159764,0.10468669994879673,101.31586021505376,-25.382666090629797,2.0067972350230416,-0.6181169737434717,-0.15211422805094726,-0.15975695954659497,0.7544981363008194
51.0,-0.0778883768561188,-0.056755248335893516,-0.03473886328725039,-4.19967383512545,-0.30799641577060943,8.849873527905789,0.08159242191500256,-0.12774577572964668,0.04497247823860727,101.34593894009217,-25.351180875576034,1.9904089861751153,-0.6179986715376347,-0.15186117209728625,-0.15968696445417307,0.7546578121520737
52.0,-0.08010087045570916,-0.05263773681515619,-0.03668484383000513,-4.214636200716846,-0.3118476702508962,8.84207450076805,0.0444668458781362,0.06402009728622632,0.015231374807987714,101.43954653097798,-25.4556147593446,2.020182091653866,-0.6172714023878647,-0.1524623430967742,-0.16030611911904757,0.7550019612747055
53.0,-0.07265796210957501,-0.04165488991295445,-0.03118740399385561,-4.223200716845878,-0.3215913978494623,8.837950332821304,-0.13138440860215053,-0.22207821300563238,0.023716717869943678,101.39649257552483,-25.509757424475165,2.0946844598054275,-0.617452754952893,-0.15325718213978495,-0.16027181944751662,0.7546976451490017
54.0,-0.06425473630312342,-0.04290578597030211,-0.03372529441884281,-4.205073988735279,-0.3471976446492574,8.845335125448027,-0.010482270865335382,-0.08323892729134665,0.024556771633384537,101.3857462877624,-25.391876280081924,2.255166730670763,-0.6175856229633898,-0.15365289614618535,-0.15865631288965693,0.7548520201961086
55.0,-0.06174654377880186,-0.03922222222222223,-0.03001689708141322,-4.209122887864822,-0.34962365591397837,8.843252944188428,0.05453149001536099,-0.07795378904249872,0.15082565284178187,101.30602918586789,-25.4202156938044,2.26898681515617,-0.6180784781141834,-0.15401340099590372,-0.15868761865693803,0.7543703638197645
56.0,-0.07147849462365594,-0.03928341013824886,-0.030665386584741428,-4.20060701484895,-0.34392191500256003,8.847741167434716,0.07988351254480287,-0.017257104454685097,0.010259856630824377,101.24290194572453,-25.362600806451614,2.2361223118279567,-0.6186014918579109,-0.15355735081848437,-0.15838580829467486,0.7540977952703531
57.0,-0.07569892473118281,-0.03478392217101896,-0.03579749103942653,-4.213261392729135,-0.34249820788530455,8.841743727598567,0.21402329749103943,0.1275713645673323,-0.18174283154121862,101.42175019201228,-25.44978718637993,2.2167882744495646,-0.6172827803855606,-0.1536448746551459,-0.15927754470788535,0.7549721723737839
58.0,-0.07736559139784949,-0.03308192524321557,-0.034543010752688175,-4.227513312852022,-0.3393942652329748,8.835508960573478,0.06780913978494624,0.06465373783922171,0.001982526881720431,101.55106886840758,-25.54307795698925,2.197159818228367,-0.6163174786336403,-0.1538111766331285,-0.16012087284229393,0.755543313892985
59.0,-0.07742805939580134,-0.036902713773681525,-0.03467537122375833,-4.243017921146953,-0.33419047619047615,8.8273732718894,-0.0019329237071172567,0.12527201740911417,-0.0004064260112647223,101.58192844342037,-25.640386584741425,2.1750608038914487,-0.6160471772427032,-0.15415582919508442,-0.1609310111285202,0.755524340359959
60.0,-0.0801525650074037,-0.03655834405834407,-0.0325324794840924,-4.230498996692544,-0.2668939677004193,8.834365674430188,0.41395834198253556,-0.6964560326455488,0.6257013205601915,101.42677191880821,-25.562281348168444,1.7387182833755412,-0.6171938257613441,-0.15122123432689827,-0.1624527066140795,0.7548294684993218
61.0,-0.06328864809509971,-0.04086429747720072,-0.027659608917673443,-4.208206487593584,-0.2394057652122169,8.846878177716887,0.03230399177979823,0.05715392812167008,0.04607758680339319,101.29999550241484,-25.41868547695161,1.558847268927914,-0.6182206033690232,-0.14948273619570718,-0.162266438952201,0.7543844312881914
62.0,-0.057930038333264156,-0.04559343906118102,-0.025557915057915066,-4.207370524902782,-0.2329240807627906,8.848374572729412,0.007943470544277006,-0.004372344694925329,0.05745699616667356,101.26938139176042,-25.41634158640207,1.5182485192565838,-0.6184561058319771,-0.1491657816185909,-0.16241055854522488,0.7542214253261235
63.0,-0.06038527006268943,-0.051537758957113815,-0.027442936023581194,-4.206888667469311,-0.22975057084734524,8.848371874178321,-0.015265495910657196,0.08853963410415024,0.018647852922046453,101.25291426218845,-25.413003902520032,1.4865548151838475,-0.6186019145333719,-0.14902382393653563,-0.16251247501185975,0.7541192141236348
64.0,-0.06390231245069955,-0.0618287873126583,-0.026431145431145442,-4.2212646102323514,-0.2282577739029354,8.841407135245845,-0.04896339311661892,0.201700692628112,0.06833890341954857,101.24572556427395,-25.500827988126375,1.4503626610481448,-0.618593320437193,-0.14944139746135532,-0.16318504935846442,0.7539115871447666
65.0,-0.07062596006144393,-0.07104710701484895,-0.0323689196108551,-4.177799795186892,-0.1806541218637994,8.861326932923708,0.8424235151049667,-2.1791554659498207,1.9607078853046596,100.95094086021506,-25.21842837941628,1.1481294802867383,-0.6208442709078341,-0.14637667306323604,-0.1626092535550435,0.7526969005335381
66.0,-0.05605222734254993,-0.06963645673323093,-0.029432667690732214,-3.9269016897081412,-0.023333333333333386,8.972361495135688,-0.1674699180747568,-0.4588933691756273,0.8068548387096774,99.30152329749103,-23.613722478238607,0.15266577060931902,-0.6334115408571428,-0.1334050690988223,-0.15564222008397338,0.7458482311269841
67.0,-0.05383102918586791,-0.064984126984127,-0.030960061443932423,-3.980181515616999,-0.06587813620071689,8.951046594982081,-0.36321844598054276,0.9318404377880183,-0.6306195596518176,99.2703853046595,-23.95155529953917,0.42937948028673834,-0.6332046325330261,-0.13714420818381975,-0.15622013700563236,0.7453253520586277
68.0,-0.05258525345622121,-0.05841679467485922,-0.029456733230926787,-4.094836149513569,-0.12301740911418328,8.900116743471582,-0.17174859190988223,0.8170090885816692,-0.32614567332309263,99.61503136200716,-24.682882104454684,0.8083717357910907,-0.6300589888955452,-0.14314744208806962,-0.1593203659462366,0.7462818707997954
69.0,-0.05911751152073734,-0.060208397337429616,-0.027732974910394274,-4.181782130056322,-0.15070225294418838,8.860864823348692,-0.08547107014848951,0.5140921018945213,-0.09394841269841266,99.787354390681,-25.24386040706605,0.9939036098310292,-0.6283003937104453,-0.14716590311315925,-0.16217020726804918,0.7464250882985151
70.0,-0.06615821812596007,-0.0603730158730159,-0.03088709677419356,-4.240223502304147,-0.1706602662570405,8.831579365079367,-0.06037666410650281,0.38549027137736813,-0.15438908090117764,99.88278449820788,-25.622686251920122,1.1013424859190988,-0.6272669740550435,-0.14985764630568355,-0.16413349734818228,0.7463715636205838
71.0,-0.0713379416282642,-0.06684895033282132,-0.03286123911930365,-4.2765273937532005,-0.18375729646697392,8.81546082949309,0.01786994367639529,0.0740223374295955,-0.1037682411674347,99.99407642089093,-25.858398937532,1.195390104966718,-0.6262829261364568,-0.1515169256477215,-0.16529264719790066,0.7466428708469022
72.0,-0.0646236559139785,-0.07477931387608808,-0.03316436251920124,-4.275221710189453,-0.1881331285202254,8.815558627752175,0.07850102406554019,-0.17160138248847925,-0.08503584229390679,100.07096774193548,-25.846543778801845,1.2283026113671276,-0.6258059395217611,-0.15153415503430617,-0.16520770451612904,0.7470693877603686
73.0,-0.06072503840245777,-0.07095954941116232,-0.02975064004096263,-4.244197132616489,-0.1840389144905275,8.830069124423963,0.07659690220174091,-0.12732654889912953,-0.060989503328213,100.10448028673835,-25.645084485407068,1.2014848950332822,-0.625784928907834,-0.1502106452990271,-0.1640682254142345,0.7476018497997952
74.0,-0.05909062980030723,-0.07266871479774706,-0.02979237071172556,-4.253006400409627,-0.1868858166922684,8.826476958525346,0.10284338197644649,0.0038482462877624246,-0.053910650281618025,100.15546594982078,-25.70413786482335,1.2138472862263185,-0.6253509495737326,-0.15052064244674862,-0.16441686364720942,0.747828384641833
75.0,-0.05861341525857656,-0.0687537122375832,-0.026388120839733745,-4.2634162826420905,-0.2005038402457758,8.821190988223247,0.05917818740399385,-0.007008448540706606,-0.26205837173579105,100.34655017921146,-25.772823860727087,1.3053443420378905,-0.6240555400153609,-0.1512120645611879,-0.16462016633077314,0.7487206681228877
76.0,-0.061638504864311314,-0.06402150537634409,-0.02224219150025602,-4.281384024577574,-0.22541013824884792,8.811756784434206,0.3602086533538147,-0.09361239119303634,-0.36926843317972347,100.87257744495648,-25.8913818484383,1.4689356118791603,-0.6204404359098822,-0.15211132238044034,-0.16528198417869944,0.7513783596871478
77.0,-0.05841884280593959,-0.04946953405017922,-0.017176907322068613,-4.377396057347672,-0.23910291858678953,8.763562467997952,-0.053875448028673834,0.9729166666666665,-0.1449548771121352,101.24884632616488,-26.51990687403994,1.5674395161290322,-0.6171572934080902,-0.15553665090552996,-0.16944492865104965,0.752424012796979
78.0,-0.04234562211981567,-0.048318996415770615,-0.015761392729134665,-4.448200716845878,-0.24883461341525856,8.727583205325143,0.15647401433691754,0.08508064516129032,-0.25737327188940096,101.46187275985662,-26.980411546338964,1.6339381720430106,-0.6151723744101383,-0.15809895853968253,-0.17243911722427038,0.7528446697542244
79.0,-0.03528341013824886,-0.050099590373783934,-0.00961341525857655,-4.45021556579621,-0.2587997951868919,8.72699897593446,-0.057419674859191,-0.1172811059907834,0.004694700460829482,101.54890873015873,-26.99170346902202,1.7041234639016896,-0.6145982830345622,-0.15843990388274448,-0.17230042053379419,0.7532913599462365
80.0,-0.03275371223758321,-0.050529185867895565,-0.011455453149001534,-4.440896313364055,-0.26258986175115195,8.731420634920635,0.06064388120839734,-0.00106886840757809,-0.0995791730670763,101.58863447260624,-26.926659306195596,1.7221054147465438,-0.6144248486364567,-0.15819017432488477,-0.17182634152585768,0.7536048754121865
81.0,-0.032102662570404505,-0.04838735279057861,-0.010445468509984639,-4.44845442908346,-0.2614831029185867,8.727247055811574,0.045050883256528416,0.006858038914490524,0.03385176651305684,101.60309299795188,-26.973942332309267,1.705894777265745,-0.6142900852770098,-0.1583604485020481,-0.17220536900665645,0.7535987898655913
82.0,-0.028874039938556067,-0.05295238095238097,-0.0165189452124936,-4.296917050691243,-0.24112903225806442,8.799000768049158,0.3606534818228367,-2.4006192396313364,0.2526161674347158,101.54844310035841,-25.99816628264209,1.565460189452125,-0.6158421498842808,-0.15231236508883766,-0.16638767958960576,0.7547238716930362
83.0,-0.031853226498387795,-0.04928012344141379,-0.01485723972820747,-4.1402416794674854,-0.2281686525234913,8.875103527490623,-0.0930963797899281,-0.08311606537412985,-0.04226346161830033,101.52392109851786,-24.982952595452595,1.4748360111263337,-0.6172387884294988,-0.14639154407510274,-0.16008430415557492,0.7561465980843607
84.0,-0.03492200495426303,-0.05446494651333364,-0.01974659221433415,-4.136360471070149,-0.23130091612349685,8.878210749920427,-0.0571184663926599,0.2721228428889719,0.072416656287624,101.52984649395938,-24.957950952104177,1.485113858097729,-0.6172451520258092,-0.14637413964584628,-0.1598394589810133,0.7562705010790468
85.0,-0.043195769502221135,-0.05149322594483888,-0.022843726214693962,-4.179434715821814,-0.23009042221945464,8.859311468150178,0.020611913757075065,0.3959180522688587,0.11668547868144641,101.51341115020549,-25.23082359433166,1.4888606924897247,-0.6170178242028685,-0.14781736901199122,-0.1616590388991088,0.7558149447778748
86.0,-0.05351608751608753,-0.04563908609069901,-0.026601458601458607,-4.21958422939068,-0.22543230788392085,8.841621427879488,0.08141130762098506,0.2300770816899849,0.13246028286350867,101.49941150828246,-25.488851697319436,1.465599701083572,-0.6168422586591658,-0.14907810734329718,-0.16344761296760354,0.7553398769127468
87.0,-0.058476937767260366,-0.03945087945087946,-0.02665556801040673,-4.23852944188428,-0.22268850417237512,8.833018087211636,0.06631049252016995,0.15968139798784955,0.03578659304465756,101.46750529331175,-25.611678152807183,1.45163625607174,-0.616938429924053,-0.14964793185137212,-0.16439629131329483,0.7549521467697373
88.0,-0.06480952380952384,-0.039486431131592434,-0.02889298515104968,-4.250508960573477,-0.22140092165898612,8.82732309267793,0.0719342037890425,-0.049609575012800826,0.05560035842293907,101.45144009216588,-25.685746287762413,1.4452764976958525,-0.6169908554982079,-0.14995057101536102,-0.16488764377060927,0.7547458918392216
89.0,-0.06910522273425501,-0.04119943676395291,-0.03146031746031747,-4.226922683051715,-0.2170599078341014,8.839560163850486,0.11661226318484383,-0.7662506400409627,-0.09783346134152585,101.4447004608295,-25.532792498719914,1.4172811059907833,-0.617225509859703,-0.14898654434178185,-0.16398648177931385,0.7549345103251409
90.0,-0.06298003072196622,-0.04891961085509474,-0.030945212493599595,-3.9742857142857138,-0.1965765488991296,8.952082949308753,0.20363543266769074,-1.4558179723502302,-0.006522017409114185,101.44994879672299,-23.915309779825908,1.266884280593958,-0.6190157929585253,-0.13940749677214542,-0.15398702424987198,0.7572731715156169
91.0,-0.062476190476190484,-0.04681925243215568,-0.029592421915002567,-3.8619354838709676,-0.17832053251408092,9.002230414746542,0.08390296979006656,-0.542741935483871,-0.0028865847414234506,101.4272209421403,-23.200742447516642,1.1381656426011264,-0.6199230806543778,-0.1348269102754736,-0.14986124794060418,0.758242658048131
92.0,-0.05517972350230414,-0.040208909370199705,-0.02641065028161803,-3.8074398361495136,-0.18310291858678962,9.027295442908347,-0.1097094214029698,-0.3125640040962621,-0.18172683051715308,101.4520737327189,-22.852291346646183,1.165969022017409,-0.6201677279580133,-0.13310849325857654,-0.14740703451817716,0.7588721606144393
93.0,-0.05527803379416282,-0.038818740399385564,-0.02461187916026626,-3.830084485407066,-0.22793138760880693,9.016606758832564,-0.19200588837685612,0.5115591397849463,-0.012122375832053237,101.5182635688684,-22.99359318996416,1.456752432155658,-0.6195708992119817,-0.13563625216436254,-0.1469483577700973,0.759014951438812
94.0,-0.04109677419354839,-0.03304582693292372,-0.02079441884280594,-3.9030478750640034,-0.257763440860215,8.984301331285199,-0.0922363031233999,0.060010240655401975,-0.06853878648233486,101.58355894777264,-23.456813236047104,1.6467709933435741,-0.618635719437532,-0.1392554131554019,-0.14910946952918586,0.7587050229831029
95.0,-0.025238095238095237,-0.0327194060419867,-0.020968766001024063,-3.9249375320020476,-0.2706779313876087,8.974707117255504,-0.0636136712749616,0.1333173323092678,0.05188812083973375,101.65031362007169,-23.59569892473118,1.7305299539170507,-0.6180452186876599,-0.140430236921659,-0.14967326626830516,0.75887094896723
96.0,-0.021081413210445467,-0.039440092165898624,-0.02135432667690732,-3.9232368151561685,-0.2789626216077828,8.975872759856632,0.2616935483870968,-0.9140697004608295,0.11008704557091654,101.63848246287763,-23.58045954941116,1.7869335637480797,-0.6180926489490528,-0.14065676030414748,-0.149309536609831,0.7588568953238609
97.0,-0.029689452124935994,-0.037242447516641075,-0.0154621095750128,-3.8661390168970806,-0.266900665642601,9.000539426523297,-0.079502688172043,0.09535650281618019,-0.16152233742959551,101.66282322068612,-23.219553251408087,1.7029425883256528,-0.6183510578213007,-0.13820773211443932,-0.14734791285688686,0.7594772471018945
98.0,-0.03193497183819764,-0.03866154633896571,-0.017976702508960576,-3.8898230926779314,-0.26990706605222725,8.990827444956476,0.0677307347670251,0.4868087557603687,-0.10721646185355864,101.79579173067077,-23.37082053251408,1.7202156938044033,-0.617337288059908,-0.1389856808407578,-0.1484161064582693,0.7599575442186381
99.0,-0.04293906810035843,-0.043214541730670776,-0.016669226830517154,-3.9425304659498206,-0.27324628776241666,8.967187403993853,-0.04006336405529954,0.2576100870455709,0.0498463901689708,101.83914810547876,-23.709011776753712,1.746834997439836,-0.616657506406042,-0.14090595484997442,-0.15059564437173575,0.7597260098146442
100.0,-0.03972759856630825,-0.04510957501280084,-0.01934383000512033,-3.9641177675371226,-0.2721945724526368,8.957713517665127,0.013551267281105988,0.28882808499743984,0.039698540706605216,101.79523649513568,-23.848399897593445,1.7477262544802867,-0.6167743580509473,-0.14169135510701486,-0.1514777128172043,0.7593172217690732
101.0,-0.03490860215053764,-0.047330773169482865,-0.022507936507936505,-3.965195084485407,-0.2697352790578596,8.957257296466974,-0.3186891961085509,-0.4156217997951869,0.13370455709165385,101.71468253968254,-23.854643497183815,1.732538082437276,-0.6173002969869431,-0.1417260884764465,-0.15147943850537635,0.7588806471479775
102.0,-0.0422078853046595,-0.04876395289298517,-0.03073425499231951,-3.9796763952892986,-0.29394470046082954,8.95068509984639,-0.11140552995391703,0.5814196108550946,0.24583973374295953,101.54887352790578,-23.945858934971838,1.8887544802867384,-0.6182833008725039,-0.14343657958320533,-0.15109527596415773,0.7578296886635943
103.0,-0.038237583205325144,-0.04275985663082439,-0.02358832565284178,-4.058354326676907,-0.29534562211981574,8.914586789554534,5.7603686635959717e-05,0.5583653353814644,0.16514336917562722,101.44488607270866,-24.45176011264721,1.900684843830005,-0.6183681688694318,-0.14636377989759344,-0.15424380890834616,0.7565580879907834
104.0,-0.041057347670250904,-0.04570916538658477,-0.022728110599078345,-4.17520993343574,-0.2881536098310291,8.859706605222733,0.13674155145929343,0.9581637224782387,0.05969022017409113,101.4045666922683,-25.20992703533026,1.8661578341013825,-0.6177623552058372,-0.1502325901827957,-0.15941541144495647,0.7551986448463902
105.0,-0.04303507424475167,-0.0479098822324629,-0.023195596518177167,-4.19954301075269,-0.28722580645161294,8.848671018945211,-0.024063940092165892,0.006270801331285214,0.07410074244751663,101.34430843573989,-25.36606182795699,1.8600502432155657,-0.6179790287375833,-0.15111103326548897,-0.1603931444521249,0.7546493319224271
106.0,-0.032687916026625706,-0.05176574500768051,-0.02150819252432156,-4.196340501792115,-0.28484229390681,8.850993343573988,0.233797363031234,-0.3175819252432155,-0.09101382488479264,101.37944508448541,-25.33705197132616,1.8451324884792626,-0.6177536753325652,-0.15080061344470047,-0.1603700333878648,0.7549163410629802
107.0,-0.029887864823348695,-0.052751152073732745,-0.018599078341013826,-4.1667455197132615,-0.2753870967741934,8.866141833077316,0.11113031233998975,-0.4841717869943676,0.006464413722478232,101.47371671786993,-25.13985215053763,1.7733166922683052,-0.6174382382980033,-0.14920263965693803,-0.15952385567690733,0.7556750138648233
108.0,-0.03503609831029187,-0.05070276497695855,-0.020092165898617516,-4.10015156169995,-0.26740783410138236,8.896637736815157,0.050035202252944194,-0.3154153865847414,0.0351158474142345,101.4928203405018,-24.714655337941625,1.7259440604198668,-0.6177471182503843,-0.14653667933998976,-0.15702737329467487,0.7564606038725036
109.0,-0.042169738863287266,-0.05273323092677934,-0.020166666666666673,-4.046694572452637,-0.2531927803379416,8.921903737839223,0.008835765488991294,-0.19460125448028673,0.04858870967741935,101.4799091141833,-24.374479966717868,1.629771505376344,-0.6182172230875578,-0.1441522083218126,-0.15520150635816693,0.7569124872250382
110.0,-0.042155657962109586,-0.05638453661034309,-0.030921146953405025,-3.9471689708141326,-0.2415560675883257,8.96552176139273,0.3441916282642089,-1.5755152329749103,0.24153225806451611,101.44571172555044,-23.73335893497184,1.5422043010752686,-0.6191813423860728,-0.14022199278545827,-0.151307458766001,0.7576142090112647
111.0,-0.035337429595494116,-0.05124091141833079,-0.03549641577060932,-3.7923766001024077,-0.21443753200204818,9.031812596006144,-0.011800755248335876,-0.2717821940604198,0.009062980030721951,101.42752816180237,-22.755814772145417,1.3626056067588324,-0.6204189117905787,-0.13388614021505374,-0.14572002305581155,0.7588269288809524
112.0,-0.04140501792114697,-0.04554838709677421,-0.03193548387096775,-3.8223830005120334,-0.22648028673835136,9.019852534562213,-0.04631336405529954,0.6080517153097798,0.15389144905273935,101.38257168458782,-22.94935355862775,1.446319764464926,-0.6205168878105478,-0.13548557703020994,-0.14655137263799284,0.7583336268264207
113.0,-0.04643727598566309,-0.03518535586277523,-0.026804915514592943,-3.927519201228879,-0.229467485919099,8.974278545826934,0.028929851510496672,0.7012032770097286,0.2389912954429083,101.31661866359447,-23.613959293394778,1.4701644905273938,-0.620206605829493,-0.1393173161761393,-0.15076030453814643,0.7570610388924729
114.0,-0.0579651817716334,-0.024675627240143376,-0.03313056835637482,-3.9964600614439316,-0.22868305171530992,8.94352636968766,0.061843958013312855,0.2358838965693804,0.12499679979518688,101.27432315668202,-24.05893817204301,1.4779393881208396,-0.6200372394124423,-0.14177110362263184,-0.15363605416769072,0.7561811044923193
115.0,-0.06870711725550437,-0.020369943676395295,-0.03551510496671788,-4.023948540706606,-0.22533307731694832,8.931,0.04159146185355862,0.23279569892473118,0.09898393497183819,101.22735535074244,-24.232771697388635,1.45724366359447,-0.6200831605302097,-0.1426417695824373,-0.15480504262391187,0.755756752114183
116.0,-0.08285509472606248,-0.01695750128008193,-0.04012596006144395,-4.053377368151561,-0.2231459293394777,8.919209933435742,0.044745263696876605,0.23608870967741935,0.08444060419866871,101.20384344598054,-24.420510112647207,1.451152073732719,-0.6199910176333844,-0.14359605526523295,-0.1561095534951356,0.7553929134147465
117.0,-0.08387916026625705,-0.015644649257552483,-0.04364823348694319,-4.055029697900665,-0.2219969278033794,8.918987455197131,0.03838645673323093,-0.41182315668202757,-0.06941564260112648,101.21064868151561,-24.432403673835125,1.4408986175115208,-0.6199856986922683,-0.1436213581395289,-0.15619932526369684,0.7553734806290322
118.0,-0.09272811059907837,-0.024040962621607785,-0.039252432155657976,-3.8927926267281103,-0.22078341013824887,8.988458781362006,-0.00035202252944188314,-0.7254288274449564,-0.11328084997439836,101.23376856118793,-23.39717741935484,1.4184779825908858,-0.6210079885396826,-0.13789225577675368,-0.14943931424475165,0.7568944472903226
119.0,-0.08209933435739888,-0.03227342549923196,-0.035200204813108045,-3.8954807987711204,-0.22929032258064524,8.988309267793138,0.0341973886328725,0.09877112135176658,-0.1572004608294931,101.33524705581158,-23.411098310291855,1.467505120327701,-0.6203537150844853,-0.1381742991940604,-0.1494142501843318,0.7574201189749104
120.0,-0.06706810035842295,-0.04033486943164365,-0.0339457245263697,-3.9343256528417805,-0.24230414746543777,8.97168458781362,-0.05821812596006145,-0.27532642089093695,-0.013594470046082954,101.3904057859703,-23.65353302611367,1.543746799795187,-0.6197681531367127,-0.13993431162928827,-0.15067513759447004,0.7573479510865334
121.0,-0.06297183819764467,-0.04426420890937022,-0.03394982078853048,-3.8955545314900153,-0.2575483870967742,8.98916026625704,0.09105222734254992,-0.20364823348694316,-0.03726958525345623,101.45208653353815,-23.406346006144396,1.6417754736303123,-0.6195718477066052,-0.13914988571326165,-0.14864138136866356,0.7580645977368153
122.0,-0.07245826932923707,-0.04046850998463904,-0.03701638504864312,-3.892251920122888,-0.25423502304147466,8.99083358934972,0.05889016897081413,-0.08045314900153609,0.0049827188940092144,101.51279441884282,-23.38142761136713,1.6042114695340501,-0.6192929218579108,-0.1388031822713774,-0.14868533473041468,0.7583495943154124
123.0,-0.06573143881208399,-0.040507168458781384,-0.036975678443420396,-3.8727526881720435,-0.25260138248847924,8.998529185867895,0.02078853046594982,-0.21884760624679978,0.13289810547875064,101.51308243727598,-23.25810291858679,1.5859879032258064,-0.619334181267793,-0.138020604953149,-0.1479685593031234,0.7586009586001026
124.0,-0.07256221198156683,-0.041732718894009244,-0.03670967741935485,-3.8619907834101386,-0.24973271889400922,9.003032258064515,-0.013767281105990785,-0.036175115207373265,0.04285714285714286,101.47540322580645,-23.1926267281106,1.575,-0.6197026551981568,-0.13758989403686636,-0.1475675946267281,0.7584560984239637
125.0,-0.09235023041474656,-0.043253456221198174,-0.030506912442396325,-3.8128294930875577,-0.24625806451612903,9.022460829493085,0.17609447004608295,-1.3379608294930874,0.034101382488479264,101.44907834101382,-22.874251152073732,1.5448732718894007,-0.6202152371889402,-0.13573397432258066,-0.14556445931797235,0.7587289287741937
126.0,-0.08277009728622634,-0.04911008704557093,-0.03993343573988736,-3.7047465437788016,-0.26011776753712235,9.067084485407065,-0.12002688172043009,-0.22260624679979507,0.11116231438812083,101.50763568868408,-22.191935483870967,1.629832309267793,-0.6205410331746033,-0.13253308162928829,-0.14064352570814131,0.7599501372288786
127.0,-0.06644239631336407,-0.04791705069124425,-0.0392452636968766,-3.6674162826420886,-0.2883205325140808,9.082301075268816,-0.26922683051715307,-0.03620711725550431,0.3658794162826421,101.0601574500768,-21.963344854070662,1.8094278033794162,-0.6237302500727087,-0.1329773916333845,-0.13764368990988224,0.757809106078853
128.0,-0.04744598054275474,-0.04510087045570918,-0.03866973886328725,-3.70337224782386,-0.2812032770097285,9.06769278033794,-0.19884152585765488,1.4610919098822324,0.46298643113159244,100.86690988223245,-22.1967037890425,1.7701932923707115,-0.62474068306298,-0.13421028926062467,-0.13917658208090117,0.7564790832872503
129.0,-0.04165796210957502,-0.04178750640040964,-0.027925243215565797,-3.8491848438300047,-0.2953343573988735,9.004918586789554,-0.32361111111111107,-0.3232654889912955,-0.020359703020993325,100.71403289810547,-23.116743471582183,1.8769201228878647,-0.6247041342775218,-0.14004109114951357,-0.14453772839477724,0.754406047062468
130.0,-0.0356810035842294,-0.03106630824372761,-0.027043010752688175,-3.8970430107526886,-0.3285483870967741,8.983906810035844,0.07358870967741934,0.5071684587813619,-0.051859318996415764,100.54911514336918,-23.423275089605735,2.0949820788530467,-0.6254528962365592,-0.1432538320519713,-0.14524064714157703,0.7530746726612905
131.0,-0.030823348694316438,-0.029249615975422437,-0.01907398873527906,-3.9228924731182797,-0.31410547875064004,8.974722222222226,0.11783314132104455,0.03508704557091649,-0.0048787122375832,100.50370583717358,-23.580445148489503,2.0069220430107526,-0.6255872730985664,-0.14359301005888375,-0.14672618489989758,0.7526346969800308
132.0,-0.028064004096262165,-0.028213517665130576,-0.016942908346134152,-3.9674229390681006,-0.31083410138248846,8.95530465949821,0.16759152585765488,-0.1935899897593446,-0.00857174859190988,100.44131304403481,-23.861767153097794,1.989516129032258,-0.6256254197258065,-0.1450446265168971,-0.14864241060855093,0.7519586549326677
133.0,-0.021962621607782895,-0.02669764464925756,-0.03086226318484383,-3.8588279569892476,-0.28903609831029187,9.002477982590886,0.19825428827444957,-0.28200044802867386,-0.11454493087557603,100.42964829749104,-23.16784274193548,1.8286754352278547,-0.6265044450573478,-0.1403667972427035,-0.14484242502816178,0.7528259427898105
134.0,-0.026008192524321558,-0.02562928827444957,-0.02202611367127496,-3.884405017921147,-0.2800601638504863,8.992677163338453,0.07300147209421404,-0.05976702508960574,0.042021889400921664,100.459811827957,-23.333781362007166,1.7705485151049667,-0.6261186799390682,-0.14085491769841268,-0.14623533134024577,0.7528056780750125
135.0,-0.03268714797747056,-0.032087045570916545,-0.026518177163338454,-3.86310547875064,-0.2736098310291857,9.001617511520738,0.04647977470558116,-0.11400089605734767,-0.03853046594982078,100.46834677419355,-23.199007936507936,1.7285522273425498,-0.6262186837393755,-0.1398527097265745,-0.14556409099948797,0.7530496979651817
136.0,-0.03669380440348183,-0.03549513568868409,-0.02544802867383513,-3.8546909882232465,-0.2676528417818739,9.004979262672812,0.10016961085509472,-0.4764128904249872,0.005792370711725555,100.48797523041475,-23.145846134152585,1.709005376344086,-0.6261474074964158,-0.13937547404761907,-0.14538775127854583,0.7532319769964158
137.0,-0.04048796722990272,-0.03647004608294932,-0.026482334869431648,-3.7897557603686636,-0.267037378392217,9.03293701996928,0.04044098822324629,-0.25380184331797234,-0.018413978494623652,100.49304275473631,-22.7349366359447,1.692738735279058,-0.6266335601044546,-0.137089467140297,-0.14274144467946748,0.753750483566308
138.0,-0.036939836149513586,-0.03861290322580646,-0.026973886328725043,-3.718264976958525,-0.26221915002560153,9.062855606758834,0.34020897337429595,-0.8598790322580645,0.02345430107526882,100.5271953405018,-22.281494815668204,1.6526193676395289,-0.6269205322549922,-0.13433045025678442,-0.13996644605401945,0.7545177544605735
139.0,-0.036476190476190495,-0.03682437275985664,-0.027752176139272916,-3.673303635432668,-0.2531705069124423,9.081185867895547,-0.07348310291858676,-0.12410394265232971,0.016935483870967744,100.54865591397848,-21.996230158730157,1.590674603174603,-0.6270901278658474,-0.13241579940706605,-0.1384166771264721,0.7550116392688171
140.0,-0.041836149513568885,-0.039591397849462376,-0.027428571428571434,-3.61779211469534,-0.2446676907322069,9.103671274961602,-0.015783410138248837,-0.1388888888888889,0.03635432667690732,100.55250896057348,-21.647299027137734,1.5357526881720431,-0.6274109046011265,-0.13013559107424477,-0.136432562641065,0.7555011829493086
141.0,-0.04048335893497185,-0.03408397337429596,-0.0259436763952893,-3.6028704557091653,-0.24081822836661554,9.110071684587815,-0.08832565284178186,0.19296594982078852,0.03887608806963645,100.6005120327701,-21.55573476702509,1.5147081413210446,-0.6271859147926269,-0.12941257619457242,-0.1359937035217614,0.7558978274623656
142.0,-0.040476702508960585,-0.04136456733230928,-0.02610087045570917,-3.611817716333845,-0.2362754736303124,9.106611879160265,-0.02644969278033793,-0.06872439836149515,-0.02966909882232463,100.6314484126984,-21.612314388120843,1.4859254992319508,-0.626937042281106,-0.12948973453507423,-0.13654155435535073,0.7559929931505376
143.0,-0.030747823860727094,-0.048849718381976465,-0.021774449564772147,-3.625174091141833,-0.25649001536098304,9.101150281618022,-0.07620167690732207,0.08455741167434716,0.03263088837685612,100.7162362391193,-21.696598182283665,1.6174635176651306,-0.6262531268855606,-0.13066327965258578,-0.1365357083732719,0.7563571277150537
144.0,-0.028510240655401947,-0.05660215053763443,-0.02252688172043011,-3.6728899129544295,-0.2617311827956988,9.081619303635431,-0.009258192524321553,0.18935611879160263,0.09624775985663082,100.69642697132616,-21.99398681515617,1.6466509856630824,-0.6260886362905786,-0.13252838627137736,-0.13831148985304662,0.7558462162772657
145.0,-0.029411930363543268,-0.06188530465949822,-0.020716845878136204,-3.7147603686635953,-0.25750537634408593,9.064640296979007,0.06907162058371735,0.17330709165386585,0.09032258064516129,100.63766801075268,-22.259202188940094,1.6299731182795698,-0.6261966439114184,-0.13391644107475678,-0.14010774705017925,0.755179139325909
146.0,-0.035014336917562734,-0.05790527393753203,-0.020581669226830523,-3.743710189452125,-0.24864106502816175,9.053206349206349,0.20471390168970816,0.09545890937019968,-0.10021121351766513,100.66236239119303,-22.440639400921658,1.5760464669738863,-0.625826364904762,-0.13453462287916026,-0.14163941838760882,0.7550969793845366
147.0,-0.04560855094726063,-0.05884664618535587,-0.0257931387608807,-3.6983020993343576,-0.22423297491039423,9.071266769073219,0.2695516513056836,-0.737869623655914,0.14960637480798772,100.69938396057347,-22.15709965437788,1.4206269201228878,-0.6258969917196621,-0.13191397670686125,-0.14059262463159244,0.7556770610517154
148.0,-0.05457398873527906,-0.05189196108550949,-0.026946748591909885,-3.679634920634921,-0.20959856630824375,9.079970302099335,-0.13597350230414748,0.31982526881720424,0.2103878648233487,100.56001344086022,-22.040831413210444,1.3246447772657448,-0.6269400838213006,-0.1308669472826421,-0.14016256091346646,0.7550786470491552
149.0,-0.0486505376344086,-0.051876344086021514,-0.02657219662058372,-3.7083084997439837,-0.22509216589861755,9.067783922171017,-0.16094310035842294,0.0331525217613927,0.06236559139784947,100.55767889144904,-22.21759312596006,1.4238943292370712,-0.626764790170251,-0.1324635539751664,-0.14080818193036349,0.7548325043894009
150.0,-0.0363010752688172,-0.04981362007168459,-0.028174091141833075,-3.6330834613415255,-0.2605837173579109,9.097171530977981,0.060573476702508955,-0.8729006656426012,0.09883512544802867,100.44424603174603,-21.738920890937017,1.6438748079877112,-0.6280054177419356,-0.13140083443830003,-0.13636015241679464,0.7547815560522273
151.0,-0.013338453661034304,-0.044121351766513064,-0.024651305683563746,-3.5656738351254473,-0.23997388632872507,9.124291858678955,0.13167562724014337,-0.18965693804403483,0.07096454173067077,100.37772977470559,-21.319662058371733,1.507075652841782,-0.6288931372345111,-0.128333775141321,-0.1342216743973374,0.7549624644342037
152.0,-0.008351254480286736,-0.037732974910394276,-0.024874551971326167,-3.6006362007168455,-0.25810931899641576,9.110591397849461,-0.0926299283154122,0.2533602150537635,0.017641129032258066,100.4180667562724,-21.540098566308245,1.6219198028673836,-0.6283919362455197,-0.13021489581541218,-0.1351326566129032,0.7549023374731182
153.0,-0.019688172043010748,-0.03730670762928829,-0.024966205837173586,-3.6340002560163844,-0.2725972862263184,9.097806707629289,-0.07098214285714285,0.2663530465949821,0.11974366359447004,100.43247567844341,-21.75013920890937,1.716228238607271,-0.6281035364329237,-0.13195877655401944,-0.13603440677572964,0.7546846485962622
154.0,-0.022434971838197645,-0.033147465437788036,-0.02282693292370712,-3.690745007680491,-0.2722025089605734,9.074841525857657,0.05679403481822835,0.25864375320020483,-0.013522465437788025,100.41828116999488,-22.110243855606758,1.723795122887865,-0.627806328295187,-0.13391530137890423,-0.1383728737862263,0.7541625929429083
155.0,-0.014411930363543267,-0.03156477214541732,-0.02312493599590374,-3.6797900665642604,-0.2704157706093189,9.078715565796216,0.03287730414746543,-0.4253936251920123,-0.026838517665130568,100.55583077316949,-22.041345046082945,1.7118919610855095,-0.6269635559531492,-0.133278035922427,-0.13811632084920636,0.7550231522286225
156.0,-0.01574142345110087,-0.034473118279569906,-0.021249615975422426,-3.652902713773682,-0.2856134152585765,9.08961495135689,-0.040349782386072716,-0.107982910906298,0.010011840757808501,100.57869783666155,-21.87073732718894,1.802432155657962,-0.6270327964464926,-0.13294607468484382,-0.1365309671077829,0.7553124483753201
157.0,-0.02270046082949309,-0.040229390681003604,-0.01910599078341014,-3.646514080901178,-0.29064720942140276,9.091850486431131,0.05809011776753712,-0.03453020993343574,-0.1899705581157194,100.6769777265745,-21.829857910906295,1.829531490015361,-0.6264117589042499,-0.13281261886123913,-0.13622886817306706,0.7559087529421402
158.0,-0.024400921658986177,-0.05475985663082438,-0.02109216589861751,-3.6360358422939063,-0.3000010240655401,9.095869943676398,-0.25286738351254484,-0.15041602662570405,0.11984767025089606,100.59119623655914,-21.765360983102916,1.8858486943164363,-0.627011413157194,-0.1329234350296979,-0.13537897314644134,0.7555464577982592
159.0,-0.024975678443420378,-0.06460675883256528,-0.01981541218637993,-3.6282611367127497,-0.3355960061443932,9.097275473630312,-0.2994783666154634,0.011491935483870952,0.23071556579621097,100.39473726318485,-21.712051971326165,2.110442268305172,-0.6283318615197131,-0.1343246298092678,-0.1336398382532002,0.7545061365432668
160.0,-0.03066154633896569,-0.06012391193036356,-0.01793241167434716,-3.6800225294418842,-0.3497009728622631,9.07618791602663,0.02786098310291857,0.26726510496671785,0.03573348694316436,100.34028097798259,-22.04114183307732,2.2092901945724526,-0.6283069298095236,-0.13678382574142345,-0.1352483398888889,0.7537995585232975
161.0,-0.030121863799283152,-0.050820276497695875,-0.018975422427035333,-3.682232462877624,-0.3433727598566308,9.075588581669228,0.16613863287250386,-0.0723902329749104,0.11299603174603175,100.32186859959037,-22.0472894265233,2.157707693292371,-0.6284646450025599,-0.13653227414567332,-0.1355478855906298,0.7536674038131079
162.0,-0.03730465949820788,-0.04399334357398875,-0.022186891961085514,-3.653448028673835,-0.32250435227854585,9.087445980542757,0.1102662570404506,-0.14403161802355352,-0.036936763952892984,100.38729518689195,-21.874065540194575,2.0231694828469022,-0.6282603390225292,-0.13466767522324624,-0.1351433145094726,0.7542434582974912
163.0,-0.03657962109575014,-0.049569124423963135,-0.03423271889400922,-3.5771152073732715,-0.2914723502304148,9.118104966717873,0.015588197644649263,-0.6163994495647721,-0.021710189452124933,100.42925307219662,-21.394236431131592,1.8297971070148489,-0.6284605709644137,-0.13075229302892985,-0.13305028234741423,0.7551134206362006
164.0,-0.03794930875576037,-0.04654531490015362,-0.03344700460829494,-3.558916026625704,-0.2957854582693292,9.126301587301588,0.1287058371735791,0.05187532002048134,0.005385944700460828,100.41741551459293,-21.28017153097798,1.8542466717869943,-0.6286567216067588,-0.13029939521966205,-0.1321759720563236,0.7551932536917562
165.0,-0.03403456221198156,-0.04907910906298005,-0.02899539170506913,-3.6409234511008703,-0.31460701484895026,9.092477982590886,-0.17438556067588326,0.626628904249872,-0.11369527649769584,100.51541858678956,-21.795615719406044,1.9860519073220684,-0.6274524103932413,-0.1338101420568356,-0.13503065495442906,0.755061012670763
166.0,-0.02916333845366103,-0.049678443420378915,-0.023207373271889407,-3.7124644137224783,-0.3464388120839735,9.062076804915513,-0.15372503840245777,0.20673963133640555,0.13012032770097287,100.47847542242704,-22.248390296979007,2.195730926779314,-0.6271914468812084,-0.13760987032053248,-0.13689031409011776,0.7542645662816181
167.0,-0.02792217101894521,-0.04402048131080391,-0.019800307219662062,-3.7508804403481824,-0.36950460829493104,9.046500256016387,-0.032981310803891446,0.04129864311315927,0.08250768049155147,100.45489631336406,-22.49367159498208,2.3496799795186893,-0.6270818586490017,-0.13991396099385559,-0.13767679347516643,0.7537968352442395
168.0,-0.019876088069636456,-0.03497593445980544,-0.016243727598566307,-3.7604423963133646,-0.38063799283154137,9.04152073732719,-0.018665194572452637,-0.03410298259088582,0.18768561187916025,100.41798835125448,-22.54873751920123,2.4284786226318484,-0.6272793936981568,-0.14077945598719918,-0.13763358188172042,0.753491732502048
169.0,-0.023320020481310808,-0.03579416282642091,-0.01998924731182796,-3.7734485407066063,-0.3815734767025092,9.036010752688167,-0.01847478238607271,0.1540962621607783,0.14109703020993342,100.31407450076804,-22.633179723502302,2.423348694316436,-0.6278043954956479,-0.1413375398894009,-0.13804434675064003,0.7528795034767024
170.0,-0.03019457245263698,-0.03328417818740401,-0.024939324116743475,-3.7844247311827974,-0.3815240655401948,9.03210215053763,0.025699244751664106,0.07002048131080389,0.06320404505888377,100.24407642089093,-22.694038018433176,2.4032354070660524,-0.6281586871948286,-0.141714141281106,-0.13843160559651818,0.7524421075079366
171.0,-0.039624679979518705,-0.035743471582181274,-0.024427035330261145,-3.7908993855606763,-0.37609242191500253,9.030559395801326,0.02676331285202253,0.057893305171530976,0.15746287762416794,100.15922139016897,-22.744337237583203,2.3860167050691246,-0.6286553119649259,-0.14187510664311317,-0.13878957492319505,0.7519309989344596
172.0,-0.05034101382488482,-0.04114285714285716,-0.02905069124423964,-3.797179723502304,-0.3727281105990782,9.026691244239629,-0.011981566820276499,0.09735023041474654,0.036808755760368655,100.11595622119816,-22.786578341013822,2.3547811059907833,-0.6289401709032256,-0.14200045561290325,-0.13914277422119814,0.751605872175115
173.0,-0.06021198156682029,-0.04815668202764979,-0.03332718894009218,-3.797437788018434,-0.37107834101382464,9.0261198156682,-0.0012672811059907842,-0.020967741935483883,-0.009216589861751157,100.11814516129033,-22.788997695852533,2.3512096774193547,-0.6289690854746544,-0.14198678605529957,-0.1391665694470046,0.751580894267281
174.0,-0.06393343573988737,-0.05774910394265235,-0.033910906298003085,-3.7989165386584745,-0.3634961597542241,9.026136200716843,0.018356374807987713,0.03936891961085509,0.09962877624167947,100.04841909882234,-22.792300307219662,2.308909370199693,-0.6294489787363031,-0.1418190385192012,-0.13933408639426523,0.7511785433579108
175.0,-0.07575934459805429,-0.06420174091141835,-0.03387711213517666,-3.8047301587301594,-0.36068817204301057,9.02321556579621,0.0037058371735791086,0.028526625704045058,0.04831669226830517,100.01565540194572,-22.826593701996927,2.2783602150537634,-0.6296287969626215,-0.14189919891858677,-0.13967343915104968,0.7509542175545316
176.0,-0.07396722990271379,-0.0627414234511009,-0.03793855606758834,-3.779558627752177,-0.35441781874039924,9.034584741423451,0.1157642089093702,-0.08772401433691755,-0.08779441884280594,100.02303507424475,-22.670583717357914,2.2447388632872505,-0.6297182835873015,-0.1407978107311828,-0.13884211084280595,0.7512353223348696
177.0,-0.06942089093701997,-0.05972811059907837,-0.034635432667690744,-3.7989088581669224,-0.3533200204813107,9.026668202764974,0.0308531746031746,0.06607142857142859,0.03625192012288787,100.04600614439323,-22.793311571940603,2.2389336917562725,-0.6294228764879671,-0.1413899706753712,-0.13972784246851,0.7512058610993346
178.0,-0.07711136712749617,-0.07116359447004611,-0.037958269329237085,-3.820007424475165,-0.343079365079365,9.018076036866358,0.03463741679467486,0.10901497695852536,0.1322100614439324,99.97484639016898,-22.929633896569378,2.1875256016385047,-0.6297947724006656,-0.14186099248515102,-0.1408098090729647,0.750603071222478
179.0,-0.08083973374295955,-0.0784557091653866,-0.03981054787506402,-3.8549851510496667,-0.3365519713261648,9.003598566308245,-0.002624167946748593,0.24171146953405015,0.0351510496671787,99.85400665642601,-23.152508960573478,2.1327124935995903,-0.6303221784178188,-0.142914114938044,-0.14235536664311316,0.7496653787721452
180.0,-0.08931848438300051,-0.08883614951356889,-0.04266103430619562,-3.893248335893497,-0.3379764464925754,8.987458269329238,-0.027896185355862774,0.2588165642601126,-0.00448668714797747,99.86634664618535,-23.39468766001024,2.1397145417306707,-0.6299963730430107,-0.14428319330312334,-0.14392813017869943,0.7493774008054275
181.0,-0.08995878136200716,-0.09247337429595495,-0.0425977982590886,-3.917302611367127,-0.3437199180747566,8.977082437275982,-0.08920410906298003,0.03042594726062467,0.10506912442396313,99.89502048131081,-23.545535714285712,2.1900281618023554,-0.6296646507391194,-0.1453512167211981,-0.1447333194672299,0.7492967349347155
182.0,-0.07682027649769585,-0.08337327188940094,-0.034064516129032274,-3.939028161802354,-0.3572852022529439,8.966706605222733,-0.009632616487455191,-0.016858678955453153,0.14776625704045057,99.8468509984639,-23.684306195596516,2.2847542242703534,-0.6297579983369176,-0.14680579482744494,-0.1450983802672811,0.7488642594756785
183.0,-0.06919815668202767,-0.07811981566820278,-0.03244239631336407,-3.9536661546338956,-0.36555043522785446,8.959745007680489,-0.008186123911930361,-0.1102726574500768,0.06941884280593956,99.82348310291859,-23.775332821300562,2.3363863287250384,-0.629832640716846,-0.14765551270865335,-0.1453817105437788,0.7485789598484383
184.0,-0.07350230414746545,-0.07617511520737327,-0.035018433179723515,-3.9093445980542745,-0.37695954941116233,8.97796466973886,0.017709933435739886,-0.487768817204301,-0.2105094726062468,99.89103302611367,-23.490661802355348,2.4064708141321045,-0.6296446103768563,-0.14643666898105479,-0.1432848765391705,0.7493746485094726
185.0,-0.0611336405529954,-0.06938709677419355,-0.03432949308755761,-3.835211469534049,-0.3808945212493601,9.008738095238094,0.10185611879160267,-0.5440572196620583,-0.08705197132616488,100.0441916282642,-23.021626984126982,2.4081893241167434,-0.6291694484971839,-0.14377292214490528,-0.14030667961981563,0.7508388359321556
186.0,-0.054921658986175126,-0.06169175627240145,-0.02250076804915515,-3.7557777777777765,-0.3567107014848951,9.042715821812594,0.5692972350230414,-0.8593381976446492,0.289247311827957,100.17022529441884,-22.51988607270865,2.248617511520737,-0.6289073563184844,-0.13986696430721962,-0.13800233840757808,0.7522028918863287
187.0,-0.0535299539170507,-0.05618023553507426,-0.02990373783922172,-3.7008161802355346,-0.3196231438812084,9.067478750640042,-0.016596262160778252,-0.16085509472606246,-0.14247951868919612,100.17693292370711,-22.174545570916536,2.0205901177675374,-0.6292874493947773,-0.13650851167332306,-0.13693844489093704,0.7527100792903225
188.0,-0.04640552995391706,-0.054437275985663086,-0.026779313876088076,-3.669908858166923,-0.318963645673323,9.080780337941626,-0.10946620583717358,-0.31746031746031744,-0.3212109575012801,100.19109703020993,-21.976932923707118,2.0086405529953915,-0.6294393657357911,-0.13534507395801332,-0.13567730850588838,0.7530302814490526
189.0,-0.050995391705069136,-0.0562462877624168,-0.023251408090117776,-3.6760880696364566,-0.3563067076292883,9.077026113671275,-0.16968125960061442,0.059213389656938065,-0.08747759856630824,100.3534690220174,-22.016865079365076,2.248444700460829,-0.6283117903609832,-0.13687925943061954,-0.13489966769994874,0.7538397360747566
190.0,-0.04533179723502305,-0.055261392729134676,-0.024201740911418333,-3.708504864311316,-0.3826971326164875,9.063420890937023,-0.09970238095238095,-0.0007792498719918148,-0.09221230158730159,100.429931515617,-22.21373207885304,2.42926267281106,-0.6275903789869433,-0.13899680489964156,-0.1354083170849974,0.7539652493507425
191.0,-0.03662647209421403,-0.05483947772657452,-0.027970046082949312,-3.686008704557092,-0.39400537634408606,9.072104710701485,0.008392537122375823,-0.25971422171018943,-0.07094374039938557,100.57238063236046,-22.077968189964157,2.492689132104455,-0.6267724503581669,-0.1385027478530466,-0.1343206680675883,0.7549339423545827
192.0,-0.018351254480286742,-0.047088581669226845,-0.0266610343061956,-3.6705691244239635,-0.3987055811571942,9.07813440860215,0.09099622375832052,-0.22670890937019966,0.04529409882232463,100.57281906041987,-21.99005696364567,2.519442844342038,-0.6268702286492573,-0.13816122341474651,-0.13356644356963646,0.7550546171661546
193.0,-0.022539682539682547,-0.039200204813108055,-0.0217931387608807,-3.66604915514593,-0.3870762928827445,9.080532514080902,0.24497567844342036,0.1844726062467998,0.02216461853558628,100.534914234511,-21.956073988735277,2.4365399385560673,-0.6271614819989759,-0.13755839111213514,-0.13372953332411674,0.754888844326677
194.0,-0.027279569892473127,-0.03686328725038403,-0.01816794674859191,-3.668594470046083,-0.373715821812596,9.079840245775728,0.22283346134152585,-0.6390681003584229,-0.2570916538658474,100.60440348182283,-21.970266897081416,2.3582565284178187,-0.626650758393241,-0.13702119729902712,-0.13431211127956988,0.7552944019923196
195.0,-0.018299283154121868,-0.03418228366615464,-0.028172043010752684,-3.639896825396825,-0.37769201228878646,9.090449052739373,-0.7555923579109063,0.5777617767537122,0.9706221198156683,100.65351382488478,-21.792938748079877,2.3799667178699435,-0.6264969695079365,-0.13614971782821297,-0.13306336704275473,0.7557682499572455
196.0,-0.00795084485407066,-0.030222222222222223,-0.024791602662570397,-3.787024065540194,-0.41814234511008713,9.026966717869943,0.6880824372759857,0.1952572964669739,0.13276369687660017,100.30530593958014,-22.724987199180745,2.6531362007168457,-0.6277244492667691,-0.1433015397624168,-0.13743904591807476,0.7525876525898618
197.0,-0.02172555043522785,-0.0247931387608807,-0.02345058883768561,-3.736493599590373,-0.3127316948284691,9.05183717357911,-0.10192652329749102,0.12996351766513056,0.36341845878136203,100.00472030209932,-22.40081605222734,1.9830037122375832,-0.6301303621177675,-0.1376773579871992,-0.13846067373323093,0.75144593018638
198.0,-0.013722478238607267,-0.025357142857142863,-0.019047363031234,-3.7628878648233477,-0.3160729646697389,9.041781874039938,0.0826868919610855,0.3041170634920635,0.3092085893497184,99.69700620839734,-22.56371127752176,2.0056851638504867,-0.6319873236349206,-0.13907415559626213,-0.13902706958550948,0.7495598629411162
199.0,-0.01651177675371223,-0.03418842805939581,-0.01616794674859191,-3.8209331797235015,-0.32496748591909885,9.017324628776244,0.05086405529953917,-0.10216973886328728,0.15664842549923194,99.44345718125959,-22.931693228366616,2.060946300563236,-0.6332297660199692,-0.1417520315481311,-0.14082179353379415,0.7476768437913466
200.0,-0.021710189452124933,-0.03033794162826421,-0.01435637480798771,-3.8064208909370194,-0.31387711213517666,9.024262672811059,0.06239439324116743,0.12969470046082948,0.13631592421915,99.1889944956477,-22.841714669738863,1.9943228366615462,-0.6350135530906298,-0.14113880157603687,-0.14028411900256016,0.7464068328678954
201.0,-0.0185463389656938,-0.033606758832565295,-0.01169431643625192,-3.8144546850998453,-0.30042703533026105,9.02077188940092,-0.0077140937019969285,0.3500720046082949,0.17411994367639527,98.99112743215565,-22.892689132104458,1.9142121095750126,-0.6362224061213517,-0.14115180529493088,-0.14083657778699438,0.7452827577657448
202.0,-0.017319764464925756,-0.04415104966717871,-0.01437762416794675,-3.882630568356375,-0.31609165386584737,8.99093701996928,-0.10469150025601637,0.0997391833077317,0.21570020481310803,98.84130184331798,-23.32333269329237,2.0150697644649256,-0.6367368137954429,-0.1443542807926267,-0.1429217923701997,0.743828431924987
203.0,-0.015868663594470048,-0.06566871479774707,-0.04824167946748592,-3.782628008192524,-0.2870601638504864,9.032206861239121,1.1440028161802354,-2.4641593061955964,0.051006464413722474,98.80987583205325,-22.690676203277008,1.8205389144905273,-0.6376270113645673,-0.13964475126548895,-0.1397233859969278,0.7444744231802356
204.0,-0.02354249871991808,-0.03966513056835638,-0.0014910394265233093,-3.7650755248335894,-0.24120967741935476,9.040064516129032,-0.308574948796723,1.409752624167947,-0.27291826676907327,98.81080709165386,-22.586787954429084,1.5322724654377882,-0.6377389306492576,-0.1373206011897081,-0.14067790623988735,0.7446053065427548
205.0,-0.016220174091141834,-0.0423415258576549,-0.00655197132616488,-3.7949436763952895,-0.2470071684587814,9.029817204301077,0.19128264208909368,-0.08480222734254972,-0.21282002048131082,99.17349270353303,-22.770180491551457,1.5663434459805425,-0.6352053281203276,-0.13809927611008702,-0.14207664557962107,0.7464155931100869
206.0,-0.013031746031746031,-0.04409344598054277,-0.009718894009216592,-3.829888632872504,-0.263305427547363,9.014941884280596,-0.1273041474654378,1.222083013312852,-0.5376920122887865,99.412063172043,-22.99946556579621,1.6723998335893495,-0.6334172046310804,-0.13973222085944698,-0.14329154359933433,0.7474119576651306
207.0,-0.014992575524833587,-0.038816436251920126,-0.009742959549411165,-3.952144137224783,-0.3005550435227855,8.960728110599078,-0.0654441884280594,0.6725054403481822,0.06913562467997947,99.75528673835126,-23.771574180747567,1.9225294418842804,-0.6302744202411674,-0.14506410248617507,-0.14752409277188938,0.7482246158038914
208.0,-0.011249359959037378,-0.043396825396825406,-0.01124935995903738,-4.115775217613928,-0.3085908858166924,8.886295954941119,-0.13844726062468,1.0689516129032257,0.17723374295954938,99.68872567844342,-24.82277585765489,1.991973886328725,-0.629456676251408,-0.15127802247772656,-0.1539750480261137,0.746367932669227
209.0,-0.01544956477214542,-0.04325550435227857,-0.013063492063492065,-4.2299254992319515,-0.3059129544290836,8.832724014336915,-0.02021249359959038,0.6824756784434204,0.16873719918074756,99.55059043778802,-25.557330069124422,1.9754800307219662,-0.6294529305250895,-0.1554296395353303,-0.15867487993522789,0.7445553156049668
210.0,-0.023646185355862777,-0.046569892473118296,-0.013274449564772145,-4.321015104966719,-0.29145161290322585,8.790251408090114,-0.06054627496159754,0.42285426267281107,0.38620391705069124,99.32959549411163,-26.1449708781362,1.888943292370712,-0.6301718091840758,-0.158410809234511,-0.16265500406272404,0.7424761465647722
211.0,-0.03603456221198156,-0.04778315412186382,-0.0131694828469022,-4.306793394777266,-0.27124551971326166,8.797338965693804,0.2007136456733231,-1.3185067844342038,0.0882072452636969,99.16726190476192,-26.055488351254482,1.7553475422427036,-0.631357942248848,-0.15729392557603689,-0.1625154160591398,0.741734761203533
212.0,-0.04584434203789043,-0.048716845878136225,-0.01875320020481311,-4.0831592421915,-0.2457347670250897,8.901294930875574,0.16952124935995905,-0.919166026625704,-0.1323636712749616,99.23058435739887,-24.614381720430107,1.5711661546338966,-0.6326767314290834,-0.1482041249923195,-0.1541322080250896,0.7441806554628778
213.0,-0.051700972862263196,-0.05984229390681006,-0.022261392729134667,-3.9760266257040437,-0.23546646185355868,8.95104377880184,0.12928827444956478,-0.677267345110087,0.1616695468509985,99.26419770865336,-23.924961597542243,1.5018561187916026,-0.6332831595762929,-0.14394858587403994,-0.1500504251968766,0.745374790607015
214.0,-0.06106707629288276,-0.06949820788530468,-0.02802611367127497,-3.9100619559651806,-0.21346594982078865,8.98263594470046,-0.0512352790578597,-0.12647529441884284,0.16065028161802355,99.15707885304658,-23.504381080389145,1.3602310547875063,-0.6345298909928314,-0.14084392049155148,-0.14791051649718384,0.745377766657962
215.0,-0.06902764976958525,-0.07595442908346135,-0.03143087557603687,-3.889756016385048,-0.1987642089093703,8.992094726062465,0.009671018945212495,-0.3463853686635945,0.004656298003072212,99.0936059907834,-23.373107078853046,1.2667322708653352,-0.6351267014436764,-0.13963903345366102,-0.14745820613543267,0.7452164500714287
216.0,-0.058378904249872,-0.07641449052739377,-0.03187352790578598,-3.856172555043522,-0.2107839221710191,9.006771121351761,-0.05009120583717358,-0.09713261648745519,0.02906586021505377,99.11184875832053,-23.158531746031745,1.3352390552995392,-0.6351893830980542,-0.13889407824142347,-0.14574747007245265,0.7456499847680491
217.0,-0.05297081413210447,-0.076984126984127,-0.029314900153609838,-3.8594214029697893,-0.21661955965181773,9.004496671786992,0.09197388632872504,-0.10949820788530465,0.019713261648745525,99.11800435227855,-23.1797363031234,1.3787250384024579,-0.6351516135248336,-0.13926986291551458,-0.14566370981669224,0.745632019516641
218.0,-0.05315821812596008,-0.07422478238607272,-0.028698924731182802,-3.850226830517152,-0.21788581669226836,9.008815156169991,-0.08437019969278034,0.05556195596518178,0.023796722990271378,99.15911738351254,-23.120743727598565,1.384840629800307,-0.634962641204813,-0.13893137889093699,-0.14528339779313876,0.745930050753712
219.0,-0.045523809523809536,-0.06711699948796726,-0.022957757296466978,-3.8719383000512035,-0.2290811571940605,9.000163338453664,-0.0791378648233487,0.21447452636968767,0.20933499743983616,99.03618311571941,-23.258384536610343,1.4502832181259602,-0.6355907328282129,-0.14025423565284176,-0.14565375291961086,0.7450706363676396
220.0,-0.05050384024577573,-0.06880491551459296,-0.032003072196620595,-3.920319508448541,-0.23869380440348187,8.978818228366617,0.18158922171018949,-0.19221390168970812,-0.231073988735279,98.97723694316437,-23.561763952892985,1.5141481054787507,-0.635632414814644,-0.1423836094034818,-0.14724032631643624,0.7443104637214542
221.0,-0.035247311827956984,-0.058098310291858704,-0.026844854070660527,-3.8667910906298006,-0.23090911418330778,9.002736303123399,0.10150889656938045,-0.0868903609831029,-0.13837685611879158,99.34049059139784,-23.2185547875064,1.4587445596518176,-0.6336651528819763,-0.13971636840681,-0.1457281935084485,0.746781623252432
222.0,-0.03635125448028674,-0.058923707117255524,-0.02618228366615464,-3.8918812083973373,-0.23860419866871482,8.991153097798257,-0.03271889400921659,0.34670378904249877,0.04998719918074758,99.4907258064516,-23.381118791602663,1.519162826420891,-0.6324778284884791,-0.14077023460215055,-0.14672798437071166,0.7473969391530978
223.0,-0.032060419866871484,-0.06384895033282131,-0.025321556579621103,-3.9641157194060423,-0.2501039426523297,8.959244751664103,-0.2630184331797235,0.4889912954429084,0.40497631848438304,99.37387672811059,-23.844735663082435,1.5961021505376345,-0.6327022615760367,-0.14392657358678956,-0.14920329544342031,0.74610939706042
224.0,-0.03678597030209934,-0.0729751664106503,-0.025941884280593967,-4.031864311315925,-0.2553929851510496,8.927401177675367,-0.15512672811059908,0.47807859703020994,0.1768833205325141,99.22789458525345,-24.282448476702506,1.6428667434715822,-0.6331104852857145,-0.14679562319892472,-0.15165656308576547,0.7447119972859705
225.0,-0.03946031746031747,-0.07869994879672301,-0.02175012800819253,-4.076349718381978,-0.2579160266257039,8.907593958013308,-0.07989951356886842,0.20074564772145415,0.15153289810547876,99.14746543778801,-24.563936891961085,1.6671434971838197,-0.6333132136103435,-0.14857542937992835,-0.15327887930414752,0.743857307267281
226.0,-0.04048131080389146,-0.08443292370711727,-0.017156169994879674,-4.0967693292370715,-0.25748796722990264,8.898073476702503,0.03072996671786994,-0.04740943420378904,0.15756368407578086,99.08294930875576,-24.697262224782385,1.6671546979006657,-0.6336110196116235,-0.14937156026139276,-0.15406188926497696,0.7432890458456223
227.0,-0.03454173067076294,-0.08970302099334358,-0.013613927291346648,-4.047887352790578,-0.26471172555043526,8.919677419354837,-0.4131464413722478,-0.5886968766001024,0.5293586789554532,98.86114311315924,-24.37677291346646,1.7024449564772146,-0.6354054156436253,-0.14816699436456734,-0.15147573184126983,0.742508132766001
228.0,-0.02584229390681004,-0.08474449564772146,-0.01286226318484383,-4.030910394265233,-0.17805017921146954,8.928996415770609,0.8944508448540704,-0.15646441372247827,1.5036802355350742,97.63702636968766,-24.27095494111623,1.1433755760368665,-0.6434097969534052,-0.14571630614029696,-0.15229838445980542,0.7358160735647722
229.0,-0.028023553507424477,-0.07518074756784435,-0.006150537634408602,-4.040762928827445,-0.11967025089605735,8.925273937532005,-0.3835381464413723,0.01105350742447514,-0.8479134664618537,97.53949692780338,-24.335106246799796,0.7730222734254992,-0.6439875337542244,-0.14387953234818224,-0.15461642651715313,0.7351915212176141
230.0,-0.025798259088581667,-0.062041986687147985,-0.009805427547363032,-4.032560675883256,-0.22610752688172042,8.927565284178186,-0.2707661290322581,-0.12648809523809526,-0.3754192268305172,98.1800307219662,-24.284347798259088,1.4542754736303123,-0.6398891806733231,-0.1469794191633384,-0.15140041449411157,0.738838826985663
231.0,-0.02887096774193549,-0.06442652329749106,-0.011290322580645162,-4.041783154121864,-0.2686379928315411,8.922786738351252,-0.31950044802867383,0.2720094086021505,0.39040098566308234,98.1798835125448,-24.34929435483871,1.7272625448028673,-0.6398265662275986,-0.14900847410394263,-0.15032062008064515,0.7387468345071686
232.0,-0.03151792114695341,-0.07361136712749616,-0.009898873527905788,-4.097484383000513,-0.27564208909370197,8.89655120327701,-0.06425371223758321,0.5505168330773169,-0.09641577060931902,97.91046947004608,-24.709487007168462,1.7776209677419355,-0.641107499735535,-0.15165658895186893,-0.1519951556861239,0.7367677235890937
233.0,-0.03798566308243728,-0.08054224270353304,-0.019514848950332824,-4.162774449564772,-0.2995593958013313,8.86569047619048,0.14607654889912952,0.2518209165386585,-0.4403449820788531,98.24642537122375,-25.12174059139785,1.9442540322580646,-0.6384386256607781,-0.1545249521013825,-0.15427976001152072,0.738020396736303
234.0,-0.04814055299539172,-0.08418177163338454,-0.024499487967229904,-4.210466461853559,-0.30220250896057355,8.843725806451616,0.10639720942140296,0.5514576932923707,-0.14711981566820276,98.51848598310292,-25.428944252432153,1.964986559139785,-0.6363163834354839,-0.15592343181490018,-0.15654697423655914,0.7390910641751152
235.0,-0.050519201228878666,-0.07815079365079365,-0.02279518689196109,-4.243411674347158,-0.30783870967741944,8.828046594982078,-0.005166730670762926,-0.07401593701996922,0.06404249871991807,98.57676171274962,-25.638522465437788,1.9998879928315412,-0.6356767910227854,-0.15724106628955456,-0.1577880692532002,0.7391103979813107
236.0,-0.0426610343061956,-0.07440245775729648,-0.019076804915514597,-4.243005120327702,-0.3203978494623656,8.828046594982078,0.22442716333845364,-0.6665162570404505,-0.018381976446492573,98.58343573988735,-25.634981438812083,2.0744847670250897,-0.6355854777828981,-0.15767030297900664,-0.15736656849308756,0.7391881800256015
237.0,-0.0318215565796211,-0.06439068100358425,-0.01900588837685612,-4.058178955453149,-0.29371044546851,8.912781105990781,0.23599430363543267,-1.1234495007680492,-0.1358262928827445,98.8077412954429,-24.446814196108548,1.8859431003584228,-0.6355917183522786,-0.14972359457501283,-0.15087044808934968,0.7421109149815667
238.0,-0.03953917050691244,-0.057479774705581174,-0.02423041474654378,-3.8792329749103946,-0.31812083973374294,8.990560163850487,0.030254736303123406,-0.7556067588325652,0.06477854582693292,98.84713901689707,-23.304422683051712,2.0193548387096776,-0.6366642773701998,-0.14428266550640043,-0.1427085207619047,0.743856288267281
239.0,-0.025294930875576035,-0.05371428571428573,-0.018249359959037377,-3.804803891449053,-0.29548182283666147,9.024915002560167,0.08926971326164874,-0.4368951612903226,-0.038223246287762414,98.90609639016895,-22.83186763952893,1.869108422939068,-0.6369021896559139,-0.1406756409201229,-0.1404862009175627,0.7448091107347667
240.0,-0.02434331797235023,-0.044580645161290344,-0.019258320532514084,-3.767858166922683,-0.29087916026625693,9.041084229390684,0.15713485663082435,-0.45992223502304147,-0.019774065540194573,98.99201708909371,-22.599833589349718,1.841783474142345,-0.6366221326620585,-0.13910075915130568,-0.1392263562283666,0.7456196573581668
241.0,-0.019640296979006655,-0.03247849462365592,-0.017268049155145935,-3.7231226318484394,-0.2767119815668202,9.061263440860214,0.13347894265232974,-0.46598822324628775,-0.0590581797235023,99.04134344598054,-22.306469214029697,1.751900921658986,-0.6366050035353303,-0.13687281335253457,-0.1378776365908858,0.746318842581413
242.0,-0.01793394777265745,-0.028824372759856637,-0.024534562211981567,-3.6190209933435744,-0.24801996927803371,9.103279569892472,0.044870071684587814,-0.6710541474654378,-0.15702124935995904,99.06116231438811,-21.64995839733743,1.559978238607271,-0.637196399514081,-0.13204657925243218,-0.13459919256067587,0.7472566374152585
243.0,-0.010123655913978496,-0.032158730158730164,-0.025211981566820273,-3.582118791602663,-0.27584408602150534,9.117013056835637,-0.4985327060931899,-0.2511088709677419,-0.12563044034818227,99.23628392217101,-21.423452700972863,1.7342517921146954,-0.6363010669966718,-0.13169672409626218,-0.13236175083794166,0.7484901888182283
244.0,-0.009324033711130487,-0.029762402955951353,-0.017840176582112066,-3.6493738392770654,-0.33270686815848105,9.087938985068018,-0.3030290371016177,0.2612267509444928,0.20702367113657433,99.13363527698203,-21.850718921686664,2.099100309987407,-0.6364874116046277,-0.13646111903350355,-0.13311039895052657,0.7473300268367029
245.0,-0.01358930820221143,-0.025330766250121088,-0.019632325874261357,-3.7088994132381234,-0.37935650627586115,9.062235749574459,-0.0788058651969942,0.274705797387249,0.16880881457494357,98.93943668611007,-22.225045840771646,2.3992045328738874,-0.6373089731469119,-0.14063108375279887,-0.13375780321719877,0.7457326501485103
246.0,-0.008460808735002285,-0.025140933560288403,-0.010602005231037489,-3.7275215192150677,-0.3865513970191391,9.05514718866332,0.025946049736372323,0.20984953847857074,-0.021861593736593743,98.78879076368995,-22.33815656093882,2.449050231106683,-0.6381694331103223,-0.14174245164163243,-0.13406469143297217,0.7447465320508296
247.0,-0.011277895406927665,-0.026916344916344922,-0.009669282185411217,-3.7301810105035904,-0.39114756230885284,9.053837035191876,0.10493091017284567,-0.09209584007971106,0.00035392535392535316,98.73363709331451,-22.354394140684462,2.4630443807863163,-0.6384236609368817,-0.1419909376846155,-0.1340019677415757,0.7445077043856299
248.0,-0.0060091473962441706,-0.02563738392770651,-0.021476218153637504,-3.647249747443295,-0.3668574473090603,9.088070591328657,0.3098643286143286,-0.630037295359876,0.06694283569283568,98.73142108121947,-21.83477195513486,2.308144694233404,-0.639049950033725,-0.13815109150692628,-0.13141176224866802,0.7451358541057693
249.0,-0.00816973886328725,-0.02182770097286226,-0.014725806451612903,-3.624452636968765,-0.33835074244751673,9.098716589861755,0.11352886584741426,-0.0017921146953405187,-0.07614727342549923,98.74427963389657,-21.69327476958525,2.1362087173579107,-0.6391545889454686,-0.13623606752329748,-0.13145741739964162,0.7453986066029186
250.0,-0.025299027137736817,-0.0323609831029186,-0.01719713261648746,-3.616832053251407,-0.33126318484383,9.10252585765489,0.31603302611367123,-0.5365143369175627,-0.013236047107014846,98.77304147465438,-21.642588325652845,2.0832533282130057,-0.6390077653553509,-0.1356319669784946,-0.13139572754838713,0.7456550899815668
251.0,-0.019901433691756273,-0.03914874551971327,-0.026487455197132623,-3.5229301075268813,-0.2954032258064515,9.139507168458783,0.08154121863799281,-0.19679659498207883,-0.03012992831541219,98.77564964157706,-21.057011648745522,1.8520945340501793,-0.6396307172849462,-0.1309453485752688,-0.12880747722222224,0.746393565376344
252.0,-0.023772401433691758,-0.039471326164874566,-0.020259856630824375,-3.5134050179211465,-0.3064247311827957,9.143127240143368,0.055835573476702496,-0.2817540322580645,-0.2894825268817204,98.91879480286738,-20.987343189964157,1.9189068100358422,-0.6387395280465951,-0.13080577734767024,-0.12821850982078853,0.7472906079569892
253.0,-0.02119175627240143,-0.038405017921146964,-0.02192652329749104,-3.4805824372759853,-0.30870967741935484,9.155179211469534,0.032034050179211467,-0.18094758064516128,-0.053595430107526876,99.08350134408602,-20.78433019713262,1.9302195340501793,-0.6378909430376343,-0.12961006859318996,-0.1269852831272401,0.7484369306810037
254.0,-0.0198678955453149,-0.03586533538146443,-0.02823425499231951,-3.4301968766001028,-0.328931899641577,9.174800563236046,-0.10614119303635433,-0.23980894777265743,-0.06326484895033282,99.16350326420891,-20.467228302611367,2.054846710189452,-0.6376692939690222,-0.128544559984383,-0.12431048575422424,0.7492530942969791
255.0,-0.008258320532514078,-0.03617639528929852,-0.03602124935995903,-3.44347209421403,-0.3378261648745519,9.16930440348182,-0.044222030209933434,0.4782418074756784,0.12254544290834612,99.1288786482335,-20.55599878392217,2.1108406938044038,-0.6378126585660522,-0.1293962725593958,-0.12455059101331281,0.7489486792452636
256.0,-0.03128417818740399,-0.0334152585765489,-0.03465488991295443,-3.4595317460317467,-0.3167759856630824,9.163590373783919,0.2427579365079365,-0.3635336661546339,0.2879192268305171,98.93635912698413,-20.654707501280082,1.979563492063492,-0.6390084603448541,-0.129328350594214,-0.1256737871285202,0.7477467604918075
257.0,-0.030113415258576547,-0.03399257552483359,-0.032157194060419864,-3.475576804915515,-0.29014874551971315,9.158470814132102,0.03748559907834101,0.17721614183307732,0.12027009728622631,98.8302707373272,-20.757181259600614,1.815050563236047,-0.6396370972826422,-0.1289835537155658,-0.12711932837608803,0.7470292825980543
258.0,-0.030536098310291856,-0.029733742959549413,-0.029743471582181255,-3.4855616999487973,-0.2791111111111111,9.155126984126982,0.16085189452124937,-0.31727790578597026,0.23822644649257552,98.74292434715822,-20.817770737327187,1.7452828981054784,-0.6401298176466974,-0.12898228327803377,-0.12779257584126985,0.7464895971234
259.0,-0.03246415770609319,-0.036702508960573484,-0.03181899641577061,-3.49231182795699,-0.2732974910394265,9.152320788530464,-0.016073028673835116,-0.054827508960573465,-0.2452396953405018,98.78444220430109,-20.861839157706093,1.709453405017921,-0.6397837426344086,-0.12895497940860215,-0.12832515815412185,0.746702296935484
260.0,-0.02887992831541219,-0.03510752688172043,-0.030842293906810037,-3.4904659498207886,-0.2681272401433692,9.153548387096773,0.23515905017921146,-0.028561827956989236,0.101926523297491,98.86127912186379,-20.851926523297493,1.6782594086021505,-0.6393176659498208,-0.1286097703405018,-0.1285142247939068,0.7471353399283156
261.0,-0.02720430107526882,-0.033396057347670254,-0.028646953405017918,-3.493494623655914,-0.2506003584229392,9.152786738351256,-0.0026321684587813643,0.6460573476702508,0.20788530465949817,98.6802755376344,-20.866431451612904,1.568380376344086,-0.6404751464874552,-0.12823639443548387,-0.1289798087903226,0.7461161179928315
262.0,-0.022342826697665408,-0.02841349413930059,-0.03310326455487746,-3.5448588104233263,-0.23359343214181932,9.133488811392041,0.07016340937711904,-0.21023594158674802,0.06223057735154507,98.59507592269688,-21.187389506441924,1.4618388549840162,-0.6407009616867674,-0.1294122235897995,-0.131561021934273,0.7452576393475733
263.0,-0.02630582195098324,-0.03128111982950693,-0.02844231328102296,-3.5172188317349606,-0.2285798701927735,9.143715731860894,-0.07062506054441539,0.10744363314927832,-0.005007023152184452,98.46678079288967,-21.01694184103458,1.4313562554489974,-0.6417341036525235,-0.12841005196067035,-0.13047307400925118,0.7447416818870483
264.0,-0.024649326746100937,-0.03099898285382157,-0.024570619006102877,-3.610759953501889,-0.2330892182505087,9.106987794245855,0.042196430301269,0.8669218613775066,0.08329397946333429,98.41341391795021,-21.60443306209435,1.462625932383997,-0.6414429434929283,-0.1319381344122348,-0.13408583399835317,0.7437228416962122
265.0,-0.0317153443766347,-0.023846265620459172,-0.023123123123123125,-3.727333381768866,-0.2309711324227455,9.058879201782423,0.026026530562820883,0.618412767606316,0.11243552019761696,98.37340162743388,-22.340690993412764,1.457175421389131,-0.6409160030681487,-0.13605632224643996,-0.1388726549292841,0.7425458625147727
266.0,-0.04669471775923391,-0.01657367044463819,-0.030891822698274316,-3.789217766153252,-0.22612842335422986,9.032145694081173,0.08655957224505612,0.2762538748425845,0.1755173952754598,98.31216484341485,-22.736849752978785,1.4412757227273354,-0.6409160807364551,-0.13821101193223176,-0.1415361861269564,0.7416673772932284
267.0,-0.0466541218637993,-0.011000000000000001,-0.030918074756784437,-3.8246392729134664,-0.22147260624679982,9.019372759856626,0.08905369943676394,0.20974622375832053,0.07526881720430108,98.27677771377368,-22.96009024577573,1.3990847414234509,-0.6409136538225804,-0.139248715359191,-0.14313390060215053,0.7411806299569892
268.0,-0.04964874551971328,-0.009397849462365594,-0.032851510496671794,-3.815747055811572,-0.2169280593958013,9.023405017921146,0.06202796979006656,-0.1692924347158218,-0.06625224014336917,98.29584293394777,-22.90634440604199,1.38020993343574,-0.6408531690752687,-0.13874041047081415,-0.14288379584767025,0.7413781225681002
269.0,-0.05312186379928316,-0.013659498207885307,-0.045619303635432665,-3.751887864823349,-0.21945417306707626,9.049811827956988,0.03406618023553507,-1.3529873911930363,-0.1340165770609319,98.36767953149001,-22.500915258576548,1.3917178699436765,-0.6407813613476703,-0.13646589019508448,-0.14023718747132616,0.7423428472473119
270.0,-0.041283154121863806,-0.013290322580645162,-0.02919406041986687,-3.6045192012288783,-0.22042601126472094,9.108243727598566,-0.04518689196108551,-0.3480606758832565,-0.00313620071684588,98.47564644137225,-21.572030209933438,1.3918714797747056,-0.6410577966594981,-0.13120120935381463,-0.13432123421505374,0.7441172289103943
271.0,-0.037585765488991306,-0.012218637992831542,-0.028603174603174603,-3.634517665130568,-0.23337532002048136,9.097401433691758,-0.00865335381464414,0.532466077828981,0.0725006400409626,98.44242831541217,-21.76170954941116,1.4686219918074759,-0.6410516273963134,-0.13278999225243215,-0.13508128886891957,0.7437283888745521
272.0,-0.04156810035842294,-0.0070161290322580646,-0.03258064516129032,-3.636424731182795,-0.26315412186379933,9.095564516129034,-0.08646953405017921,-0.29373879928315416,-0.18553987455197135,98.60338261648745,-21.767641129032256,1.6541778673835126,-0.6399883968010752,-0.13380393873655916,-0.1343297380376344,0.7446007400537634
273.0,-0.03872759856630825,-0.005232974910394265,-0.03078853046594983,-3.6424193548387094,-0.2772491039426523,9.092437275985663,0.045922939068100355,0.08551747311827956,0.06104390681003584,98.63978494623655,-21.81014784946236,1.7387992831541217,-0.6397316226075269,-0.13455982306451614,-0.13420083155913975,0.7447195843637995
274.0,-0.049435483870967745,-0.00246415770609319,-0.025654121863799284,-3.6455913978494627,-0.2723835125448028,9.091872759856631,0.04429883512544802,0.08428539426523296,0.21908602150537634,98.52430555555556,-21.823756720430104,1.708725358422939,-0.6404908975358423,-0.13458219118279574,-0.13433887142473117,0.7440377514784946
275.0,-0.04101254480286738,0.00012544802867383523,-0.02308243727598567,-3.6859856630824375,-0.26093189964157704,9.076299283154121,0.07067652329749104,0.24675179211469533,0.12180779569892472,98.3944332437276,-22.080421146953405,1.6401209677419355,-0.6410370419802869,-0.135742133046595,-0.1362041075,0.7430235609767023
276.0,-0.036433691756272396,-0.002912186379928315,-0.02298387096774194,-3.640860215053764,-0.26801075268817204,9.094283154121864,-0.09150985663082437,-0.47395833333333326,-0.11447132616487454,98.47743055555556,-21.795810931899645,1.6822916666666665,-0.6407936674731183,-0.1343061114068101,-0.13421483167562723,0.7438526224372757
277.0,-0.029811827956989244,0.0014426523297491043,-0.020510752688172047,-3.634041218637993,-0.2724014336917562,9.097571684587813,0.1574820788530466,-0.042114695340501745,-0.2787858422939068,98.59223790322581,-21.749439964157705,1.7113575268817203,-0.6401109586648746,-0.13408701950716848,-0.13391064025089605,0.7445375180017919
278.0,-0.03310035842293907,-0.008252688172043015,-0.02455197132616488,-3.597096774193548,-0.2759139784946236,9.111890681003583,0.06608422939068101,-0.3891689068100358,-0.07689292114695338,98.91353046594982,-21.5137208781362,1.7324148745519712,-0.6382603252598567,-0.13256453094086024,-0.1326029785394265,0.7466229400985662
279.0,-0.031205802576770317,-0.008306693790564763,-0.024899496270464012,-3.5952310374891017,-0.2890615615615616,9.112928412283255,-0.07748171558655428,0.011957522038167218,0.11879117020246052,98.94448985275598,-21.504775440763346,1.8174737237237237,-0.6380569737956505,-0.13300206795456748,-0.13214805015354064,0.7468086556902063
280.0,-0.039308098421001664,-0.014081662307468764,-0.02416569795602054,-3.6473198198198196,-0.291918773612322,9.091562772449873,-0.0948564491911266,0.5843837789402305,0.1709547248861765,98.73574179017729,-21.837373159449776,1.8404684926862347,-0.63907715728761,-0.1352119083500436,-0.13396472571297102,0.745206108033275
281.0,-0.05526784849365496,-0.02156592075946915,-0.030062239659013865,-3.6836195873292645,-0.29006780974522905,9.076816332461497,-0.016598251477283724,0.08705076043785723,0.20288887678000583,98.57127591300979,-22.061635728470407,1.832476629855662,-0.6399185402387871,-0.1365988421992153,-0.135274877677274,0.7439941865300785
282.0,-0.050044318512060454,-0.028076867189770427,-0.027777535600116254,-3.759784704058897,-0.2879460912525428,9.045101714617843,-0.0038188390002906122,0.35070503971713646,0.2071512036229778,98.44177594933643,-22.541822568536276,1.8218162719170783,-0.6402379160512932,-0.13937663803957184,-0.13829487460476603,0.7426419391879782
283.0,-0.04966821660370049,-0.033397752591301,-0.02475346314055992,-3.816975685362782,-0.28397752591300973,9.020964835803547,0.002878886951467597,0.3828738012205754,0.10774786883657851,98.35000423810907,-22.91038821079144,1.8091216216216215,-0.6404488767935678,-0.14140626901530562,-0.14063620379879876,0.7416403775733797
284.0,-0.058467741935483875,-0.03162186379928317,-0.029892473118279576,-3.8664157706093185,-0.2829390681003584,9.000913978494623,-0.0372423835125448,0.18049955197132617,0.24143145161290322,98.31546818996415,-23.223006272401435,1.8023073476702507,-0.6403077921684588,-0.14312169961469534,-0.14266508362903227,0.7410480682974911
285.0,-0.053027705124479324,-0.023034486099002237,-0.0292167974426039,-3.8431904485130284,-0.28237043495108005,9.010208514966582,0.09642606315993413,-0.4999621597403855,0.07013616439019663,98.19905641528625,-23.06903425603022,1.7901666787755497,-0.6411944513850141,-0.142365619993219,-0.14160636466409957,0.740628491898915
286.0,-0.047176934999515655,-0.02209968032548678,-0.02349728761019084,-3.8516221059769444,-0.3009880848590526,9.005798701927738,-0.1058528286350867,0.45322792550615126,0.0351520875714424,98.17174482950692,-23.12616699360651,1.9096162694953018,-0.6412865467812167,-0.14346205229947687,-0.14131598779351934,0.7403946538750847
287.0,-0.036782911944202266,-0.02083478639930253,-0.02352731764022087,-3.833221447253706,-0.29169475927540445,9.01367892085634,0.22720351399786884,-0.7069937881429817,-0.15575504940424295,98.18009844521941,-23.008732018308628,1.8530496222028479,-0.641360842337741,-0.1424264181703478,-0.14087136634747652,0.7405991540567181
288.0,-0.03366027317640222,-0.025000726532984602,-0.02402620362297782,-3.772560544415383,-0.2730875230068779,9.039944299137847,0.1761857623752785,-0.48238914317543347,0.027661229778165264,98.34884178533372,-22.622729584423134,1.7246318899544706,-0.6407056842109852,-0.13929978572047855,-0.13924773547660563,0.742068843090187
289.0,-0.008021892860602547,-0.025506635667926,-0.029374212922600024,-3.6578349317058994,-0.23377942458587622,9.08731085924634,0.18976738835609802,-0.8548538457812651,-0.01996754819335465,98.36488908263101,-21.898730383609415,1.47309103458297,-0.6414106431090768,-0.13369515961203138,-0.13590974296231717,0.7430909243049502
290.0,-0.020792114695340504,-0.0315409626216078,-0.02882846902201741,-3.6317711213517665,-0.2412235023041474,9.098467485919095,-0.03123879928315411,-0.07407034050179212,-0.026945724526369688,98.39287314388122,-21.733136520737325,1.5244191628264208,-0.6414480421769075,-0.1330618635921659,-0.13459695464618535,0.7434272855401947
291.0,-0.026775985663082442,-0.03277316948284691,-0.02673502304147466,-3.6207959549411166,-0.24006067588325652,9.103086789554528,-0.003662634408602149,0.05948700716845877,0.015088965693804399,98.4197788658474,-21.666943484383,1.5154297875064002,-0.6413265753940094,-0.1325918629654378,-0.13424573063850487,0.7436962849743984
292.0,-0.034630824372759855,-0.025059395801331288,-0.04719866871479775,-3.554575524833589,-0.2182572964669739,9.129502560163846,0.35714605734767024,-1.1874695980542755,0.14927035330261137,98.38650473630312,-21.246700588837683,1.3748159882232462,-0.6419937471712749,-0.1294097651047107,-0.13222150281259598,0.7440214734580133
293.0,-0.044094726062468004,-0.01898566308243728,-0.0235,-3.471885304659498,-0.20779467485919106,9.161485919098823,-0.10264976958525343,-0.05072804659498209,-0.0033234126984127005,98.32050371223758,-20.734245391705066,1.3039586533538148,-0.6429961050977981,-0.12618234862314387,-0.1291840711313364,0.7442496072199183
294.0,-0.038215565796210965,-0.019099334357398877,-0.025494111623143884,-3.4899308755760368,-0.22104813108038923,9.15473835125448,-0.08671915002560163,0.037135176651305696,-0.02107014848950333,98.28410138248847,-20.85116487455197,1.3877464157706094,-0.6431106126333845,-0.1273808831546339,-0.12944906317460317,0.7439110847716335
295.0,-0.03935202252944189,-0.019425243215565803,-0.027479774705581165,-3.5188133640552994,-0.23641346646185357,9.143184843830007,-0.020174091141833075,0.30670122887864826,0.03335893497183819,98.26998847926268,-21.03557667690732,1.4877096134152585,-0.6429472282844342,-0.1290416556280082,-0.13009622137532004,0.7436565496392731
296.0,-0.0490783410138249,-0.01949308755760369,-0.030009216589861755,-3.567529953917051,-0.23803686635944712,9.12358525345622,0.01918202764976959,0.37546082949308757,0.1402073732718894,98.22102534562211,-21.341877880184327,1.5027073732718894,-0.6429710563317972,-0.13089335179723502,-0.1319356190230415,0.7429843315023041
297.0,-0.06249769585253456,-0.019935483870967746,-0.031926267281105994,-3.611797235023042,-0.23790783410138255,9.10638709677419,-0.012039170506912441,0.18150921658986174,-0.21618663594470044,98.26895161290321,-21.613248847926265,1.498905529953917,-0.6424012643870967,-0.1323880107281106,-0.1337620612903226,0.7428876876221198
298.0,-0.056632872503840255,-0.020790578597030214,-0.03430517153097799,-3.654294930875576,-0.2664229390681005,9.089421402969785,-0.009837429595494112,0.0676331285202253,-0.09411162314388119,98.49314516129033,-21.87549283154122,1.6720302099334357,-0.6406556526513056,-0.13469510213824884,-0.13480914695135687,0.743793627515617
299.0,-0.03814132104454686,-0.021121351766513058,-0.03806758832565285,-3.650113671274961,-0.2766912442396313,9.09079160266257,-0.027208141321044543,-0.32147977470558114,0.051248079877112135,98.4719022017409,-21.84941116231439,1.7371287762416796,-0.6407941172677933,-0.13496488775934457,-0.1342564485642601,0.7437275551889402
300.0,-0.03046390168970814,-0.011093701996927803,-0.03920430107526882,-3.564935995903737,-0.26890937019969285,9.124002048131079,0.07898105478750639,-0.23189964157706092,0.155094726062468,98.39572452636969,-21.316122631848437,1.6825652841781875,-0.6418637108868408,-0.1317367003952893,-0.1309727883686636,0.743948500467998
301.0,-0.03435176651305683,-0.007878648233486942,-0.023210445468509987,-3.540767537122375,-0.2504777265745008,9.13390885816692,0.15285458269329236,-0.2861399129544291,0.17872823860727086,98.24380120327702,-21.165117767537122,1.5679531490015362,-0.6430260481761392,-0.13034158558934972,-0.1304458579585253,0.7432893305704045
302.0,-0.022706861239119303,-0.012787762416794676,-0.022225806451612904,-3.5522112135176642,-0.23898591909882244,9.130000512032773,0.12513120839733743,0.04024097542242705,0.05875096006144392,98.1803939452125,-21.23904249871992,1.495647721454173,-0.6433947683364053,-0.13037420041833075,-0.1312430631472094,0.7428364599467484
303.0,-0.0267547363031234,-0.01474935995903738,-0.02145186891961086,-3.60757910906298,-0.23231413210445473,9.108749615975423,0.04636776753712238,0.23598470302099334,-0.019836469534050178,98.13968573988734,-21.585975102406554,1.454771505376344,-0.6432834223310291,-0.13210417970916538,-0.13366200671582182,0.7421952719905272
304.0,-0.012768049155145931,-0.01204761904761905,-0.017800307219662054,-3.6365225294418844,-0.24202176139272918,9.097448284690222,0.039144905273937526,-0.06628744239631335,0.0004704301075268841,98.20425147209421,-21.76669386840758,1.5156922043010752,-0.642635906528418,-0.13341931495314896,-0.13460830202278545,0.7423487861431132
305.0,-0.021778289810547878,-0.015172555043522787,-0.026176139272913467,-3.6438213005632365,-0.24913364055299542,9.094373783922173,0.004115463389656938,0.07900345622119814,0.01406810035842294,98.1821268561188,-21.806874039938556,1.5595654121863798,-0.6427300164183307,-0.1339874905366103,-0.13460087974347157,0.7421718050384023
306.0,-0.029285458269329247,-0.01649871991807476,-0.02534613415258577,-3.6605143369175632,-0.24852534562211986,9.087357398873529,0.06392409114183306,-0.046644585253456224,-0.02297747055811572,98.1872327828981,-21.917175499231952,1.5692124295954941,-0.642556722766769,-0.13456841116231436,-0.13531121092703532,0.7420889432703532
307.0,-0.016726062467997956,-0.01570455709165387,-0.01748489503328213,-3.509795698924732,-0.22868919610855099,9.145175115207373,0.13439260112647208,-0.7395801331285202,-0.008464541730670763,98.20990783410139,-20.972980670762926,1.4336597542242702,-0.6434085709846388,-0.12847378183563746,-0.1298670831203277,0.7433459081853558
308.0,-0.028214541730670763,-0.010304403481822842,-0.023168458781362006,-3.581683819764465,-0.23884383000512027,9.11576984126984,-0.04339637736815158,2.53565668202765,0.6101974526369688,98.14068740399387,-21.43821524577573,1.4993727598566307,-0.6433656124605733,-0.13157734133358934,-0.1324721614746544,0.7423500622053253
309.0,-0.2799226830517153,-0.01388428059395802,-0.15557168458781362,-5.6781134152585775,-0.5897534562211981,6.65606144393241,-3.511421530977983,21.36443452380952,-10.719514848950332,96.13670794930874,-39.392970750128,20.39350358422939,-0.6060842655896057,-0.259408292436508,-0.22732303485023042,0.6777784935040962
310.0,-0.14233589349718373,0.36696466973886327,-0.31249462365591396,-4.35731387608807,-1.9756159754224274,7.402869431643625,17.65865975422427,-5.932338069636458,-0.8621095750128003,104.31390168970813,-28.774750384024575,21.4334229390681,-0.5679788195017921,-0.25525308014746545,-0.13497446366615465,0.7335371525002559
311.0,-0.23430107526881713,0.1388888888888889,-0.2097670250896057,-3.7462365591397857,-1.088620071684588,8.34146953405018,9.500224014336919,-3.958837365591398,-2.8298611111111107,101.39941756272401,-23.708221326164875,11.336469534050178,-0.6059081377688171,-0.1846403167921147,-0.12543894985663084,0.7404796095788531
312.0,-0.21112903225806448,0.032267025089605744,-0.14730286738351253,-3.677329749103943,-0.6496057347670253,8.724991039426524,4.849910394265233,-0.9366039426523298,-1.5637320788530464,100.70497311827958,-22.65137768817204,6.330925179211469,-0.6184846619175628,-0.1568998379480287,-0.13104838711469535,0.7465267934946236
313.0,-0.161415770609319,-0.011164874551971331,-0.09713261648745519,-3.7821684587813627,-0.4430913978494626,8.859238351254481,2.444556451612903,-0.7949708781362007,-0.22575044802867383,100.36564740143368,-22.996583781362006,3.918066756272401,-0.6237500921057348,-0.14835114251792114,-0.1391222554390681,0.7484761990860214
314.0,-0.11655913978494623,-0.026666666666666672,-0.07373655913978495,-3.654641577060932,-0.2607706093189965,9.051227598566308,1.437948028673835,-1.051299283154122,-0.08467741935483869,99.78701836917563,-21.892249103942653,1.6875560035842294,-0.631448725797491,-0.13398813730286738,-0.13722764980286734,0.749819027688172
315.0,-0.09030465949820789,-0.043360215053763446,-0.05188172043010754,-3.7188261648745526,-0.17694444444444452,9.063655913978494,0.2404233870967742,-0.6669466845878136,0.14952956989247312,99.53528225806451,-22.287634408602152,1.1217517921146953,-0.6334137184050179,-0.13218486537634408,-0.14169016115591399,0.7490886288888889
316.0,-0.06259805427547363,-0.03546671786994368,-0.03885535074244753,-3.771635176651306,-0.16335381464413729,9.042746799795188,0.0577076932923707,0.48749839989759347,0.25850934459805425,99.29360919098822,-22.62486399129544,1.0338021633384538,-0.6346317004109063,-0.13381898083896568,-0.1440394293407578,0.7473537711625704
317.0,-0.05430977982590887,-0.03462852022529443,-0.0311436251920123,-3.880212749615975,-0.16014464925755253,8.997211213517666,0.05878776241679467,0.584615015360983,0.05146569380440348,99.1502208141321,-23.312572004608292,1.01614503328213,-0.6348243978981054,-0.13767710169636455,-0.1484628841999488,0.7456187284800309
318.0,-0.04861546338965696,-0.03624347158218127,-0.026866615463389663,-3.9824764464925755,-0.15725422427035335,8.952355606758829,0.0127608166922683,0.6554067460317461,0.0194044418842806,99.12405753968252,-23.968701996927802,1.007064452124936,-0.6342216310458269,-0.14123991855427545,-0.15277895708653355,0.7445903607050691
319.0,-0.044900153609831045,-0.034855094726062484,-0.022681003584229392,-4.083793906810037,-0.16762928827444956,8.905855350742446,-0.0070900537634408616,0.15616519457245268,-0.14262512800819252,99.2316676267281,-24.618289170506912,1.0697660650281617,-0.6327426487237582,-0.145078909906298,-0.15680104628315414,0.7442801402811059
320.0,-0.037647209421402976,-0.03735586277521763,-0.019817204301075274,-4.110709677419355,-0.18408346134152592,8.893514592933945,-0.047871863799283154,0.18653353814644136,-0.00016001024065540048,99.3028577828981,-24.789599334357398,1.1899289554531491,-0.6320464109165386,-0.14664040058934968,-0.1574216630967742,0.7444532389129543
321.0,-0.041123143881208406,-0.033982078853046604,-0.015645929339477727,-4.037585253456221,-0.19356246799795196,8.924305683563745,-0.15259376600102406,-2.6457021249359958,-0.0919578853046595,99.3029553891449,-24.31965565796211,1.2477582565284178,-0.6325690767117255,-0.14441423158499742,-0.15403254539170505,0.7450823159219151
322.0,-0.04068253968253968,-0.02975985663082438,-0.030641065028161812,-3.641821300563235,-0.24820148489503338,9.083425243215565,-0.3058275729646697,-1.398119879672299,0.26932123655913975,99.18404377880185,-21.825934459805424,1.5637032770097288,-0.6360268575046082,-0.1328314055908858,-0.1358284042908346,0.7475637998023552
323.0,-0.03452585765488991,-0.029745519713261656,-0.03229185867895546,-3.4488945212493594,-0.26966973886328727,9.16158269329237,-0.29219470046082946,-0.2711085509472606,0.9568772401433692,98.47531041986687,-20.608755760368663,1.6848534306195595,-0.6419570008714798,-0.12765121973988736,-0.12643562365079364,0.745116180546339
324.0,-0.030769841269841267,-0.028809267793138763,-0.028301075268817207,-3.520724782386073,-0.25859575012800823,9.137853814644139,-0.07678411418330773,0.6718029953917051,0.35716365847414233,97.90885016641064,-21.049964797747055,1.6227838581669227,-0.6452289555663082,-0.13041242154173066,-0.12902476377214545,0.7414838137171018
325.0,-0.030509984639016895,-0.034556579621095755,-0.024481310803891453,-3.639033282130057,-0.2499385560675884,9.091994367639527,-0.023307091653865842,0.48246607782898104,0.24423643113159244,97.70077124935995,-21.795494111623142,1.5663434459805428,-0.6458285232114696,-0.1344972824905274,-0.1338881937982591,0.7394212655156169
326.0,-0.03188376856118792,-0.04517229902713775,-0.024950332821300568,-3.7129308755760366,-0.24329749103942672,9.063458013312854,0.1178555427547363,0.1316100230414747,0.08097638248847927,97.58040034562212,-22.244770865335383,1.5311075908858167,-0.6461373026559141,-0.13694899029083463,-0.13694273793189962,0.7381976525207372
327.0,-0.023693292370711723,-0.0460588837685612,-0.031067332309267802,-3.5379349718381983,-0.22758346134152602,9.132661546338966,0.21169034818228366,-1.4077828981054785,-0.30753328213005626,97.88086917562723,-21.14743183563748,1.4269201228878647,-0.6453441762158219,-0.12976669454275475,-0.13067229489631335,0.7412595867188939
328.0,-0.033602918586789564,-0.04863876088069638,-0.03061879160266258,-3.4509477726574493,-0.22988044034818247,9.167002816180233,0.11290162570404505,-0.5321284562211981,-0.20366583461341525,98.12093413978494,-20.601521697388634,1.4338341653865845,-0.6443850601285201,-0.1265177805061444,-0.12733892475550435,0.7432632046766513
329.0,-0.04054224270353304,-0.053802355350742466,-0.036302099334357414,-3.4102805939580128,-0.2230578597030211,9.183684075780846,0.17964029697900666,-0.5537986431131592,0.07999551971326165,98.2120071684588,-20.346748591909883,1.389663338453661,-0.6440409032109575,-0.12472029771940604,-0.12602947586789554,0.7441188424562213
330.0,-0.04308218125960062,-0.04837122375832055,-0.03551510496671788,-3.386066564260112,-0.19923399897593447,9.193961853558626,0.07187660010240655,0.06497855862775215,0.15123047875064002,98.12705773169483,-20.203097798259087,1.2410874295954941,-0.6447815023704557,-0.12304695552790579,-0.12580368484178187,0.743814150735023
331.0,-0.05019713261648748,-0.044828469022017425,-0.03799948796722991,-3.403518177163338,-0.18621402969790066,9.189507424475169,0.10022081413210446,0.17681451612903223,0.1027937788018433,98.0713133640553,-20.304534690220173,1.159651817716334,-0.645025500735791,-0.12315717954838709,-0.12688997679313874,0.7434090308842806
332.0,-0.05967460317460319,-0.047187403993855626,-0.03975806451612905,-3.3770279057859702,-0.18068561187916027,9.198005120327698,0.06796114951356887,-0.9183483742959547,-0.22835541474654375,98.13264528929851,-20.13651593701997,1.1245327700972862,-0.6447868072122375,-0.12195389770353304,-0.1260275092741935,0.7439493794211472
333.0,-0.05907834101382489,-0.04858474142345112,-0.04003584229390683,-3.2893026113671273,-0.19363031233998979,9.229049667178698,-0.06195596518177164,-0.08156041986687135,-0.07655529953917048,98.32437275985663,-19.59848950332821,1.2042946748591912,-0.6440834965857654,-0.11925575167434718,-0.12226546871070147,0.7456203315401947
334.0,-0.06388018433179724,-0.04577163338453663,-0.045008704557091675,-3.3040245775729646,-0.20214234511008705,9.223561699948796,-0.03950332821300564,0.33240527393753205,0.23358294930875576,98.26374167946747,-19.688242447516643,1.2522337429595494,-0.6444077865325142,-0.12014614550537636,-0.12251995327700972,0.7451603394060419
335.0,-0.07515668202764979,-0.03900563236047108,-0.046135688684075804,-3.350357910906298,-0.2042370711725551,9.207075780849975,0.026878520225294418,0.3977694572452637,0.20817972350230413,98.1636968766001,-19.981966845878137,1.2709613415258576,-0.6447179342155658,-0.12194860050844854,-0.12423334986431131,0.7443216238781362
336.0,-0.08916359447004608,-0.030627240143369188,-0.051768305171531,-3.4000176651305667,-0.20251945724526377,9.189994111623143,0.04264432923707118,0.3171450972862263,0.15950460829493088,98.11410650281617,-20.277273745519715,1.2630440348182284,-0.6447653109787506,-0.1236344820145929,-0.1262068521625704,0.7436835245704045
337.0,-0.08822427035330262,-0.029426523297491042,-0.05016282642089094,-3.4072534562211976,-0.2113896569380441,9.186721966205834,-0.1361879160266257,-0.021786994367639534,0.2295058883768561,98.05302099334357,-20.324596774193548,1.3199180747567842,-0.6451477465601637,-0.12434373896876598,-0.12612364718791602,0.7432483993282131
338.0,-0.07758525345622119,-0.02939068100358424,-0.03891653865847415,-3.3977142857142852,-0.23023451100870457,9.189696876600102,0.06751792114695339,-0.21015104966717868,-0.7251088069636455,98.19031618023553,-20.27194060419867,1.4375512032770097,-0.6443058170107525,-0.12461039387506398,-0.12527277419764465,0.7440709082683051
339.0,-0.058635944700460824,-0.030953405017921157,-0.037974398361495146,-3.4451152073732714,-0.2429605734767026,9.171120327700972,0.10210573476702509,0.5305235535074245,-0.20071684587813615,98.71120071684588,-20.571626984126983,1.5198988735279055,-0.6406292063348695,-0.12621899071172554,-0.12735471957808503,0.7465970691203276
340.0,-0.051600614439324136,-0.036886840757808514,-0.031421402969790076,-3.547640040962621,-0.2325755248335894,9.131800819252433,0.2234479006656426,0.6026689708141322,-0.2009952636968766,98.93434139784947,-21.20885496671787,1.4623591909882232,-0.6385090740117765,-0.1291395368407578,-0.1321098146774194,0.7470762682841781
341.0,-0.05011367127496161,-0.02854480286738352,-0.02880286738351255,-3.6530826932923715,-0.22144905273937532,9.090093958013316,0.1927723374295955,0.6735407066052227,-0.03220846134152586,99.11132392473118,-21.86528577828981,1.3884376600102406,-0.6367216742593445,-0.13213900498259087,-0.13700636397465438,0.7471887226628262
342.0,-0.05433179723502306,-0.0183778801843318,-0.03220250896057349,-3.7215839733742966,-0.2145488991295443,9.062426779313878,0.1353878648233487,0.2678587429595494,0.020974142345110094,99.19071300563236,-22.298275089605735,1.34957277265745,-0.6357721388929851,-0.13414394385330264,-0.1401503433868408,0.7470794272936507
343.0,-0.06398924731182798,-0.01416129032258065,-0.03629390681003586,-3.7729820788530453,-0.20650384024577578,9.041197132616489,0.0552547363031234,0.29554211469534053,0.12886264720942142,99.20288338453662,-22.63096198156682,1.3272561443932411,-0.6352843385151048,-0.13574793769943677,-0.14246552673374296,0.7467793860455708
344.0,-0.07941397849462367,-0.013039170506912442,-0.03951561699948798,-3.804661546338965,-0.20237634408602156,9.0284280593958,0.031025985663082435,0.1736351126472094,0.09689100102406553,99.17102694572452,-22.832848502304145,1.315356182795699,-0.6351703142391192,-0.13676716242575526,-0.14388918250051203,0.746423237110343
345.0,-0.08999078341013825,-0.014387096774193552,-0.045152073732718914,-3.8240460829493097,-0.20083870967741943,9.019603686635943,0.009158986175115208,0.14423963133640555,0.1215437788018433,99.14804147465438,-22.958870967741934,1.3125,-0.6351075361751152,-0.1374010498156682,-0.1447218935023041,0.746208169124424
346.0,-0.091963133640553,-0.010995391705069125,-0.04750230414746545,-3.831723502304148,-0.20851612903225808,9.01647926267281,-0.028398617511520733,0.04193548387096774,0.16180875576036866,99.08473502304147,-23.006566820276497,1.3484447004608295,-0.6354680085714284,-0.13802012094930877,-0.1447082801658986,0.7457835102488477
347.0,-0.07515381741188193,-0.0077262423714036625,-0.037817411881928026,-3.792637439282601,-0.21096425457715778,9.033270643915806,0.07715001868227675,-0.8912302279237763,0.012476647154066503,99.11711763606925,-22.75597988541537,1.3540120189313738,-0.6355745324710425,-0.13667676825582264,-0.14306566220550504,0.7462458405756631
348.0,-0.06765524971976586,-0.009148835471416117,-0.039646033129904105,-3.708406277244987,-0.21093834848673557,9.067838086934858,0.02961763606924897,-0.2403443766346992,0.029164590858139248,99.13571895628345,-22.22744270768464,1.336020986424212,-0.6360625696502678,-0.1336823684182339,-0.13968432042994147,0.747010391951426
349.0,-0.06860181840827002,-0.007173496076721884,-0.04140366172624239,-3.6871386224934612,-0.20782862124797613,9.076803836094157,0.019244301905592228,-0.16493025283347862,0.19312492215718022,99.125491966621,-22.082471353842323,1.306748972474779,-0.6362912877514014,-0.1327673097344626,-0.13888107839008595,0.7471378677775564
350.0,-0.06795067878938847,-0.007301033752646656,-0.03965574791381245,-3.6813296799103252,-0.2039143106239881,9.079623116203761,0.01886754265786524,0.07208556482750031,0.09345186200024909,99.09298791879436,-22.052036368165396,1.2773664217212604,-0.6365429057005856,-0.13245139860455846,-0.13878432378029643,0.7470010343081332
351.0,-0.07554215967119193,-0.014286461576784159,-0.03923801220575415,-3.6887570058537795,-0.20450093411383735,9.07732768713414,0.1126883796238635,-0.3652244986922406,-0.07539388466807821,99.09211607921284,-22.095949059658736,1.2799850541786026,-0.6365077727811685,-0.13270009968015942,-0.13904930711595465,0.7469372581863246
352.0,-0.0653599590373784,-0.017248335893497183,-0.03794265232974912,-3.5898463901689706,-0.2021802355350743,9.115997951868918,-0.06392729134664618,-0.4730286738351255,-0.1377496159754224,99.27478878648233,-21.47523041474654,1.2659370199692779,-0.6359625953763443,-0.128989417937532,-0.1352488177849462,0.7487272942898107
353.0,-0.06340809011776755,-0.031900665642601134,-0.035409114183307736,-3.5885407066052224,-0.20416385048643115,9.11640450588838,-0.0823668714797747,0.08871607782898105,-0.05677803379416283,99.35700844854071,-21.46998847926267,1.279915514592934,-0.635457575250384,-0.1289267388673835,-0.13522509148694312,0.7491769977071172
354.0,-0.05910087045570918,-0.03550435227854584,-0.03550332821300564,-3.6035934459805423,-0.19971428571428573,9.111188940092166,0.12981950844854068,-0.28672555043522785,0.10757168458781363,99.33971454173067,-21.565232974910394,1.2555363543266769,-0.6354322799938557,-0.12929229914592932,-0.13596410813824883,0.7490074994101381
355.0,-0.061423963133640555,-0.027376856118791607,-0.04695494111623144,-3.375120839733743,-0.14781413210445465,9.195231438812085,0.31372567844342036,-1.4072196620583717,0.1720942140296979,99.23784562211982,-20.137487199180747,0.9221230158730158,-0.637556619454685,-0.11940032226779312,-0.12825321474347157,0.7500832769047617
356.0,-0.06577438037115457,-0.02479055783894494,-0.036516578790772344,-3.2910647167905225,-0.13183171420268192,9.227979151963023,0.03160829320103514,-0.30657097189355254,0.2153074445413155,99.11922639805704,-19.617910681418746,0.8221899174520142,-0.6388694907006891,-0.11602586799029213,-0.12528283641943788,0.7500510820996594
357.0,-0.05464794287374933,-0.024120189313737703,-0.037886425596103016,-3.289452609291319,-0.13465689652786428,9.228967174547819,-0.008305396410235134,-0.34851398057043215,-0.10868812360747844,99.06134931013963,-19.60885453425776,0.8406704515575483,-0.6392544520573338,-0.11617621150858692,-0.12504724020792682,0.7497767245937366
358.0,-0.05601060738157513,-0.03469655139009979,-0.03805022764700185,-3.230000242177663,-0.14887581129516614,9.250959265717329,-0.016905514385353097,-0.30738551051051044,-0.11388707255642738,99.22445025670831,-19.23138259226969,0.9146868642836384,-0.6385822167608739,-0.1144457498643805,-0.12232074106146469,0.7510810391058802
359.0,-0.05779473021408506,-0.04325777390293521,-0.04238980916400273,-3.2218415189382927,-0.15386442894507413,9.25367407730311,-0.02724195970163712,0.08339841857987018,-0.06047176208466531,99.30067718928606,-19.183735650973553,0.95359119199845,-0.6380928786626949,-0.11431308713649133,-0.12187908434345636,0.7515943877070617
360.0,-0.06399593141528626,-0.04978505694634729,-0.04695424918005565,-3.247641189576674,-0.15791339726823603,9.244386833838451,-0.04076031676838128,0.2414103908055521,0.029662352444610518,99.34173084374697,-19.335417012634753,0.9830959992250314,-0.6376295361600725,-0.11531092138135371,-0.12280464585874815,0.7516861342928547
361.0,-0.06713261648745521,-0.05750998463901691,-0.047135944700460834,-3.202240143369176,-0.15159498207885308,9.259874807987718,0.3185595878136201,-1.1000912058371735,0.24657098054275473,99.33299731182797,-19.05256816436252,0.9419802867383513,-0.6380197163310292,-0.11345762253558628,-0.12117184082872504,0.751882186922171
362.0,-0.07701612903225807,-0.056622375832053276,-0.04071402969790067,-3.1091308243727602,-0.12874551971326167,9.292002816180236,-0.0423611111111111,-0.1099414362519201,0.0011136712749615918,99.26299283154123,-18.48279729902714,0.7965389784946237,-0.6390358598545827,-0.1094347742516641,-0.11812388765898617,0.7521028664359959
363.0,-0.06324760244115084,-0.04976050013146789,-0.04289927485088776,-3.1135394265232974,-0.13230456262714327,9.29149484507549,-0.014629649811101427,-0.05287815176928076,0.02420094345497571,99.21763900997772,-18.510525387138294,0.8146008912137944,-0.6393444098849101,-0.10974129864295401,-0.11811983116190614,0.7518121466066687
364.0,-0.06133783091847608,-0.05472420807904681,-0.04473829589958622,-3.129357910906298,-0.13582970066841035,9.285614550033904,-0.03270124963673351,0.2752322310790053,-0.06534688490333651,99.21982180913632,-18.61077664646213,0.8390976806299386,-0.639207375491994,-0.11045926698903971,-0.11868266984759415,0.7517423055418138
365.0,-0.05800071269426109,-0.06201187362477687,-0.04380232767329543,-3.1639923195084485,-0.1375922696890439,9.274222021560727,0.005452370573338316,0.02200551646116164,0.013265497640497649,99.2328947755359,-18.822755834751803,0.8485810983794855,-0.6390076923404671,-0.11168048703369035,-0.12005131723716111,0.7515142995220588
366.0,-0.05754426315716639,-0.07040557838944937,-0.046238081399371744,-3.171046338965694,-0.14230867964738936,9.2730384301352,-0.011330714354907902,-0.07129450879450878,-0.05001487662777984,99.22338623185397,-18.861114700530024,0.8748953878994201,-0.6389551826800901,-0.11209316370949751,-0.1201566620818422,0.7514825161454379
367.0,-0.05821657602302764,-0.07345995765350603,-0.05983947080721275,-3.130285714285714,-0.12835416061222515,9.286178713275488,0.08668455321681127,-0.2866553189133834,0.04712517817356528,99.16332842058648,-18.61388508323992,0.7942185272830434,-0.6395843431859232,-0.11025332027768782,-0.11891376053912898,0.7514131095198517
