time,linaccel_x,linaccel_y,linaccel_z,gravity_x,gravity_y,gravity_z,gyro_x,gyro_y,gyro_z,euler_x,euler_y,euler_z,quaternion_w,quaternion_y,quaternion_x,quaternion_z
0.0,0.08333333333333336,0.061190476190476184,0.004523809523809527,1.4992857142857143,1.268095238095238,9.600476190476199,-0.29017857142857145,0.9821428571428571,1.9776785714285714,102.98214285714286,8.796130952380953,-7.511904761904762,0.6192815869047619,-0.09904261952380952,-0.01975795238095238,-0.7786240342857144
1.0,0.40924119241192414,0.01942121564072782,-0.017516453735965925,1.3919570267131243,1.2462756484707702,9.612841656988003,-1.2928644018583042,6.858885017421603,14.398047328687571,101.50929152148663,8.146474545102594,-7.370838172667441,0.6290643905942703,-0.09448901415021294,-0.015324432094463799,-0.7704323990708477
2.0,-0.06461091753774689,0.23458188153310103,-0.006826779492284715,0.0750564128090262,1.1405126928820308,9.652850506056081,-1.0183704579392732,11.152957524473203,25.87977538576406,75.5847643935623,0.41651630164260833,-6.734610917537746,0.7711718215472041,-0.03075291830927493,0.032721588422100545,-0.5975757661324043
3.0,0.002483159117305414,0.13499535423925668,0.05814750290360047,-0.5543070073557875,0.760175764614789,9.691203252032519,-2.541906213704994,3.0951897018970187,11.885958672086721,61.10622338366241,-3.2476892179636083,-4.4777390631049165,0.8452433711982189,0.008363017169957411,0.03829369846999612,-0.4973908266078204
4.0,0.1315855531827207,0.37770128507736694,-0.1351820838484882,-0.007690794649881982,0.48727398748641865,9.704345659585627,0.14715751564197666,-6.366382863137387,-21.903107554981077,66.81560732081975,-0.0008020025476753734,-2.8924543853733464,0.8171363492587387,-0.01138636643849987,0.010534447278108722,-0.5382080230744446
5.0,0.06223670900303469,0.22571316173991235,-0.07540594207785394,0.9287774905398823,0.883583230302349,9.61861676220449,-0.6068407890300102,-4.688279757221535,-12.226155351991306,84.1915018170919,5.492902570154734,-5.264391555205874,0.7223874855625492,-0.06158615086133901,-0.011212174917013219,-0.6538917395249335
6.0,0.011566820276497677,0.18440092165898617,-0.04768817204301074,1.4372119815668203,1.075015360983103,9.569554531490015,-0.2621927803379416,-1.0705165130568357,-6.082949308755761,93.04334677419355,8.459005376344086,-6.418442780337942,0.6738268126728111,-0.08765126593701997,-0.023896857357910903,-0.7125318209370199
7.0,0.026443932411674326,0.18596774193548388,-0.05519969278033793,1.6753840245775729,1.1145545314900152,9.562058371735791,-0.3100038402457757,0.29742703533026105,-3.916522657450076,98.25902457757296,9.850854454685098,-6.64900153609831,0.6454522625192014,-0.09831258859447004,-0.031422323072196626,-0.7473676127726576
8.0,0.012493087557603675,0.15853456221198156,-0.026615975422427027,1.5125468509984636,1.1702549923195082,9.599920122887863,-0.10217933947772656,-0.03345814132104452,-1.4161866359447006,100.30874615975422,8.88919930875576,-6.947033410138248,0.6359806467250384,-0.09595114688940093,-0.022184910290322577,-0.7628390402488481
9.0,0.023824285339627587,0.18305376344086025,-0.01890453710988722,1.5141431194035444,1.1811115357236521,9.606260874452062,0.00737046195346748,0.9473546794799745,0.8240839608856918,101.36015815256079,8.8888288655352,-7.003943042598628,0.6302535352807688,-0.09624612002360346,-0.0218030153814769,-0.7698575539500583
10.0,-0.0075309280281742885,0.18589089955415683,-0.019784683975872006,1.4133712487355288,1.1828529841519613,9.622054512757106,-0.16845378592034768,1.3195868925855156,0.9646451519238695,100.6163198737402,8.279330111273463,-7.001212253193961,0.6354938911472781,-0.09307086578153685,-0.017093412152073734,-0.7661002034479039
11.0,0.008767974223521045,0.19456565883631188,-0.010195346746094184,1.4200950133003634,1.175138323779551,9.622708441047546,-0.22465812446142894,-1.2598470692368215,0.20270116799670307,100.00435785939081,8.330926857367652,-6.958464697838222,0.6395959085049641,-0.09320142292842157,-0.01715864972726762,-0.7627198769790942
12.0,-0.011282061369000779,0.1791254917387884,-0.01620338316286388,1.643503540519276,1.1732501966955153,9.584201809598742,0.2878491345397325,-1.836281717151849,0.4480539437450826,99.67180246852871,9.654192073170732,-6.977554583005507,0.6411656195381589,-0.100716635197679,-0.025665758330251767,-0.7601210856624705
13.0,-0.005391030684500387,0.17574822974036192,-0.015416207710464196,1.7848324154209279,1.1824799370574348,9.559834775767115,-0.14448269079464987,-0.4870672698662471,0.06533241542092841,99.63874901652241,10.489545633359558,-7.048505114083399,0.6409808573658535,-0.10578803446577498,-0.03086758678206137,-0.7594598733957514
14.0,-0.006015735641227376,0.1546955153422502,-0.01643745082612116,1.8484940991345398,1.1768733280881194,9.550456333595598,-0.35078678206136904,-0.29115853658536583,-0.026760424862313135,99.52349527930762,10.866748623131393,-7.016679779701022,0.6415980658977185,-0.10772606109992132,-0.033466944634146345,-0.7586302569929191
15.0,-0.0008497246262785193,0.11913611329661683,-0.009823760818253343,1.8915774980330444,1.1615405192761599,9.543443745082614,-0.3370869394177813,-0.3995918568056648,0.0012096774193548383,99.53873426435877,11.123352675059008,-6.932238394964594,0.6414362486978757,-0.10855854978363494,-0.03569648486782062,-0.7585942121691582
16.0,-0.0035099846390168965,0.1060921658986175,-0.006366865235472631,1.9429844329549286,1.130985126072459,9.538338522348361,-0.39150954441572067,-0.20034503671649617,0.08272170394515005,99.51755472350229,11.427301688771497,-6.750561987186693,0.6414334932665506,-0.10906933805524335,-0.03870340358973062,-0.7583881019219396
17.0,-0.010698344011089883,0.09955198381476903,-0.0008702933573114526,1.9635952849275033,1.111254954853696,9.536748332771342,-0.15565347401745905,-0.04335210136375557,0.07196667415982914,99.49551516662919,11.548013550916039,-6.641532960548499,0.641561620453889,-0.10900910309921885,-0.040118018187469566,-0.7582234998217094
18.0,-0.016712075231351396,0.10030824997190066,4.872428908620928e-05,1.974672642463752,1.0957565096849122,9.53594271477277,-0.27686907571840697,0.08928665093102545,0.11703172417668878,99.46325657525009,11.612640848038662,-6.5430447060807015,0.6417603396825897,-0.10876943233589975,-0.04106157545260575,-0.7580437432294032
19.0,-0.03149923195084485,0.10330990783410138,-0.0034343317972350233,2.002646313364055,1.108475422427035,9.528496927803378,0.2621063748079877,-0.5497311827956989,-0.09753744239631337,99.4643289170507,11.785923099078339,-6.629075460829493,0.6416552984101382,-0.11025575558179726,-0.041759881140937025,-0.7578738145391704
20.0,0.0009447191937357186,0.09368613015623242,0.004637574463302235,1.9365923344947733,1.1813944775392455,9.532871791989809,0.16619284121988684,0.7362255769735117,0.25869218556816903,99.1892098460155,11.393372766100931,-7.056088428683825,0.6435696424123862,-0.1109525325097224,-0.03645438285577536,-0.7563884633915364
21.0,0.004836939417781274,0.05775039339103068,0.0033719512195121894,1.787767899291896,1.1910090479937057,9.559789929189616,-0.2607039240755311,0.654776012981904,0.10737239378442172,98.94656520456334,10.507540814319434,-7.096968430369787,0.6455886445078678,-0.10635966627537372,-0.030062036690991355,-0.7555770482468527
22.0,0.014420141620771045,0.11558438237608182,-0.02065617623918175,1.7651662077104642,1.1707783241542093,9.56721380802518,-0.19807976003147132,0.5557115460267505,0.3277746361132966,99.18046321793864,10.368828678206135,-6.973180566483084,0.6441466364313533,-0.10473056346813532,-0.030073573803304488,-0.7570250655432731
23.0,0.004166011014948857,0.11063512981904011,-0.013986821400472069,1.7000680566483082,1.173165027537372,9.579489968528714,0.2725290125885129,-0.3255532061369001,0.3589754622344611,98.71653471675846,9.983720987411488,-6.984981068056648,0.6473960750892999,-0.10278822049763964,-0.027022637527537377,-0.7546528616066088
24.0,-0.00319268841600644,0.11072200977073533,-0.00783671527638007,1.6363132856384826,1.1736649406254003,9.590767021023549,-0.13779893144017713,0.5047344153111448,0.1686481071487384,98.41189756280534,9.599820686879037,-6.974445593105593,0.6495881821299838,-0.10066226898194061,-0.02424614861654438,-0.7531528456472655
25.0,-0.005896108173384807,0.10083307412218907,0.0007944669094102777,1.575501253362121,1.1529024939161618,9.603192322470864,-0.06039238468153625,0.13444824620789342,0.11481185845241798,98.24673851389676,9.241540949261706,-6.840487942107478,0.6508889632247086,-0.09781859864911349,-0.02244358605492837,-0.7524804484176532
26.0,-0.023849856192271077,0.0897198602786585,0.010811230682235011,1.6501164054079724,1.1610067150934074,9.588195576768756,0.19966359185615218,-0.4770066101020028,-0.001119182234583023,98.6469469610434,9.6888400018123,-6.8998684231162315,0.6480063458834568,-0.10057461929739403,-0.02546849401206573,-0.7544340725762538
27.0,0.006289863406618199,0.15423129127229543,0.020940627142848424,1.7262517510910826,1.180555285162754,9.571558842672339,-0.13923193341889478,0.005954798804230693,0.023093044602614066,99.09982576218968,10.145639513101273,-7.029128743422789,0.6447433511352767,-0.10382873115853178,-0.02826684910752775,-0.7566223869167659
28.0,-0.015716594653889967,0.14896064957005803,0.017552138905806588,1.552192752020758,1.1945892082776792,9.599489098755523,0.14962085469102468,1.1321965182062064,0.9376332650235728,98.1299187819603,9.105672825000674,-7.089884001923826,0.6515955965880947,-0.09861273794905348,-0.020092544646604156,-0.7516602474355663
29.0,-0.03561724926005021,0.12367835600014984,0.007547225656588364,1.4103935783597468,1.223166011014949,9.618760705855902,0.17425887939754975,0.6622634970589336,0.606995803829006,97.22383504739426,8.269069396051105,-7.241554035068001,0.6578248480098909,-0.09502725409190363,-0.012879672104192426,-0.7468626554728559
30.0,-0.03934284964969466,0.11576522048630625,0.013816885841669482,1.3747168521224382,1.186055861526357,9.62893188715297,-0.6189091126222322,-0.456092877749054,-1.1745459611854183,97.73684376287888,8.057061251920123,-7.0134058530965495,0.6546184673330335,-0.09233592958725789,-0.013143378813701248,-0.7500094543217938
31.0,-0.054893391030684496,0.14115833988985052,0.006969118804091268,1.5540297010228168,1.1658988985051142,9.602505114083394,-0.006617574744295918,-0.7959947875688435,0.17263965381589297,98.21701539142407,9.125756048387096,-6.916956382769473,0.6510502545259638,-0.09760968874370576,-0.021227369837726204,-0.7522257364834775
32.0,-0.05189830841856805,0.13339771833202202,0.005343430369787571,1.6772608182533437,1.1576833202202987,9.58248642800944,-0.2296444728560189,0.15784938040912666,0.3554730527143981,98.20046838119592,9.85010080645161,-6.880277586546027,0.650841500827498,-0.10145682207749801,-0.026242770398701813,-0.7517758132739967
33.0,-0.07064673485444531,0.1264649881982691,0.013421715184893792,1.687751376868607,1.1338174665617622,9.584626278520851,-0.31315892997639655,0.012770456333595595,0.1824744295830055,98.0575678599528,9.910282258064516,-6.742633752950432,0.6518203501597166,-0.10093735780487803,-0.027331033767899294,-0.7510059900684499
34.0,-0.05470810385523209,0.12847797010228165,0.017330841856805668,1.6566734854445317,1.0919205350118015,9.596106215578292,-0.20217348544453184,-0.35854396144767897,0.2982248229740362,97.6920903815893,9.728675747442956,-6.491001180173092,0.6544181066770258,-0.09838676488355623,-0.0271959594913454,-0.7491430924921323
35.0,-0.040612903225806456,0.13657258064516128,0.017895161290322585,1.9614838709677416,1.0892419354838707,9.532661290322583,-0.4959677419354839,-0.7941028225806451,-0.34264112903225813,98.46869959677419,11.542086693548386,-6.515120967741936,0.6482537542661289,-0.10838435962903223,-0.03997664905645161,-0.7523052587016128
36.0,-0.07016896144767899,0.12367820613690009,0.009439024390243906,1.7814921321793862,1.0684421715184893,9.569235444531868,-0.09243705743509051,2.467010474036192,0.5028656077891422,98.08367304287962,10.456377852084973,-6.36620525177026,0.6514201909988198,-0.10148131992505899,-0.03318330534382376,-0.7508549028941777
37.0,-0.04827399685287176,0.11305684500393393,-0.0038691974822974047,1.5831250983477574,1.0400436664044062,9.609097560975608,-0.28971651258851294,-0.8252397226593233,0.24218381195908728,97.54302099724626,9.295527635719905,-6.166923190401258,0.6556109233058615,-0.09382857616817467,-0.02610681167191188,-0.7485428927374116
38.0,-0.037560385523210074,0.10736309992132181,0.0021097560975609744,1.688457710464201,1.0456831235247834,9.592484264358772,-0.1082403127458694,-1.4076047403619198,0.1216463414634146,97.34663650668764,9.919336398505115,-6.2121410306845,0.6566087145279307,-0.09776782045102281,-0.029748120771439818,-0.7471248299533833
39.0,-0.0021471282454760023,0.1358509047993706,-0.0036628638867033806,1.8144425649095195,1.1900633359559403,9.547717938631003,1.2980219807238396,0.8776492427222659,0.4098655094413847,97.76369123721479,10.666397029897718,-7.1080866443745085,0.6531319329091266,-0.10747446132631785,-0.02996364911959088,-0.748508738811369
40.0,-0.056027537372147905,0.11092958300550747,0.008066876475216367,1.6812033831628634,1.2627938630999211,9.565686467348542,-0.6109731510621557,-0.7646366050354052,-0.9324670535011803,97.43504130605822,9.876644866247048,-7.513751475216365,0.6555938693552321,-0.10580749507946499,-0.022133686182926833,-0.7470236962380015
41.0,-0.040645554681353266,0.12074803304484658,0.006283634933123526,1.6308180566483081,1.2324197482297403,9.580498623131394,0.0449756589299764,0.8182865361919749,-0.18434426632572787,97.8579858379229,9.56882990755311,-7.32505532061369,0.6530649517389852,-0.10284147833438237,-0.021535597174862316,-0.7497697434848543
42.0,-0.05331279270165975,0.11757198119216214,0.0032850586339964794,1.5500996965269191,1.2142621014574198,9.598597045820693,-0.26076509872241577,0.22484867324191674,-0.0606569161889776,97.91835303800906,9.092840693023867,-7.202541821213143,0.652975101967227,-0.09941404989107751,-0.019086250288084,-0.7504680117998389
43.0,-0.05325798958450416,0.1304019426023753,0.013086864486156386,1.5342117286725865,1.1919999531677343,9.605220533138514,-0.10616318468772243,0.25212425302536434,-0.12164558043909934,98.03230360889438,8.99588496590611,-7.0642847776404025,0.6523287065157732,-0.09797038072592822,-0.01931618731015136,-0.7512660591920124
44.0,-0.06387246637443333,0.11504102506462854,-0.015439286650931021,1.5030388520475064,1.1916368813457718,9.610512532314267,0.0060881945224982165,-0.32008682702034397,-0.11725160166348207,98.15116284515379,8.813291465287925,-7.059062511708066,0.6516444815892999,-0.0969024333846615,-0.018251814710951254,-0.7520612464208911
45.0,-0.06191038177662883,0.09505975797085159,0.013589974148589415,1.478032670188453,1.186015136188228,9.614545727024094,-0.367312483608707,0.06943351691581431,-0.08630484058296804,98.19799511071147,8.66277958862538,-7.023842306395414,0.6514058541291072,-0.09581569146266533,-0.017495987819489717,-0.7524356984129482
46.0,-0.03333707991457795,0.1484131355138436,-0.01146322730508411,1.4550181709190366,1.1583964632273047,9.621230002622607,-0.24546078266082197,0.09196100745569667,0.05642000112397437,98.29443679517439,8.527572496347084,-6.858869796935297,0.6508872156715747,-0.09396054069386686,-0.017609087592072234,-0.7531168836950658
47.0,-0.03510786407403245,0.13339934809486342,-0.006114870180959872,1.372490652279795,1.147222809186617,9.634588887640028,-0.3450854220523772,0.7247007418230865,0.5965807762916339,98.0149699336855,8.042751301936983,-6.781916657300213,0.6529611483903188,-0.09073742872174141,-0.014595008564085271,-0.7517609737730322
48.0,-0.03672387696227193,0.13238810835112957,0.004763178599527934,1.345804728185531,1.1357632535311528,9.64066187104267,-0.2819054175564797,-0.08321414521748899,0.3019292551796486,97.59176899516692,7.882533204076281,-6.714669973024614,0.6557996492384326,-0.08948025264568582,-0.013596923243490313,-0.7494534832594507
49.0,-0.021213704994192797,0.12339297890674757,0.010685736765201759,1.2373186467348545,1.1122126559514443,9.657550597579707,-0.18928220186579744,0.4401565602637594,0.24834846015510847,97.21739467423475,7.244237992207111,-6.566498772994643,0.6585544509563899,-0.08490919554557716,-0.009937450018058519,-0.7476156748831815
50.0,-0.0229598928477764,0.09245395451650368,0.011590667266119667,1.1992874377130869,1.0813207260874451,9.665882844404482,-0.3784411177925143,-0.24537882619609602,0.016803651043422865,97.06476984283091,7.021842334494773,-6.377792607995204,0.6596738282270616,-0.08243987814950732,-0.009400079682889362,-0.7469258435157355
51.0,0.011645357985837919,0.11816227380015731,0.008629622344610541,1.1916723052714397,1.090759834775767,9.665867033831631,-0.24743189417781275,-0.12259047993705743,0.09311319826907946,97.0438471184107,6.9777955350118015,-6.437133654602675,0.6598169021296223,-0.08254100299901651,-0.008773598723839496,-0.7468134244663651
52.0,0.023205743509047985,0.11859323367427219,0.006649488591660108,1.204102281667978,1.1110291109362702,9.661723839496458,0.264162077104642,-0.2451662077104642,0.13360297010228167,96.98092053501179,7.051952202989772,-6.55944384343037,0.6601811997623919,-0.08377575348741148,-0.008508469184500395,-0.7463593268985051
53.0,0.02667997639653815,0.10968843430369786,0.005907749803304484,1.2267348544453192,1.114133752950433,9.658255310778912,0.1274095200629426,0.3323637883556255,0.8506478658536585,96.83161880409126,7.184674960660897,-6.576407602281668,0.6611196343343824,-0.08465168612608182,-0.009152212585169158,-0.7454070343768686
54.0,0.046110149488591656,0.13481195908733282,0.000909520062942564,1.2574319433516918,1.1584217151848937,9.649119590873328,0.24656766325727775,1.1297403619197481,-0.22525570416994495,96.70955940204563,7.362145948072383,-6.843218922108576,0.661735812086546,-0.08742518747836348,-0.008709318199842643,-0.7445336267852085
55.0,-0.012656963021243115,0.05935719905586154,0.0007419354838709685,1.0912218725413063,1.0117364280094412,9.673619590873326,-1.206549960660897,-1.9211644374508263,1.0324105035405193,95.17576219512193,6.402158733280881,-5.96259588906373,0.671951615429583,-0.07632976143784422,-0.006602683403619197,-0.7360158635263572
56.0,0.016435483870967743,0.1038461841070024,0.0031388670338316294,1.3124504327301336,1.0189453186467348,9.648799567269865,0.09536782061368998,-0.3985837922895358,0.6465160306845004,94.61263031077891,7.700592545239968,-6.01915199645948,0.6751856997612116,-0.08431949270239969,-0.014117520672698666,-0.7322571194028322
57.0,0.012080645161290326,0.1049714791502754,0.0022710464201416212,1.4675316679779702,1.0399968528717543,9.62799252557042,-0.21017899291896147,-0.8603302025963807,0.14578825727773403,94.47012563926043,8.615770062942564,-6.15582095790716,0.6757556478241542,-0.09052260188749017,-0.019105082183123526,-0.7310423768788354
58.0,0.008556451612903228,0.10878009441384737,0.0016919748229740359,1.5598988985051143,1.0295871361132964,9.617762391817472,-0.2620955448465775,-0.46653102871754515,0.1685594512195122,94.44557189221085,9.158187450826121,-6.101373180566483,0.6757356664282061,-0.09333692124213219,-0.022879025805271444,-0.7307191400442563
59.0,0.0008003072196620642,0.08230978607021093,-0.0038901877037203535,1.609877636656551,1.0074016709752347,9.612275205125323,-0.5737381046045483,-0.12558622288411822,-0.2119196311490765,94.45048611891649,9.45638827226406,-5.976285428608895,0.6756254759712075,-0.09422574500989098,-0.025578170812389944,-0.7306485191463602
60.0,-0.0265431980817504,0.08996685212243828,0.006977014724064289,1.6675666704132477,0.9662539432767598,9.608092755985165,-0.5495067391630137,-0.15302717910531638,0.011787037297216252,94.71243326402158,9.789194332827545,-5.734085869300513,0.6738732935442191,-0.09459995269770707,-0.029377274159145404,-0.7321452123623224
61.0,-0.010564609793563376,0.07577202053126522,0.0031540219549660914,1.615117436589112,0.9798408733280879,9.61555924281593,0.31330346605597387,0.7392542195871267,0.5378335628114346,94.48907473492937,9.475507544677981,-5.814915198475141,0.675451211762701,-0.09335087958925292,-0.02668841289888914,-0.730940200880662
62.0,-0.04732416357573714,0.07057687048068637,0.01666802480236784,1.4637415139934804,1.0371952062492977,9.632216065340376,0.2749373033044846,0.8428245944325803,0.6046214665055636,93.77787310095162,8.580625316117793,-6.14063852281668,0.6802635400962123,-0.09028834970188454,-0.018442649464613537,-0.7270471572166366
63.0,-0.047595069499082085,0.07673447978719419,0.024780824997190063,1.3709838522348354,1.0592832790079054,9.644227080289237,0.02103119965531451,0.5204282342362594,0.5005526207335806,93.22124381814095,8.034431081638004,-6.260530234910644,0.6839895245657712,-0.08791299288243229,-0.013804957182383573,-0.7239636912509835
64.0,-0.03681278333520662,0.07757221535348995,0.022233337079914577,1.3216949533550635,1.031282829418156,9.654213405267694,-0.32201163313476455,0.21891508373609075,0.4702357536248173,92.81226818028549,7.745356580869956,-6.091128563935409,0.6867522473133265,-0.08518400854220524,-0.01265164557341426,-0.7217072700322205
65.0,-0.05340639166760332,0.11204338541081264,0.0177610430482185,1.259321119478476,1.0091976696264657,9.665265632610243,0.29540153984489154,0.1398961728672586,-0.15677335056760705,92.09914156457234,7.377374395863773,-5.953240324453936,0.6914032425118952,-0.08220425244576823,-0.010614154741860551,-0.7176109182497845
66.0,-0.07919781948971563,0.06504934247499158,0.03159787943501556,1.0416375182645834,1.0826226443370424,9.675873215690682,2.989127421228129,3.3906806133153498,3.2274408976808657,91.29534651193286,6.098287812371211,-6.374978457157843,0.6966040977021843,-0.07697332209692406,0.000567050227380018,-0.7128648457984713
67.0,-0.05289206099434266,0.08772005544940242,-0.0019196732981154666,0.7461105241467161,1.2842710276872356,9.671661084260611,-0.6953598591285453,-1.4006219324866058,-1.7113130362294406,90.69116111235996,4.388489331609906,-7.545902410925031,0.700202584473493,-0.07354607092454385,0.01886114474099884,-0.7091081265301411
68.0,-0.05757199055861526,0.08560503540519276,0.010783634933123527,0.9148371361132965,1.2384012588512983,9.669915027537373,-0.9898554287962235,-1.3138670338316285,-1.0651947285601888,91.64603658536585,5.365937254130605,-7.283910306845003,0.6942533692336743,-0.07813644806058223,0.010434385335169157,-0.7148914497458693
69.0,-0.042699449252557045,0.06812824547600316,0.018250196695515343,1.0675452399685288,1.2037985837922895,9.661176239181746,-0.40023849331235245,-1.76868115656963,-1.3722265932336741,92.36141325727772,6.25997000393391,-7.101298190401259,0.6896338959811174,-0.08249558317899292,0.0031087811412273793,-0.719097739322974
70.0,-0.053002753737214775,0.11740479937057434,0.011489378442171521,1.219245476003147,1.2075586152635718,9.644101888276946,-0.0745684992132179,-0.42948219905586144,-0.11998426435877252,93.37430418961446,7.147692515735641,-7.136054287962234,0.6829768668764753,-0.08803300115991346,-0.003135611210660897,-0.7248340031469314
71.0,-0.05531589299763964,0.1096136900078678,0.022196302124311562,1.1206066089693159,1.1956664044059795,9.658107395751374,-0.47586791896144764,1.1000270456333596,1.0539191581431944,92.7321621754524,6.5576416207710455,-7.054015047206924,0.6872662774704957,-0.08408445586624705,0.0005745037777340678,-0.7212437922710464
72.0,-0.04810483870967741,0.09924193548387096,0.01512096774193548,1.0864032258064515,1.1387096774193548,9.671072580645163,-0.3260584677419355,-0.2617439516129031,0.595866935483871,91.8889616935484,6.360483870967742,-6.7109375,0.6927922892419355,-0.08084470703225806,0.00041060925,-0.7164197370080643
73.0,-0.03337903225806451,0.10943548387096773,0.03466129032258065,1.238524193548387,1.123725806451613,9.654701612903228,0.05635080645161292,-1.1980846774193545,-0.03603830645161288,91.72424395161289,7.261189516129032,-6.634475806451613,0.6935429726854837,-0.08578978508870967,-0.0055852583145161285,-0.7151239700887095
74.0,-0.015080645161290323,0.12266129032258062,0.0028548387096774194,1.3607096774193548,1.1443790322580647,9.636048387096771,0.0578125,-0.7368447580645161,-0.5960181451612903,91.99667338709676,7.979536290322581,-6.767439516129032,0.6915045954032257,-0.09091403138709678,-0.009547966193548387,-0.7164242648387096
75.0,-0.012064516129032256,0.10962096774193547,0.00650806451612903,1.3908387096774195,1.1695403225806453,9.629048387096773,-0.05851814516129033,-0.03749999999999998,-0.057258064516129026,92.31370967741935,8.155796370967742,-6.922782258064517,0.6894304828064517,-0.0928900440080645,-0.009967041491935483,-0.7182222428306453
76.0,-0.008857199055861525,0.097647128245476,0.003347167584579071,1.4519588906372936,1.188321400472069,9.618516129032262,-0.1214152242328875,-0.3872590479937057,0.015141866640440593,92.48974478756884,8.514808713611329,-7.0366898603461845,0.6881315098190401,-0.09576171679445317,-0.01171120471223446,-0.7191021994647916
77.0,-0.019259244689221078,0.09886703383162863,-0.0034706923682140075,1.5338455940204563,1.1899537765538943,9.605267702596386,-0.16124729543666405,-0.22347438040912668,-0.044846577498033044,92.82403496262785,8.996808615263571,-7.058076809598742,0.6857809519240754,-0.09869089891207708,-0.014985356992132179,-0.7208637894795437
78.0,-0.024665027537372146,0.11033890637293471,0.009490755310778913,1.4059191581431945,1.1951494885916598,9.623401258851302,-0.0970766129032258,0.8647742918961447,0.5735776455546813,92.19436221479151,8.24098642800944,-7.079216660110149,0.6900552454939024,-0.09435912840932337,-0.009496946478756886,-0.7174079906394571
79.0,-0.05151907946498818,0.11621459480723842,0.01613690007867821,1.2274030291109361,1.1404838709677416,9.652692564909522,-0.08573834579071597,1.6785356018882769,1.6628638867033831,90.6337492623918,7.1879007671125095,-6.735949793469708,0.7002616919976398,-0.08591403689299765,-0.003782145542682927,-0.7083955347228561
80.0,0.00046607470683001154,0.1649016522423289,0.00766138398711176,1.2261406466599227,1.1341935483870969,9.655234723314972,0.21932720767299835,-0.7321943726349706,-0.01534225019669544,90.32659885354613,7.188605241467162,-6.695414652879247,0.7022259599396801,-0.08576162975909483,-0.0036989394151586683,-0.7066017763954141
81.0,-0.005178899254430336,0.1590959499456746,0.006637443332958674,1.2849529804053799,1.1717871192536808,9.643185718032292,0.058353002884867555,-0.10174309692405675,-0.07935259076093061,90.55994061668727,7.532534374882919,-6.923712581019819,0.7005985821437938,-0.08928522046794801,-0.004616929545165038,-0.7078412700618186
82.0,-0.01930987973474205,0.12611104866809036,-0.005863399647821357,1.2830073807650517,1.1618695440410627,9.644901277584202,-0.125746974635645,-0.5429077217039451,-0.7499859503203328,90.76006191225505,7.520636637817991,-6.865659304634521,0.6993801860046457,-0.08882422200104904,-0.005039035243340453,-0.7090910121838823
83.0,0.02425049642201489,0.1251170806638942,-0.02616649807051065,1.391468659847889,1.1785163538271326,9.627680491551459,-0.19158611516990748,-1.2064389681915253,-0.5737772095462891,91.71345912479862,8.156941946723615,-6.9752561724926005,0.6931402900880446,-0.09325954366078454,-0.00918893649020269,-0.7145528798250345
84.0,0.025056011389606968,0.10779064104005096,-0.02299276909819789,1.612292158405455,1.1881645498482638,9.58875763365928,-0.12219943051965082,-0.8119380128133078,-0.18610674009965902,92.39562610055825,9.461338793975496,-7.060897165711288,0.6881631932462252,-0.10143542800663143,-0.0176398566636694,-0.7179579330360422
85.0,-0.026815758817753214,0.15181355007741482,-0.0010460934048843202,1.6533887827357536,1.0791422899278829,9.593704898350019,-1.0864665480394486,-0.08788055572255432,-0.2776463933056435,93.06412393603627,9.702664069763085,-6.414645636583361,0.684056742316411,-0.09873696659905393,-0.023497493739436597,-0.7220626072866954
86.0,-0.03740501327422448,0.1525240804974763,-0.0009890277447410657,1.6511430819377315,1.0125291645210956,9.603914005504857,-0.17882263466563492,0.5641655677421098,0.5769482712577099,92.97309312084118,9.688430682365713,-6.017227139973146,0.6848564040781973,-0.0962037756711129,-0.02564419601830771,-0.7216901096220484
87.0,-0.025390678680122993,0.14082118003368438,0.010119925451746208,1.538556179985763,1.0213436913235279,9.623037647913716,-0.17801538799333977,0.3071931909371071,0.5720138821726337,92.2570822747063,9.023780433348755,-6.055138147559537,0.6896755346535379,-0.09261921486474232,-0.02059313928872375,-0.7177444562257708
88.0,-0.03051407973944705,0.1313775639031709,0.015064571020803977,1.5240346184107003,1.02907123122244,9.625399008288657,0.049701983422684975,0.030281503302654972,0.41100214077909725,91.9264050006404,8.942487374892504,-6.097975179770552,0.6917801261624066,-0.0924853467672406,-0.019523233880152965,-0.7158160415813952
89.0,-0.015106764496002048,0.1269232430058734,0.010282875596948016,1.4982588512981907,1.0543680310321484,9.62712043254716,0.04264701846193257,0.7075483047591167,0.3437681828993834,91.71956068285364,8.786994080837282,-6.245383144566629,0.6931275811048067,-0.09250052213499718,-0.01747117820207491,-0.7145834423280698
90.0,-0.01551062155782848,0.12777970102281666,0.021073170731707308,1.3437100708103857,1.0661660110149487,9.647101101494885,0.12004819040125886,-0.18770653029110923,0.23331038552321007,91.03527734067663,7.8739968528717545,-6.303392997639653,0.6977139659169945,-0.08744672504799372,-0.010899104527143981,-0.7108250294461054
91.0,-0.010870967741935482,0.12296774193548386,0.008354838709677414,1.386701612903226,1.0627258064516127,9.64176612903226,0.005947580645161293,0.8780241935483871,0.7056451612903225,90.9891129032258,8.125403225806451,-6.286088709677419,0.6979288401370967,-0.08886502183870967,-0.012529582161290322,-0.7104355353548386
92.0,-0.010245082612116449,0.12525727773406767,0.014303304484657747,1.1495381589299765,1.069587136113297,9.670303894571202,0.04759662667191188,1.1106215578284815,1.125931845003934,89.75713512981903,6.7307939122738,-6.311124360739575,0.7059990928121557,-0.08051858416148702,-0.002834224049567271,-0.703351895115067
93.0,-0.005950114270727961,0.11620621183170357,0.012637059308381101,1.2259449627215169,1.0594350811134843,9.661379097823236,-0.3314088199205725,-1.5205964791502753,-0.8278606904012588,89.74170840592335,7.184894603986362,-6.25573379135289,0.7059085631950563,-0.08297800865466823,-0.005996761089683789,-0.7031233675139468
94.0,-0.04305263010003372,0.11353206136900079,0.011894758532838782,1.3878242478738152,1.036731173429246,9.64205936457982,-0.4204579141845566,-0.4599574177625417,-0.747884118242104,90.63835492300777,8.135021226724364,-6.134988151436813,0.7000502724583191,-0.08793851468889326,-0.01331066624165449,-0.7082891407940317
95.0,-0.03886394290210183,0.11495613690007869,0.017776057472556298,1.4144374976583867,1.0350356299876364,9.640122915964177,0.06777372288411823,-0.3596619061668727,-0.28124192143419124,90.87127103939531,8.292878802779963,-6.127252631973324,0.698591477472472,-0.0888770441507999,-0.014474957130071932,-0.7097041033995728
96.0,-0.02287475178899254,0.12154546476340342,-0.00124311565696302,1.4792607995204374,1.0434041437188566,9.630298977183315,0.1220121014574201,-0.7238605709789817,-0.4976654115619497,91.03929695402945,8.678906279270166,-6.18324997190064,0.6973624433385786,-0.09155600211457046,-0.01668118653066577,-0.7105614509179123
97.0,-0.033435802330373535,0.10655164662245703,0.011514555468135334,1.4919278033794159,1.0650537634408603,9.627431156569626,-0.09371955902738749,0.07261928178037536,0.050906672661196695,91.21462290659773,8.752267852459632,-6.312907440710353,0.6962207078337267,-0.09279737691487769,-0.016484657104829343,-0.7115804369538422
98.0,-0.03338840807762916,0.11445861901015322,0.01442471244988948,1.3592012288786477,1.068110599078341,9.645324641264843,-0.036659126671911874,1.4715294949608482,1.313807791015698,90.48864785882881,7.966595715784345,-6.315295886253793,0.7010388785021169,-0.08811785813869843,-0.010967182511708065,-0.7074573031581806
99.0,-0.05471844441946724,0.11774905398823572,0.013581731669851266,1.1423180098160426,1.0528028174290958,9.673403019744478,-0.15987364654752537,1.2937647521636506,1.1314019707017346,89.00240249522311,6.685898336517927,-6.205996403282005,0.7106555202483983,-0.07964989506987374,-0.0026609050410250647,-0.6987510811633135
100.0,-0.010964513776527754,0.14197142926846695,0.0005238722572629226,1.0544420817747988,0.9826319907503005,9.691766007704013,-0.6588323093404013,-0.34479351545203385,-0.14542649164033172,88.58349487742144,6.17059300757245,-5.787379091070677,0.7135693000272236,-0.07399250348977925,-0.0017868272401985513,-0.6965031388090186
101.0,-0.02024032140439291,0.16514470080934868,0.00033490079837032174,1.1399130531761856,0.9483282841616325,9.685606506156155,1.8506673706754218,1.0510095402770554,2.183623159709788,88.53812320675988,6.674438208855349,-5.593358324337181,0.7137139306779743,-0.07593811141078824,-0.005972551968793592,-0.6961240908292404
102.0,-0.022208130429820006,0.07960281011019307,0.017473845813369717,1.092338790272481,1.136949725236187,9.6685456381517,1.5361189219343165,1.3983657064091806,1.1293008084338159,87.89396910965547,6.39397044383047,-6.70280856908478,0.7172840344311905,-0.08085239811744313,0.003146991882487172,-0.6917669456221809
103.0,0.03622991113632065,0.0816461519561075,-0.0030624555093477206,1.0656408701478506,1.2722293726741791,9.651503555331345,-1.2026592231681614,-2.5176793980725147,-1.9596274286341622,87.47743245698183,6.254207116674639,-7.495627282256104,0.7194339768254083,-0.08456161826772024,0.009148433358365725,-0.688776659181433
104.0,0.03950737684421106,0.08256671310684814,-0.0017357910906298012,1.2560050726967456,1.2190615511020613,9.637477940913802,-0.645420283642339,-0.014776015432429457,-0.3619119065480656,88.1053343693066,7.364405833601258,-7.197902154109956,0.7154212211931552,-0.08979677604436823,1.937658486050181e-05,-0.6925184752052298
105.0,0.021347658343157227,0.054603115064480415,0.00840960240060015,1.153006823134355,1.2164417890186834,9.652636016146896,-0.48538473904190327,-0.41865153788447107,-0.3316364805487086,88.11996972457399,6.754732209838174,-7.17403458007359,0.7156587619740649,-0.08598544327349697,0.003629646527881971,-0.6929115311540386
106.0,0.021583967420426533,0.06533919194084235,0.007284678312435252,1.2623252241631835,1.2052677455078054,9.639812631729363,-0.5820260868788626,-0.07808536955667489,-2.0048159361268887,89.35789192833923,7.398895482799271,-7.11548311184939,0.7077733240131461,-0.08955066194012791,-0.0017252395509591671,-0.7003240534456828
107.0,0.026045814589535886,0.06607523832177556,0.018950870121711615,1.2354578801494798,1.1716496458609424,9.649678430060483,-0.6293837723368124,-0.8016189042905326,-1.1455168343479598,90.51827090047773,7.239183162515367,-6.911579811329139,0.7008731956868398,-0.08739340732220513,-0.0028197615241963795,-0.7076435959635028
108.0,0.01573822898233269,0.07431061598152151,0.011310179461241618,1.2873275897371554,1.1121101442608037,9.651181514890917,-0.6279141649523878,-0.6242012375916279,-0.38602758267964205,91.24680647513796,7.542699590402827,-6.564267918024802,0.6964117179647002,-0.08707649840032308,-0.007364403966113479,-0.7121640270115088
109.0,0.017438649732119442,0.06712637218538084,0.012782585890375033,1.3597585328387845,1.086869918699187,9.644467798134198,-0.29169593683264017,-0.6602881120977109,-0.14902846465100594,91.50997644337042,7.969485266569256,-6.423935034281218,0.6946968823755199,-0.08875864673204452,-0.01111103156813158,-0.7136413751893896
110.0,0.003240980105653592,0.07624255366977634,0.017059121052040015,1.4399413660035214,1.0645579034131356,9.63521936233187,-0.40456638005320145,-0.624737739312877,-0.041576514555468146,91.66463648795474,8.446807912779589,-6.295797272488853,0.6936016326156758,-0.09082838795886251,-0.014979487264621037,-0.7144132748709302
111.0,-0.001223633434491026,0.07133116031621145,0.01359484470420741,1.5410947510396762,1.0550938518601778,9.620044209658687,-0.1418830317335431,-1.1421968079127796,0.07461316548649358,91.66243537147352,9.044516410025851,-6.255198381476902,0.6933592216893334,-0.094156241637256,-0.019030375949571014,-0.7141165972290284
112.0,-0.001567569592746619,0.0875877636656551,0.00875950694990821,1.8157071672099205,1.0040931400097413,9.573674459555653,-0.5363816454984826,-1.6218669214341912,-0.16564104005095348,92.09048930351055,10.67810427672249,-5.9827774343411635,0.6898552751877036,-0.10205706363399647,-0.031409176045858155,-0.7158440832404181
113.0,-0.007058746393915558,0.09419710763927917,0.01269004533363306,2.0261869169382933,1.0200726836761458,9.530082237458318,0.298821466037241,-0.7401769322992768,0.31008462590386277,91.99431339215465,11.930714004720691,-6.109764293207448,0.6896697399632834,-0.11032388148289685,-0.0384967890905174,-0.7144662195003935
114.0,-0.01215653216439999,0.06915626990371287,0.016822524446442617,2.3223625941328536,0.9204945487242892,9.460205312652203,-1.6805056011389607,-4.302217976096811,0.8863310666516804,92.12431624892287,13.72687188565434,-5.538601494885916,0.68761650429021,-0.1174106386328725,-0.05345279547075792,-0.7139271430594583
115.0,-0.0383515042523697,0.09688471769510323,-0.016017009478850548,2.7269472856018884,0.8087006856243678,9.360937019969278,-0.4679362893859354,-0.3450039339103066,-1.1022418605522462,92.8096315237346,16.163301768386347,-4.9266513056835635,0.681556837185568,-0.1275340758648983,-0.0732444077936383,-0.7161775593001385
116.0,-0.02904199917575212,0.1070340189577011,-0.015722902851148326,2.565133752950433,0.8112700910419244,9.412777715334759,-0.05069709827282606,1.321400472069237,-0.12829933310853847,92.97183975872017,15.170065518339516,-4.922093355438163,0.6814599487186692,-0.12159074142576151,-0.06708304497077666,-0.7181612176280395
117.0,-0.021387359034880666,0.09659304634521002,-0.022316136525420555,2.5798057397624667,0.8103201453673521,9.412625416807167,-0.5158679423775805,-1.528479871492263,0.4868775991907385,93.0310427672249,15.261612060245026,-4.912971600914165,0.6810897807571841,-0.12206758905773482,-0.06777933888707803,-0.7185161045897495
118.0,-0.024142220224045562,0.04975197632160654,-0.021373122026151135,3.0096148514480543,0.749480349181372,9.2820692368214,0.04114917013225433,-2.504231295193136,0.6081661421452924,92.34515848038664,17.90706371061406,-4.610863680641414,0.6830266059315875,-0.13621274683301487,-0.08548542490052827,-0.7119801031358888
119.0,-0.028155558053276387,0.04406391667603313,-0.023924169195609003,3.3651064029073474,0.8117607058559064,9.153907871567197,0.7321170993968004,-1.8132668783485069,-0.37397788580420366,92.17875290360047,20.101530010115766,-5.071029326364693,0.6817765321379866,-0.15186094366865233,-0.09659994952399684,-0.708600023547263
120.0,-0.017979468734779517,0.06121014574201042,-0.025955940204563335,3.3027874564459925,0.9748626877973847,9.157341800606947,0.2763408077629163,3.137841407215916,-1.2416404405979544,92.95019154396613,19.704998876025627,-6.0709649319995505,0.6770329199745232,-0.15508913175752126,-0.08937391635570041,-0.7132426557521261
121.0,-0.01876147608330654,0.07243132211624335,-0.016462865716429107,2.9256665952202336,0.9921153502661382,9.28295895402422,-0.5862871967991998,1.18620726610224,-0.2507267441860465,93.3555397778016,17.38759243382274,-6.092785473154003,0.67672127686886,-0.14157461671274962,-0.07489162172614582,-0.7180049696620583
122.0,-0.022128925088414964,0.08186957453649127,-0.011503054335012326,2.746866359447004,1.0022977172864647,9.34277873039688,-0.12581270317579393,0.7398333958489622,-0.5542334244275354,93.80827572964671,16.284239586682386,-6.11766334440753,0.674938597210374,-0.13509556293698424,-0.068199319393777,-0.7218143579818168
123.0,-0.011541421069553104,0.07735491015611046,-0.009956596291930126,2.6285145929339473,1.0465113778444617,9.378838673954204,0.16591469295895406,0.6476192708891508,-0.15744985353481225,94.11032066052226,15.55152359518451,-6.368201871896545,0.673646203978459,-0.13221325850151827,-0.062422489170006784,-0.7242542368902934
124.0,-0.01777608687886258,0.0770230771978709,-0.007413782016932806,2.560757296466975,1.076148930089666,9.396816418390308,-0.03910486550208979,0.24922726217268604,0.0022322544921944826,94.21936443932411,15.14386855642482,-6.528215759296967,0.6732704884154969,-0.1308256458459972,-0.059006448469796025,-0.7252712132331649
125.0,-0.02581584681884757,0.07679494873718429,-0.003983388704318938,2.39710291858679,1.0691228521416072,9.440305290608364,0.2355838959739935,1.4004632854642232,0.9426483853106135,93.7011040706605,14.148115153788446,-6.459408378880434,0.6773352208936163,-0.12484390763498018,-0.05243200350909155,-0.7230084049191938
126.0,-0.02510897367198943,0.06645148787196799,0.008060068588575713,2.207466688100596,1.1151503232951097,9.479467724073874,0.2378313328332083,0.7018867440074303,0.33353818365305615,92.96120000982387,13.008125468867217,-6.704244699567749,0.6827040588654129,-0.12001286839813524,-0.04290203356849926,-0.719339962975726
127.0,-0.021213114907646775,0.055925321269341736,0.003391002585141057,2.179034974335919,1.122682383574988,9.48701790865835,-0.22964365329137162,0.07551533054213028,0.3133924473605335,92.73505424347158,12.838244984264357,-6.746972586733356,0.684256105856965,-0.11938876360239407,-0.04130405263068075,-0.718142307147662
128.0,-0.010320267131242742,0.05301507998950959,0.0006753400022479477,2.17567877749054,1.1076879659810426,9.489847664006597,-0.25373311696826645,-0.09906189118054778,0.18645932851897645,92.64532450076806,12.827338217938632,-6.660608269173129,0.6849393177792888,-0.11878783280926154,-0.041604237621791995,-0.717623755529476
129.0,0.0012955115956689517,0.047096249672174156,-0.0011220074182308648,2.1782547113259145,1.1027068862163283,9.490423832003298,-0.09869115525832678,0.41959707860327444,0.12843631748529466,92.60643241167435,12.834384834775767,-6.621407965231725,0.6852069668573864,-0.11868986614656625,-0.04184622867783148,-0.7173906150187702
130.0,-0.011721675845790716,0.03418253343823762,0.003720102281667979,1.9701473249409913,1.1205139653815894,9.530473052714399,-0.2362743410700236,0.4626979248623131,-0.19396636506687648,92.66048387096774,11.594712578678205,-6.700877753737214,0.6855310324647914,-0.11185398406176239,-0.03353214312155783,-0.7184971219909518
131.0,-0.003921321793863081,0.05694610542879622,0.006581825334382375,1.9174244689221087,1.1061239181746656,9.543893784421712,0.12558762785208497,0.738884244689221,-0.36482592446892215,93.5678427419355,11.284175845790717,-6.604118312352478,0.679956501284815,-0.10915996050668764,-0.03291813961723053,-0.7241376438422501
132.0,0.004774193548387107,0.07636290322580644,-0.00016935483870967813,1.8587822580645161,1.0857338709677422,9.559241935483872,-0.3208165322580645,-0.030090725806451668,-0.14788306451612904,93.54178427419355,10.930846774193547,-6.475151209677419,0.6804477806935485,-0.10626890129032257,-0.03139476121774193,-0.7242629010887096
133.0,0.009862903225806458,0.07581451612903226,0.0018870967741935478,1.8704274193548387,1.0647338709677419,9.560749999999999,-0.3079133064516129,-0.08518145161290325,-0.0016129032258064696,93.53523185483871,10.992288306451613,-6.356552419354838,0.6804973961290326,-0.10590741632258066,-0.03253793986290324,-0.7242833278790324
134.0,0.014032258064516136,0.07270967741935484,0.0012499999999999998,1.8756048387096778,1.0514354838709674,9.561532258064517,-0.24506048387096774,-0.049899193548387115,0.0488407258064516,93.53180443548388,11.022631048387096,-6.297883064516128,0.6805164448064521,-0.10562079843548383,-0.03312363098387096,-0.7243102509516132
135.0,0.01593548387096775,0.07056451612903228,0.002556451612903225,1.8846129032258065,1.0441693548387092,9.560645161290324,-0.19112903225806452,-0.03986895161290323,0.07837701612903225,93.52832661290321,11.084727822580646,-6.265574596774194,0.6805089131693554,-0.10575630666935484,-0.033752933451612906,-0.7242880020080649
136.0,0.009338709677419359,0.06291129032258065,0.004991935483870967,1.8917580645161287,1.0412177419354833,9.560387096774193,-0.15246975806451613,-0.13256048387096775,0.052520161290322574,93.49954637096775,11.120514112903226,-6.253427419354838,0.6806551020000007,-0.10591081422580645,-0.03408616666935485,-0.7241203026774197
137.0,-0.005209677419354836,0.04412903225806451,0.01628225806451613,1.8269838709677417,1.089588709677419,9.56541935483871,0.48286290322580644,0.316633064516129,0.22424395161290323,93.33225806451613,10.7296875,-6.523336693548387,0.6818326384193552,-0.10537380222580645,-0.029784467290322584,-0.7232111748064518
138.0,-0.005608182533438233,0.017338119590873332,0.017396144767899295,1.764683320220299,1.1776286388670338,9.565730920535012,0.1950285208497246,-0.5026221970889064,-0.9169219610542878,93.97867820613689,10.364234608575924,-7.028707710464201,0.6777227306129034,-0.1063623765121951,-0.025081399854051934,-0.727013572563336
139.0,-0.014578284815106216,0.028592446892210854,0.00985129819040126,1.7896561762391816,1.2374594807238393,9.553446105428797,-0.09643735247836346,-1.6636346872541306,-1.5979519079464988,94.20950039339104,10.51742476396538,-7.380482887490165,0.6760232843709677,-0.10941309928835563,-0.0242405239915421,-0.7281292345074745
140.0,-0.0628548106103181,0.0273476827395002,0.019976340339440263,1.7386913753699749,1.2477312764602297,9.561761455172157,0.21446853574238506,1.9794189754973583,0.9430339346596232,94.33708506612714,10.2060050087108,-7.42891271870668,0.6753772338444701,-0.10789033375016858,-0.02200690373021805,-0.7290413510094975
141.0,-0.07714917949870742,0.013415776853621065,0.028318815331010452,1.5524102038140197,1.2027043479075346,9.598558146940917,-0.2807445627739687,1.4225723909744854,0.8431399512007793,93.62902640403132,9.10620310919411,-7.133811198063017,0.6805597352085253,-0.09967848924201977,-0.015972427264302574,-0.7255235419241035
142.0,-0.0733941216140272,0.03282610243153123,0.02480987973474205,1.520314562961298,1.17192426286014,9.608315068749766,-0.003249690907047298,-1.867551211082387,-1.0339073798284066,93.51940108557193,8.925136984376756,-6.950868153122775,0.6814094508856356,-0.09749019433432618,-0.015751822724401482,-0.725062013276273
143.0,-0.08041853995728898,0.02571281518114721,0.026590620433854108,1.506545951818965,1.1870282211232253,9.60886249110187,0.1793596156007643,1.7942682575587274,1.0344084265295417,93.52909963798659,8.836535840732832,-7.031984037222284,0.681416605789002,-0.09745136837093964,-0.014647548313420253,-0.725104709722322
144.0,-0.0902044509385186,0.013080345434790756,0.02899466112172643,1.357672267805627,1.1949699524184179,9.630170132254314,-0.04736533382038893,0.6792637265370349,0.6912373318721665,92.97586042579896,7.956403492750365,-7.065510729272039,0.6852853656918063,-0.0925385012414297,-0.008359383374452061,-0.7222147550981792
145.0,-0.09347639653815892,0.010756294256490953,0.028124114870180964,1.3044789535798582,1.1748811959087333,9.641379228953577,0.1987079563335956,0.00394989181746655,0.5271697974036191,92.55723962431156,7.644112657356413,-6.93755532061369,0.6881154212195124,-0.08993369746852872,-0.006741735136703383,-0.7199173714773801
146.0,-0.08194335169158143,0.018701809598741147,0.0336270653029111,1.3382926829268293,1.1792446892210857,9.636648308418565,-0.27714398111723054,0.08925059008654602,0.42191188040912664,92.4601691581432,7.841610936270653,-6.970102281667978,0.6886431001416209,-0.09133577382376083,-0.0077522333988985035,-0.7192516791974823
147.0,-0.1093627065302911,-0.005074744295830052,0.031573564122738006,1.2274744295830053,1.1724468922108575,9.650535011801725,0.41443745082612116,0.38527734067663255,0.5914142407553107,91.57961250983476,7.188090086546027,-6.91955153422502,0.6943762272619985,-0.08710854926042486,-0.003240194162077104,-0.7142045849881982
148.0,-0.09202202989771832,-0.006824547600314709,0.03326986624704956,1.1677450826121163,1.217644374508261,9.652105428796222,0.7588709677419355,1.0386801730920534,1.4619394177812746,90.78139260424862,6.83375295043273,-7.184372541306058,0.6993856144185682,-0.08658103476003148,0.001211156577498034,-0.7093464079449252
149.0,-0.11553422501966953,-0.014407553107789144,0.04427222659323368,1.25348859166011,1.264731707317073,9.635471282454757,-0.13463808025177026,-2.01440794649882,-0.7548092053501179,90.83287765538947,7.350924468922108,-7.474970495672698,0.6987497057230527,-0.09149227542879622,-0.000356588066089693,-0.7093394255247836
150.0,-0.13185837922895355,-0.025728560188827694,0.045739575137686866,1.4822478363493312,1.2601117230527141,9.601193548387096,-0.29796911880409127,-1.115902832415421,-0.3721921715184893,91.308403815893,8.699090283241542,-7.476273603461841,0.695192604675059,-0.09956488295830054,-0.009294309721479151,-0.7116127184862313
151.0,-0.13484893784421714,-0.01895869394177813,0.04533713611329662,1.5592458693941778,1.236012588512982,9.594145948072384,0.22041945318646733,-0.5086791896144769,0.152947974036192,91.40450678599528,9.148074842643588,-7.335766620771047,0.6944855407120378,-0.10150186027852084,-0.013015113470495672,-0.7120690607954365
152.0,-0.12551101494885916,-0.020280291109362712,0.047744885916601115,1.6114852478363488,1.248637293469709,9.585219315499604,-0.17819015538945715,-0.10038109756097563,0.10470962824547603,91.54445441581433,9.454598987018095,-7.416014702989772,0.6934673878642801,-0.10383296979228954,-0.014588683300944138,-0.7127575462592448
153.0,-0.11728776553894571,-0.022660306845003936,0.035699055861526365,1.5754160110149489,1.2519799370574352,9.591121754523998,-0.04683197285601891,-0.24701514555468138,-0.2992832907159716,91.49246410306844,9.23856461447679,-7.430764407946499,0.6938794878273015,-0.10267659417840283,-0.013087981094020457,-0.7125852612505901
154.0,-0.12274468922108578,-0.027245476003147126,0.03697049567269867,1.5264217151848936,1.2552077104642012,9.598726199842648,0.13391768292682923,0.15834726593233675,-0.013023701809598734,91.31664535798583,8.94675206530291,-7.4493287765538945,0.6951312574862314,-0.10104043059323366,-0.010988186764752165,-0.7116355940527144
155.0,-0.12958870967741937,-0.02685483870967742,0.028443548387096777,1.4906774193548387,1.2719193548387095,9.601661290322578,0.1997479838709677,-0.24057459677419352,0.14712701612903228,91.0946572580645,8.738457661290322,-7.543094758064516,0.6965481666935482,-0.10038255232258064,-0.00890788435483871,-0.7103627356612903
156.0,-0.1353664437450826,-0.02609028324154209,0.03905468135326515,1.498813139260425,1.267001770259638,9.601267899291898,0.029701022816679773,-0.19194900668764753,0.1257449842643588,90.99396390637293,8.78878589693155,-7.510040076711251,0.6971552994594805,-0.10052277596597167,-0.009328202945318647,-0.7097516337077103
157.0,-0.14696144767899288,-0.030371754523996854,0.029954760031471288,1.5356162470495671,1.2770774980330448,9.59426298190401,-0.0024881982690794675,-0.31716905979543664,-0.20607912077104643,91.07833275963807,9.006288109756097,-7.573946449645947,0.696496227616837,-0.10220459480959876,-0.010380782198465775,-0.710151665571597
158.0,-0.16051298190401256,-0.006661683713611331,0.059622541306058235,1.5535137686860736,1.2585468135326514,9.593925845790716,-0.32246385719905585,-1.198503884736428,-1.1335587136113296,91.2537077104642,9.1137035306845,-7.464468184500394,0.6954049822116444,-0.10215173303383164,-0.011880902450039341,-0.7111820552777339
159.0,-0.14343736652804312,-0.01351402158030797,0.0447930294855944,1.5810172530066313,1.2113471394852195,9.595256509684916,-0.30849935371473525,0.506557629444382,-0.4359613844554344,92.52099988057772,9.274806114420592,-7.186145142557416,0.6874959983043629,-0.1011802694869619,-0.015662218406279266,-0.7188206015432448
160.0,-0.11923766438125208,0.008025345622119819,0.04107049192611742,1.5830332134427332,1.1960797459817916,9.597194147840096,-0.17076964145217488,-0.1402345359859128,-0.1669326739350343,93.00835042711026,9.286665449027762,-7.094692850586339,0.6844787952718706,-0.1006374591976509,-0.0167180990729272,-0.7217891750423739
161.0,-0.11067836536660297,0.002570613690007869,0.03177967292345735,1.5780869862500464,1.2023484414222025,9.597360327451199,0.33811818590536136,-0.019541933610580334,0.201049042748492,93.11771184575325,9.257705312652206,-7.13426828097486,0.6838105776265688,-0.10070448135016485,-0.016378441548565055,-0.7224569063138511
162.0,-0.13440043460342438,-0.017087004982953055,0.043065911730545886,1.526532164399985,1.225097991832453,9.602084925630363,-0.25332953991982315,-0.2541690082799445,-0.11614694559964034,92.82633624161701,8.948370705481247,-7.265836857461316,0.6857466788787607,-0.09973313364224831,-0.013403789805580532,-0.7208070396419485
163.0,-0.14848132329249564,-0.02170076055599265,0.03843598965943576,1.5680510284365514,1.2440923906934922,9.593278445918097,0.26580354801243866,-0.26032183132891235,-0.7698030234910644,93.4677068112847,9.19810048330898,-7.382139578884267,0.6815172338610395,-0.10185852346839758,-0.014884775647221906,-0.7244577699490464
164.0,-0.11078828069386686,-0.033373421752650706,0.03642613615076242,1.6479809673672772,1.2893042598628752,9.572848900378403,0.08129847139485222,-0.23941590798396462,-0.6363896069836275,94.31617867445955,9.66923073320595,-7.661547900041212,0.6757494393383539,-0.10624209070885317,-0.017123351141583303,-0.7290802463186091
165.0,-0.1433026113671275,-0.038394777265745014,0.04342549923195083,1.6208525345622118,1.2901305683563753,9.578202764976956,-0.06418010752688172,0.04574692780337941,-0.35527073732718895,94.77812980030721,9.50681643625192,-7.6675787250384015,0.6729248332181259,-0.10528287878648232,-0.01644011469278034,-0.7319078110291858
166.0,-0.16427260125135812,-0.032735378966692895,0.049912329998876015,1.4150136750215427,1.271839571391106,9.610036716496197,0.030264180810010866,1.3762000768049154,1.4318227586077703,94.04313837061181,8.295537353415009,-7.53461372747368,0.6781785920506913,-0.09732945099677795,-0.008745835735641227,-0.7281251074296579
167.0,-0.13932831291446554,-0.026356936795174406,0.05248304671986812,1.3290859465737515,1.2440319208722044,9.627112060245025,0.08642145292420667,-0.2911482334869432,0.5092341519613353,93.22249564459929,7.791998707429471,-7.361584897531003,0.6836584278863288,-0.09336218613663783,-0.005821762539095575,-0.7235888527770411
168.0,-0.12985410812633472,-0.03115447154471545,0.05109812296279645,1.3114581319545913,1.252355213367802,9.629663332209358,0.04227291034431082,0.20736788617886182,0.4580476565134315,92.89880203064703,7.685511736165749,-7.408858557191563,0.6857622330911919,-0.09307928108946836,-0.004559324628638866,-0.7217295285845793
169.0,-0.10681799108313667,-0.008282304896781697,0.038544453186467355,1.3455992656700757,1.237382675808325,9.626931512494846,0.07208211569442882,-0.38431048855419425,-0.014860580345434804,93.32973895695177,7.892472649956915,-7.322828856168746,0.6830393290164101,-0.09371790379588625,-0.006717218356562135,-0.7241906839382191
170.0,-0.14080684500393392,0.0040070810385523185,0.027369000786782068,1.526584579071597,1.2123749016522423,9.601335955940202,-0.1679287962234461,-0.7670928402832415,-0.7708423485444532,94.1643366443745,8.957651455546813,-7.192813237608183,0.6771955011510622,-0.09905004384264357,-0.015182276939417781,-0.7286735259606612
171.0,-0.12100531077891422,0.01120259638080252,0.025565696302124317,1.4958650668764752,1.1879262391817467,9.610466561762394,0.05803009441384736,-0.6081431943351692,-0.2432545731707317,94.12888842446891,8.775585169158143,-7.042457956333596,0.6776163061884342,-0.0971153431392604,-0.01476650539732494,-0.7286839814083399
172.0,-0.11528088119590872,0.014190007867820618,0.03796026750590087,1.4831180173092053,1.1935558615263575,9.61279779701023,0.028006982690794647,-0.3837086939417781,0.022147915027537365,93.99743312352479,8.698578874901653,-7.072111034618411,0.6785071662797011,-0.09688183776317857,-0.01395442540833989,-0.7279712638170732
173.0,-0.08961290322580645,-0.002137096774193551,0.03741129032258064,1.469951612903226,1.2856048387096775,9.600741935483871,1.6386592741935484,-0.06723790322580642,2.0014112903225807,92.8733870967742,8.624495967741936,-7.63109879032258,0.6853559436693547,-0.09997932620967742,-0.009069085870967742,-0.7209767985080645
174.0,-0.11016935483870968,-0.0045000000000000005,0.043056451612903224,1.4459677419354837,1.3160645161290323,9.60117741935484,-0.5015625,0.08976814516129034,-0.5172379032258063,92.4914818548387,8.474143145161289,-7.8001008064516135,0.6877798265887096,-0.10024276206451613,-0.006843271322580646,-0.718759106233871
175.0,-0.11407258064516129,-0.016290322580645163,0.04047580645161291,1.4347258064516129,1.29225,9.606395161290326,-0.46527217741935484,-0.315524193548387,-0.5177923387096773,92.60131048387098,8.410433467741935,-7.656804435483871,0.687209344032258,-0.09900020443548388,-0.007402480870967742,-0.7195564026854837
176.0,-0.10658870967741935,-0.014612903225806453,0.03841935483870969,1.4481774193548385,1.2427983870967738,9.61177419354839,-0.3081149193548387,-0.02142137096774191,0.01008064516129037,92.95196572580645,8.489112903225806,-7.36617943548387,0.6850938854435484,-0.0976069787419355,-0.009953849064516128,-0.7217569658709675
177.0,-0.09936054287962234,-0.029720298977183326,0.033627261998426444,1.444464988198269,1.2298375295043267,9.614189221085763,-0.09664757081038552,-0.2684697088906373,-0.05195834972462624,93.03828309402044,8.464135031471281,-7.2860432238394965,0.6845940755607789,-0.09700289659815106,-0.010347389217741934,-0.7223293697126276
178.0,-0.09158752950432729,-0.015327891424075535,0.03814830841856806,1.4697808811959086,1.1981768292682924,9.614739771833205,0.08315302911093628,0.12120869394177813,0.1576145751376869,93.04613247442957,8.616392112509835,-7.096776652242329,0.6845952865747442,-0.09671634220633359,-0.012433038911290325,-0.7223524047071201
179.0,-0.0859026357199056,-0.018530881195908733,0.03984834775767113,1.3629388276947283,1.1767859952793072,9.631849724626278,-0.6139678402832416,-0.24519202399685286,-0.5856080350118017,93.28334849527931,7.983700088512982,-6.961341955153422,0.6833732452793078,-0.09206190249429583,-0.009400192008064516,-0.7241216604463019
180.0,-0.08058975872016787,-0.012520624929751601,0.03947697725825185,1.3663255966430632,1.1591871604660742,9.633942911468282,0.10007493162489234,0.632695126634446,0.2767176318796598,93.44087619656439,7.999248517758795,-6.855094940710352,0.6824220367894235,-0.09147288861869168,-0.010247763233102919,-0.7250869771430819
181.0,-0.079354969840021,-0.004052602000674382,0.05188797722078605,1.2932959611854182,1.180721629013525,9.641870255891494,0.09788856730733206,0.03767796260911921,0.16753060488554194,93.17819220430107,7.575055144992694,-6.979127795886254,0.6842173001789367,-0.08975480315769357,-0.006569550340489304,-0.7236631364012027
182.0,-0.10301344086021506,-0.015181297066426881,0.036168221497883186,1.3209280750065564,1.2029375257577457,9.635270297103892,0.2532863371548462,-0.4749651099621595,-0.3111255315462141,93.4604572351167,7.736312977689108,-7.110605400696864,0.6823222606008765,-0.0915559939509947,-0.007055917215878011,-0.7252228110684218
183.0,-0.10630874639391555,-0.02040673822636844,0.03816967329811548,1.3517764883293992,1.215625725900116,9.629486250046831,0.1555660147615301,-0.23851643578359746,0.0428876423700873,93.68554861657486,7.921186214454311,-7.194633197988086,0.680789018549455,-0.0931398098679049,-0.00794977631387921,-0.7264675863086996
184.0,-0.10541493387284102,-0.018462777715334756,0.038073507924019326,1.3089402794949607,1.2341214266981377,9.632901727173952,0.22014091828706306,0.03304952980405379,0.142007137237271,93.48867244576823,7.664121333033607,-7.296180126259788,0.682096745593084,-0.09229261099827657,-0.005505853384474167,-0.7253686007307708
185.0,-0.08432692667940503,-0.008864411224757411,0.035275561050541374,1.3373032108201266,1.225241467161215,9.630862837660631,-0.09283560001498632,-0.2671335843542767,-0.04329174628151812,93.54430098160428,7.83398898505114,-7.245389363455846,0.6816923417043199,-0.09297253221572815,-0.00695715972013038,-0.7256560509490091
186.0,-0.0897960361170432,-0.022559664306320486,0.04861496384549098,1.3510418493125025,1.2230408752013784,9.629741410962495,-0.12606964894533737,-0.5951472406429132,-0.14540669139410287,93.59588672211606,7.9154602675059005,-7.230724776141771,0.6813534319151024,-0.0933776461904762,-0.007579042864785882,-0.7259205366688397
187.0,-0.07660926904199916,-0.006944662995017049,0.03719103817766287,1.3543997602188007,1.2073426248548196,9.630779438762126,0.18780113146753585,0.03282567157468813,0.1159276535161665,93.51993883706118,7.937077104642014,-7.142948934097635,0.6818590377160092,-0.0929493424068038,-0.00818254027582331,-0.7254953381691956
188.0,-0.06555164662245701,-0.010567232400434605,0.0514948109849762,1.3425239593870595,1.2285574163575737,9.629758607770409,0.13352534562211982,0.056130109400172365,0.198987486418643,93.31408995541568,7.868955593645798,-7.265303847738938,0.6831498239263797,-0.09330750610299351,-0.0068613701519613345,-0.7242468293290621
189.0,-0.11368212131430072,-0.009420778539582633,0.03948387096774193,1.4969173504177438,1.2418002510209434,9.602077048443292,0.3847882947435466,-0.7277760996215953,0.020890468697313702,93.56845238095238,8.778043394777265,-7.36332893110037,0.6810657140719532,-0.09920507897418605,-0.012387698528267956,-0.7252120060081488
190.0,-0.12228165861151702,-0.020453898317785026,0.04036349331235248,1.4688992731632387,1.2675012270053574,9.604346942789704,-0.23595951116481206,0.1359890154921135,0.2754678543329212,93.31783653666028,8.612394041999176,-7.506826739350343,0.6826963756433723,-0.0991941801597917,-0.010222865664606047,-0.7237766416980163
191.0,-0.1061932486605972,-0.004372110449215094,0.03982690794649882,1.5064415720654907,1.228133678018808,9.604282342362598,-0.1647287475178899,-0.9011839196732981,-0.07133865347870069,93.37786988123338,8.836489359709265,-7.278211756771945,0.6823108008176539,-0.09908978438634747,-0.013072976541980441,-0.724133326643363
192.0,-0.10428466524296581,0.006378067513394028,0.0339771833202203,1.547312052751864,1.1830912292533062,9.601881533101047,-0.11558132891236744,-1.0096006144393241,0.4167303585478251,92.96762789891723,9.081403609831028,-7.0177447454198045,0.6848362494607545,-0.09891791518294557,-0.01587208221670226,-0.7216155244782511
193.0,-0.10684893784421715,0.008326514555468137,0.030004720692368217,1.7063595594020455,1.1495932336742718,9.579060582218725,-0.12035306845003932,-1.627822580645161,0.32553107789142405,92.6663552321007,10.022782258064515,-6.838970298977183,0.686338128288749,-0.10344633464830842,-0.022676870744295828,-0.7193976443658537
194.0,-0.09561801730920536,0.0055912667191188046,0.02810228166797798,1.8703528717545246,1.128492132179386,9.549266719118801,-0.13474872147915026,-1.0404307631785994,0.1796420141620771,92.49759047993706,10.991780586152634,-6.750794158143194,0.6868297912576712,-0.10865700612824546,-0.029314715923682153,-0.7179469021986623
195.0,-0.09566738788355625,0.002384146341463415,0.02074508261211645,1.9721032651455555,1.1204600708103851,9.532321793863098,0.03490730723839497,-0.8339693154996066,0.15985936270653028,92.44583005507475,11.599391473249408,-6.711918518882769,0.6868742266760426,-0.11199398017112508,-0.03333072572265933,-0.7172593831079855
196.0,-0.07495397324940992,-0.015715971675845788,0.0249594807238395,1.8916581431943356,1.1634166011014948,9.543295043273012,0.0701317859952793,0.33760080645161283,0.5964176829268292,91.88412913060583,11.120667781274587,-6.95106461447679,0.6905966476730921,-0.1107771708630999,-0.028256499895357987,-0.7140757546876473
197.0,-0.06907808811959087,-0.0062411487018095985,0.022349921321793864,1.9053806058221872,1.1388719512195125,9.544826121164432,0.10823662470495674,-0.42772792092840284,0.21544920338316284,91.635219561369,11.20210218332022,-6.801481363099921,0.6921426042810778,-0.11042352027812745,-0.029411770215184888,-0.7126216872258064
198.0,-0.07267210857592449,-0.008564122738001573,0.02647738001573564,1.9160330448465774,1.1443996852871754,9.542114673485443,0.13748524783634933,0.2155463217938631,-0.07591955153422504,91.48552812745869,11.266121656176239,-6.831663060582219,0.6930465669994099,-0.11102924648583795,-0.029461798817269864,-0.7116601567258063
199.0,-0.08593532464126485,-0.028654181184668982,0.031248482634595932,1.7716094563710614,1.1373672773594095,9.570238404331043,0.1168417022591885,0.39669165168034165,0.10751593467835599,91.62611659829156,10.405996695983664,-6.771870316773444,0.6926774516969016,-0.10550875014576076,-0.024508756138857668,-0.7130081878329492
200.0,-0.08318905248960323,-0.022655239593870592,0.029403619197482304,1.6835205499981267,1.1556283391405344,9.583857105391326,0.2330680285489491,0.42195613690007866,-0.21673574425836428,92.0452179573639,9.880517309205349,-6.8707541868045405,0.6903169700911542,-0.10292050460398637,-0.020967361917163092,-0.7157815021812596
201.0,-0.10112639091828707,-0.038625023416132775,0.039025177025963816,1.5802063804278594,1.1778456408527218,9.598431306432879,0.0441254776891087,0.07427468528717546,-0.16049218369487844,91.95457691731295,9.269821990558615,-6.989812577273238,0.6911420550101719,-0.10003648157815367,-0.016284878255985163,-0.7155170046586864
202.0,-0.11196366752838036,-0.049332181259600615,0.03996105428796224,1.5340174309692405,1.1852564160203813,9.605466636694018,-0.014030888220748564,0.3489980822187254,0.028895332228091847,91.80719601176426,8.997592938630998,-7.025639962908846,0.6921695345939924,-0.09865963430205874,-0.014207225548134202,-0.7147814874198231
203.0,-0.08431887152972913,-0.015059383312727135,0.038749016522423296,1.5241392229590498,1.1420896556891835,9.612890674759285,-0.15983618073507924,0.10159323367427223,0.29701491139335356,91.9704277659136,8.940991345397325,-6.766515398448916,0.6913066578740024,-0.0966798463322843,-0.015520026298752388,-0.7158749593344198
204.0,-0.09746581244614293,-0.017091903637930388,0.036800044958974924,1.285743696377056,1.1229566145891874,9.646793863099926,-0.1395800550747443,0.7595572945936832,0.09359311191038178,91.42297380203064,7.531714810235661,-6.637717301712188,0.6953237893287999,-0.08742250036360572,-0.007027099533737965,-0.713166993474954
205.0,-0.10080251770259638,-0.0016129032258064505,0.05245476003147129,1.2863650668764752,1.1026357199055863,9.650542879622344,-0.058025177025963805,0.04735444531864663,0.14880015735641228,91.53643784421715,7.5380605822187245,-6.513424468922109,0.694691295436664,-0.08674325059795437,-0.007836798859166012,-0.7139310559795438
206.0,-0.10440597954366643,-0.003335955940204564,0.037033831628638866,1.3031313926042487,1.1148072383949648,9.648127458693937,-0.02129228953579858,0.045338316286388625,0.23446105428796224,91.46538158929977,7.635474036191974,-6.5865460267505895,0.6950786838788354,-0.08779535078678205,-0.007961414319433518,-0.7134623192446892
207.0,-0.13610542879622345,-0.02137686860739576,0.020133752950432734,1.2421793863099921,1.1046892210857593,9.657128245475999,0.7103166797797009,0.5115558615263572,0.8526750590086546,90.69266325727773,7.275275373721479,-6.5218332022029895,0.7000186419984263,-0.08523653181746656,-0.0054909068528717535,-0.7089140715892996
208.0,-0.11714360645910606,-0.03777303210820127,0.03490277621670227,1.2389172380203064,1.2018759132291783,9.645727024090515,0.3867361657487542,-0.6616837136113296,-0.25973642800944136,90.5688317223034,7.256556517178075,-7.096643063204826,0.7005851106185605,-0.08870892250458957,-0.0018082856311116102,-0.7079676978910492
209.0,-0.10765126821775131,-0.034299576636319364,0.03275036529167136,1.277137611929115,1.226016634820726,9.63922857892173,0.22429845266194595,-0.1817466561762392,0.19900668764752164,90.476759488217,7.4805599265670075,-7.244967873065828,0.701026902862388,-0.0909863292341988,-0.002257697064178936,-0.7072700756921806
210.0,-0.09774905398823575,-0.02792664193923046,0.03631111610655277,1.2550676257914657,1.23771833202203,9.640273875088983,-0.1003732531564947,0.46231641751901387,0.20794462552920462,90.25052920460081,7.350359203476827,-7.312539807425724,0.7024510389086207,-0.09058859093701996,-0.000843654861938481,-0.7059135642373833
211.0,-0.10088082125060882,-0.013731220261511376,0.03944588063392155,1.1195204376006898,1.2031313926042486,9.660581469409168,-0.10464669738863287,0.5177681615525833,0.42079961410213185,89.74141330410998,6.5562525757746055,-7.093868251470534,0.7059436235180396,-0.08439230728597655,0.0031450315855531814,-0.7031473591053164
212.0,-0.09370555617998577,-0.014906522797946875,0.03866078453411262,1.0415698175414938,1.1796774193548387,9.673060207560603,-0.014238179536173248,0.034823301862050876,0.2982489415907984,89.22438977557978,6.094830654527743,-6.949176454610168,0.7093381535371475,-0.0806598032771346,0.005479341555955189,-0.700150907538496
213.0,-0.09337791765014425,-0.017693979243939905,0.051391480274249744,1.0102911093627065,1.177263122400809,9.67689745607134,0.13208806339215465,-0.07423616574875426,0.258413416507437,89.12188097111385,5.910925030909295,-6.9344418530590834,0.7100428462710277,-0.07944843930051326,0.006616865789217339,-0.6995993951035928
214.0,-0.10401389981641751,-0.0028163051215765603,0.026584803866471846,1.0592250196695514,1.186762953804653,9.669872803566745,-0.1716870855344498,-1.3587644243377917,-0.5246091847439213,89.19334115432167,6.199364954479037,-6.98807065115582,0.7094777383872841,-0.08156247430800642,0.005136726753774679,-0.699921556340152
215.0,-0.10145779476227944,-0.017790641040050948,0.0455696676782436,1.1418283316473719,1.2053246412648457,9.65859615600764,0.1888300363418381,-0.4183175040275748,0.14665758120714845,89.34352637593196,6.6850319396051106,-7.11051478026301,0.7083516956644562,-0.08525983417781273,0.0027469680735079235,-0.7006437063920421
216.0,-0.10683039226705632,-0.020103030984226895,0.03847326814281968,1.1250054325428047,1.2302547675246334,9.656965269191856,0.14489200479562403,-0.0536955340751564,0.5030839046869731,89.01821775130193,6.58924590685999,-7.254854164325053,0.7103090214671614,-0.08554668420928402,0.00448013041362257,-0.6986160431448802
217.0,-0.11883031733543144,-0.014572702409051744,0.04346596230939269,1.1387965981042298,1.228766250796148,9.656483833501927,0.0006603349443632806,0.17014396238432433,0.20276029373196958,88.73054821850062,6.667755516840883,-7.246721741410963,0.7120302510153236,-0.08598553977295717,0.00414778190775917,-0.6968242701191412
218.0,-0.10387246637443333,-0.006571503503053465,0.039385186017758804,1.1768839683788546,1.2143606459106064,9.651786744595558,-0.0478251095875014,-1.5563275073994978,-1.2946147577835225,88.83963929789067,6.897399872616237,-7.168073976246675,0.7112894299164512,-0.08691419754186804,0.0020990940478063766,-0.697398303434491
219.0,-0.10472930950507661,-0.011137836723989363,0.03664381252107453,1.2604443445356117,1.261346333970252,9.635090854595182,0.22188307856580872,0.1370850661271591,0.5773680735079241,89.09750946011764,7.379659810422989,-7.456922511333408,0.7094295959535052,-0.091631724868495,0.000718655737514518,-0.6987036465952945
220.0,-0.11258738900753062,-0.008241729421902514,0.03720055449402421,1.2888089618223373,1.2573129519313624,9.633252032520323,0.1217662320632423,0.0491012888239482,0.2612022779213967,89.06814797122625,7.548796879097823,-7.43278633247162,0.7095672197317447,-0.09253283636281893,-0.00041519049529804044,-0.6984905194305197
221.0,-0.120233037353415,0.0006532164399985058,0.03394140346933423,1.3302437151099622,1.2521424824847325,9.628624442696037,0.0025230883069199406,0.19606327975722157,0.1521873009628714,89.11782998014311,7.795194307069798,-7.405306329849013,0.7091840079350717,-0.09389082031321419,-0.0021531499730246158,-0.6987119369133792
222.0,-0.14451050916039115,0.005763553257652392,-0.015653965756247428,1.2807067925517965,1.2826939792439402,9.630766550522647,0.4936109081712937,0.11489593870593084,0.4284145404818104,88.77585141058783,7.50687146416395,-7.580618232737627,0.7113029813249785,-0.09318259520156608,0.0010275381222134795,-0.6966459743550261
223.0,-0.143199955041025,-0.007943876212955683,0.02476902326626954,1.269842643587726,1.3144767899291896,9.627879435015547,0.145254954853696,-0.29052630100033716,0.10413622569405423,88.65597486043984,7.443311884155708,-7.767435652467123,0.7119928745756997,-0.09393596862612866,0.0026633126555767853,-0.695848658490877
224.0,-0.10995410437975342,-0.0002911093627065353,-0.0035075493612078817,1.2561859802929827,1.3373901315050019,9.6261556329849,0.6442866977632911,0.38963274137349657,0.5697250477689109,88.48894992694167,7.359733852234836,-7.903529045371098,0.7129710397358662,-0.09421983052583269,0.004172433536398036,-0.6947905634820726
225.0,-0.1516014761530104,-0.00545277434341164,0.032892922708028904,1.097954741298565,1.3730422239706268,9.639352778089993,-0.13160569105691056,0.10913088681578055,-0.2169855943951144,88.09614547038328,6.425858669589,-8.096565789966654,0.7155981903902063,-0.08956621837735565,0.0114070869678918,-0.692563692877749
226.0,-0.1399827657262748,-0.0005297665879884631,0.03770222172267805,1.0831785995279306,1.3430264883293996,9.646431381364502,0.07575821437937882,-0.2474218837810498,-0.25552620733580605,88.32670656775693,6.337473305608632,-7.920066689146154,0.7143221788778988,-0.08800631286763329,0.010671767477801505,-0.6941283275909481
227.0,-0.11361451425574165,-0.005717282979281407,0.03369375444906521,1.090900865460267,1.3246170993968005,9.648856918062265,-0.1820018920235285,-0.2920085422052377,-0.10096333970252143,88.46004388183283,6.3814382657075415,-7.810028427185193,0.7135554274995316,-0.08764492585553185,0.009606976484770147,-0.6949978097946874
228.0,-0.10603237046195349,0.018753887078041282,0.03607751676595104,1.145154359147278,1.3038316286388674,9.645288299426767,0.029445786969390444,-0.3640506163126147,-0.06299056798171668,88.62635813570117,6.699691609531302,-7.6882516578622,0.7124867744919634,-0.08888491413041849,0.006777655249334981,-0.695970779691469
229.0,-0.09305458768873404,0.020095537821737657,0.02619778202390318,1.140875950694991,1.3140631673597842,9.644156457232768,0.2350206998613765,0.08600745569667678,0.09827985088606644,88.53012602562661,6.67517257689858,-7.75237907909033,0.7130651419821288,-0.08912324295005808,0.007387132216102806,-0.6953535430817502
230.0,-0.10752294781012328,0.01676276647559103,0.05391648870405756,1.0598917238020307,1.314672736128283,9.653089992881494,-0.29240427484920006,0.5201214828968566,1.2513042785957813,87.8505992188378,6.199898842306395,-7.743719793188715,0.717309531239931,-0.0860482519000787,0.01078065832584017,-0.6912409668116593
231.0,-0.12984826345959316,0.02121164437450826,0.034757783522535696,1.1437169832527818,1.27017046944663,9.649167884305566,0.049122363343449105,-0.9280632984901278,-0.22232213105541188,87.59957476302873,6.694899497958113,-7.491387546363942,0.7187501397635907,-0.08761698732868758,0.006352195572290284,-0.689613264580945
232.0,-0.13774867933011126,0.014673485444531866,0.039227829605485,1.2013746206586489,1.25703645423551,9.643781424450186,-0.09414456183732343,-0.6885349930688247,-0.25002809935933457,87.86268077254505,7.032564815855531,-7.415343655164662,0.7170725635127946,-0.08926549449439886,0.003630595740511783,-0.6911929568262709
233.0,-0.10805215241092506,0.017498033044846574,0.03270203439361583,1.3286928178037543,1.230422239706268,9.628401333782922,-0.19865076242928326,-2.325261792364467,-0.39669973024615035,88.14999203851485,7.792369150650031,-7.272310891311678,0.7150585244157206,-0.09305845308905622,-0.002174725658461653,-0.692697169447754
234.0,-0.1171228503990109,0.004926829268292683,0.031723951893896825,1.5797657637405866,1.2320277996328353,9.588354876175492,-0.05193651418081,-1.2691366003521787,-0.08762504214903899,88.57690888314414,9.274882451013449,-7.313201079015398,0.7117469973959012,-0.10241266500715598,-0.01147134455307032,-0.6946493003485819
235.0,-0.1270547375519838,0.010441384736428012,0.034190064066539294,1.5566098684949983,1.2350068187778653,9.594189239818672,0.12969165636356828,0.5795593552133677,0.12367371023940656,88.21892257689859,9.134490792776592,-7.330159744857816,0.714001864205425,-0.10170389639421529,-0.010160601080626426,-0.6925402861971075
236.0,-0.1014720692368214,-0.0067954366640440595,0.035668764752163656,1.4480007867820612,1.2576915814319434,9.609006294256494,0.14247639653815894,0.5651012981904011,0.3731559795436664,87.92822088906374,8.493661487018095,-7.4504917387883545,0.7160271647977969,-0.09847753056884345,-0.005175008015735639,-0.6909857263973249
237.0,-0.10609244689221087,-0.012809992132179388,0.01997678992918962,1.407643194335169,1.2442352478363496,9.617167977970103,-0.12404602675059007,0.42037519669551526,0.5820097364280095,87.67878392997639,8.253420043273014,-7.363139260424862,0.7177070404744295,-0.0964936044881983,-0.004014084849724625,-0.6895642315275374
238.0,-0.11796518489378441,-0.018485247836349333,0.03730153422501968,1.416465971675846,1.2476927616050353,9.61494040125885,0.23211546026750587,-1.4542941089693155,-0.40935901848937845,87.65555050157357,8.306474970495671,-7.387322974036191,0.7178047122498032,-0.09697782327557042,-0.0041981710519276155,-0.6893708857732102
239.0,-0.10071243115656964,-0.009004720692368214,0.039582218725413065,1.4085999213217941,1.2622254130605826,9.614837136113298,0.015150472069236809,0.724289437450826,0.21591020849724626,87.57155045239969,8.255984461054288,-7.477230035405192,0.718326110471676,-0.0971794122627852,-0.0032568097678992904,-0.6888330078261212
240.0,-0.10376612903225807,-0.0007580645161290329,0.035435483870967746,1.3860403225806452,1.27575,9.616935483870972,-0.09687500000000002,-0.2673891129032258,-0.008921370967741926,87.53190524193548,8.124899193548387,-7.557006048387096,0.7185725057661292,-0.09686190680645161,-0.001943871467741935,-0.688642193532258
241.0,-0.12894354838709676,-0.009693548387096771,0.054419354838709674,1.406056451612903,1.2813790322580645,9.613233870967749,-0.06960685483870968,-0.08145161290322579,-0.1552923387096774,87.75579637096774,8.241784274193549,-7.590423387096774,0.7171602310887097,-0.0977884600483871,-0.002649122854838709,-0.689986591233871
242.0,-0.14744354838709672,-0.009072580645161291,0.060153225806451605,1.5063225806451612,1.2630241935483868,9.60026612903226,-0.27535282258064514,-0.7641633064516129,-0.4140625,88.09158266129032,8.833921370967742,-7.489112903225807,0.7148825369193548,-0.10083933169354839,-0.007200573290322581,-0.6918531845725806
243.0,-0.1396532258064516,0.00034677419354838673,0.04340322580645161,1.5544193548387095,1.2252903225806453,9.597991935483872,-0.12333669354838711,0.032358870967741926,-0.4913306451612903,88.4367943548387,9.115120967741934,-7.269506048387097,0.7127576280887096,-0.10121627301612902,-0.010583643798387095,-0.6939477727016128
244.0,-0.12871774193548385,-0.007701612903225809,0.040903225806451615,1.4750564516129032,1.2372338709677417,9.608467741935486,-0.08679435483870968,-0.2944052419354839,-0.1516633064516129,88.5234879032258,8.648185483870968,-7.329737903225807,0.7124158308548387,-0.09871712957258064,-0.007367288161290322,-0.6946950596451612
245.0,-0.12707415420928403,-0.00825590086546027,0.04738650668764753,1.4564195515342253,1.2378467741935482,9.61186624704957,0.1989095692368214,0.3496336546026751,0.21086250983477578,88.59627261998426,8.537744640047205,-7.334910995279308,0.7120617037844217,-0.09805821376966954,-0.0067115549173878825,-0.6951780366317859
246.0,-0.1089604642014162,-0.0074384343036978775,0.044721479150275384,1.4435767112509836,1.2168790322580643,9.616094413847367,0.14600216365066876,0.20359706923682142,0.13567319040125886,88.69702743902438,8.463353166797795,-7.21226396538159,0.7115358043035012,-0.09683787060660896,-0.007093787426435879,-0.6958885240255702
247.0,-0.09916384736428009,0.011654012588512975,0.03907828481510622,1.405864280094414,1.2201884343036977,9.62145062942565,-0.08765858575924468,0.4232555566483084,0.5846552911093628,88.53408733280881,8.239296075924468,-7.221096823367427,0.7126378258436271,-0.09551396245338316,-0.005521702363296617,-0.6949558704038158
248.0,-0.11271037990333818,0.002859456371061404,0.037528773743958646,1.3410143213068073,1.2060853845865647,9.632536950657522,-0.007693780206811281,-0.49088158227492407,0.12371685446405159,88.13518162723389,7.861087890112772,-7.128766777659136,0.715230961908949,-0.09265345416620771,-0.003438918728307295,-0.6926723858253718
249.0,-0.10141528979805925,0.001307032332996139,0.03731392604248624,1.381013113034356,1.205062661571316,9.627025963808027,0.007019805365104343,-0.6918345603386908,-0.004473418006069443,88.01297651830205,8.095772919710765,-7.129435952193623,0.7158648265683376,-0.09412643059673671,-0.004793608209583754,-0.6918149313074633
250.0,-0.09907750739949794,-0.0033909182870630566,0.03524944737926643,1.368303941403469,1.2032379360083922,9.6286261286576,-0.026237952399685287,-0.15733311322168522,0.10565546438874529,87.8234736193848,8.018157337679368,-7.118227351916376,0.7170424298311322,-0.09359170697234087,-0.004242120009591248,-0.6906725139799464
251.0,-0.09166797797010227,0.0016125285676819893,0.03757633659285902,1.3657184069536545,1.1877528005694802,9.630703233299617,0.08836311865422802,0.36200404630774413,0.5036341838072759,87.71572346483833,8.001292570529392,-7.025909950919785,0.7177343618950207,-0.09291243198943466,-0.004606774370387021,-0.6900402546791053
252.0,-0.10037372147915027,-0.0067193061331535,0.0362350605072871,1.3872848525720278,1.214509759844142,9.624883481323293,0.08484835712412425,-0.19340789030010117,-0.03388314413098045,87.58278305421302,8.127170675508598,-7.17753994792252,0.7183856930914916,-0.0946678185753625,-0.0043065743763815514,-0.6891346091176801
253.0,0.1299797684612791,0.3220158480386647,0.19529129669176878,1.2825591023191336,-0.1229686036491704,9.291006706380427,-27.866674393990483,-10.453544734180062,30.486659829155897,80.41118612078978,7.493479777827732,1.2698159023640931,0.7444294715209245,-0.05900994790097786,-0.06207200709152898,-0.6342466178648233
254.0,-0.18569105691056914,0.4187063054962347,0.2234352403431869,0.48707429470608055,-3.9282288037166087,7.752506275523585,-14.401784543479074,-16.88054142782211,21.193370424487654,45.0748297647147,2.845338784609044,26.386550007493163,0.8255126358283691,0.0020955903684762613,-0.24469287361788614,-0.35566995935764867
255.0,-0.18220804765651344,0.3847218163425874,0.17777752800569485,0.5574849200104904,-5.888396275898243,6.915158667715709,-6.598045689558278,-7.266139569517814,11.610702109325242,24.773998023678395,3.255954722565659,39.463940326327226,0.8664608239702521,-0.0028149520546251576,-0.3436287159986512,-0.19557839645685812
256.0,-0.18870847851335654,0.34877719081338276,0.12166295755123452,0.38962571653366307,-6.75279644824098,6.64892802817429,-3.3570777602937314,-4.005741635757371,5.537205893372298,13.715316024127983,2.2756060095163164,44.88743771308681,0.8915739415504103,0.0024319588098610026,-0.3839636354616912,-0.10860811553564871
257.0,-0.16460994342662322,0.29344445693304855,0.10017451575437414,0.19740923906934923,-7.218156682027651,6.47757573713986,-2.7543895882507208,-0.1952390318834063,3.2672014911393354,8.578104510883819,1.1534894721067026,47.89941319171257,0.902877743100146,0.012734071415158667,-0.4060470694775017,-0.0681679461824585
258.0,0.030193061331535,0.6746215203626689,0.4522745120077929,0.13539462740249522,-5.4668596156007645,7.253585665580159,30.66508982428534,14.979126156756958,-33.8960756903076,26.910123262522948,0.8133399366827769,36.12319695777603,0.8712288651259974,0.015469548598216629,-0.30726316356723243,-0.21602746394567457
259.0,0.03820195946199095,0.29945159417031947,0.25044567457195305,0.685090704731932,-1.9092016410025852,8.494784964969469,14.636690270128506,6.619509970589338,-19.724237687797384,58.88520030159979,4.0274164278221125,13.10561893522161,0.7893101425393951,-0.04095136568908994,-0.14311479207000488,-0.4647568732977782
260.0,0.04400727773406768,0.0885076711250983,0.14494787568843429,1.0365660896931552,-0.14470220298977177,9.108476199842645,7.465656963021242,3.4043162372147915,-9.642307976003147,75.96319826907947,6.083859903619197,1.6612436073957504,0.7420888151498819,-0.07093725288217938,-0.06537915236526358,-0.5958554117694728
261.0,0.019418961447679007,-0.007476003147128256,0.10420377655389458,1.2764523996852875,0.7776892210857589,9.395330841856808,3.8418002557041695,0.6536954169944924,-4.44144128638867,84.15720397324941,7.495080153422502,-4.28989230920535,0.7203578848249408,-0.08990115700157356,-0.027033930323760825,-0.6590655138847363
262.0,-0.0011893241167434659,-0.046898617511520746,0.0674447004608295,1.5759301075268821,1.187721198156681,9.517784562211975,1.7647777457757294,-0.2692228302611368,-2.3136112711213515,88.41162154377881,9.257486079109063,-6.9843629992319505,0.7080554732123654,-0.10415496861674346,-0.016259507366743475,-0.6912522298291093
263.0,-0.012800307219662065,-0.0632315668202765,0.039561059907834095,1.5615779569892474,1.3162235023041473,9.580775345622117,-0.424743183563748,-0.33352774577572963,-1.5666090629800309,89.90933899769584,9.163848886328726,-7.814333717357911,0.7034313144489247,-0.10470152841321043,-0.008925524130952378,-0.7027490896121351
264.0,-0.08152584204413472,-0.06102264808362369,0.03350014049679667,1.4547471806976136,1.2446404686973134,9.607539816792173,-0.4262035892248323,1.7608835258139448,1.1772653937656885,90.0599157370462,8.52853390421865,-7.372135387396501,0.7030135873596906,-0.09807866116175865,-0.0077528448082968045,-0.7041082919937152
265.0,-0.10289636956277395,-0.0325789123674647,0.03892576149263796,1.623698475141433,1.2032205799707762,9.583918333895319,-0.5508586110486681,-2.496937989397175,-1.9714575488928856,90.94128779363831,9.534544649881983,-7.149378945618373,0.6970746990765428,-0.10260669602097147,-0.016318385315246712,-0.709047375580383
266.0,-0.17317552733131014,-0.05623895695178151,0.06452163650668764,1.540346165374096,1.1446460042711024,9.605640234535985,-0.6566613043722602,-0.5010683610580345,-0.9912023247536624,90.32144554812483,9.04670780881196,-6.790128460904425,0.7012866935651532,-0.09749219150146116,-0.014889607807968979,-0.705617397314769
267.0,-0.14000174216027872,-0.04814636019632086,0.04292518077254504,1.7705225450526396,1.095483524408977,9.570742544303318,-0.19337001470533138,-0.8120021144767899,-0.7328083436364318,92.08226175255703,10.409394611011201,-6.5251045530328575,0.6897106800352648,-0.10365357067008542,-0.026641485804906155,-0.7156540300360328
268.0,-0.1628837435839796,-0.05518339515192388,0.05455322018657975,1.603397025214492,1.1247304334794497,9.594926379678544,0.25627318197145105,3.508235453898318,1.6110439848638114,91.94601878910495,9.413634277471806,-6.6786885092353225,0.6910608001318796,-0.09872187841856805,-0.019214384308943094,-0.7153169179506202
269.0,-0.14381401970701735,-0.05194653628563936,0.054515005057884675,1.2027606683900942,1.088808961822337,9.65343486568506,-0.16503807463189837,1.561331534974336,0.6673188059645572,91.21128142445019,7.0496820089168635,-6.434716992619235,0.6966995089093702,-0.083096116754524,-0.005217703314975088,-0.7119633392703533
270.0,-0.10787831104117493,-0.03353321344273351,0.03724345284927504,1.1469701397474807,1.0823695253081564,9.666104492150907,0.10411280956127535,-0.8464135851035931,0.31900266007268363,90.94519688284441,6.714096043610206,-6.383672164774643,0.698622971490952,-0.08092247287119253,-0.003135182070735455,-0.7105892970182832
271.0,-0.11407927765913603,-0.007541680716346337,0.039085646847251895,1.6356084447941253,1.0700936645311154,9.587189127421222,-0.1438453036604099,-2.92153136825147,-0.18215409688659104,91.43968121276835,9.613120995841294,-6.364064665992283,0.6941335808943088,-0.09810709589562024,-0.02194095818215877,-0.7121636540850849
272.0,-0.09438200142370087,-0.011289011277209545,0.033670150987224166,1.9717164961972198,1.0383177850211682,9.52954497770784,0.36070913416507433,-1.047727932636469,0.723649825783972,91.58349490464951,11.612515688808962,-6.214805552433404,0.6922318352819303,-0.10909097418736655,-0.03555914099378067,-0.7119252336214456
273.0,-0.11834461054287963,-0.013811172305271438,0.041589299763965394,2.099175452399685,1.04177025963808,9.507960660896934,-0.3005114083398898,-1.7480527143981117,0.1571302124311565,90.9812155782848,12.368676239181745,-6.247610149488592,0.6955934245334383,-0.11411838732179387,-0.03949709335326514,-0.7078901884374509
274.0,-0.10682769472856019,-0.010630999213217938,0.034380802517702605,2.266829268292683,1.0035814319433516,9.477246262785208,-0.1948957513768686,-1.162588512981904,0.014112903225806425,90.8395357985838,13.366030684500394,-6.042918961447679,0.6959134679763966,-0.11891642280566485,-0.046843623228953565,-0.7065218875090482
275.0,-0.10177812745869394,-0.015011014948859166,0.032985051140834,2.3651455546813542,0.9748426435877258,9.459217938630996,-0.24005212431156567,-0.8174763965381588,0.04065204563335954,90.79939024390244,13.957916994492525,-5.885134736428009,0.6957835900212433,-0.12152997121321796,-0.05145518611644373,-0.7059869550369786
276.0,-0.1078583792289536,-0.026979150275373724,0.03606608969315501,2.2584531864673494,0.9989854445318643,9.480448465774979,0.6017874704956727,1.5017014162077105,-0.38190647128245475,90.62043174665618,13.31059205350118,-6.012743410700235,0.697290851042093,-0.11850836342722267,-0.046418275377655374,-0.7052656087474429
277.0,-0.08695043273013375,-0.027333005507474438,0.03520456333595595,2.1504775767112516,1.0284423682140043,9.503233674272224,-0.15256318843430372,-0.31892702596380795,0.12213685090479937,90.70227920928403,12.673514948859165,-6.172776111329661,0.6972145372047599,-0.11563743602124311,-0.041538053145161284,-0.7061580812580646
278.0,-0.08180586152635722,-0.026670535011801742,0.033311959087332824,2.1797226593233674,1.0055639260424858,9.500092643587728,-0.25836324744295824,-0.5298768194335168,0.05509564319433517,90.73143194335168,12.846787716365068,-6.033187450826121,0.6969852094773799,-0.11580839212352481,-0.04348732073387097,-0.7062837053225806
279.0,-0.08476986624704957,-0.04183929976396539,0.034268882769472875,2.211409716758458,0.995165027537372,9.494582612116442,-0.06781569630212432,0.20308074350904803,0.06673632966168372,90.73764137490164,13.03445736624705,-5.968206628638867,0.6968200198072383,-0.11651514887627853,-0.045034035540322585,-0.7062576482177418
280.0,-0.08754622344610544,-0.04512529504327303,0.035598151062155796,2.1386524390243906,0.9967075137686856,9.511154209284026,0.08327965184893785,0.39367746852871754,0.22595889063729346,90.64046887293469,12.597092594413848,-5.973669846577498,0.6977107145084578,-0.11397679062765538,-0.04215340558064516,-0.705976482967742
281.0,-0.0816723052714398,-0.06557474429583006,0.03832730133752951,1.933612509834776,1.0503497246262783,9.54644807238395,0.45073760818253344,0.22342643587726202,0.4323342840283242,90.06562254130606,11.378309402045634,-6.270756294256491,0.7019056626856806,-0.10857799210818253,-0.03219098335483871,-0.703047529548387
282.0,-0.07434677419354838,-0.06150806451612904,0.03758064516129034,1.9262500000000005,1.0600080645161287,9.548766129032261,-0.21411290322580648,-0.08911290322580642,0.18059475806451614,89.77772177419354,11.328125,-6.327721774193549,0.7036928730887098,-0.10874028344354836,-0.03128140341935484,-0.7013539477419355
283.0,-0.0717741935483871,-0.07098387096774193,0.02833870967741936,1.723241935483871,0.999540322580645,9.590887096774196,0.5168346774193547,2.617288306451613,1.4712701612903225,88.91063508064516,10.115372983870966,-5.94601814516129,0.7097362392983873,-0.09917720643548386,-0.02537433291129032,-0.6967456450806451
284.0,-0.07575806451612904,-0.07601612903225805,0.03141129032258065,1.492209677419355,1.0606693548387096,9.619056451612902,0.09687499999999999,-1.2782762096774192,-0.062298387096774155,88.19657258064515,8.760131048387096,-6.291532258064516,0.7145736203629033,-0.09299149049193547,-0.014324015967741934,-0.6928166540887095
285.0,-0.07745790715971676,-0.08407120377655386,0.028582612116443754,1.5754215184893785,1.0607254130605819,9.609600904799368,0.026026504720692352,-0.5047895357985838,0.25233821793863104,87.99264112903225,9.243445121951218,-6.293348003540519,0.7156528225952006,-0.09610086560660895,-0.017062616926632572,-0.6913808543780487
286.0,-0.0764547600314713,-0.05680173092053501,0.03840420928402834,1.692521243115657,1.0537578678206136,9.59171577498033,-0.04321154602675059,-0.5187254130605822,0.181915076711251,88.03870967741935,9.937246754523997,-6.26434033241542,0.7150788888459874,-0.10023276016620769,-0.02151292022541306,-0.6913538302938631
287.0,-0.05908221872541304,-0.06800570416994492,0.03486742722265933,1.6264702989771833,1.0813749016522425,9.6010474036192,0.5796543076317859,0.9914941483084184,0.4143194335169158,87.84707661290321,9.550024586939418,-6.419544158143195,0.7163980079915422,-0.09884217236132965,-0.01795287451593234,-0.6903153700824154
288.0,-0.048435877261998425,-0.015234657749803295,0.02190283241542093,1.224811959087333,1.057382769472856,9.649155192761608,0.8810655979543666,3.4467914044059795,4.641591266719119,86.12603511014947,7.17537372147915,-6.249671764358773,0.7274431960169159,-0.0827213875267506,-0.00363059806451613,-0.6801596024974428
289.0,-0.07093961905110426,-0.08902364920498416,0.03428093608768046,1.1441854244048821,1.1082965985398787,9.661105447093483,0.015665253965930437,-0.07768152022761776,0.8655747969004448,83.1484908765301,6.706868218579035,-6.536537049658756,0.7449004680461548,-0.08143261774068211,0.003293881261815453,-0.6610740174900005
290.0,-0.06466354524171113,-0.09625885543685572,0.043386206307674466,1.0548685542465757,1.2334767245818423,9.657746346865462,0.05296956452745589,0.5910930190626925,1.671051232701468,82.2068299236721,6.169177243679386,-7.271351258709712,0.7504186517131227,-0.0822623141620124,0.012042011566991053,-0.6550166557411787
291.0,-0.11621237844304282,-0.10439958900875046,0.03073794973133527,1.1346303825520838,1.2651299830619673,9.646664676186468,0.5982374622401245,-2.2469600060075994,-1.2326054074494233,82.48291252772906,6.646599341745279,-7.4688550894256664,0.7487001336481625,-0.08661753525931067,0.010365181312016376,-0.6567134657775524
292.0,-0.0964450955944561,-0.08731446798981976,0.0509899426076031,1.30772362951365,1.283273980516035,9.622691700799763,0.2437932000421708,-1.0750080812886147,-1.1236296116712103,83.0462255154381,7.663812185624803,-7.5922879892446975,0.7450549478726651,-0.09397760970489137,0.004746751117160824,-0.6599997644686346
293.0,-0.09443576573585907,-0.0830427572049807,0.04740999884117371,1.4159648832068643,1.285403315985791,9.60942452860602,-0.25040867141872575,0.06688226934782482,-0.7517390780621984,83.75502660508332,8.302342756856461,-7.610433923811963,0.7407054528710295,-0.09823609731428676,0.0005485062973687677,-0.6643865946080387
294.0,-0.07900783035480125,-0.047066014761530106,0.04850694990820876,1.4463260274999061,1.2371870293357308,9.61193657037953,-0.38757774156082575,-1.2174403356936794,-0.7505835300288486,84.20085820126634,8.48132422914091,-7.328332115694429,0.7381465255217863,-0.09782077921153196,-0.0027489696427634783,-0.6673690118013935
295.0,-0.008087332808811971,-0.017967741935483866,0.03613453973249409,1.4653139260424863,1.1805601888276946,9.616826907946496,-0.08739181746656177,0.0952940597954367,-0.8768981117230528,85.51335562549173,8.584392210857592,-6.993809008654602,0.7305239116176239,-0.09645146579858377,-0.006558019244689222,-0.6758262408599527
296.0,-0.020997246262785214,-0.0003709677419354816,0.028728166797797015,1.3925129819040127,1.1272958300550746,9.633547993705744,-0.10265047206923682,-0.043609854445318647,-0.08920633359559405,85.38689024390244,8.15698269079465,-6.671550452399686,0.7316192000432729,-0.09188148144374506,-0.00595024177419355,-0.6753292563237607
297.0,-0.05648603461841068,-0.031149291896144758,0.047601691581431946,1.4640180959874116,1.1322749803304486,9.622580448465778,0.2393661487018096,-0.08590307828481511,0.34544404012588514,85.35070318646734,8.58021243115657,-6.707578924075531,0.7316418409579071,-0.09478041468725412,-0.008211754506294255,-0.6749359933900472
298.0,-0.07237070548124835,-0.021734208160053947,0.04572269678917988,1.5103477576711253,1.123319133790416,9.617078050653783,0.18448482166273278,-0.01334204413472706,0.49456101775879513,85.0088553374733,8.857596134933123,-6.657035669795061,0.7335427978207352,-0.09629076937204487,-0.00987787354270166,-0.6726639952908378
299.0,-0.09619931812221347,-0.012123693379790938,0.03968687947248136,1.552709677419355,1.1417114945112585,9.608276928552698,0.13233264489902966,-0.3150748379603612,0.05115172249072719,84.84782791952344,9.108568548387098,-6.77281305027912,0.7343253047403244,-0.09856815077404368,-0.010509751781874037,-0.6714877990129443
300.0,-0.10619452249822035,-0.009378882394814735,0.016865469633959025,1.5848614514255743,1.1396495354239256,9.603403947023345,-0.07621898533213442,-0.10642468435053017,-0.4300131013262897,85.05307734816981,9.295054805458768,-6.761449844985201,0.7330235917686486,-0.09964234653722229,-0.011883154702521447,-0.6727194920736297
301.0,-0.09930463452099961,-0.02137012476115544,0.01718369487842345,1.6460274999063356,1.1585991532726387,9.589716758457909,0.012330935521336774,-0.16461307182196247,-1.1555463452099959,86.28465119328612,9.658283691131842,-6.886738507362032,0.725451623490315,-0.10244057539994755,-0.014431984966468095,-0.6802250626979132
302.0,-0.10843216466137441,-0.011362335357358503,0.04712779240106195,1.5458202747550995,1.183712783596596,9.604159789947488,0.02412422574284686,-0.14040375838733202,-0.31490791360732173,86.74682466348294,9.065924364366353,-7.025052212530484,0.7229920165816713,-0.09956273246421363,-0.01033229234005801,-0.6834203643381794
303.0,-0.11448105928921257,-0.00631096798589891,0.04141335856612237,1.5017465429075036,1.198192797328252,9.609272675311686,0.12482132946128517,-0.6954658960907473,-0.4024856388313106,86.93956056522842,8.806675699848308,-7.1036359372944275,0.7219566091817728,-0.09843658173133878,-0.008418612149291679,-0.6847648407136364
304.0,-0.10619017559267868,0.0038154050707798937,0.04910951169848213,1.4555978977322728,1.196326925808107,9.616217769599194,0.08896455930184635,1.0565746837406216,0.37650108302336904,86.99773563273222,8.534435410899762,-7.082649990677112,0.7217699586310122,-0.09657247181767567,-0.006897566192663148,-0.6852529328705869
305.0,-0.11060419721655153,-0.010715631869639877,0.04816128248089898,1.357396705448139,1.1883707468679017,9.631766317014787,0.006065867512174215,0.07887141646038687,0.14592522804045957,86.73668117595601,7.9564463742242175,-7.02737675381389,0.7236254170750352,-0.09264088969639186,-0.003529203474461821,-0.6838774873885676
306.0,-0.10115079292471202,0.0013011702402952715,0.039648997615257475,1.4433719318331324,1.1734595669823378,9.621148135465917,-0.10372589880919707,-0.9146733547498371,0.15583991816769524,86.76979028075834,8.465214354546825,-6.949292255555179,0.7232229406419723,-0.09539001499796552,-0.00714164952908959,-0.6838946525998137
307.0,-0.11394588194086848,-0.004458192074150939,0.04513046815710896,1.4687091502840866,1.152335292011156,9.619985884972984,-0.09955790885874778,-0.3095318690299752,0.1284794739625673,86.63442404046134,8.616411833794686,-6.825510629617335,0.7239964136961157,-0.09560143289122366,-0.008683389853674221,-0.6830536684340118
308.0,-0.10464387873971978,0.016932325415848735,0.041749322348008606,1.6215735815486974,1.2475129496659878,9.578417130415003,0.4242215279429613,-0.4295331781551659,-0.9535928189364414,87.15385346772234,9.523318220670149,-7.419925920068867,0.7201015059767902,-0.1046532991072768,-0.011022668611037775,-0.6855515440042939
309.0,-0.1034515336151111,0.008126909776224545,0.0294322273948278,1.6315874351863227,1.2508980206724156,9.579384279867872,-0.12131506308632911,-1.067833868310283,-0.8771350067482027,87.82990994917719,9.578701840094169,-7.431787498268295,0.7160437547653986,-0.10507703881649855,-0.011881211800929327,-0.6898231410673747
310.0,-0.097676182983028,-0.0022977782773219426,0.03855850286613466,1.711312240080926,1.2524532613989734,9.566710501667227,0.025164147090779646,-0.4784700367164962,-0.3499962534187554,88.3218535742385,10.047177653516165,-7.450711382113821,0.7128600094192796,-0.10806266160147615,-0.015116559294706084,-0.6926593468583042
311.0,-0.10916919560900679,0.022451388108351133,0.04307968978307296,1.712227529878985,1.2251247611554454,9.569983702371585,-0.1123751920122888,-0.04958834438574802,-0.5842313420254018,89.1775516559889,10.05774184181934,-7.2863804746918435,0.7077039780358547,-0.10696744994005469,-0.016966173797534748,-0.6979928971192537
312.0,-0.10870518152186129,0.01126409651193286,0.053029860252519594,1.6069701397474803,1.242020905923345,9.585671574688096,0.04281874039938556,-0.42489977895170655,-0.7793708553444981,88.8423040538009,9.437521074519502,-7.377421228129332,0.7100514026930427,-0.10371596324191674,-0.012290869932561534,-0.6961674174459557
313.0,-0.1297184444194672,0.02202858641489641,0.050067251133340845,1.6676746843505303,1.2166359447004609,9.578835000561988,-0.619793422876625,-0.9971174740549249,0.1773631561200405,88.8830668577423,9.798520568731032,-7.2302133678018805,0.70968538763291,-0.10507398706155634,-0.015476874443070695,-0.6963147262878873
314.0,-0.13482465999775203,0.009727810872578771,0.04615728148064892,1.6166353452474618,1.1824408602150538,9.59100352178637,0.5706572440148365,1.5501259787943502,1.587731117230527,88.23091514930127,9.488901221385486,-7.024275270690495,0.7138759858533213,-0.10198423631111611,-0.014232333974223518,-0.6924953444281217
315.0,-0.11098535086733355,0.016908321156944288,0.04320752313513919,1.4262385073620323,1.210151062155783,9.615960810760178,0.5761581619272415,1.419714978831816,1.1373374920385149,87.11611732419168,8.359240005994529,-7.170041399722754,0.7210275271139335,-0.0958988459345847,-0.005497596494623654,-0.6859407122486232
316.0,-0.15123854482784457,-0.012418380727586078,0.05039290397512271,1.2360295605260199,1.250291896144768,9.637425724026826,0.09531255854033197,0.7363179536173242,0.12656607096024874,86.36478564872054,7.2363125679067855,-7.383983131017946,0.7259284346671163,-0.09020745185399573,0.0032856528116968265,-0.6816046106207709
317.0,-0.13696105428796224,0.034955940204563336,0.028573564122738003,1.2514756097560975,1.2157427222659325,9.641133752950433,0.18573711644374508,-0.33641571597167585,-0.21187057435090473,87.00424862313139,7.332422797010228,-7.180782848151063,0.7222007911223446,-0.08962981472423288,0.0009951132553107788,-0.6857080826652242
318.0,-0.15079760031471284,0.03129779701022817,0.029267112509834776,1.373294846577498,1.2180090479937058,9.62380448465775,0.059725363886703374,-0.8892690302911093,-0.07466070023603459,87.1220102281668,8.05456210660897,-7.208187450826121,0.7211364338027144,-0.09432481572560977,-0.0033847545407159722,-0.686171032611133
319.0,-0.1423221872541306,0.03943115656963021,0.025319040125885137,1.5971030684500394,1.1948190401258854,9.588636113296616,-0.1924911487018096,-0.7917363296616837,0.0500688434303698,87.69235592053501,9.365310287175452,-7.10026308025177,0.7170085580586153,-0.10175116850393393,-0.012738805427616049,-0.6891356556966953
320.0,-0.1334946892210858,0.045926435877262,0.03910326514555468,1.5191211644374507,1.1686628638867034,9.607635916601097,0.345389948859166,-0.18057017112509832,0.2932484264358773,87.16413134343037,8.907989525963808,-6.934484411880409,0.7205722409498425,-0.09794941655409128,-0.010362153874311567,-0.6861332641064121
321.0,-0.10743686073957515,0.047721282454760025,0.03682179386309992,1.4352621951219509,1.1808556254917386,9.62007199055861,-0.0921235739575138,-0.03562278717545238,0.21890243902439027,86.68934893784422,8.415511900078677,-6.990906520456333,0.7236534598015341,-0.09527053875688435,-0.006557370384736428,-0.6833846838636899
322.0,-0.08233674272226593,0.05354209284028323,0.04055546813532651,1.137173092053501,1.175839496459481,9.652890637293469,-0.15354051927616053,0.19892800944138475,0.3962578678206137,85.79533585759245,6.674968036978756,-6.938144177812745,0.7295740015617622,-0.08382280693273014,0.0042536700715971685,-0.678260458534225
323.0,-0.1347789142407553,0.03832258064516129,0.04339889850511408,1.0546762391817466,1.1825727773406765,9.664165224232889,0.14503835562549172,0.7695466168371361,0.5337259047993705,85.27926214594807,6.180707857985837,-6.9709800354051925,0.7328405422962233,-0.08092837903520851,0.00783490915617624,-0.6751627199201418
324.0,-0.10135719905586152,0.02259754224270353,0.0371971451050916,1.1416599321868794,1.1763931475029032,9.658737758045778,-0.0004910948447042207,-0.05643252875501109,0.3824951528605147,85.28165416245176,6.687724560713349,-6.9396086812970665,0.7327398531300626,-0.084047997513572,0.004670470101513619,-0.6751024127780432
325.0,-0.099544256490952,0.030735631860926912,0.04166997302461503,1.1816382863137385,1.1452675808324901,9.65927171143831,-0.09458501929489341,-0.4384075507661759,-0.22895919973024612,85.44674024015586,6.9233112870443225,-6.7584654588625375,0.7317884388502398,-0.08450183569728562,0.0019984715318740404,-0.6761608853090648
326.0,-0.07912715896744221,0.02075817691356637,0.032678112472368966,1.2781060095163164,1.13939569517815,9.647901408714542,-0.011943047281855305,-0.3445986006519052,0.18247700535761122,85.51891543497808,7.489092999512945,-6.729197927203926,0.7311399401257728,-0.08796176244983325,-0.001628276268817204,-0.6764550952127122
327.0,-0.10287799258176913,0.024403666029747858,0.04808515042523698,1.2426886871979317,1.1804846296504437,9.649133350192944,0.13780236081450672,0.1380639775579784,0.2753396510059571,85.17593705509347,7.277351330972987,-6.96854434781387,0.7331883599873927,-0.08802235182081039,0.0014518893816080328,-0.67425624240479
328.0,-0.10090405005432543,0.016496571878161177,0.04014030946761082,1.2783307107264619,1.1903995728897385,9.643907496909065,0.0773821231875913,-0.6869707953991983,0.12943969877486794,84.9123264864561,7.486239509572515,-7.019426023753325,0.734647047694541,-0.08972112281574313,0.0007541627518639243,-0.6724662757751674
329.0,-0.08446892210857594,0.0017275486118916474,0.040588587913528915,1.2817882432280543,1.1846199093327339,9.643631935858522,-0.019512663444606802,0.0676609156644562,0.1224195421677719,84.67205706043234,7.507832696414521,-6.9950240717844965,0.7360489973687758,-0.0896871569570267,0.000628558465025664,-0.6709424343276758
330.0,-0.07853658536585366,0.01798021805102843,0.02231632385448279,1.1047336180735077,1.177691543966131,9.66303941403469,0.13279874302199243,1.7010216458731406,0.6248161833576862,84.22455134689595,6.461577638529842,-6.94285526956652,0.7390119053012251,-0.0826311352841782,0.006769671730545876,-0.6684298560702109
331.0,-0.13033026113671276,-0.026827395002060613,0.04891349143906186,0.8231471282454759,1.151743284253119,9.692112322505714,-0.09415744071035179,0.4562633471956839,0.5918205106590237,83.17993307669252,4.819296532539058,-6.771520596830392,0.7456107682081975,-0.07084929194934622,0.015955975281555578,-0.662103418450414
332.0,-0.11980184331797236,-0.00549511071147578,0.04215259825409314,1.0944737177325687,1.159161964707205,9.661613764939494,-0.08372906597729571,-0.09707953991982318,-0.14156574313438985,84.21113109287774,6.418495232475366,-6.836600352178637,0.7390285523813644,-0.08152294254763777,0.006216846405754749,-0.6681927735677569
333.0,-0.1278095238095238,-0.0009580008242478723,0.046614701584803866,1.059239931062905,1.180484208160054,9.665778464651005,-0.21976391854932376,-0.8295785564422464,-0.22327423101419955,84.04500487055562,6.203031218388221,-6.959131589299764,0.7400983873373796,-0.08096187376153008,0.008463738548499494,-0.6672580574851071
334.0,-0.1522258064516129,-0.01731156569630213,0.051037765538945706,1.0685224232887491,1.1665877261998423,9.668573564122738,0.08475609756097559,0.10828579858379228,0.4566040519276161,83.68602970102282,6.256800747442959,-6.872811762391818,0.7422466760527144,-0.08087995676632573,0.007905416679779701,-0.6650037522517702
335.0,-0.17338040912667196,-0.053597560975609755,0.06594846577498033,1.076179386309992,1.1459870180959872,9.672323760818257,-0.19264358772619986,-1.0612731117230527,-0.9639088316286386,83.3867992722266,6.2998352675059,-6.748807533438237,0.7440179133890636,-0.08045308031864673,0.007086702774193548,-0.6631530741022817
336.0,-0.12549193548387097,0.005411290322580642,0.028943548387096778,1.1542258064516124,1.149540322580645,9.663024193548392,0.2667338709677419,-0.3206149193548387,-0.28210685483870956,84.16204637096774,6.7591229838709666,-6.780796370967742,0.73937422225,-0.0836005429516129,0.004062726129032258,-0.6679843531290321
337.0,-0.14600806451612902,0.015604838709677426,0.028338709677419353,1.1662661290322578,1.184572580645161,9.658612903225812,0.11421370967741933,-0.31174395161290325,-0.07757056451612897,84.36844758064515,6.827368951612903,-6.988608870967742,0.7380691037580644,-0.0852956959032258,0.0048340824838709676,-0.669248519467742
338.0,-0.12231766325727773,-0.00018882769472855932,0.013606608969315495,1.1463027143981117,1.1806766325727769,9.661427222659327,0.21292658339889847,-0.1519890833988985,0.21538773603461842,84.42339447285602,6.711244836742722,-6.961522669158143,0.7378261403678206,-0.08442048862549176,0.005332845716758458,-0.6696456248473643
339.0,-0.123495045146304,0.03128269828781236,0.03848149188865162,1.0939123018995167,1.1580314806489078,9.669637958487883,0.06664594338915739,-0.33850414231388853,0.06837095135064254,84.19509777406242,6.404533948709302,-6.822054777359409,0.7393087584734648,-0.08160021998248473,0.006420114691328537,-0.6683276256287513
340.0,-0.1782408021430445,-0.024016100932898733,0.04095464763403395,1.1434966655426924,1.1262494192799073,9.667014639766212,-0.45025277715334755,-2.1198821114795248,-2.1080512274736805,84.24092086283767,6.698712346858492,-6.638915973549136,0.7389752795979074,-0.08237669941904574,0.0034005986342587387,-0.6685434712356505
341.0,-0.0817754954853696,0.038255423176351576,0.013894121614027203,1.317967254879922,1.1253740212056496,9.643056592109696,-0.00264163247911281,0.7088648795474128,-0.05032466468097874,86.06814802976658,7.723482107732945,-6.649490933273388,0.7276936210726554,-0.08881438882724516,-0.0041122038652073745,-0.6797282224544696
342.0,-0.12879884605297665,0.036658049529804046,0.030827245138810834,1.383972874751789,1.1626424637518262,9.629144655501849,0.002381420703607953,-0.7280848413322842,-0.46067260499793933,86.91080092540557,8.112491101869544,-6.8777888614139595,0.7224451137619423,-0.09261123944588065,-0.005686770737327189,-0.684844795480499
343.0,-0.1458746393915552,0.03720786032745121,0.04586995616499944,1.4225057135363979,1.1665769360458582,9.6239822412049,0.03976761829830281,-0.42710792027275113,-0.06031761642501218,87.13404916451239,8.336462899479224,-6.904472715522086,0.7210688624277847,-0.09423483288187029,-0.0070142573120152854,-0.686225269479038
344.0,-0.14008785733018622,0.03189502079352591,0.014789816792177134,1.4627275111460794,1.1896056723240045,9.616392042261435,0.13845139747480423,0.128227913903563,0.23395409501330033,87.22915495860028,8.572057294593684,-7.047162433029861,0.720361522488854,-0.09660436443632683,-0.007614532469371698,-0.6867143832456634
345.0,-0.1482585890375033,0.015090105278932973,0.036259787943501556,1.4493612078977933,1.2149938181409468,9.615711663107414,-0.050763834251245726,-0.10205687310329323,0.36602927953242664,87.16286622831666,8.500096006144393,-7.1943468772245325,0.720754242607246,-0.09705469019182494,-0.0061645306271777,-0.6863028869199357
346.0,-0.15096328350380278,0.019621370499419283,0.05279000412123937,1.4447506275523585,1.2111522985275938,9.616690607320821,0.01570285864148964,-0.09117399123299988,0.215154686973137,86.93062174515754,8.469456933048592,-7.1670986943164365,0.7221823625136936,-0.09674764931463789,-0.005942245535461391,-0.6848593346196845
347.0,-0.19484492900228545,-0.023911280956127535,0.05131205275186393,1.4169290772170395,1.197955565546439,9.623177100895433,-0.037405867146229066,-0.24143953017871192,0.009041437188565427,86.61684697088907,8.306464257614927,-7.084216589861751,0.7241742646846501,-0.09524684631860927,-0.005185198940541756,-0.6829711583436364
348.0,-0.19727769660185085,0.02707504402232962,0.036058858791352885,1.4486824772395188,1.1923530778164926,9.618874939118054,0.02671897830729459,0.07078790603574239,0.17315761867296092,86.75654012588514,8.49277284477914,-7.056924384624031,0.7232563107081786,-0.09623635441894272,-0.006606211198831065,-0.6837881765636356
349.0,-0.18125098347757673,0.02044689221085759,0.04005861526357199,1.4491062155782846,1.1891726986624709,9.618809205350118,0.028235641227380013,-0.1387563926042486,0.14528176632572776,86.80458054681353,8.491173288749016,-7.0393636900078675,0.7229908439040127,-0.09612795303973248,-0.006772119949645947,-0.6840918868686072
350.0,-0.18225806451612905,0.02151612903225806,0.04413709677419356,1.4920967741935482,1.2071693548387095,9.609782258064516,0.1280241935483871,-0.8364415322580645,-0.1265625,86.81587701612904,8.753124999999999,-7.153326612903225,0.7227444550967742,-0.09841707270161287,-0.007637910161290321,-0.6840106094516126
351.0,-0.17995967741935484,0.017169354838709676,0.054540322580645166,1.5304112903225808,1.1957661290322574,9.605895161290327,-0.10443548387096774,-0.2670866935483871,-0.005594758064516134,86.83563508064516,8.976612903225806,-7.087550403225807,0.7225418086693549,-0.09940687615322577,-0.009397445346774192,-0.6840646065241935
352.0,-0.1456451612903226,0.035040322580645156,0.03846774193548387,1.4288387096774193,1.1938629032258063,9.619379032258067,0.2887096774193548,2.554284274193548,0.9563508064516129,86.5945060483871,8.367288306451613,-7.0670866935483865,0.7242280528548388,-0.09543772029838707,-0.005654611919354838,-0.682786559782258
353.0,-0.14364142407553107,0.015275177025963807,0.04116070023603462,1.1725706136900078,1.1257763571990562,9.658169158143195,-0.0923546911880409,-0.9215418469708889,0.19106387686860737,85.63115534028324,6.872231510621557,-6.641297452793076,0.7306323252736036,-0.08343691082985838,0.0013251367909126667,-0.6773201473060582
354.0,-0.15291345397324943,0.04289162077104642,0.030350511408339886,1.215918371361133,1.0629728560188827,9.6619474822974,-0.8314344020456333,-0.967751770259638,-0.4162372147915028,85.56938311369001,7.125682287568843,-6.270220298977183,0.7310908954876083,-0.082882952443155,-0.0024548758343823753,-0.6770076253304484
355.0,-0.14551317859952795,0.048707907159716776,0.04342525570416994,1.3232535405192762,1.0364944925255704,9.65301809598741,0.24053279897718333,-0.17661782061368997,0.1834136506687647,85.98013006490952,7.75243287765539,-6.125130310778914,0.7285004551107395,-0.08601436756431943,-0.007408428642997639,-0.6794400671652244
356.0,-0.1371284421715185,0.019860149488591668,0.03715519276160503,1.3757122344610542,1.09306038552321,9.639812549173879,0.06175378638867035,-0.4620476003147128,0.07804017505900863,85.91889506294257,8.060229396144766,-6.4638141719118805,0.7286240270336348,-0.09001748765440598,-0.007063594926632572,-0.6788540668343824
357.0,-0.10346380802517702,0.011275767112509837,0.03620416994492526,1.4640247836349332,1.1054988198269078,9.626805271439814,0.14300501573564123,-0.7451637490165224,0.13504130605822187,85.92778815892997,8.581419649881981,-6.543135326514555,0.7283006088937845,-0.09379948856254916,-0.009686344092840284,-0.6786836810035404
358.0,-0.11399490878817266,-0.009094336084021005,0.029888903628346113,1.4280072136936672,1.0994060435840667,9.632165283698974,-0.06593219379540005,-0.4983566489945657,-0.47881600735549734,85.85296924459773,8.376363288611785,-6.502491629004812,0.7288532182592172,-0.09225499713381699,-0.008650232610433095,-0.6783127957539978
359.0,-0.11178413810769765,-0.010691444202514045,0.046718547014802485,1.4719441064534422,1.1115417314694525,9.624487736263337,0.15441895916052184,-0.22766782587415146,0.05189313715624033,86.14932097163009,8.63272272908166,-6.580392401835215,0.7269780506709147,-0.09432844219594075,-0.009936040149040308,-0.680043340939253
360.0,-0.09530105522896404,-0.018497411809398345,0.04395739178697114,1.5159192498473049,1.1195252820173685,9.617330081649335,0.061202855156297795,-0.5166888956559696,0.050766557057382845,86.28318703151398,8.893652311161414,-6.633186552300096,0.7260347336131072,-0.09624685009701031,-0.011286307233890354,-0.6807629292169384
361.0,-0.09925181643843017,-0.022263954490364755,0.03965075763714447,1.4959003165425497,1.158222421459023,9.615498430356721,0.23074965169863895,0.26777976070672715,0.27229586142180146,86.12111493683526,8.773048009389106,-6.86114129795515,0.7269791323076589,-0.09685327861169125,-0.008980603308414213,-0.679703633003059
362.0,-0.09062774404402496,-0.02668272468814068,0.03486958847725869,1.4811201406623429,1.1660197192155182,9.616856592196832,0.2974071588454605,0.27944339089998976,0.9448100265484489,85.71728281591302,8.6858477467799,-6.908797157913172,0.7293929576146213,-0.09658622119637053,-0.007828943797438908,-0.6771658354674732
363.0,-0.09060769547787645,-0.013985987786145144,0.03744408227492413,1.327003109662433,1.1691397849462364,9.636795923719603,-0.06182561537596945,0.4990961372747368,0.13721853808399836,84.63386534787007,7.777769191862425,-6.9094263984114495,0.7361037780169344,-0.09078916058371736,-0.0015800380536510434,-0.670533431536473
364.0,-0.08725806451612904,0.0026267281105990742,0.019685099846390178,1.3488556067588329,1.1395314900153608,9.638502304147462,-0.08822964669738864,-0.6054627496159755,-0.13354454685099845,84.74875192012288,7.906778033794163,-6.736319124423963,0.735465335422427,-0.09066608395545314,-0.003523960107526882,-0.6713365124731183
365.0,-0.09494717320445095,-0.01051346895957439,0.036109924693716974,1.3126205462515457,1.133351129594245,9.644877112135173,-0.06471516616087819,0.4168984863811771,0.7046956371061407,84.61470509722378,7.692032192499344,-6.698107508148814,0.7363764940768424,-0.08907166797590949,-0.002356672305833427,-0.6706123053383164
366.0,-0.12038833314600426,-0.0034940616687272894,0.04378460904424712,1.2738793975497362,1.1389758720167844,9.649124423963135,0.111987655014799,0.4980517777528005,-0.45873609081712935,84.67671218762878,7.45697519763216,-6.72871005207748,0.7360952772957176,-0.08779515723296241,-0.0007825688756509682,-0.6710940647006483
367.0,-0.10840077179573639,-0.0070388895133191,0.022510584092016037,1.2784412348731782,1.216634633397025,9.63877112135177,0.5486493574613165,-0.6160854782510958,-1.1549152804316063,85.63405501854558,7.486648121089505,-7.191639972275299,0.7302359514589186,-0.09074635051740287,0.0011929341182421046,-0.6770259806951782
368.0,-0.11244539357835973,-0.007908845678318536,0.04355175901989436,1.3096008017683864,1.2569770709227828,9.629539170506918,0.4162217601438687,-0.8759190832115694,0.696999925068375,85.96218879959537,7.671079436888839,-7.430833426997864,0.7281609916357572,-0.0933566524783635,0.0013611642711026195,-0.678926894314563
369.0,-0.11162976284140722,0.009390431231501253,0.03744408227492414,1.3435292795324263,1.2181390730958004,9.630230414746544,-0.08365179273912551,0.21625032782585885,0.061153572365216735,85.52244904649507,7.868349818290809,-7.203991982316136,0.7307532287595069,-0.09324979160016486,-0.0009137620119141284,-0.6761659495919974
370.0,-0.10713517665130567,0.010729646697388628,0.025622119815668202,1.2963210445468505,1.1877572964669738,9.640483870967742,0.07478878648233489,0.4101382488479262,0.06173195084485407,85.22331029185868,7.589237711213517,-7.019153225806451,0.732734035706605,-0.09036386186635945,-0.00018216801843317992,-0.6744141939016897
371.0,-0.10223502304147465,-0.008195084485407077,0.03619815668202765,1.2150307219662055,1.1908141321044545,9.65024577572965,0.26617703533026116,0.6778513824884792,0.1811635944700461,85.20281298003073,7.1121351766513055,-7.0271217357910905,0.7330469927803379,-0.08737079495391704,0.002778599416282643,-0.6744779479493088
372.0,-0.09702858641489641,0.005524334045183761,0.03795436664044059,1.1705833426997865,1.2091798733655539,9.654126859240945,0.1175115207373272,-0.091288964444944,0.13838114907646773,85.04726195159417,6.855212196995241,-7.1339660372410165,0.7340191712820802,-0.08635707485219737,0.005104275338878273,-0.6735619745269941
373.0,-0.10501966955153424,0.01297722078603274,0.03576673785171031,1.156190288861414,1.2129155895245587,9.655965119328613,-0.10291858678955454,-0.12040926716870855,0.06811050541380989,84.93580935521337,6.7652837098647485,-7.152572496347084,0.7347223299728373,-0.08590921715728148,0.005844285856843131,-0.6728591681006706
