time,linaccel_x,linaccel_y,linaccel_z,gravity_x,gravity_y,gravity_z,gyro_x,gyro_y,gyro_z,euler_x,euler_y,euler_z,quaternion_w,quaternion_y,quaternion_x,quaternion_z
0.0,-0.0075,-0.2417187500000001,0.02093750000000001,-0.12000000000000009,-9.779999999999985,-0.5500000000000002,-0.0166015625,0.01171875,0.0439453125,40.625,-0.6875,93.25,0.6438598599999994,0.2610473599999996,-0.6784668000000004,-0.2386474599999997
1.0,-0.0065625,-0.24078125000000009,0.024166666666666677,-0.12000000000000008,-9.779999999999985,-0.5506250000000004,0.0003255208333333339,0.016927083333333332,0.002278645833333334,40.625,-0.6875,93.25130208333333,0.6438465087499994,0.2610530821874996,-0.6784801512500003,-0.23864173812499972
2.0,-0.005323322510822511,-0.24310538419913424,0.02801948051948053,-0.12000000000000008,-9.784848484848478,-0.5298349567099567,0.27503128382034636,-0.03387107683982684,0.033444094967532464,40.625,-0.6875,93.10986539502164,0.6446351776028136,0.2607850642275432,-0.6777411560768398,-0.23894199426136348
3.0,-0.008059974747474751,-0.2429037247474748,0.02414646464646466,-0.12000000000000008,-9.787595959595954,-0.5085896464646461,0.08592369002525252,-0.03954387626262627,0.0019708806818181795,40.625,-0.6875,92.95127051767676,0.6454601357297975,0.2605017819728534,-0.6769548093207068,-0.2392731919886361
4.0,-0.006246028836754644,-0.2404666116813295,0.02372678396871946,-0.11874877810361695,-9.788836754643201,-0.5060331133919843,-0.11091668957722385,0.01947779203323558,-0.014197863208699903,40.632820136852395,-0.6811461388074291,92.94074184384164,0.6455372461253663,0.2604526020689759,-0.6768827261522481,-0.23932205360153946
5.0,-0.010743982160312809,-0.2388761608015641,0.01684338343108505,-0.11937438905180853,-9.78957966764418,-0.5228552663734112,-0.04297161381964809,0.042785465542521994,0.0176077178030303,40.6289100684262,-0.6843230694037146,93.04111872250732,0.6449515248710894,0.2606554778086816,-0.6774437488043747,-0.23910026475775908
6.0,-0.010193059628543503,-0.23854594330400788,0.014054252199413494,-0.11968719452590432,-9.789951124144672,-0.5312512218963826,-0.05892595307917889,0.030150293255131962,0.06202651515151515,40.6269550342131,-0.6859115347018573,93.08101173020528,0.6446821515786896,0.2607567772385142,-0.6777103185654942,-0.23899410242424257
7.0,-0.008837074216106475,-0.2399094104819912,0.006210974509361608,-0.11984359726295221,-9.79,-0.5337383261899389,-0.025311348597638922,0.010776891119633054,0.07823579310474471,40.62597751710655,-0.6867057673509287,93.10247950973758,0.6445930602879162,0.2607801427981051,-0.6777898194092227,-0.23896603227573526
8.0,-0.007314431536205731,-0.23845910406797505,0.0035771392585908714,-0.11992179863147615,-9.79,-0.530740130836905,-0.06933639277389277,0.010138567749454845,0.10203028658169787,40.625488758553274,-0.6871028836754643,93.09206636777202,0.644662032094105,0.26075279801195583,-0.6777193185609163,-0.23899428178302906
9.0,-0.010277450372208438,-0.2401459743213776,0.005444483607790058,-0.1200000000000001,-9.79,-0.5340210918114141,-0.026878606944131137,0.00134249990600797,0.0928192733006241,40.625,-0.6875,93.12577719659373,0.6445059074644521,0.26080163721712163,-0.6778637441484934,-0.23893427683726215
10.0,-0.009819866625310175,-0.2407497673697271,0.009146634615384617,-0.1200000000000001,-9.79,-0.5370105459057066,-0.021265314826302728,-0.006818974875930521,0.05355585065136476,40.625,-0.6875,93.15732591501241,0.6443639899761165,0.2608329486085609,-0.6779834796573355,-0.23888176718207177
11.0,-0.009202853598014892,-0.2404820099255584,0.011292493796526058,-0.1200000000000001,-9.79,-0.538505272952853,-0.01641497363523573,-0.01609995347394541,0.019168734491315138,40.625,-0.6875,93.17342102202232,0.6442923073469291,0.2608486043042805,-0.67804377299147,-0.23885536880272928
12.0,-0.009405397022332507,-0.24037748138957826,0.008514733250620351,-0.1200000000000001,-9.79,-0.5393245967741929,0.0018421409739454112,-0.010857048697270472,-0.0013492555831265528,40.625,-0.6875,93.18154611895162,0.6442543421622982,0.26085752263104844,-0.6780762556098788,-0.23884112173387073
13.0,-0.007941919975186106,-0.24047231699751873,0.007408343672456576,-0.1200000000000001,-9.79,-0.5398790322580638,0.005213825992555832,-0.01200614531637717,-0.028434204404466503,40.625,-0.6875,93.18636592741935,0.6442313306502014,0.2608633678074598,-0.6780964060584675,-0.23883247730846746
14.0,-0.007515452289645841,-0.2413814572524251,0.009052259568388602,-0.1200000000000001,-9.789999999999997,-0.5399999999999994,-0.007751522670877509,-0.0015254906383938647,-0.02284006316264381,40.625,-0.6875,93.1875,0.6442260699999999,0.26086426000000007,-0.6781005899999998,-0.23883056999999974
15.0,-0.006859463117527635,-0.24027385517708105,0.010910745168809686,-0.1200000000000001,-9.79,-0.5396823821339944,0.014222873900293255,0.008371870065418452,-0.0017426122264831943,40.625,-0.6875,93.18402605459056,0.6442401249081884,0.2608613518908189,-0.6780894431215879,-0.23883638566253082
16.0,-0.005196480938416423,-0.24235777126099714,0.00690698548763065,-0.1200000000000001,-9.78817369727047,-0.5462729528535979,-0.012522558087074215,0.010032709226257614,-0.0334395443266411,40.625,-0.6875,93.20362903225805,0.6440881894640194,0.26092290027791554,-0.6782593089280398,-0.23877531874441693
17.0,-0.004541168508910444,-0.2411739228513423,0.007073840138356267,-0.1200000000000001,-9.789086848635236,-0.5482977667493796,0.004501748251748252,0.009645697044890593,-0.014913010376720054,40.625,-0.6875,93.19556451612902,0.6440941258610415,0.2609250794937963,-0.6782744526898266,-0.2387714398560796
18.0,-0.005818971351229417,-0.24216760658696154,0.006455034213098728,-0.1200000000000001,-9.789543424317618,-0.5493101736972705,0.02649094856756147,0.010979796413264156,0.0052606163997293036,40.625,-0.6875,93.19153225806451,0.6440970940595527,0.2609261691017367,-0.67828202457072,-0.23876950041191095
19.0,-0.005968362282878413,-0.24025310173697284,0.006709057071960299,-0.1200000000000001,-9.789771712158808,-0.549816377171216,0.0488019540942928,-0.011024736352357319,-0.016991702853598016,40.625,-0.6875,93.18951612903226,0.6440985781588082,0.26092671390570693,-0.6782858105111667,-0.23876853068982662
20.0,-0.007640508684863526,-0.2408647642679902,0.007825992555831267,-0.1200000000000001,-9.789885856079405,-0.5500794044665014,0.02938701923076923,-0.004279427729528535,0.00026655552109181024,40.625,-0.6875,93.18861662531017,0.6440988809925552,0.260927077186104,-0.6782880518213403,-0.23876786408933035
21.0,-0.00747037841191067,-0.23995967741935498,0.00837701612903226,-0.1200000000000001,-9.79,-0.55,0.0032170828163771703,0.007770335763027296,0.011237496122828783,40.625,-0.6875,93.1875,0.6441039999999993,0.26092528999999975,-0.6782836900000004,-0.2387695300000003
22.0,-0.00827512406947891,-0.24101209677419366,0.008122208436724565,-0.1200000000000001,-9.79,-0.5484913151364764,0.021609413771712157,-0.005685871588089331,-0.014775899503722083,40.625,-0.6875,93.18055210918114,0.6441301725062034,0.26092868414392045,-0.6782560669330024,-0.2387903703374693
23.0,-0.009105303970223329,-0.24109165632754354,0.00849286600496278,-0.1200000000000001,-9.79,-0.5492456575682383,0.014511282568238214,-0.015435987903225808,-0.010737825682382133,40.625,-0.6875,93.18402605459056,0.6440855868982632,0.26095849158808915,-0.6783013829826299,-0.23877995016873482
24.0,-0.007708979528535982,-0.24160290012406957,0.010564050868486354,-0.1200000000000001,-9.79,-0.5496228287841192,-0.07027227434863524,-0.0017471502791563285,0.011132327853598016,40.625,-0.6875,93.18576302729528,0.644058447245658,0.26097339531017355,-0.6783240410074436,-0.2387698940297769
25.0,-0.007818703473945412,-0.24150457506203482,0.01199069478908189,-0.1200000000000001,-9.79,-0.5498114143920596,-0.07966423697270472,-0.0014248604218362287,0.005786678039702233,40.625,-0.6875,93.18663151364764,0.6440182197518614,0.2609808471712157,-0.6783353700198506,-0.23873821266004958
26.0,-0.00754709000676743,-0.24045208286337327,0.006558030678998424,-0.1200000000000001,-9.789999999999997,-0.545917437401308,0.022618241973080683,-0.02106655105647041,-0.028702228551018873,40.625,-0.6875,93.16360534626662,0.6441875951154228,0.26091393044289024,-0.6781754087196026,-0.23879491993217541
27.0,-0.011808284457478009,-0.2400349744341681,-0.004787982179111212,-0.1200000000000001,-9.79,-0.5348247236634331,0.09950701180539889,-0.04795573210391759,-0.06383932767501316,40.625,-0.6875,93.11423133318294,0.6445147669820288,0.2608012513703285,-0.6778606265359798,-0.23892309168072795
28.0,-0.009213075231220396,-0.23943311997142655,-0.010922527069704492,-0.1200000000000001,-9.79,-0.5269284908639744,0.04205344386796,-0.03719901989811264,-0.03837903108316415,40.625,-0.6875,93.05409147304309,0.6448144039748852,0.2607047790722612,-0.6775986421389577,-0.2390353224532672
29.0,-0.008792641833972482,-0.2380168081246712,-0.011538186611775325,-0.1200000000000001,-9.79,-0.5229803744642452,0.019444836077900592,-0.0326658871202722,-0.004797455988232198,40.625,-0.6875,93.02402154297316,0.6449643739353332,0.2606565429232275,-0.6774676499404467,-0.2390915892787428
30.0,-0.008945212046018499,-0.23825991615910988,-0.015499436047823152,-0.1200000000000001,-9.79,-0.5210063162643805,0.02118915190991804,-0.0168212248101361,0.012706488739754867,40.625,-0.6875,93.00898657793819,0.6450401919676665,0.2606324248487107,-0.6774021538411912,-0.23912055560711332
31.0,-0.009119571960297768,-0.2377898573200994,-0.014521091811414397,-0.1200000000000001,-9.79,-0.5201439205955333,0.04488310328784119,-0.003814167183622829,0.027181878101736973,40.625,-0.6875,93.00220223325061,0.6450721794491312,0.2606225733945412,-0.6773745815980151,-0.23913277164764268
32.0,-0.008255815756823822,-0.23801279466501257,-0.014593052109181147,-0.1200000000000001,-9.79,-0.5199999999999998,0.04486710995657568,0.01187238290942928,0.019189574286600494,40.625,-0.6875,93.0,0.6450805699999997,0.2606201200000003,-0.6773681600000002,-0.23913573999999999
33.0,-0.0070369106699751886,-0.23759475806451627,-0.012672146401985116,-0.1200000000000001,-9.79,-0.5199999999999998,0.02713632133995037,0.008346580334987592,0.006821882754342432,40.625,-0.6875,93.0,0.6450805699999997,0.2606201200000003,-0.6773681600000002,-0.23913573999999999
34.0,-0.006243021091811416,-0.23765842121588107,-0.014569323821339956,-0.1200000000000001,-9.79,-0.5199999999999998,0.019151287220843673,-0.006310580800248139,0.010886127481389578,40.625,-0.6875,93.0,0.6450805699999997,0.2606201200000003,-0.6773681600000002,-0.23913573999999999
35.0,-0.006685018610421839,-0.2378035049627793,-0.01424534739454095,-0.1200000000000001,-9.79,-0.5199999999999998,0.011276752481389579,-0.001123410359801489,-0.014182692307692308,40.625,-0.6875,93.0,0.6450805699999997,0.2606201200000003,-0.6773681600000002,-0.23913573999999999
36.0,-0.006608017990074444,-0.23783227357320114,-0.013264112903225812,-0.1200000000000001,-9.79,-0.5199999999999998,0.012446688895781637,0.0042770044975186106,-0.027562810173697272,40.625,-0.6875,93.0,0.6450805699999997,0.2606201200000003,-0.6773681600000002,-0.23913573999999999
37.0,-0.007468362282878414,-0.2371969602977669,-0.012350496277915637,-0.1200000000000001,-9.79,-0.5199999999999998,-0.012430210918114144,0.019114454094292802,-0.0005079094292803968,40.625,-0.6875,93.0,0.6450805699999997,0.2606201200000003,-0.6773681600000002,-0.23913573999999999
38.0,-0.006816066997518612,-0.2376902915632756,-0.013939516129032263,-0.1200000000000001,-9.79,-0.5199999999999998,-0.004369571960297767,0.010984026054590569,-0.004131125930521092,40.625,-0.6875,93.0,0.6450805699999997,0.2606201200000003,-0.6773681600000002,-0.23913573999999999
39.0,-0.005415477667493797,-0.23759204404466516,-0.011868021091811417,-0.1200000000000001,-9.79,-0.5199999999999998,-0.019996510545905705,-0.009287763647642682,-0.03809999224565756,40.625,-0.6875,93.00151209677419,0.6450781088709676,0.2606206121774196,-0.6773691445161292,-0.23913524782258067
40.0,-0.005414392059553349,-0.23850620347394558,-0.011191066997518612,-0.1200000000000001,-9.79,-0.5249193548387098,-0.09776287220843671,0.003861662531017368,0.019854993796526058,40.625,-0.6875,93.03301411290323,0.6448967266129038,0.2607133927822581,-0.6775197656451609,-0.23904197504032276
41.0,-0.003235732009925558,-0.2364292803970225,-0.01373449131513648,-0.1200000000000001,-9.79,-0.5222214640198515,0.022830722704714645,-0.03147487593052109,-0.018732552729528534,40.625,-0.6875,93.03189167183623,0.6449682931302729,0.2606948634283499,-0.6774333030905708,-0.23906026587748153
42.0,-0.001161290322580645,-0.23609181141439223,-0.01869727047146403,-0.1200000000000001,-9.79,-0.5159494416873454,0.031126899813895784,-0.01980846774193548,-0.013817268920595531,40.625,-0.6875,93.01594583591812,0.6451504393070717,0.26062598719804597,-0.6772432244485116,-0.2391295074548699
43.0,-0.0013684863523573201,-0.23767245657568253,-0.024181141439205966,-0.1200000000000001,-9.79,-0.5113618176178665,0.07447318936104218,-0.011462856699751861,-0.005272468207196028,40.625,-0.6875,92.99738824053969,0.6452961481212778,0.2605767829538617,-0.6770989631919977,-0.2391818479209834
44.0,-0.0010951457816377175,-0.23641501240694798,-0.03241563275434245,-0.1200000000000001,-9.79,-0.5001970378411909,0.07550500155086849,-0.031065349720843672,0.028258762406947892,40.625,-0.6875,92.9341307382134,0.6456609624225338,0.26047242835445084,-0.6767610043782573,-0.2393163215991005
45.0,-0.0020474565756823824,-0.23448557692307703,-0.0330290012406948,-0.1200000000000001,-9.79,-0.4944609181141435,0.01766439205955335,0.0025618408808932985,0.02980575372208437,40.625,-0.6875,92.90154117555832,0.6458489993135852,0.2604173593511164,-0.6765873334441692,-0.23938646552233245
46.0,-0.0016391129032258065,-0.23502938895781653,-0.03626388027295285,-0.1200000000000001,-9.79,-0.4917540322580639,0.05124844913151365,-0.021997615539702232,-0.04075779311414392,40.625,-0.6875,92.88577368951613,0.645937947207661,0.26039185358870937,-0.6765055533870974,-0.23941950850806443
47.0,-0.002100108560794045,-0.2368680986352359,-0.03768695719602978,-0.1200000000000001,-9.79,-0.4905544354838703,0.014107572115384612,-0.003444381978908188,-0.018764054745657566,40.625,-0.6875,92.87837071572581,0.6459778473135076,0.260380963568548,-0.6764692523387101,-0.23943415199596763
48.0,-0.002372208436724566,-0.23638213399503738,-0.039493796526054586,-0.1200000000000001,-9.79,-0.4899999999999993,0.027543424317617863,-0.02599255583126551,-0.01935483870967742,40.625,-0.6875,92.875,0.6459960899999996,0.2603759799999996,-0.6764526400000006,-0.23944091999999986
49.0,-0.0027841191066997513,-0.23576799007444188,-0.040397022332506215,-0.1200000000000001,-9.79,-0.4899999999999993,-0.02772952853598015,-0.013701923076923077,-0.018168424317617865,40.625,-0.6875,92.875,0.6459960899999996,0.2603759799999996,-0.6764526400000006,-0.23944091999999986
50.0,-0.0035657568238213395,-0.23585669975186116,-0.04388585607940447,-0.1200000000000001,-9.79,-0.4899999999999993,-0.0057071960297766745,0.00746355459057072,-0.010604063275434243,40.625,-0.6875,92.875,0.6459960899999996,0.2603759799999996,-0.6764526400000006,-0.23944091999999986
51.0,-0.0023982630272952853,-0.23593579404466516,-0.04537717121588089,-0.1200000000000001,-9.79,-0.4899999999999993,0.09500620347394542,-0.024788694168734488,-0.04720649813895782,40.625,-0.6875,92.8462158808933,0.6460847824863518,0.2603178224218359,-0.6763639475136476,-0.2394699963275432
52.0,-0.003223945409429281,-0.23727558933002496,-0.04811042183622828,-0.1200000000000001,-9.79,-0.4899999999999993,0.04040012406947891,-0.014115811104218362,-0.01570932847394541,40.625,-0.6875,92.82834987593051,0.6461349446302724,0.26028389733995005,-0.6763137853697269,-0.23948695751861016
53.0,-0.004110732009925559,-0.23632017679900763,-0.047613523573200985,-0.1200000000000001,-9.79,-0.4899999999999993,0.03836073200992556,0.0006499108250620361,0.032654020626550866,40.625,-0.6875,92.81941687344911,0.6461600257022326,0.2602669347990072,-0.6762887042977663,-0.23949543811414364
54.0,-0.004625310173697271,-0.23680893300248157,-0.050138957816377165,-0.1200000000000001,-9.79,-0.4899999999999993,0.03929900744416874,-0.00012406947890818837,0.019044665012406946,40.625,-0.6875,92.81495037220843,0.6461725662382127,0.2602584535285357,-0.6762761637617862,-0.2394996784119104
55.0,-0.004276411760282728,-0.23651642980675255,-0.04542702458831491,-0.1200000000000001,-9.789999999999997,-0.49046920821114304,-0.04412173847657719,-0.005903639371381306,0.0183510038348748,40.625,-0.6875,92.83813256635838,0.6460871943556653,0.2603014656010223,-0.6763615356443334,-0.23945645498308116
56.0,-0.00283299496202722,-0.23538476577186268,-0.059678772840063156,-0.1200000000000001,-9.79,-0.4816589217234376,0.1649118354763516,-0.01096980976013234,-0.0008741258741258758,40.625,-0.6875,92.792949657869,0.6463970263689001,0.2602029002049776,-0.6760599431149708,-0.23958008607218587
57.0,-0.005653056620798557,-0.23544687570494038,-0.0755553049101436,-0.1200000000000001,-9.789999999999997,-0.47034558989397723,0.13449695465824496,-0.007393413038574329,0.001758590871494097,40.625,-0.6875,92.73820869990223,0.6468236486683212,0.2600708928444242,-0.6756607055897437,-0.23973002964899626
58.0,-0.00512925783893526,-0.23414527408075814,-0.0804550718099105,-0.1200000000000001,-9.79,-0.464688923979247,0.06517031355741033,0.0015452289645838035,-0.010302466350853448,40.625,-0.6875,92.71083822091887,0.6470369598180317,0.2600048891641475,-0.6754610868271301,-0.23980500143740147
59.0,-0.004944281524926687,-0.2344969546582451,-0.08257989322505449,-0.1200000000000001,-9.79,-0.4613841642228741,0.035469772163320555,-0.0041746559891721186,-0.011680389502970148,40.625,-0.6875,92.69367903601774,0.6471222905293631,0.2599728574877809,-0.6753700001852772,-0.23984103430927162
60.0,-0.005536656891495602,-0.23308669824798872,-0.08825475599669144,-0.1200000000000001,-9.789999999999997,-0.45503225806451597,0.02949563876983232,-0.00680690277464471,-0.011002706970448906,40.625,-0.6875,92.65552109181141,0.6472521484367242,0.25992289548387093,-0.6752183619205953,-0.2398934252704717
61.0,-0.004969321001579067,-0.2333001729453344,-0.09257650951199337,-0.1200000000000001,-9.79,-0.4521389578163768,0.001363824347695314,-0.007094518384840966,0.0067660162418226935,40.625,-0.6875,92.63824441687345,0.6473059745905703,0.2599017235086849,-0.675153388104218,-0.23991505351861064
62.0,-0.005478306639596963,-0.2339057071960299,-0.09230242875404165,-0.1200000000000001,-9.789999999999997,-0.45090818858560744,-0.07278460786525302,0.014109143544627414,0.020413188961576057,40.625,-0.6875,92.63061414392058,0.6473243911662525,0.2598937273995038,-0.6751286706650119,-0.23992311127543448
63.0,-0.0037763741634709376,-0.2346054590570721,-0.08957801338446499,-0.1200000000000001,-9.79,-0.45029280397022287,-0.08795868110384239,0.005395142491916685,0.01647210316565155,40.625,-0.6875,92.62679900744416,0.6473335994540936,0.2598897293449133,-0.6751163119454089,-0.23992714015384636
64.0,-0.003922700954959019,-0.23597699075118445,-0.08715369576659895,-0.1200000000000001,-9.789999999999997,-0.4499999999999995,-0.048486728325438,0.010184036393713812,0.003550078953304759,40.625,-0.6875,92.625,0.6473388699999993,0.2598877000000001,-0.6751098599999994,-0.23992920000000023
65.0,-0.004757049402210692,-0.23624362734040166,-0.09166824573276183,-0.1200000000000001,-9.789999999999997,-0.4489051808406644,0.00673170915106399,0.011109857884051432,0.031253289721031655,40.625,-0.6875,92.61815738025415,0.6474281252101657,0.2598566743108506,-0.6750382658651018,-0.2399673836168134
66.0,-0.005828107376494473,-0.23533258139709762,-0.08995285359801489,-0.1200000000000001,-9.789999999999996,-0.44874877810361646,0.0026209677419354862,0.0007914128881870821,0.01867574629671404,40.625,-0.6875,92.61766862170089,0.6474016339100681,0.2598492755620725,-0.6750750199608988,-0.2399716784750734
67.0,-0.009776223776223779,-0.23431340702308456,-0.092368899917287,-0.10576735092864126,-9.789999999999996,-0.4446041055718476,0.10277370478983382,-0.004552973907812617,-0.05864538687119332,40.713465298142715,-0.6005009775171065,92.59200879765396,0.6474886226295203,0.25933390557184754,-0.6750194140566952,-0.24047069863147613
68.0,-0.014328577056068638,-0.2347685327030538,-0.09655191783020381,-0.09739980449657865,-9.789999999999996,-0.44214076246334344,0.03181535504296698,-0.0007855699508323485,-0.04587856173677069,40.766006842619745,-0.5472262952101662,92.57624633431084,0.6475397540566951,0.2590122634310852,-0.6749701338025407,-0.2407669841544478
69.0,-0.017655490874075377,-0.23523861630265114,-0.10063421893465227,-0.09321603128054734,-9.789999999999996,-0.4409090909090913,0.026797829036635003,-0.00013313199398899927,-0.015455165521366773,40.79227761485826,-0.5205889540566959,92.56836510263929,0.647566274374388,0.258851442360704,-0.6749450163343098,-0.2409156042570871
70.0,-0.018747100275747372,-0.2344717030682367,-0.10601114661297616,-0.09112414467253169,-9.789999999999996,-0.43250733137829966,0.0847576632964211,0.0026827008651755884,0.02752412789425307,40.80541300097751,-0.507270283479961,92.51722873900293,0.6478072814565001,0.2587066089247313,-0.6747327944672529,-0.2410837046871945
71.0,-0.021253653905074235,-0.23335604854141218,-0.1118463884053677,-0.09007820136852387,-9.79,-0.4257917888563056,0.07020094233322446,0.0009978095648533782,0.018121649254292486,40.811980694037146,-0.5006109481915934,92.47446236559139,0.6480135360654936,0.2586048227077225,-0.6745432741006843,-0.24119876409090896
72.0,-0.02050080748973384,-0.23254867103687538,-0.11556096575547706,-0.08999999999999991,-9.789999999999997,-0.42256109481916,0.035370154640737214,-0.0012894864724426593,0.0126129868366267,40.8125,-0.5,92.45387341153472,0.6481135310459435,0.25856991930596296,-0.6744508258846532,-0.24124076652003892
73.0,-0.0221537170901639,-0.23134648211682413,-0.11872385983459649,-0.08999999999999991,-9.789999999999996,-0.42095796676441904,0.01101571153930326,0.0012651537597372937,0.013171909738472086,40.8125,-0.5,92.44367057673509,0.6481632898778107,0.25855446626588474,-0.6744052729423269,-0.24126030600195483
74.0,-0.021851540852022327,-0.23011116872214626,-0.11664687615385738,-0.08999999999999991,-9.789999999999996,-0.419296187683285,0.019834590862515752,0.018701369646242055,0.007334366403937901,40.8125,-0.5,92.43368157380255,0.648221550840665,0.25853385286412534,-0.6743505325024441,-0.24128294825513175
75.0,-0.023125183915747242,-0.2309329059642013,-0.12715041754906947,-0.08999999999999991,-9.789999999999996,-0.41440860215053793,0.005701752909263742,-0.022999021921747007,0.0035144461540706122,40.8125,-0.5,92.4027981427175,0.6484305818181826,0.2584439733333333,-0.6741409395894431,-0.24137292210166156
76.0,-0.021895653696327757,-0.23112253979370032,-0.12786419807122748,-0.08999999999999991,-9.789999999999996,-0.41204301075268834,-0.033645919960315726,-0.005224974832581958,0.0035434995112414466,40.8125,-0.5,92.38789100684262,0.6485324870381242,0.2583999434408601,-0.6740386788269797,-0.24141695443792743
77.0,-0.024004902175340317,-0.23100159028902426,-0.1331839337039145,-0.08999999999999991,-9.789999999999996,-0.4074193548387096,-0.007641867641265813,-0.0005972702470054421,-0.021733798018704134,40.8125,-0.5,92.36479716520039,0.6486822405865105,0.258347858347996,-0.6738906539002927,-0.24146951785923726
78.0,-0.022960417852088542,-0.23135612261274296,-0.1360347821012241,-0.08999999999999991,-9.789999999999996,-0.40338709677419327,0.012537204009279115,-0.021865106286748075,-0.021818145343662915,40.8125,-0.5,92.33663245356793,0.6488473280351905,0.25828888207722367,-0.6737245192082103,-0.24152825618768303
79.0,-0.020048146364949455,-0.23131833501116128,-0.13334974686683884,-0.08999999999999991,-9.789999999999996,-0.4017106549364611,-0.03475656906085409,-0.01785154141316876,-0.015827205614157947,40.8125,-0.5,92.3266129032258,0.6489087807331377,0.2582693425415442,-0.6736639300684255,-0.24154863102639273
80.0,-0.020648954640288306,-0.2318623889350901,-0.1261725098845946,-0.09053923928743371,-9.789999999999996,-0.4140979851475756,-0.14875676602325616,0.0175998672327512,0.031054405392392875,40.808648290804044,-0.5048146364949446,92.4032859894078,0.6484195804508249,0.2584810825899826,-0.6741512344323832,-0.24133306036635
81.0,-0.02187646809938578,-0.23317736829051236,-0.11192745947680949,-0.09543090996629744,-9.789999999999996,-0.42237157321894897,-0.0634898272566785,0.01446944164806466,0.0438150158299412,40.77831608088589,-0.5346653827636013,92.45756919216234,0.6481382487346987,0.2587708340515894,-0.6744325585456148,-0.24101604695736845
82.0,-0.01676011438409128,-0.23149698720473882,-0.09680198713178971,-0.0978767453057293,-9.789999999999996,-0.433394902321238,-0.07440391517485885,0.012469726149312091,0.036603091580222055,40.763149975926815,-0.5495907558979296,92.52943584861615,0.6478299907547309,0.2589565725243286,-0.6747416934286046,-0.24077900552603534
83.0,-0.018983523618092715,-0.2345330262739989,-0.08722191995133736,-0.09909966297544524,-9.79,-0.44830042882811305,-0.10519978637154853,0.010380851494838014,0.03451846059573551,40.72926419391874,-0.5570534424650938,92.61600514515175,0.6473131040572662,0.25911866960955865,-0.6753041820641779,-0.2404399592518514
84.0,-0.019301145973269235,-0.2367044408007336,-0.07928300298642135,-0.0997111218103032,-9.789999999999997,-0.4551081811784752,-0.030315557897406722,-0.017582668094223222,0.018389484452315457,40.70636596792711,-0.5607847857486759,92.65767877003432,0.6470480181723279,0.2591829424636257,-0.6756089891723622,-0.24025277150031468
85.0,-0.017282866066688895,-0.23753657720870047,-0.07485888962586121,-0.09999999999999988,-9.789999999999996,-0.45974518788866425,0.0050787400691107935,-0.03451544443359561,0.018239966982143196,40.69503722084367,-0.5625,92.68625365166048,0.646901468976157,0.2592220777417849,-0.6757664025378447,-0.24015183426418543
86.0,-0.015777307911154812,-0.23807669525146663,-0.07095095018927469,-0.09999999999999988,-9.789999999999996,-0.4655177552346545,0.0007676202789346736,-0.050676588296954206,0.0175205211254802,40.69026054590571,-0.5625,92.72203689425643,0.6467019012231718,0.25928506162749043,-0.6759489390499585,-0.24005921874499597
87.0,-0.01449718023911573,-0.23701240694789094,-0.06767817129107451,-0.09999999999999988,-9.789999999999996,-0.468192194901872,0.004640386495225204,-0.01132979923302504,-0.005361305361305361,40.68787220843672,-0.5625,92.73854613128806,0.6466072581151974,0.25931530597503527,-0.6760350371537707,-0.24001533536431313
88.0,-0.013993303278329766,-0.2358521906596054,-0.0671445558133088,-0.09999999999999988,-9.789999999999996,-0.4692375366568911,0.01742889292540231,-0.010106633256007353,0.012229906187537387,40.6875,-0.5625,92.74523460410558,0.6465711846432072,0.25932829694037096,-0.6760654286314759,-0.24000025340175954
89.0,-0.015283552909937123,-0.235054638829314,-0.06883376373265636,-0.09999999999999988,-9.789999999999996,-0.4682942326490712,0.04618084431216352,-0.017043174888023226,0.012927025430034579,40.6875,-0.5625,92.73885019550342,0.6466474036852398,0.25930666843597244,-0.6759958609579668,-0.24002954919354846
90.0,-0.01347821012240849,-0.23416714083541257,-0.07708853095227673,-0.09999999999999988,-9.789999999999996,-0.4640957966764421,0.09432447367269226,-0.017853365139113814,0.005661301264936316,40.6875,-0.5625,92.71285434995113,0.646907443665689,0.2592295521603129,-0.6757609069501469,-0.24013438108504417
91.0,-0.013464422754263877,-0.23452736318407974,-0.07967574152696924,-0.09999999999999988,-9.789999999999996,-0.45868035190615875,0.02619144015990429,-0.016196966049517807,0.01818072394625115,40.6875,-0.5625,92.67913000977518,0.647112087673509,0.2591574793548388,-0.6755718936950147,-0.24020931965786924
92.0,-0.01568666929283203,-0.23509811645584405,-0.08500999401817888,-0.09999999999999988,-9.789999999999996,-0.457484133584278,-0.05440083307801169,-0.006134102216191768,0.026850717089041597,40.6875,-0.5625,92.67171474008258,0.6471945475849492,0.2591078164371689,-0.6754854597386964,-0.240231898931005
93.0,-0.013956172218088446,-0.23669489794429624,-0.0813850104317124,-0.09999999999999988,-9.789999999999996,-0.4637420667921388,-0.07746002392728439,0.007332290162092761,0.03396051268583768,40.6875,-0.5625,92.71085737004128,0.6469959865344104,0.25916009434761655,-0.6756599371274123,-0.24014256898163167
94.0,-0.014060197545994375,-0.2373430501451687,-0.07912359025984447,-0.09999999999999988,-9.789999999999996,-0.4669174654586302,-0.052140324769116286,0.0084620883850542,0.012367597496389025,40.6875,-0.5625,92.73073415911642,0.6468937676147128,0.25918712826862733,-0.6757498010123861,-0.24009677037058136
95.0,-0.014004099735924489,-0.2353109087991131,-0.07601581535139551,-0.09999999999999988,-9.789999999999996,-0.46862002305189554,-0.01338660436818838,0.008398713908463546,0.012939335580163698,40.6875,-0.5625,92.74137514407434,0.6468357521944534,0.2592027036504425,-0.6758009677642571,-0.240071066798194
96.0,-0.013431668636290691,-0.23413883660874524,-0.07711836710873785,-0.09999999999999988,-9.789999999999996,-0.468945886403758,-0.013856669730526253,-0.00824871244948279,-0.011125640127806712,40.6875,-0.5625,92.74341179002349,0.6468169468694656,0.2592086266174988,-0.6758172283053931,-0.2400642408746592
97.0,-0.013702090719423417,-0.23573160590011832,-0.0751206577085248,-0.09999999999999988,-9.789999999999996,-0.4690615835777122,-0.03805751302140324,-0.002244550706876176,-0.016368396288352956,40.6875,-0.5625,92.71578690127077,0.6468358506842621,0.259212491270772,-0.6758260609872915,-0.24008849713587493
98.0,-0.013065610364599297,-0.2349234764593457,-0.07713266512014706,-0.09999999999999988,-9.789999999999996,-0.46953079178885593,-0.0013418063640740566,-0.00828564289987015,-0.03034634379422535,40.6875,-0.5625,92.70063538611925,0.6468442048582599,0.25921440063538587,-0.6758341754936453,-0.2401013829227761
99.0,-0.011067356652334989,-0.2358284575318761,-0.07901711833343994,-0.0999999999999999,-9.79,-0.4697653958944278,0.018073222316120727,-0.0003100614679815445,0.0008451847462439682,40.6875,-0.5625,92.6930596285435,0.6468483819452588,0.2592153553176928,-0.6758382327468222,-0.2401078258162267
100.0,-0.010471088051733217,-0.23434709376644874,-0.07734904880066171,-0.09999999999999988,-9.789999999999997,-0.4681622678396871,0.03985074065719227,-0.00711801639220994,-0.003698116399729302,40.6875,-0.5625,92.68927174975562,0.6468853134213095,0.25920724051808397,-0.6758039848533716,-0.2401196394037145
101.0,-0.010189111963305514,-0.23564373261147464,-0.06712760357921647,-0.09999999999999988,-9.789999999999996,-0.4706647116324536,-0.023329761636213246,-0.004628167531393338,-0.04383647266711783,40.6875,-0.5625,92.72855571847506,0.6467067407917888,0.2592791630596285,-0.6759709800733134,-0.24004228783968729
102.0,-0.017115718497519174,-0.2354007606901204,-0.039617331793547476,-0.09976889744824255,-9.789999999999996,-0.47505099137742374,0.022594722922720037,-0.10155669038071541,-0.07600288092584674,40.65909364467983,-0.5649073182474722,92.76724788812535,0.6465832700262617,0.2591391986155732,-0.6762219807024992,-0.23980122542098903
103.0,0.014366546095000593,-0.24195095056337235,-0.012511500696382735,-0.11400631252340446,-9.78906810035842,-0.486288936548927,-0.39243247724831737,-0.7674103914595007,-0.23087778454894486,39.493189295458194,-0.6546534799122665,92.83982914119528,0.6485112300848154,0.25329431473789404,-0.678868626964153,-0.23302019618719705
104.0,-0.023706288120452366,-0.24145180010577938,0.006430098932885481,-0.07306590482555554,-9.785009083321047,-0.5696336419377422,-0.5896314209892969,0.9064933154365027,-0.17161347332753338,40.783672089178495,-0.422982396164706,93.32707597139306,0.6429374809659607,0.25914098264733854,-0.6797707543548119,-0.2391684033918752
105.0,-0.023734864490333712,-0.24256118842043614,0.02120869560525017,-0.057142271409193535,-9.782343251337934,-0.6213042761660033,-0.332083550181843,0.5314174788326209,-0.12376698430143368,41.43943909118423,-0.32473044539418094,93.625567555589,0.6398128069280766,0.2625115647922258,-0.6804056942415961,-0.24218431107684343
106.0,-0.013679576457690575,-0.2416355191714049,0.02542293212785078,-0.05223337479378082,-9.781010335346378,-0.6457171142200837,-0.2619309922147211,0.41139023415496834,-0.10230041038428593,41.81726461200577,-0.30556968190012657,93.76246141277812,0.6381917327891202,0.26478429732236786,-0.6804370956352596,-0.24399461813861728
107.0,-0.007227366466688331,-0.241819203976651,0.021565582578128576,-0.050317457738729574,-9.780343877350601,-0.6546207140671914,-0.24659200068126522,0.15438914692823041,-0.08315249214447806,41.99857573402407,-0.3049273541903136,93.80907134192107,0.6375339530724604,0.26581262105646564,-0.680363198621674,-0.24487328773083988
108.0,-0.006229515877402614,-0.24070026920641213,0.020202559692703664,-0.04891096901273394,-9.780039770216511,-0.6547834753131652,-0.08538502019174925,0.1973627565355241,-0.09756259842955914,42.13425865898888,-0.30183923713099914,93.82541660734046,0.6371622725919925,0.26654399225548675,-0.6801925885136906,-0.24559078582733745
109.0,-0.00583144249144419,-0.24159033408556202,0.018298552745790002,-0.049857037438631346,-9.779999999999983,-0.6514036687215403,-0.035946171480888196,-0.10431401343730706,-0.08114273473021419,42.13345247828555,-0.2992597643896268,93.80981943933085,0.6372826497403496,0.2665625646780874,-0.6800512442101312,-0.2456571630721183
110.0,0.004391498416336275,-0.24243725613648304,0.013122778677042469,-0.05269490376795878,-9.779999999999983,-0.6452739669772578,0.03293057209365728,0.181812367321285,-0.10850571516336618,42.15668359641364,-0.3144712320412036,93.77772557988047,0.6374595671947395,0.26681619945623525,-0.6796985427545791,-0.24589287433169404
111.0,-0.008364366843862773,-0.24240596134657388,0.01061540715883309,-0.055777332531890746,-9.779999999999983,-0.6394079113548667,0.027919451338471245,0.022306448009018598,-0.07585620439025224,42.195637151656754,-0.3226499365524611,93.74005167012064,0.6375585976694691,0.26713640561356433,-0.6793730705012273,-0.2461812498884978
112.0,0.0004047696109407183,-0.24379213867011904,0.0051876865537454605,-0.055057904227609686,-9.779999999999983,-0.6366498363721367,0.0002428088508032375,0.03108621159112042,-0.1041960785824741,42.24997482648254,-0.31757496827623055,93.7214118747078,0.6375924144333543,0.267395475303834,-0.6791075072090891,-0.2465437807004609
113.0,0.0004965422609181369,-0.2444009945174041,0.0007295677674359312,-0.05252895211380481,-9.779999999999983,-0.6330023375409073,0.032566043120040314,0.03985837386082827,-0.08828262083872182,42.28387388966807,-0.3150374841381153,93.70243980832164,0.637713203713181,0.2674384845204033,-0.6788983915581499,-0.2467581157187544
114.0,-0.0005749379185564327,-0.24317794454260103,-0.0006845109075123095,-0.0512598677619715,-9.779999999999983,-0.6312108461898087,0.016944591173202673,0.025501470829310938,-0.04160936655677189,42.30113913377413,-0.31407116142389635,93.69325619448341,0.6377718453496783,0.26746227283163015,-0.6787850192352962,-0.24687321815891636
115.0,-0.0005040588210293682,-0.24278719877597868,-0.002281439925198691,-0.05054698457222996,-9.779999999999983,-0.6304441327723238,0.036242509243911765,0.017093267882187936,-0.03477357728760253,42.309022907900896,-0.3130551659654044,93.68937003272558,0.6377978472094017,0.26746609459093024,-0.6787369680300905,-0.24692449711632453
116.0,-0.0005553343337354559,-0.2414356031999792,-0.0025514438810371486,-0.05013557737260396,-9.779999999999985,-0.6301496026180461,0.02629500583567905,-0.0018587945481353622,-0.0261001971380653,42.31206171107995,-0.3125,93.68811360448808,0.6378105811339204,0.2674613860822813,-0.678717876231034,-0.2469445151149645
117.0,-0.0007330626362884429,-0.24071418903676978,-0.0014367997593804044,-0.04999999999999994,-9.779999999999985,-0.6300000000000003,-0.01857000526355365,-0.011274343935634258,-0.0011711406872697196,42.3125,-0.3125,93.6875,0.6378172905131971,0.2674560499999999,-0.6787116260654937,-0.2469477329081134
118.0,-0.0010090984284532674,-0.24154936461388085,-0.0011459508233701782,-0.04999999999999995,-9.779999999999985,-0.6300000000000003,0.008038668320926385,-0.007485055267313332,0.009538781111361756,42.3125,-0.3125,93.6875,0.6378173800000007,0.2674560499999999,-0.67871094,-0.24694824
119.0,-0.0010310549665388377,-0.24177517106549373,0.0006425295134972548,-0.04999999999999995,-9.779999999999985,-0.6300000000000003,-0.018328445747800584,-0.017653582976163623,0.009190070682006165,42.3125,-0.3125,93.6875,0.6378173800000007,0.2674560499999999,-0.67871094,-0.24694824
120.0,0.0010251561951128629,-0.25710269765541793,0.013935488360139298,-0.053928743379874786,-9.782156957149724,-0.5922532498796342,0.8112963408762638,0.07747009650596555,0.1148727796838052,42.27013119884449,-0.331277082330284,93.46024915743861,0.6391851327973042,0.26696471449687037,-0.6775053992392874,-0.24724351364467984
121.0,-0.01124403602888959,-0.23677240219505946,-0.011238805290450753,-0.061487315806248145,-9.786239768897438,-0.5079735127180998,0.05736089717073595,2.150435804902058,0.2853548622146003,43.38672677616009,-0.3682311127235246,92.96869511483925,0.6394995608784342,0.2729055940249004,-0.6719346604874311,-0.2546301837737257
122.0,0.01786102273328884,-0.23350527741081734,-0.0015844664516502108,-0.0988722482698938,-9.78531166527063,-0.5221109278128722,-0.2217476336064128,0.40252293465553124,0.16667597822228564,43.94727136421791,-0.5785449642274273,93.05368306338517,0.6377630379690447,0.2789181032143945,-0.6700421114589166,-0.2575418646133321
123.0,0.00656822848823251,-0.23734817220416804,-0.0006185359553536413,-0.10453041693891718,-9.782655832635307,-0.545643553236461,-0.0960630227585414,0.1437242464840931,0.11382806355283016,44.42765243148861,-0.6068128046943588,93.20930120911194,0.6358409632872521,0.28228873727220977,-0.6696289268014187,-0.25980553778557436
124.0,0.0024950323582601753,-0.24017408610208407,-0.0034916501116718577,-0.10823295040494252,-9.781327916317647,-0.5568540346827467,-0.05791829797976697,0.06574394706338653,0.045181711677159495,44.660398796389465,-0.6209467249278247,93.28711028197532,0.634907550998465,0.2839134723457824,-0.6694446275942578,-0.2608743701831099
125.0,0.0011993698141806414,-0.24103071180405122,-0.008217900164165251,-0.1099614439073341,-9.780596553247886,-0.5679937000568278,-0.09444572819065383,0.04730083727748044,0.008071717658512344,44.778096003876,-0.627426901221736,93.33311640723707,0.6343016279017357,0.28478943153639624,-0.6694890871071915,-0.2613513216611266
126.0,-0.0070778413510276484,-0.2402761598146857,-0.015531164583512462,-0.10822202938077229,-9.780136986301354,-0.5764139331724389,-0.018320560329658904,0.45245366983472063,-0.02062956731394077,44.97026943871808,-0.6174716019859114,93.37457110550805,0.6335706884159504,0.2859596284741873,-0.6693128346893094,-0.2623188874385223
127.0,-0.004349494408703817,-0.2383646778060509,-0.01875334124335265,-0.10356969785432775,-9.779999999999985,-0.5749366412355095,0.06032444655508402,-0.1711338126842252,-0.12229238735302832,45.08517631155273,-0.6087222804384151,93.37832068311195,0.6333429114558171,0.2865130948952478,-0.6690331462885339,-0.2630103693783715
128.0,-0.0042442261125404945,-0.23828903865488654,-0.021848134641527447,-0.10165085388994297,-9.779999999999985,-0.5724509508907076,0.011319171168360866,-0.10610040510141781,-0.06260401005368538,45.07763778356792,-0.6168611402192076,93.37666034155598,0.6334044196559485,0.2864657713582939,-0.6690115849656064,-0.2629965672599053
129.0,-0.0038438097063943164,-0.2394142541289322,-0.022815855472128495,-0.10066413662239079,-9.779999999999985,-0.571225475445354,-0.005920313221650831,-0.04788266028954266,-0.0398727343227484,45.07410114984848,-0.6209305701096037,93.37583017077799,0.6334343104731359,0.2864440027759211,-0.6690001076440931,-0.2629916350815654
130.0,-0.0038276120492269352,-0.2399793820272453,-0.026464573207528274,-0.10017077798861468,-9.779999999999985,-0.5704766490129997,-0.01660416444271127,-0.03043219940655793,-0.007679175008768739,45.07233283298876,-0.622965285054802,93.375415085389,0.6334522707153989,0.28643161106537984,-0.6689912772343445,-0.26299067641175033
131.0,-0.0037423058405244257,-0.24262782859894083,-0.031653864671678834,-0.09999999999999988,-9.779999999999985,-0.5698459316321616,0.009430206288655974,0.0882434909818155,0.01933770971445502,45.14753851709196,-0.6055909966297544,93.35381559942225,0.6333513282763605,0.28680648944150217,-0.6687289727684155,-0.2634700189070773
132.0,-0.004409688530054443,-0.24097707492315107,-0.030336135698677838,-0.0999999999999999,-9.779999999999985,-0.5698844487241214,0.020655253509129293,0.05372254731306248,-0.009188085626458278,45.23221593644679,-0.5833533943187289,93.33214973519499,0.6331700456860865,0.28727499652864685,-0.6684623505777559,-0.26401334311506985
133.0,-0.005552238805970151,-0.23948357468241926,-0.03145342765082776,-0.0999999999999999,-9.779999999999985,-0.5699422243620608,0.013879115588311544,0.03252194363171734,-0.0030897003814673524,45.276390226287916,-0.5719186326432354,93.32131680308136,0.6330749523591728,0.2875190210062587,-0.6683248225469423,-0.26429545204140603
134.0,-0.005614979467651592,-0.2387934453606097,-0.030288485387185454,-0.09999999999999988,-9.779999999999985,-0.5699711121810305,-0.012727334453381638,0.013173333647575343,0.0011780989031831596,45.29847737120848,-0.5662012518054886,93.31590033702454,0.6330274056957159,0.2876410332450646,-0.6682560585315356,-0.26443650650457406
135.0,-0.005093977439668341,-0.23852658206822883,-0.03226312381247385,-0.09999999999999988,-9.779999999999985,-0.5699855560905154,-0.02300495604539899,0.011660356574896776,0.0007055995681416963,45.30952094366876,-0.5633425613866152,93.31319210399614,0.6330036323639875,0.2877020393644676,-0.668221676523832,-0.26450703373615814
136.0,-0.005658169787202047,-0.23799037521618183,-0.033886608015640286,-0.0999999999999999,-9.779999999999985,-0.5700000000000002,-0.017036995262801714,-0.006819121738476578,0.0026233175426723814,45.3125,-0.5625,93.3125,0.6329956100000009,0.2877197299999995,-0.6682128899999997,-0.26452637000000023
137.0,-0.008614783066395973,-0.23673975486878723,-0.03086833596511017,-0.09999999999999988,-9.779999999999985,-0.568670576735093,-0.015430671479058576,-0.01747499812015941,0.0034758252500187983,45.3125,-0.5625,93.30565738025415,0.6330662492179867,0.28768488526881714,-0.6681689782893447,-0.2645473706647118
138.0,-0.011981144357167472,-0.23924951152201995,-0.028856263460500346,-0.09999999999999988,-9.781078478574853,-0.5705678353102522,-0.07906500797389099,0.18802604673452047,-0.009863741017448286,45.503159605199805,-0.5625,93.32978162705533,0.6325917796041789,0.2886276191413899,-0.6678524052664827,-0.2654809891190675
139.0,-0.013284767230843302,-0.23949527234120405,-0.03214499014065698,-0.0999999999999999,-9.78053923928742,-0.5811623295657962,-0.08357129449751019,0.06730565815183051,-0.006000794863938821,45.6336362542128,-0.5625,93.39012344380062,0.6319601003604022,0.28937995649625325,-0.6679473526257971,-0.2659753952915437
140.0,-0.014888761695694773,-0.23754052655737784,-0.03208499124050401,-0.09999999999999988,-9.780269619643702,-0.5802802500019637,0.018931888605696987,0.009908373202788222,0.0017989653581853868,45.69454140587386,-0.5625,93.38260685911744,0.6318431115307065,0.2896914378557338,-0.6677975439802072,-0.26630502388794813
141.0,-0.013053825166969128,-0.23974590054464878,-0.03658366412916244,-0.09999999999999988,-9.780134809821844,-0.5803014153235619,0.023306270643174837,0.023806167953375465,0.022800565467272254,45.6970690900337,-0.5625,93.37981149407486,0.6318465936099278,0.2897766497343185,-0.6677264704798396,-0.26642375887945785
142.0,-0.012891533759131261,-0.23940458097511552,-0.038256232934133744,-0.09999999999999988,-9.780067404910914,-0.5803535424613895,-0.002592216000978637,0.0041611393741870385,0.021946661908144816,45.69833293211362,-0.5625,93.37862764342061,0.6318518543294017,0.2898203445714602,-0.6676875324808779,-0.2664824701044405
143.0,-0.012302334481438965,-0.2392848031442159,-0.039650358628692754,-0.09999999999999988,-9.779999999999985,-0.5802995444613154,-0.007866992580521707,-0.010426998775578457,0.025997185289433726,45.693006740491086,-0.5625,93.37717491944744,0.6318704156023511,0.2898121871075885,-0.6676772702678824,-0.2664829782756193
144.0,-0.011707299280722493,-0.23941276024569247,-0.038963685968982066,-0.09999999999999988,-9.779999999999985,-0.5799711121810294,0.011636283392422054,-0.011218650151004508,0.03209119359215652,45.689245305729415,-0.5625,93.37493981704381,0.6318920226274782,0.28979932805007214,-0.6676642256029239,-0.26648236995666813
145.0,-0.013335594753505202,-0.24235683751331324,-0.042190076012897385,-0.09999999999999995,-9.779999999999992,-0.5799999999999995,0.06845355334763134,0.05964404517004421,0.04815320392174027,45.6875,-0.5625,93.375,0.6318966120527858,0.28979491999999996,-0.6676638683431085,-0.26647948999999993
146.0,-0.014389334672022615,-0.24293974498802895,-0.04244969717216776,-0.09999999999999998,-9.779999999999996,-0.5799999999999997,0.09370694704108282,0.08914945590439091,0.05169738267784901,45.65985023041475,-0.5625,93.375,0.6319599738709676,0.2896464105069124,-0.667726574608295,-0.266321979953917
147.0,-0.015047978135535739,-0.24248738204959402,-0.0413900692241706,-0.09999999999999998,-9.779999999999998,-0.5799999999999998,0.10260438486244938,0.1001300446864963,0.04987581542881082,45.61837557603687,-0.5625,93.375,0.6320544796774193,0.2894236462672811,-0.6678210815207374,-0.2660857148847926
148.0,-0.015549304765894627,-0.2414665748997546,-0.0396319348853911,-0.1,-9.779999999999998,-0.5799999999999998,0.10226836335707304,0.10095482474514733,0.04488785983601652,45.569988479262676,-0.5625,93.375,0.632164736451613,0.2891637546543778,-0.6679313395852535,-0.26581007230414744
149.0,-0.01596774193548387,-0.2401612903225806,-0.037580645161290324,-0.09999999999999999,-9.779999999999998,-0.58,0.0967741935483871,0.0967741935483871,0.03830645161290322,45.51814516129032,-0.5625,93.375,0.6322828687096774,0.2888852993548387,-0.6680494732258064,-0.26551474096774197
150.0,-0.016273864384463464,-0.23863067807768268,-0.03523370638578011,-0.09999999999999999,-9.779999999999998,-0.58,0.08784562211981567,0.08784562211981567,0.03065339038841343,45.46457373271889,-0.5625,93.375,0.6324049387096774,0.2885975622119816,-0.6681715446543779,-0.26520956525345624
151.0,-0.016579986833443056,-0.2371000658327847,-0.032886767610269915,-0.09999999999999999,-9.779999999999998,-0.58,0.07891705069124424,0.07891705069124424,0.02300032916392363,45.41100230414746,-0.5625,93.375,0.6325270087096775,0.2883098250691244,-0.6682936160829493,-0.2649043895391705
152.0,-0.016886109282422644,-0.23556945358788672,-0.03053982883475971,-0.09999999999999998,-9.779999999999998,-0.58,0.0699884792626728,0.0699884792626728,0.015347267939433838,45.35743087557603,-0.5625,93.375,0.6326490787096775,0.28802208792626727,-0.6684156875115208,-0.2645992138248848
153.0,-0.014895984200131666,-0.23674588545095454,-0.033754443712969054,-0.09999999999999998,-9.779999999999998,-0.58,0.05276497695852535,0.0076036866359447015,0.01671329822251481,45.331509216589865,-0.5625,93.375,0.6327081448387096,0.28788286027649773,-0.6684747543317973,-0.26445154815668204
154.0,-0.009250822909809085,-0.23529427254772875,-0.03488347597103357,-0.09999999999999998,-9.779999999999998,-0.58,-0.01054147465437788,0.012039170506912441,0.017519749835418034,45.31941244239631,-0.5625,93.375,0.6327357090322581,0.2878178873732719,-0.6685023188479262,-0.2643826375115207
155.0,-0.008112454365910588,-0.23862834400622415,-0.04083481955832186,-0.09999999999999998,-9.779999999999998,-0.58,-0.015364474235441978,0.0017909509844993713,0.014234095397689868,45.314228110599075,-0.5625,93.375,0.6327475222580645,0.287790041843318,-0.6685141322119816,-0.2643531043778802
156.0,-0.005333054042731462,-0.24093003770423127,-0.04366066191872643,-0.09999999999999998,-9.779999999999998,-0.58,-0.00560850439882698,-0.009934017595307917,-0.00605362379555928,45.3125,-0.5625,93.375,0.6327514599999999,0.28778076,-0.66851807,-0.26434325999999997
157.0,-0.0070351906158357775,-0.239524926686217,-0.04717595307917888,-0.09999999999999998,-9.779999999999998,-0.58,-0.01026392961876833,-0.012426686217008797,0.006506598240469207,45.3125,-0.5625,93.375,0.6327514599999999,0.28778076,-0.66851807,-0.26434325999999997
158.0,-0.010533724340175951,-0.242891495601173,-0.04673313782991202,-0.09999999999999998,-9.779999999999998,-0.58,-0.037994868035190615,0.004270527859237535,-0.0002749266862170094,45.3125,-0.5625,93.375,0.6327514599999999,0.28778076,-0.66851807,-0.26434325999999997
159.0,-0.008017595307917888,-0.24295014662756598,-0.05,-0.09999999999999998,-9.779999999999998,-0.58,0.002639296187683285,0.04288856304985337,-0.02976539589442815,45.3125,-0.5625,93.375,0.6327514599999999,0.28778076,-0.66851807,-0.26434325999999997
160.0,-0.00956891495601173,-0.24247800586510262,-0.04541348973607038,-0.09999999999999998,-9.779999999999998,-0.58,-0.02743768328445748,0.060245601173020524,-0.018291788856304985,45.3125,-0.5625,93.375,0.6327514599999999,0.28778076,-0.66851807,-0.26434325999999997
161.0,-0.012478005865102636,-0.24222287390029323,-0.044674486803519056,-0.09999999999999998,-9.779999999999998,-0.58,-0.01059384164222874,0.036876832844574776,-0.015194281524926686,45.3125,-0.5625,93.375,0.6327514599999999,0.28778076,-0.66851807,-0.26434325999999997
162.0,-0.01693255131964809,-0.23907917888563052,-0.04888563049853372,-0.09999999999999998,-9.779999999999998,-0.58,-0.03090175953079179,0.031543255131964806,0.0050036656891495595,45.3125,-0.5625,93.375,0.6327514599999999,0.28778076,-0.66851807,-0.26434325999999997
163.0,-0.012932551319648093,-0.23803519061583578,-0.061237536656891495,-0.09999999999999998,-9.779999999999998,-0.5767155425219941,0.09992668621700879,0.04772727272727273,-0.02965542521994135,45.368218475073306,-0.5625,93.36033724340177,0.6327342785337242,0.2880499592961877,-0.6682918271847508,-0.26466114387096773
164.0,-0.011023460410557184,-0.23690909090909093,-0.061252199413489736,-0.09999999999999998,-9.779999999999998,-0.5731964809384165,0.07835410557184751,0.07096774193548387,-0.03649193548387097,45.437133431085044,-0.594758064516129,93.33541055718474,0.6327176692668621,0.28840679139002934,-0.668017471431085,-0.26502513509677417
165.0,-0.008618768328445747,-0.23466862170087976,-0.05905571847507332,-0.09999999999999998,-9.779999999999998,-0.5714369501466275,0.03715175953079179,0.037206744868035185,-0.024010263929618768,45.47159090909091,-0.6108870967741935,93.32294721407624,0.632734564633431,0.2885978066627566,-0.6678267384574781,-0.2652512323870968
166.0,-0.009744868035190618,-0.23575366568914957,-0.05772140762463343,-0.09999999999999998,-9.779999999999998,-0.569524926686217,0.008797653958944282,-0.0009530791788856276,0.014002932551319649,45.469464809384164,-0.6189516129032258,93.31348973607038,0.6328186190263929,0.2885767579120235,-0.6677534235835778,-0.2652634753548387
167.0,-0.011243401759530793,-0.23639296187683284,-0.057941348973607046,-0.09999999999999998,-9.779999999999998,-0.5696011730205278,0.06649560117302053,0.005571847507331379,0.0065982404692082105,45.42324046920821,-0.622983870967742,93.31198680351906,0.63297405628739,0.28833627121407623,-0.6678207222756598,-0.2650238838064516
168.0,-0.011668621700879764,-0.23514369501466276,-0.052055718475073315,-0.09999999999999998,-9.779999999999998,-0.5687096774193547,-0.03806818181818183,-0.0014479472140762457,0.036565249266862165,45.39838709677419,-0.625,93.3116935483871,0.632957806032258,0.2882233640322581,-0.6679275986129031,-0.26484690099999997
169.0,0.0008797653958944269,-0.23716715542521993,-0.052727272727272734,-0.09999999999999998,-9.780469208211143,-0.5674780058651026,-0.0052785923753665715,-0.005168621700879766,0.02778592375366569,45.396407624633426,-0.625,93.3032991202346,0.6329757048563049,0.2882072185571848,-0.6679141931730204,-0.2648450754956011
170.0,-0.002038123167155426,-0.2381847507331378,-0.06003519061583577,-0.09999999999999998,-9.784363636363635,-0.5609970674486804,0.04261363636363636,-0.051063049853372434,-0.021407624633431085,45.41594574780058,-0.625,93.27241568914955,0.633162853653959,0.28821450411730204,-0.6676597249413488,-0.2650426786187683
171.0,-0.003422287390029326,-0.2375923753665689,-0.07453372434017595,-0.09999999999999998,-9.787343108504395,-0.5500469208211144,0.04741568914956011,-0.07008797653958944,-0.017961876832844576,45.42631964809384,-0.625,93.22804252199413,0.6334273257302053,0.28814303573607036,-0.6673774435190616,-0.2652139351319648
172.0,-0.005255131964809384,-0.2360293255131965,-0.07386803519061585,-0.09999999999999998,-9.788832844574777,-0.5445395894428153,0.054050586510263926,-0.09096407624633432,-0.011913489736070381,45.43291788856304,-0.625,93.2057551319648,0.6335674738914956,0.2881144878680352,-0.6672215979912022,-0.2653072419208211
173.0,-0.0029501466275659825,-0.2391436950146628,-0.07591788856304986,-0.10412903225806451,-9.786997067448677,-0.5480117302052787,0.05494868035190616,-0.18409090909090908,-0.058577712609970675,45.26847507331378,-0.6282258064516129,93.22041788856305,0.6338527101231672,0.28741927740175954,-0.6676161427214076,-0.26438825971847507
174.0,-0.004777126099706744,-0.24371554252199415,-0.0654809384164223,-0.1072258064516129,-9.78348387096774,-0.5590645161290323,0.05282258064516129,0.0628848973607038,-0.0037573313782991204,45.24717741935484,-0.6266129032258064,93.26673387096773,0.6335282952082111,0.28753642622580644,-0.6679416691466274,-0.2642062296129032
175.0,-0.007469208211143694,-0.23568035190615835,-0.06675659824046921,-0.1087741935483871,-9.781612903225804,-0.5647741935483871,0.06048387096774194,0.06521260997067448,0.0250366568914956,45.245564516129036,-0.6258064516129032,93.2907258064516,0.6333195421524926,0.2876827143225806,-0.668090175718475,-0.2641656718709677
176.0,-0.010363636363636363,-0.23788856304985334,-0.06292668621700881,-0.1095483870967742,-9.780645161290321,-0.5678709677419355,0.058467741935483875,0.017888563049853368,-0.0001832844574780057,45.244758064516134,-0.6254032258064517,93.30362903225806,0.6332097512375365,0.2877583194193548,-0.668169252697947,-0.2641432272258064
177.0,-0.009193548387096774,-0.23954838709677417,-0.06590322580645161,-0.10993548387096774,-9.780161290322578,-0.5694193548387096,0.0185483870967742,0.007459677419354835,-0.0064516129032258064,45.24435483870968,-0.6252016129032258,93.31008064516128,0.6331544977741934,0.28779612196774185,-0.6682091491935482,-0.26413200490322575
178.0,-0.008803519061583578,-0.23598826979472137,-0.06643108504398826,-0.11000000000000001,-9.779999999999998,-0.5700000000000001,-0.03845307917888563,0.010997067448680349,0.013049853372434018,45.24939516129032,-0.625,93.3125,0.633120239516129,0.2878362871290322,-0.6682142682258063,-0.26415661599999996
179.0,-0.0066510263929618774,-0.23739589442815245,-0.06611143695014662,-0.11000000000000001,-9.779999999999998,-0.5700000000000001,-0.06988636363636364,-0.0052052785923753665,0.005718475073313783,45.25,-0.625,93.3125,0.63311768,0.2878417999999999,-0.66821289,-0.2641601599999999
180.0,-0.007809384164222875,-0.24043988269794722,-0.06499120234604105,-0.11000000000000001,-9.779999999999998,-0.5700000000000001,-0.039277859237536655,-0.035868768328445745,-0.010850439882697948,45.25,-0.625,93.3125,0.63311768,0.2878417999999999,-0.66821289,-0.2641601599999999
181.0,-0.008856304985337245,-0.23763929618768326,-0.06662463343108505,-0.11000000000000001,-9.779999999999998,-0.5720645161290323,-0.06893328445747801,0.15998900293255133,0.01755865102639296,45.27903225806452,-0.625,93.32540322580645,0.6329885202580645,0.2880056100645161,-0.6682223408387096,-0.2642735664516128
182.0,-0.01227565982404692,-0.24068035190615833,-0.06410557184750734,-0.10483870967741934,-9.779999999999998,-0.58041642228739,-0.051759530791788855,0.08302785923753667,0.014846041055718474,45.41700879765396,-0.625,93.37760263929619,0.6324259226510264,0.28877139441642224,-0.6682090246862169,-0.26486121935483864
183.0,-0.010134897360703813,-0.23787683284457478,-0.05729032258064516,-0.10225806451612902,-9.779999999999998,-0.5855307917888563,-0.05989736070381232,0.060777126099706744,0.02309384164222874,45.49479472140762,-0.625,93.40956744868035,0.6321102580997068,0.28918865140175953,-0.6682109573431083,-0.2651722277419355
184.0,-0.010155425219941349,-0.23585630498533722,-0.05442815249266862,-0.10096774193548386,-9.779999999999998,-0.5880879765395894,0.010318914956011727,0.01121700879765396,-0.011033724340175952,45.533687683284455,-0.625,93.42554985337244,0.631952425824047,0.2893972798944281,-0.668211923671554,-0.26532773193548387
185.0,-0.009061583577712608,-0.2332346041055718,-0.05714956011730206,-0.10032258064516128,-9.779999999999998,-0.589366568914956,0.06977639296187682,-0.006286656891495601,-0.005113636363636364,45.553134164222875,-0.625,93.43354105571848,0.6318735096862171,0.2895015941407624,-0.668212406835777,-0.26540548403225805
186.0,-0.008498533724340175,-0.23514956011730204,-0.05483284457478006,-0.09999999999999998,-9.779999999999998,-0.589941348973607,0.05898093841642228,0.010667155425219938,0.00964076246334311,45.56195014662757,-0.625,93.43713343108504,0.6318380878592376,0.2895486321994134,-0.6682123530791788,-0.26544081612903225
187.0,-0.01056891495601173,-0.24126979472140764,-0.053633431085043995,-0.09999999999999998,-9.779999999999998,-0.5900000000000001,-0.002217741935483873,0.00817448680351906,0.0017045454545454542,45.5625,-0.625,93.4375,0.6318359400000001,0.28955077999999995,-0.66821289,-0.26544188999999996
188.0,-0.012897360703812316,-0.23865102639296187,-0.05541348973607039,-0.09999999999999998,-9.779999999999998,-0.5900000000000001,-0.03225806451612903,0.0002565982404692077,-0.03190982404692082,45.5625,-0.625,93.4375,0.6318359400000001,0.28955077999999995,-0.66821289,-0.26544188999999996
189.0,-0.011448680351906158,-0.2389530791788856,-0.05502052785923754,-0.09999999999999998,-9.779999999999998,-0.5900000000000001,-0.03786656891495601,0.0036656891495601175,0.008211143695014663,45.5625,-0.625,93.4375,0.6318359400000001,0.28955077999999995,-0.66821289,-0.26544188999999996
190.0,-0.00869208211143695,-0.24013782991202348,-0.05492961876832845,-0.09999999999999998,-9.779999999999998,-0.5900000000000001,-0.02094941348973607,-0.007441348973607037,0.004105571847507331,45.5625,-0.625,93.4375,0.6318359400000001,0.28955077999999995,-0.66821289,-0.26544188999999996
191.0,-0.010410557184750733,-0.24063343108504398,-0.05602932551319649,-0.09999999999999998,-9.779999999999998,-0.5900000000000001,-0.0015029325513196499,-0.023680351906158355,0.02745601173020528,45.5625,-0.625,93.4375,0.6318359400000001,0.28955077999999995,-0.66821289,-0.26544188999999996
192.0,-0.010677419354838708,-0.2371026392961877,-0.05193841642228739,-0.09999999999999998,-9.779999999999998,-0.5900000000000001,-0.028775659824046923,0.02032624633431085,0.02994868035190616,45.5625,-0.625,93.4375,0.6318296390967743,0.2895570809032258,-0.6682191909032258,-0.26544188999999996
193.0,-0.011196480938416423,-0.23626979472140763,-0.05038709677419355,-0.09999999999999998,-9.779999999999998,-0.5900000000000001,-0.04857038123167155,-0.010263929618768326,0.010117302052785925,45.5625,-0.625,93.4375,0.6318012850322581,0.289585434967742,-0.6682475449677419,-0.26544188999999996
194.0,-0.009190615835777126,-0.23533431085043988,-0.04542815249266862,-0.09999999999999998,-9.779999999999998,-0.5900000000000001,-0.008980938416422288,-0.005223607038123166,0.007258064516129032,45.5625,-0.625,93.4375,0.6317871079999999,0.28959961200000006,-0.6682617219999999,-0.26544188999999996
195.0,-0.009659824046920819,-0.2350703812316715,-0.04763343108504399,-0.09999999999999998,-9.779999999999998,-0.5900000000000001,-0.02061950146627566,-0.0023093841642228734,0.003629032258064516,45.5625,-0.625,93.4375,0.631780019483871,0.28960670051612913,-0.668268810516129,-0.26544188999999996
196.0,-0.008249266862170087,-0.2359706744868035,-0.04405865102639296,-0.09999999999999998,-9.779999999999998,-0.5900000000000001,-0.046096041055718476,0.057514662756598244,-0.04415322580645161,45.5625,-0.625,93.4375,0.6317607250322581,0.2896322958709677,-0.6682597529677419,-0.26546709206451613
197.0,-0.003947214076246334,-0.23911436950146625,-0.05119061583577712,-0.10051612903225807,-9.779999999999998,-0.5900000000000001,-0.08020527859237536,0.1374266862170088,0.019354838709677424,45.6141129032258,-0.625,93.4375,0.6316347188387097,0.2898843092903226,-0.6681573689677418,-0.2657348621290323
198.0,-0.003847507331378299,-0.2385982404692082,-0.044416422287390026,-0.10438709677419356,-9.779999999999998,-0.5900000000000001,-0.05190615835777126,-0.024193548387096767,0.01308651026392962,45.57217741935484,-0.625,93.4375,0.6317268610322581,0.28965355832258066,-0.66826605,-0.26547182174193545
199.0,-0.0059354838709677425,-0.23525806451612902,-0.04167741935483871,-0.10735483870967742,-9.779999999999998,-0.5900000000000001,-0.016733870967741933,-0.031451612903225803,0.01935483870967742,45.53508064516129,-0.625,93.4375,0.6318138843870966,0.2894436775483871,-0.6683644932258064,-0.2652363449032258
200.0,-0.00624731182795699,-0.23426881720430104,-0.04411827956989246,-0.10883870967741938,-9.779999999999998,-0.5900000000000001,0.06471774193548387,-0.018413978494623656,0.03118279569892473,45.516532258064515,-0.625,93.4375,0.631857396064516,0.2893387371612903,-0.6684137148387097,-0.265118606483871
201.0,-0.00610752688172043,-0.23718279569892475,-0.05133333333333333,-0.10958064516129035,-9.779999999999998,-0.5900000000000001,0.0689516129032258,-0.0239247311827957,0.023454301075268816,45.50725806451613,-0.625,93.4375,0.631879644096774,0.28928557787096776,-0.668438719451613,-0.2650589497096774
202.0,-0.006150537634408601,-0.2380430107526882,-0.046408602150537645,-0.10993548387096777,-9.779999999999998,-0.5900000000000001,0.02661290322580645,-0.00571236559139785,0.00396505376344086,45.50100806451613,-0.625,93.4375,0.6318944104838708,0.2892515165806452,-0.6684542735806454,-0.26502114729032256
203.0,-0.006295210166177908,-0.23764613880742916,-0.04652101661779082,-0.11000000000000001,-9.779999999999998,-0.5900000000000001,0.04596774193548387,-0.0028653470185728254,-0.00984848484848485,45.5,-0.625,93.4375,0.6318969699999998,0.28924561,-0.6684570300000003,-0.26501465
204.0,-0.00909067908688402,-0.240166522914151,-0.04783071703754817,-0.11000000000000001,-9.779999999999998,-0.5900000000000001,0.04734938330170778,0.014352430855039962,0.00605773101029268,45.5,-0.625,93.4375,0.631947002637571,0.289169634288425,-0.6684607361100572,-0.2649683234724858
205.0,-0.008566844919786095,-0.24173917543557014,-0.04767879937898914,-0.109741935483871,-9.779999999999998,-0.5894838709677419,-0.022141840607210625,-0.015320424357426254,0.0007439192685872,45.49032258064516,-0.625,93.43427419354839,0.6319645140607208,0.28914304278937386,-0.6684620332485771,-0.26495210918785583
206.0,-0.008878730377781613,-0.239461963084354,-0.04683353458685528,-0.1098709677419355,-9.779999999999998,-0.5897419354838709,-0.018044893910643435,-0.030717396929446264,-0.014492409867172675,45.495161290322585,-0.625,93.4358870967742,0.6319307420303604,0.2891943263946869,-0.6684595316242887,-0.2649833795939279
207.0,-0.020858720027600485,-0.24026323960669316,-0.04596515439020183,-0.10838709677419359,-9.779999999999998,-0.5888387096774192,-0.015171640503708814,0.058532430567534925,0.012310246679316886,45.53629032258065,-0.6185483870967742,93.4366935483871,0.6318540025958252,0.28939322806831125,-0.6683354235218216,-0.265247880345351
208.0,-0.015488011040193204,-0.23862722097636713,-0.04649284112471969,-0.10403225806451616,-9.779999999999998,-0.5940645161290321,-0.0827874331550802,-0.009351819906848368,0.0065216922546144545,45.64717741935484,-0.589516129032258,93.46612903225807,0.6314533603624286,0.28997465671157496,-0.6682198179867174,-0.26589361201138517
209.0,-0.011683284457478007,-0.23669501466275664,-0.04981378299120236,-0.10185483870967743,-9.779999999999998,-0.5971935483870966,-0.035712976539589436,-0.02450513196480938,0.009356671554252198,45.702620967741936,-0.575,93.48407258064518,0.631232574564516,0.29027404566129034,-0.6681808010806451,-0.2662116251612903
210.0,-0.01040469208211144,-0.2387683284457478,-0.045724340175953095,-0.10077419354838713,-9.779999999999998,-0.5987741935483868,-0.04875366568914956,-0.014479472140762461,-0.018731671554252198,45.730645161290326,-0.5677419354838709,93.49314516129033,0.631122416193548,0.2904233839999999,-0.66816131,-0.26637041458064514
211.0,-0.009184750733137832,-0.23942815249266863,-0.04379178885630499,-0.10022580645161291,-9.779999999999998,-0.5995483870967739,-0.03387096774193548,-0.006506598240469208,0.0007697947214076236,45.74435483870968,-0.5641129032258063,93.49758064516129,0.6310686659999998,0.29049603506451604,-0.6681516629032258,-0.26644857874193545
212.0,-0.009753665689149562,-0.24382697947214077,-0.04800879765395896,-0.1,-9.779999999999998,-0.5999677419354836,-0.02318548387096774,0.0041055718475073305,0.015909090909090907,45.75,-0.5625,93.49979838709677,0.6310436613225804,0.29052694622580644,-0.6681506786451612,-0.2664798837741935
213.0,-0.007530791788856304,-0.23867741935483877,-0.04529912023460411,-0.10000000000000002,-9.779999999999998,-0.5999999999999998,0.02005131964809384,-0.008467741935483872,-0.021370967741935483,45.75,-0.5625,93.5,0.6310424799999996,0.2905273399999999,-0.66815186,-0.26647948999999993
214.0,-0.013958944281524926,-0.24096774193548393,-0.046568914956011745,-0.10000000000000002,-9.779999999999998,-0.5999999999999998,-0.009530791788856303,0.015725806451612902,-0.014112903225806451,45.75,-0.5625,93.5,0.6310424799999997,0.2905273399999999,-0.66815186,-0.26647948999999993
215.0,-0.01147800586510264,-0.23685630498533725,-0.04583577712609972,-0.1,-9.779999999999998,-0.5999999999999999,0.03495234604105572,-0.03398093841642229,-0.006323313782991202,45.75,-0.5625,93.5,0.6310739845161288,0.2905273399999999,-0.6681203554838708,-0.26647948999999993
216.0,-0.00973900293255132,-0.2348152492668622,-0.047530791788856316,-0.1,-9.779999999999998,-0.5999999999999999,0.0629398826979472,-0.062151759530791786,-0.03572214076246334,45.75,-0.5625,93.5,0.6310897367741934,0.2905273399999999,-0.6681046032258063,-0.26647948999999993
217.0,-0.00750733137829912,-0.23258651026392968,-0.04497947214076248,-0.10000000000000002,-9.779999999999998,-0.5999999999999998,-0.006451612903225809,0.015542521994134896,-0.024230205278592376,45.75,-0.5625,93.5,0.6310976129032257,0.2905273399999999,-0.668096727096774,-0.26647948999999993
218.0,-0.003149560117302053,-0.23587976539589442,-0.05276832844574782,-0.10000000000000002,-9.779999999999998,-0.5989677419354836,0.024890029325513197,0.004912023460410557,-0.03700513196480938,45.74032258064517,-0.5625,93.49677419354839,0.6311362023225806,0.29046748709677417,-0.668092789548387,-0.26643853825806446
219.0,0.0033929618768328423,-0.23427859237536658,-0.07309384164222876,-0.1,-9.779999999999998,-0.584516129032258,0.17756598240469207,-0.1658907624633431,-0.028079178885630496,45.60322580645162,-0.5818548387096774,93.40483870967742,0.6319430464516129,0.28952400193548383,-0.6679553611612904,-0.2658604768387096
220.0,-0.00177126099706745,-0.2331231671554252,-0.08691788856304987,-0.1,-9.779999999999998,-0.5767741935483871,0.11337976539589441,-0.08163489736070381,-0.017265395894428152,45.51532258064516,-0.6044354838709678,93.35564516129031,0.6324368419354839,0.28892310064516125,-0.6678970828387099,-0.26547694083870965
221.0,-0.0031026392961876837,-0.23714369501466281,-0.09521994134897362,-0.10000000000000002,-9.779999999999998,-0.5729032258064517,0.020087976539589436,-0.015945747800586517,-0.010557184750733138,45.47137096774193,-0.6157258064516129,93.33104838709676,0.6326837396774194,0.28862265,-0.6678679436774195,-0.26528517283870967
222.0,-0.0024956011730205277,-0.23562170087976547,-0.0923401759530792,-0.10000000000000002,-9.779999999999998,-0.5725161290322582,-0.050054985337243396,-0.009439149560117304,-0.0018695014662756591,45.44939516129032,-0.6213709677419355,93.34133064516129,0.6327095297096775,0.28851652738709677,-0.6679415810645162,-0.26514518612903226
223.0,-0.0012639296187683285,-0.23360410557184758,-0.08508504398826981,-0.10000000000000002,-9.779999999999998,-0.5759677419354838,-0.02006964809384164,-0.02221407624633431,0.02626466275659824,45.438709677419354,-0.6241935483870968,93.35625,0.6326614884516132,0.2884842376451612,-0.6680477050322581,-0.26505757135483876
224.0,-0.01250733137829912,-0.23550733137829918,-0.09267155425219943,-0.10000000000000003,-9.779999999999998,-0.5753137829912025,0.03174486803519062,-0.0879765395894428,-0.004160557184750731,45.43456744868035,-0.625,93.34893695014662,0.6327044988973608,0.28845082095601166,-0.668027675085044,-0.26504264329618765
225.0,0.0021173020527859203,-0.23220527859237544,-0.09273900293255134,-0.10000000000000002,-9.78258064516129,-0.5654310850439884,0.1311950146627566,-0.2536656891495601,0.033504398826979476,45.24893695014663,-0.625,93.29846041055718,0.6334159066744869,0.28730894586510247,-0.6681954944457479,-0.26414777042228743
226.0,-0.0009325513196480955,-0.2350557184750734,-0.08704985337243404,-0.10000000000000002,-9.781290322580643,-0.5677155425219942,0.07637463343108504,-0.11466275659824046,-0.01218841642228739,45.14967008797654,-0.625,93.30548020527858,0.6335573963695014,0.2867789621260996,-0.6684936188357773,-0.263539674888563
227.0,-0.0037184750733137836,-0.23762463343108514,-0.0848035190615836,-0.10000000000000002,-9.780645161290321,-0.568809384164223,0.03717008797653959,-0.08079178885630497,0.005535190615835777,45.1000366568915,-0.625,93.308284457478,0.6336280426041055,0.2865125920469207,-0.66863992456305,-0.26323700533137817
228.0,-0.005988269794721408,-0.2368797653958945,-0.08863929618768332,-0.10000000000000002,-9.78032258064516,-0.5692434017595309,0.011950146627565984,-0.03339442815249266,-0.0045087976539589444,45.075219941348976,-0.625,93.30938416422286,0.6336652361407624,0.286378816346041,-0.6687109116363638,-0.2630862612140762
229.0,-0.0045043988269794725,-0.23566862170087982,-0.09150439882697949,-0.10000000000000002,-9.780161290322578,-0.5695483870967744,0.013306451612903225,-0.01119868035190616,-0.01343475073313783,45.06290322580645,-0.625,93.31048387096773,0.6336809690967742,0.28631336038709665,-0.6687488215806453,-0.2630105311935482
230.0,-0.008245030954708375,-0.23514434669273382,-0.0929977191267514,-0.10000000000000003,-9.779999999999998,-0.5700000000000001,-0.007728494623655914,-0.006215379602476376,-0.03291585206907788,45.0625,-0.625,93.3125,0.6336671869032259,0.28631591999999995,-0.6687622100000001,-0.2630004899999999
231.0,-0.011096122515477355,-0.23103551645487133,-0.0845897686542848,-0.10000000000000003,-9.779999999999998,-0.5700000000000002,0.048619257086999025,0.011151840990550667,-0.018483219289670904,45.0625,-0.625,93.3125,0.6336641264222875,0.2863216471554252,-0.6687708012023461,-0.2630004899999999
232.0,-0.009574454219615511,-0.2355177582274357,-0.07760573476702512,-0.10000000000000002,-9.779999999999998,-0.5700000000000001,0.03085288367546432,0.015986477680026066,-0.05154366243075921,45.0625,-0.625,93.3125,0.6336340588563051,0.2863502829325513,-0.6688295094721408,-0.2630004899999999
233.0,-0.010851743238840014,-0.23679113717823397,-0.08222222222222225,-0.10000000000000002,-9.779999999999998,-0.5700000000000001,0.0027248289345063546,-0.024466438579341804,-0.032021831215379604,45.0625,-0.625,93.3125,0.6336190250733138,0.2863646008211144,-0.6688588636070383,-0.2630004899999999
234.0,-0.00865167807103291,-0.23660671228413163,-0.08275333985011407,-0.10000000000000002,-9.779999999999998,-0.5700000000000001,0.02454789833822092,0.022865754317367218,-0.000981590094493322,45.0625,-0.625,93.3125,0.6336115081818183,0.286371759765396,-0.668873540674487,-0.2630004899999999
235.0,-0.011372434017595308,-0.23942521994134902,-0.08269208211143698,-0.10000000000000002,-9.779999999999998,-0.5700000000000001,0.02873900293255132,0.0471407624633431,0.006744868035190615,45.0625,-0.625,93.3125,0.6336077497360705,0.2863753392375368,-0.6688808792082113,-0.2630004899999999
236.0,-0.01062756598240469,-0.23424046920821118,-0.0824369501466276,-0.1,-9.779999999999998,-0.5700000000000001,0.1030425219941349,-0.041403958944281526,-0.012664956011730205,45.0625,-0.625,93.3125,0.6336689638709678,0.28634545064516126,-0.6687897716129034,-0.2630319893548387
237.0,-0.010346041055718474,-0.23712023460410558,-0.08699413489736071,-0.10000000000000002,-9.779999999999998,-0.5700000000000001,0.1099706744868035,-0.047397360703812313,-0.005021994134897361,45.0625,-0.625,93.3125,0.6337004658064518,0.2863297009677419,-0.668742517419355,-0.26304773903225803
238.0,-0.013753665689149559,-0.23343108504398835,-0.08390029325513199,-0.10000000000000002,-9.779999999999998,-0.5700000000000001,0.05861436950146628,-0.00656158357771261,0.017045454545454544,45.0625,-0.625,93.3125,0.6337162167741937,0.28632182612903223,-0.6687188903225807,-0.26305561387096776
239.0,-0.012404692082111436,-0.23442815249266868,-0.08611436950146631,-0.10000000000000002,-9.779999999999998,-0.5700000000000001,-0.027144428152492666,0.022012463343108506,-0.0036656891495601193,45.0625,-0.625,93.3125,0.6337240922580647,0.28631788870967734,-0.6687070767741936,-0.2630595512903226
240.0,-0.011653958944281523,-0.23666568914956015,-0.08817008797653964,-0.10000000000000002,-9.779999999999998,-0.5700000000000001,0.011730205278592375,-0.02558651026392962,-0.014937683284457479,45.0625,-0.625,93.3125,0.6337280300000001,0.28631591999999995,-0.6687011700000001,-0.26306152
241.0,-0.01289149560117302,-0.23851026392961883,-0.09024633431085047,-0.10000000000000002,-9.779999999999998,-0.5700000000000001,0.009494134897360704,-0.004325513196480938,0.03819648093841642,45.0625,-0.625,93.3125,0.6337280300000001,0.28631591999999995,-0.6687011700000001,-0.26306152
242.0,-0.012994134897360702,-0.23822287390029329,-0.0916568914956012,-0.1,-9.779999999999998,-0.5700000000000001,-0.0035373900293255134,0.01156524926686217,0.0061950146627565966,45.0625,-0.625,93.3125,0.6337280300000001,0.28631591999999995,-0.6687011700000001,-0.26306152
243.0,-0.010351906158357772,-0.2408211143695015,-0.08890909090909094,-0.1,-9.779999999999998,-0.5700000000000001,0.014259530791788856,0.10850439882697947,0.03475073313782991,45.06895161290323,-0.625,93.3125,0.6337154292258066,0.2863505718709677,-0.6686885692258067,-0.26309932232258065
244.0,-0.01063049853372434,-0.23766862170087982,-0.0876070381231672,-0.10000000000000002,-9.779999999999998,-0.5700000000000001,-0.026319648093841637,-0.0022910557184750713,0.008944281524926687,45.09798387096774,-0.625,93.3125,0.6336587257419356,0.286522257548387,-0.6686318657419357,-0.26326943277419357
245.0,-0.00978299120234604,-0.23523753665689154,-0.08312609970674491,-0.10000000000000002,-9.779999999999998,-0.5700000000000001,0.01184017595307918,0.019318181818181818,-0.0048020527859237525,45.1125,-0.625,93.3125,0.6336303740000001,0.2866081003870967,-0.6686035140000002,-0.263354488
246.0,-0.008794721407624634,-0.23761876832844578,-0.08343401759530795,-0.1,-9.779999999999998,-0.5700000000000001,0.008944281524926687,0.05139296187683284,-0.03284457478005865,45.11975806451613,-0.625,93.3125,0.6335878440645163,0.28667937122580645,-0.6685893381290324,-0.26342536967741936
247.0,-0.00780058651026393,-0.23677712609970675,-0.09028152492668626,-0.1,-9.779999999999998,-0.5700000000000001,-0.005003665689149559,0.04464809384164223,-0.009567448680351906,45.123387096774195,-0.625,93.3125,0.6335634286451615,0.2867181565806452,-0.6685822501935486,-0.26346396096774194
248.0,-0.006117302052785924,-0.23834017595307921,-0.09208211143695019,-0.10000000000000002,-9.779999999999998,-0.5700000000000001,0.029252199413489735,0.03669354838709677,-0.014589442815249267,45.125,-0.625,93.3125,0.6335516147096776,0.2867364663870969,-0.6685791000000001,-0.26348207529032264
249.0,-0.006957400833461956,-0.23645104697226949,-0.09146190255697897,-0.09999999999999998,-9.779999999999992,-0.5700000000000002,0.002143463497453311,0.001978185934043322,-0.007019794721407625,45.125,-0.625,93.3125,0.6335472828387094,0.28674079754838727,-0.6685791000000001,-0.26348640716129046
250.0,-0.00888583629160879,-0.23372454596902825,-0.08770211452384628,-0.09999999999999992,-9.779999999999989,-0.5700000000000002,0.03594465452487523,-0.0020595385090291713,-0.00271871945259042,45.125,-0.625,93.3125,0.6335451169032252,0.28674296312903247,-0.6685791000000002,-0.2634885730967743
251.0,-0.009553377578844478,-0.23459443329731972,-0.08902603282399546,-0.0999999999999999,-9.779999999999987,-0.5700000000000002,-0.033448127283016924,0.00547988372691259,0.04060361681329423,45.125,-0.625,93.3125,0.6335449199999993,0.2867431600000002,-0.6685791000000003,-0.2634887700000001
252.0,-0.010133212621872893,-0.23528180981187613,-0.09294368564647051,-0.0999999999999999,-9.779999999999985,-0.5700000000000002,0.002836901693108771,0.015616085339623845,0.028285077544827182,45.125,-0.625,93.3125,0.6335449199999992,0.2867431600000002,-0.6685791000000003,-0.2634887700000001
253.0,-0.009269790223797779,-0.2402215500672283,-0.08831641760329391,-0.09734562211981562,-9.782728110599066,-0.5385161290322582,0.914235271123052,0.27177431832963594,0.06142207375356147,45.22684331797235,-0.597811059907834,93.13231566820276,0.6343743237972346,0.2866621557603689,-0.6674135259539172,-0.2644882839539171
254.0,-0.008931523780344196,-0.23466854041480903,-0.06599481644979958,-0.10103225806451605,-9.78755760368663,-0.4524331797235024,0.2856526828571846,0.2912917997986606,0.03347601383530608,45.417857142857144,-0.607258064516129,92.63485023041474,0.6368303564976958,0.2867575639815668,-0.6641035648847928,-0.2667503531152074
255.0,-0.012688978650943024,-0.2386339667394072,-0.06107304908219688,-0.09535483870967734,-9.788940092165893,-0.4103018089277116,0.1441186792264067,0.20927547015654857,0.021537369707807837,45.71967122910792,-0.5838709677419355,92.3973631267625,0.6375211391828872,0.28761737441254553,-0.66214498286127,-0.2690272222220236
256.0,-0.011727216452300713,-0.2400811610152005,-0.05396450925098012,-0.09251612903225799,-9.789631336405526,-0.39208638833482345,0.10447675218378155,0.08465334617236395,0.043669612765664764,45.873948517779766,-0.5721774193548387,92.27428640209092,0.6377696747527339,0.2881253304320791,-0.6612037756241835,-0.2701957457884312
257.0,-0.01293390191897655,-0.23810268931838507,-0.04591099800536488,-0.09109677419354831,-9.789976958525342,-0.3842112249810854,-0.03310105578100282,-0.002870727010110742,-0.02464148153243001,45.951087162115684,-0.5663306451612903,92.22911780383795,0.6378379904529197,0.2884065781577825,-0.660791004802944,-0.27075038723461053
258.0,-0.003565661972645292,-0.23508103142871106,-0.022573077310302826,-0.09084405262806376,-9.789765310892937,-0.4068786372684764,-0.5897545868633192,0.22826017179181232,0.04838895334986059,45.99535653604349,-0.5647244206237894,92.36970754447557,0.6369808612759822,0.28892924981154333,-0.6614534857161718,-0.2706161128198031
259.0,-0.008311248805063051,-0.2420860866308942,-0.006687460314137587,-0.10022284556646399,-9.784689107059364,-0.5151338910868754,-0.426154495172571,0.8288254263976983,0.15090018584031686,46.10055685225113,-0.5958878759544959,93.00641835237091,0.633058608353813,0.29152503962773785,-0.6644610860388336,-0.26960661549003473
260.0,-0.035224439798518414,-0.24340584312828661,0.011315074863715519,-0.10368934191090123,-9.782183263207092,-0.5905001780632559,-0.4017031350729774,0.6418678387523629,0.010783506497433357,47.19804390077413,-0.6146323750513052,93.44734625431141,0.6278854803099734,0.2991880965253027,-0.6639030114426911,-0.2745007430925528
261.0,-0.024021408179457096,-0.2456457250781302,0.022442581356693612,-0.10716725160061197,-9.780930341280957,-0.6310378403172754,-0.3509496046999003,0.21215388023109333,-0.02653203419554867,47.563958836782575,-0.6250318256743201,93.69400096726791,0.6256163978782219,0.3020926829751338,-0.6641886891949313,-0.27591126076553774
262.0,-0.021028518244759847,-0.24434910230796264,0.03466375577223221,-0.10890620644546734,-9.78030388031789,-0.6603191127440973,-0.180530170669642,0.08195862042368343,-0.002192353159401684,47.71746328935903,-0.6260239773532892,93.8757227994741,0.6242201767965981,0.3035231231799117,-0.6646849157096467,-0.27635082053442994
263.0,-0.01745679050473882,-0.24776553033940069,0.04062658946147913,-0.11061137218647044,-9.779999999999983,-0.6731576444729186,0.0018634637151605238,0.1110586557701651,0.0894017632443207,47.79153061441708,-0.633727398304522,93.9534756060547,0.6235984775230121,0.30425892564778745,-0.6648463622085459,-0.2765838969438946
264.0,-0.009582680514861504,-0.24336660978281444,0.03985077101157448,-0.12086493129669296,-9.779999999999983,-0.6644114176402116,-0.07828945594549797,-0.029574707008444757,-0.06504884824290394,47.80736612024881,-0.6971725095043588,93.89689645788715,0.6238791220533307,0.30496418165849204,-0.6642053832466406,-0.276743891984492
265.0,-0.003584535863705974,-0.24373357615847835,0.02784518132052386,-0.12580956696592938,-9.779999999999985,-0.6622579577978427,-0.09871741552118952,0.00033862532892832767,-0.010109813115759373,47.771044486748664,-0.7255029971420022,93.87235564402228,0.6240818926250027,0.305004995449873,-0.6640923079363594,-0.27652665822305
266.0,0.0021326007533490044,-0.2438681356028209,0.025414766773343915,-0.12822736412812596,-9.779999999999985,-0.6610892407035025,-0.08264889971395395,0.018768231895550706,-0.03018175252768416,47.75859377212609,-0.7396361409272423,93.87350250644312,0.6241192512727625,0.3050700453196069,-0.6640727528414849,-0.27643465434761655
267.0,0.00489875102665043,-0.24373714916876724,0.018850859554221312,-0.12943626270922426,-9.779999999999985,-0.6602220397065894,0.02680265654648957,-0.011965787759494749,-0.05150156475686085,47.75328882154692,-0.7468341994958791,93.84142145062165,0.6242383151067709,0.3050721922313006,-0.6639592478555036,-0.2764581075132403
268.0,0.005396074655187063,-0.24298797756945834,0.015757243195785784,-0.13001423149905122,-9.779999999999985,-0.6598197343453502,0.021016242317822655,-0.04730468860630434,-0.028639564275397204,47.75071157495256,-0.7502075426944972,93.82419230932624,0.6242986551099571,0.30507178165007476,-0.6639025099773419,-0.27647167081487733
269.0,0.005350406411962957,-0.24189101928686746,0.014197371774901591,-0.12999999999999998,-9.779999999999985,-0.659999999999999,-0.0205852261463083,-0.008695994647257071,-0.011013923503922513,47.75,-0.75,93.81802001614318,0.6243136904273692,0.30505875013480943,-0.6638941638264313,-0.27647796093163235
270.0,0.004825044606191056,-0.24126426690079028,0.012615338865445077,-0.12999999999999998,-9.779999999999985,-0.659999999999999,-0.04820831799257979,-0.005044747798011837,-0.00373709606615877,47.75,-0.75,93.8146966779008,0.6243224096918626,0.30505573780934003,-0.6638855318728925,-0.2764850871593647
271.0,0.0048769435554674445,-0.24314636494944633,0.009044861083576428,-0.13,-9.779999999999985,-0.6549146110056923,0.20146510096575945,0.049659789288849863,0.0027418646803931005,47.72675521821631,-0.75,93.78839672604718,0.6245587063354947,0.30486519054603634,-0.6637595236404308,-0.2764451315208589
272.0,0.0077926307740236195,-0.2398455776147725,0.008710456257611375,-0.13,-9.779999999999985,-0.6129791271347247,0.09576480146704806,0.0592032130618256,0.020525928233594837,47.80289373814041,-0.75,93.56083965844402,0.6257848861669826,0.30458002062618583,-0.6623147164516129,-0.27741509407969656
273.0,0.01140105922002889,-0.23942705825710164,0.002464810671500184,-0.13,-9.779999999999985,-0.5807020872865274,0.14766596335211984,0.048369395904726845,-0.009661134554929337,47.84096299810247,-0.75,93.39871916508538,0.6267323785199237,0.3042924483111952,-0.6612903244212529,-0.27807234903225836
274.0,0.013168030813673574,-0.24147327876745314,-0.0032211334220736926,-0.12999999999999998,-9.783389504092433,-0.5604184485541928,0.14421694893653175,0.031000417740519415,-0.0019417853804978898,47.85999762808349,-0.75,93.29362113767027,0.6273143554443629,0.3040975786452459,-0.6606547741292588,-0.27845483945113175
275.0,0.014065960519980748,-0.242573423206548,-0.007183508453935259,-0.12999999999999998,-9.786856042368795,-0.5482737404061283,0.09213435313942621,-0.007610046305474521,0.018693888243790535,47.869514943073995,-0.75,93.23047992367384,0.6276486001415367,0.3039771049677841,-0.6602824575484999,-0.2786691232739531
276.0,0.02376339500653415,-0.24327058257101591,-0.008039233218564267,-0.13774193548387093,-9.785934933626788,-0.5585077701759562,-0.1710830504565813,-0.31927542502316286,0.1138366432273439,47.76578341013825,-0.7983870967741935,93.2826146738185,0.6275749642544903,0.3040789218287686,-0.660594629916565,-0.27798919164212704
277.0,0.03389676448335713,-0.2415334050808576,-0.0041571877667773895,-0.14989407799711124,-9.782967466813385,-0.5983953929188428,-0.1485243164429951,-0.18139318739050747,0.0505774276489604,47.49010764151592,-0.8738565238324506,93.5044900151924,0.6269155915222646,0.3039321464785464,-0.6621683689759552,-0.27589216267689354
278.0,0.03993699704243757,-0.24117194088209987,-0.0021046130887247883,-0.1554309099662976,-9.781483733406684,-0.6206184744480363,-0.08863156984245092,-0.13621088628912414,0.050838028124980464,47.35997317559667,-0.9087024554646124,93.63523540133434,0.626451796664832,0.30391077691574364,-0.6630488404082813,-0.27483261951207116
279.0,0.04256738094195965,-0.24178182401774131,-0.002718535516802248,-0.15819932595089076,-9.780635944700446,-0.6318595501753905,-0.05088119832342268,-0.06490981935733983,0.014087292902892325,47.294905942637044,-0.9261254212806933,93.7013592750533,0.6262165170252418,0.30390168849398147,-0.6634929309455948,-0.27430116471270394
280.0,0.04403897562876859,-0.239894719948644,0.00029507052087697277,-0.15958353394318736,-9.780156682027634,-0.6375426783135019,-0.011853384939566934,-0.05128305633541551,0.013758149449651615,47.262372326157234,-0.9348369041887338,93.7347522181718,0.6260975254481043,0.30389786424699056,-0.663716680634088,-0.2740347173563521
281.0,0.04229337185042529,-0.24296421120205436,-0.0005638960622109392,-0.1600337024554647,-9.779999999999985,-0.6398796340876267,0.03241672867334879,-0.01439010956945478,-0.01083384397659795,47.24951853635051,-0.9376805488685604,93.74885652383244,0.6260453285074619,0.303891072075108,-0.6638130998170442,-0.2739261327058259
282.0,0.04316305568929545,-0.2413281113045197,-0.002187655227135247,-0.1600000000000001,-9.779999999999985,-0.6400000000000003,0.006764964092239006,-0.012007145077679502,-0.017147043094924656,47.25,-0.9375,93.75,0.6260375999999992,0.30389403999999964,-0.6638183600000003,-0.27392578000000023
283.0,0.04219419033862943,-0.2409599734241045,-0.0026320674991835323,-0.1600000000000001,-9.779999999999985,-0.6400000000000003,-0.014080377775009457,-0.006042782646658429,-0.015611507935171874,47.25,-0.9375,93.75,0.6260375999999992,0.30389403999999964,-0.6638183600000003,-0.27392578000000023
284.0,0.040481259392188614,-0.2405972887648382,-0.001807236095632822,-0.1600000000000001,-9.779999999999985,-0.6400000000000003,0.018023960672612572,-0.0036170658101327335,-0.018695905482737453,47.25,-0.9375,93.75,0.6260375999999992,0.30389403999999964,-0.6638183600000003,-0.27392578000000023
285.0,0.03899429538524386,-0.23970235894742406,-0.003999903482811523,-0.1600000000000001,-9.779999999999985,-0.6400000000000003,-0.016846401872882374,0.008088827798745951,-0.029127400444203526,47.25,-0.9375,93.75,0.6260375999999992,0.30389403999999964,-0.6638183600000003,-0.27392578000000023
286.0,0.040117944004318576,-0.23944208126971742,-0.004319512296402041,-0.1600000000000001,-9.779999999999985,-0.6400000000000003,-0.01430380524627034,0.009375620768254374,-0.018022396476898163,47.25,-0.9375,93.75,0.6260375999999992,0.30389403999999964,-0.6638183600000003,-0.27392578000000023
287.0,0.03991625450460307,-0.2394913993084432,-0.007574298595001531,-0.1600000000000001,-9.779999999999985,-0.6381231671554257,0.038170584029996645,-0.022512073065756262,-0.013037816781196657,47.25,-0.9375,93.7324046920821,0.6261473789247307,0.303847741896383,-0.6637219444379283,-0.27397112389051814
288.0,0.039859427204155175,-0.24119971987569488,-0.013907515209874387,-0.1600000000000001,-9.779999999999985,-0.6299715498752574,0.13134155104244175,-0.12146607504997009,-0.028470641659736506,47.24662975445354,-0.9375,93.68198231715323,0.6264709822115228,0.30369880721203363,-0.6634541920456368,-0.2740899770680324
289.0,0.046879896704162455,-0.24074904072015296,-0.011558702090719426,-0.1600000000000001,-9.779999999999985,-0.6369886637195252,-0.08291752381786083,-0.05638459097474504,0.006337447659065378,47.183798748194505,-0.9375,93.70347310368976,0.6264395393676775,0.3034771749204124,-0.6637411254787648,-0.27370367146612995
290.0,0.04696806634414609,-0.23796522819746363,-0.011224840091418019,-0.15643263757115766,-9.779999999999985,-0.6350028707591935,0.1040223777610138,-0.19783733458805677,-0.021837026271094073,47.169461043926475,-0.9156783681214421,93.685939587898,0.6265512713916186,0.30314034681504487,-0.6637954933276177,-0.27368732732699286
291.0,0.030864862336583428,-0.24073811982008197,-0.022085595826285172,-0.1427324478178369,-9.779999999999985,-0.6267234467647957,0.006148745662750595,-0.07157244654766533,0.03189817365647182,47.107263728794365,-0.829814990512334,93.65108174840822,0.6268860246142156,0.30181423272441055,-0.6641682733051748,-0.27349106903351544
292.0,0.021013622589141582,-0.24045229261661338,-0.025217083463139715,-0.1358823529411765,-9.779999999999985,-0.6230977937636294,-0.01635737347418505,-0.03872596221926421,0.048818997989181226,47.08185767084879,-0.7868833017077799,93.63657459854429,0.6269939171995809,0.30118597801665303,-0.6643743528647084,-0.2734234875201791
293.0,0.016257894587782158,-0.24256846696309728,-0.02762057832280723,-0.1324573055028463,-9.779999999999985,-0.6215103797898549,-0.09544397320796397,-0.004362379280070237,0.01354647540287179,47.06925996204933,-0.7654174573055028,93.63062179614263,0.6270394661852503,0.30087578146379124,-0.6644842534135769,-0.2733866911000029
294.0,0.013718740264521799,-0.24150712282987347,-0.027631694468832322,-0.1307447817836812,-9.779999999999985,-0.6203700189753318,-0.03598719519102778,0.0005296985187912434,0.022744732221246705,47.06487191650854,-0.7546845351043643,93.62618595825427,0.6270682795683111,0.30072528209203053,-0.6645260533870962,-0.2733822220208729
295.0,0.011038687020306442,-0.24090536407148325,-0.028898864312215028,-0.13,-9.779999999999985,-0.6206546489563567,0.0007297183437650484,0.03828963578690985,-0.0006354612138548248,47.11242884250474,-0.75,93.61773600569259,0.6270323749146112,0.300863248296964,-0.6644019574478173,-0.2736325030455409
296.0,0.011567730606927416,-0.240929437253958,-0.02956802798153447,-0.13,-9.779999999999985,-0.6206451612903225,0.08434552805233793,-0.02867894870996063,-0.02299918221983064,47.152158444022774,-0.75,93.60768500948765,0.626991345768501,0.3010290975711576,-0.6642850988994307,-0.2738394972675523
297.0,0.01175210286329265,-0.23853649211249267,-0.0368297034750347,-0.12999999999999998,-9.779999999999985,-0.6151612903225805,0.06825366762015349,-0.03347942450933189,-0.04333615367186836,47.17184535104364,-0.75,93.58408444022771,0.6271907799810246,0.3010331503984819,-0.6640084117077799,-0.27404901089184075
298.0,0.012840423121583736,-0.23850031153530277,-0.04150825568551926,-0.12999999999999998,-9.779999999999985,-0.6124193548387094,0.03770771970319182,-0.0301003285281373,-0.009270387861451753,47.181688804554085,-0.75,93.57228415559771,0.6272904970872865,0.30103517681214403,-0.6638700681119545,-0.27415376770398503
299.0,0.012083701296862252,-0.23955584549222164,-0.04479472355318456,-0.12999999999999998,-9.779999999999985,-0.6110483870967738,0.016187699912546975,-0.011717801260216081,0.017328842783666625,47.1866105313093,-0.75,93.56638401328274,0.6273403556404173,0.3010361900189751,-0.6638008963140418,-0.2742061461100571
300.0,0.012666684260258142,-0.2366171492889187,-0.04341314387180879,-0.12999999999999995,-9.779999999999985,-0.6054113682064064,0.07043918860930812,-0.000622762180987421,0.03313786477737241,47.1875,-0.75,93.5636563092979,0.6273968265464189,0.3009987549857682,-0.6637408396124216,-0.27422427153700213
301.0,0.01258808596314615,-0.2370775499765277,-0.052261600398902486,-0.12999999999999998,-9.779999999999985,-0.6006278852417233,0.07818093206556487,-0.05339783744722995,0.014864117398173872,47.1875,-0.75,93.5321394686907,0.6275566338590728,0.300922083662239,-0.6635958861582028,-0.27429211058823544
302.0,0.012572328970980876,-0.2357486931394435,-0.057320015413702574,-0.12999999999999998,-9.779999999999985,-0.5898300716531193,0.1013647799470819,-0.07472491776068768,0.012246695194031567,47.1875,-0.75,93.48280360531308,0.6278770892381551,0.3007494618190831,-0.6633300843694241,-0.27440164722478694
303.0,0.013149428809034015,-0.23550795273245656,-0.06482274242038041,-0.12999999999999998,-9.779999999999985,-0.5844311648588172,0.10168744534186064,-0.02877134188467701,0.014895013461243032,47.1875,-0.75,93.4581356736243,0.6280382573610134,0.30063541042567066,-0.6631971834750345,-0.27444231135432895
304.0,0.013863745787193075,-0.23551020986150853,-0.06168979580276982,-0.12999999999999998,-9.779999999999985,-0.5817317114616662,0.07499327366960265,-0.02315893256676768,0.019262971197145203,47.1875,-0.75,93.44580170777988,0.6281188414224426,0.3005783847289645,-0.66313073302784,-0.2744626434191
305.0,0.012266490129995193,-0.2356198136452464,-0.06245057917244894,-0.12999999999999995,-9.779999999999985,-0.5805360531309289,0.06489492763884562,0.00555763049080971,-0.02337886586989153,47.1875,-0.75,93.43963472485768,0.6281581930198399,0.3005508562354501,-0.6630984480834915,-0.2744728094514855
306.0,0.011940298507462692,-0.23430428502648068,-0.06530572941742899,-0.12999999999999995,-9.779999999999985,-0.5799999999999991,0.11094727973038035,0.0025577756379393368,-0.014985556090515165,47.1875,-0.75,93.4375,0.6281737712229185,0.3005388437794898,-0.66308594,-0.27447598151179586
307.0,0.013009147809340402,-0.23331246990852209,-0.0642416947520462,-0.12999999999999995,-9.779999999999985,-0.5799999999999991,0.003911892152142514,0.008094607607125662,-0.0008726528647087142,47.1875,-0.75,93.4375,0.6281738300000008,0.30053711000000016,-0.66308594,-0.2744751000000001
308.0,0.016292875796968243,-0.23524503581797773,-0.05958944281524924,-0.12999999999999995,-9.779999999999985,-0.5829716520039095,-0.01821172728731708,0.02725193679695365,0.02029442231656964,47.1875,-0.75,93.4453201368524,0.6281213266177912,0.30056192900293277,-0.6631470338807429,-0.2744560069012707
309.0,0.014846004581199581,-0.23576647554018781,-0.051657985731168185,-0.12999999999999995,-9.779999999999985,-0.5918084066471165,0.0012155133423790137,0.023044601041712257,-0.033575706511431117,47.1875,-0.75,93.47366813294232,0.627958566695992,0.3006440227272729,-0.6633369979081136,-0.2743710450635385
310.0,0.0153826177032725,-0.2365454253658396,-0.04843713981412583,-0.12999999999999995,-9.779999999999985,-0.5962267839687199,0.042211960724238044,0.00902561970207613,-0.017734822952685254,47.1875,-0.75,93.4878421309873,0.6278771867350924,0.30068506958944297,-0.6634319799217989,-0.2743285641446723
311.0,0.02360368246742826,-0.2412337141273107,-0.05185699070629257,-0.12930669234472786,-9.779999999999985,-0.5953546052727567,0.09997574444493076,0.09797694080915072,-0.07664846588173502,47.19520341839191,-0.7451853635050554,93.48192961147342,0.6278195694171371,0.300715468648838,-0.6634286925367301,-0.274412174219664
312.0,0.018480522804066386,-0.23313718914344822,-0.028676546726618943,-0.13879022498666216,-9.784952048823007,-0.5276947394280086,0.33662912650033494,-1.835222368383177,0.1824764606270384,46.43110759411313,-0.8020826555973402,93.08351602631213,0.631872723701594,0.29602103520061773,-0.6629384633302657,-0.27115848628158445
313.0,0.02290595055159331,-0.24034262520059352,-0.040827357755619666,-0.13984314116716626,-9.783407924053073,-0.5627150790655844,-0.31363191768824894,-0.6024841069677371,-0.09669452465552608,45.319608456554775,-0.8091954496624694,93.28893746900488,0.6332276216675122,0.29019409155843856,-0.6668447860297466,-0.2645599227033534
314.0,0.016625310940924527,-0.23909297563238496,-0.03435006903329428,-0.13492157058358312,-9.781703962026528,-0.5916801201779534,-0.15146941122170524,-0.33283722043846936,-0.056955195149423245,44.79387680892255,-0.7795977248312347,93.45898486353468,0.6333801335472289,0.2872851582175495,-0.6692844373602242,-0.2612854667881094
315.0,0.012526483690068048,-0.2392053051663917,-0.03222901680462077,-0.13246078529179156,-9.780851981013257,-0.6061626407341377,-0.06647131763868998,-0.1393955510283854,-0.02889796640504675,44.50681743671934,-0.7647988624156173,93.5440085607996,0.6334920599994209,0.28571765701200047,-0.6705570744865639,-0.2595352006521193
316.0,0.011999881228760556,-0.23828103486533364,-0.03170189405469364,-0.131252058510123,-9.78042599050662,-0.6142705355813204,-0.08681353556465071,-0.012433692702445001,-0.008475824800982691,44.36545433704046,-0.7575498885982757,93.59174128088127,0.6335302154498789,0.28495005376117577,-0.6712057941643217,-0.2586577315923092
317.0,0.008018151651609129,-0.2402254697417405,-0.03614730742240726,-0.13034050179211465,-9.780058243727584,-0.6196548841812443,0.09164175269289229,-0.01811558608758862,-0.028477207967122012,44.380879958406894,-0.7520721326164874,93.62315104584604,0.6334278448037562,0.2848949172370988,-0.6713803917371987,-0.2585754073517376
318.0,0.00818612861172832,-0.23819761593962238,-0.04357178013674941,-0.12999999999999995,-9.779999999999985,-0.615031295137217,0.12199466055954487,-0.035057457022288935,-0.014251332070885869,44.41138811988445,-0.75,93.59394559460762,0.6335674367701578,0.28490412890976813,-0.6711608684241956,-0.25876651234766734
319.0,0.007083059774441576,-0.2391343867174393,-0.04536277556499029,-0.12999999999999995,-9.779999999999985,-0.613278767453057,0.03433893581943655,0.02196677900818488,0.017740294130520418,44.425704140587385,-0.75,93.58251083293212,0.6335917049831485,0.28493626395281674,-0.6710910012722313,-0.2588338511212267
320.0,0.007176580440903985,-0.23873185392684682,-0.04768620241899008,-0.12999999999999995,-9.779999999999985,-0.6114780934039477,-0.04238156723712813,0.02506620125180549,0.05943887600122555,44.43361819932595,-0.75,93.57149735194993,0.6336003741502164,0.2849596240731827,-0.6710558284502701,-0.25887340226258726
321.0,0.005319152040384588,-0.23932740987146395,-0.04767073722297602,-0.12999999999999995,-9.779999999999985,-0.6105536831969183,-0.01863300798062473,0.008726528647087145,0.023340044644811136,44.4375,-0.75,93.56584015406835,0.6336066934857965,0.28497078988444896,-0.6710289714398672,-0.2589020810927764
322.0,0.006441472986971303,-0.23932908769933336,-0.04561437679637005,-0.12999999999999995,-9.779999999999985,-0.6101155512758782,-0.026814698501626762,0.013315479056331247,0.016063378124042547,44.4375,-0.75,93.56316201251806,0.6336096621232543,0.2849707012566204,-0.6710207001397692,-0.2589085009411883
323.0,0.006774193548387097,-0.23910447761194042,-0.04540202214732787,-0.12999999999999995,-9.779999999999985,-0.6100577756379391,-0.03313071738083775,0.015828117477130477,0.026029128550794416,44.4375,-0.75,93.56283100625902,0.6336058421906592,0.28497290498314903,-0.6710220966778997,-0.2589093082956185
324.0,0.0053683196918632645,-0.23970630717380847,-0.0462156957149735,-0.12999999999999995,-9.779999999999985,-0.6099999999999997,-0.01621930669234473,0.01730259990370727,0.021876504573904672,44.4375,-0.75,93.5625,0.6336058717669711,0.28497314000000024,-0.6710210682908029,-0.25891057170919574
325.0,0.005694255992763457,-0.2397232313505786,-0.04968150450095561,-0.12999999999999995,-9.779999999999985,-0.6099999999999997,-0.02532061102114063,0.02235888008637166,0.04797037539574853,44.4375,-0.75,93.5625,0.6336059599999995,0.28497314000000024,-0.6710205099999988,-0.25891112999999977
326.0,0.005714244029121258,-0.23863147605083102,-0.05081090150420914,-0.12999999999999995,-9.779999999999985,-0.6099999999999997,0.00127204884667571,-0.0007969682379889414,0.03766176449132636,44.4375,-0.75,93.5625,0.6336059599999995,0.28497314000000024,-0.6710205099999988,-0.25891112999999977
327.0,0.005587020907194236,-0.23955646985016277,-0.05236019316905209,-0.12999999999999995,-9.779999999999985,-0.6099999999999997,0.014041777913949314,-0.003016442713120613,0.023525152828234194,44.4375,-0.75,93.5625,0.6336059599999995,0.28497314000000024,-0.6710205099999988,-0.25891112999999977
328.0,0.005682292350563898,-0.23918121999970832,-0.05210209947330792,-0.12999999999999995,-9.779999999999985,-0.6099999999999997,0.005170263054230314,0.011220473876949563,0.02757564815220087,44.4375,-0.75,93.5625,0.6336059599999995,0.28497314000000024,-0.6710205099999988,-0.25891112999999977
329.0,0.00639675522679856,-0.23920062444376372,-0.05410352927444885,-0.12999999999999995,-9.779999999999985,-0.6099999999999997,-0.010880804919683108,0.000464594184502707,0.015412763893144249,44.4375,-0.75,93.5625,0.6336059599999995,0.28497314000000024,-0.6710205099999988,-0.25891112999999977
330.0,0.006875300914780935,-0.23952816562349555,-0.05261916225324987,-0.12999999999999995,-9.779999999999985,-0.614776119402985,-0.024584737602311026,0.007974241694752048,-0.002648050072219546,44.4375,-0.75,93.59235074626865,0.6335029897929707,0.2850168677611941,-0.6711253585315349,-0.2588650538517091
331.0,0.00897667089771086,-0.2390205862184679,-0.04627580572212253,-0.12999999999999995,-9.779999999999985,-0.6180967596037408,-0.02543641761865161,-0.014698319254169038,0.0168275192950205,44.42332600195503,-0.75,93.61310474752338,0.63345853573715,0.2849816418473614,-0.6712361690653763,-0.258754926178054
332.0,0.007840124888752718,-0.23809544652106052,-0.05199019564931938,-0.12999999999999995,-9.779999999999985,-0.61483039348711,0.009847208240323311,0.07092743759209816,0.030257437154403932,44.44360948191593,-0.75,93.59268995929443,0.6335098129125629,0.2850971964368771,-0.6710596056910458,-0.25898385639792243
333.0,0.006954231773682906,-0.23781575991012693,-0.06144760070614667,-0.12999999999999995,-9.779999999999985,-0.6072539064209748,0.051919653929764664,0.03603500094833749,0.033678747027326705,44.47281280547409,-0.75,93.54533691513109,0.6336523896820878,0.2851926804765029,-0.6707565378455231,-0.25929401706992905
334.0,0.007665047198027458,-0.23719948643877398,-0.06329364905676892,-0.12999999999999995,-9.779999999999985,-0.6055770998380534,-0.07283687865657051,0.04358340263491924,0.037795808348287885,44.487414467253174,-0.75,93.53485687398783,0.6336501755839571,0.2852790851747128,-0.6706785104721258,-0.2594242775427848
335.0,0.007077223851417399,-0.23797653958944293,-0.06217986314760507,-0.12999999999999995,-9.779999999999985,-0.6076392961876831,-0.08907624633431085,0.056237781036168125,0.0323802541544477,44.495204056696,-0.75,93.54774560117302,0.6335678043988273,0.2853466941691103,-0.6707192712952097,-0.2594540955180843
336.0,0.004903342524912095,-0.2357002378138633,-0.07365605987657022,-0.12999999999999995,-9.779999999999985,-0.5961617134269999,0.11714931573802541,-0.08828110182226696,-0.003648819684568358,44.53131109481916,-0.75,93.47601070891875,0.633939220924046,0.2852689477631637,-0.6702883479231401,-0.2597086761626618
337.0,0.006607818995041366,-0.23535086266994754,-0.0899059338016027,-0.12999999999999998,-9.779999999999983,-0.5803168208428721,0.20932944451527902,-0.16392889720719367,-0.017939496543801454,44.529341450975394,-0.75,93.38305773662606,0.6345046840181665,0.28505110124961697,-0.6697731488249303,-0.2598859252179495
338.0,0.004823875649167142,-0.2362508825247726,-0.09134913853529748,-0.12999999999999998,-9.779999999999983,-0.5788343853853257,0.13738236571192236,-0.08151353236368204,-0.0018620043667928353,44.5146707254877,-0.75,93.37364249373431,0.6345944840649331,0.2849329108366524,-0.6697695352670625,-0.2598146237259704
339.0,0.009210605775153303,-0.23686962357662167,-0.0898476919241609,-0.12999999999999998,-9.779999999999983,-0.579028629642809,0.09105029090807595,-0.04636563532585701,0.04463273886210919,44.507335362743845,-0.75,93.37189272780557,0.6346035967269925,0.284883891080594,-0.6698030461990245,-0.2597623513546763
340.0,0.007628274539580561,-0.23571731423210365,-0.09172492123089765,-0.12999999999999998,-9.779999999999985,-0.5790304438536621,-0.004618427370986458,-0.019379665170259883,0.013595083996059482,44.50365240766713,-0.75,93.3704221703544,0.6346074517310425,0.28485857579200763,-0.6698205471610956,-0.25973736367342803
341.0,0.007309563365120083,-0.23426453097257577,-0.09581672156874686,-0.12999999999999995,-9.779999999999985,-0.5748763196639519,0.04609292882774702,-0.052735691997744284,-0.00897039252291393,44.50081813931744,-0.75,93.36634673756045,0.6346962049555552,0.28479256842561385,-0.6697492566811731,-0.25978046955216905
342.0,0.0067093976383392675,-0.23394798476137524,-0.09692274353607158,-0.12999999999999998,-9.779999999999985,-0.5725036109773711,0.09563742225563573,-0.01795699568399163,-0.03151730994844648,44.5,-0.75,93.36620797813589,0.6347527040344424,0.28475381969667807,-0.6696935004108227,-0.25981037528250595
343.0,0.006924751780171079,-0.2333991247831913,-0.10151625862407813,-0.12999999999999998,-9.779999999999985,-0.5711218103033222,0.008714835345439438,-0.01380818007598715,-0.028517441685826518,44.5,-0.75,93.33845124472514,0.6349184373662826,0.28470829423688016,-0.6695263301837453,-0.25988294671924994
344.0,0.008027500929027452,-0.23340082835777998,-0.10437349649887528,-0.13,-9.779999999999985,-0.5688815882636158,0.05498898469529187,-0.004381716138987656,-0.00668982905894883,44.5,-0.75,93.32446755784643,0.635011760201168,0.2846759128584779,-0.6694323035738461,-0.259929042135716
345.0,0.0079042685485802,-0.23459630860704256,-0.10637296525823528,-0.12999999999999998,-9.779999999999985,-0.5641182134866465,0.005653094498183568,0.01818426412014449,-0.026056913551957307,44.5,-0.75,93.31747571440708,0.6350807645189611,0.2846374836873035,-0.6693629473856526,-0.2599743283259225
346.0,0.009387858877082591,-0.23340792801560611,-0.10581527415535741,-0.12999999999999998,-9.779999999999985,-0.5618785578747628,0.04785844421587079,-0.012077222778637433,-0.027442274782719142,44.5,-0.75,93.31416034155598,0.635112150227704,0.28462004695920307,-0.6693312095161295,-0.2599950025332068
347.0,0.010602975290873562,-0.23256907630211907,-0.10655670671997952,-0.12999999999999998,-9.779999999999985,-0.5607779886148008,-0.04878086066133023,0.01788632630362076,-0.006120826564091737,44.5,-0.75,93.3125,0.6351270911574951,0.28461308949248076,-0.6693162688425053,-0.2600054912971197
348.0,0.00830029814700862,-0.23389293827567373,-0.1030350726100393,-0.12999999999999998,-9.779999999999985,-0.5622011385199241,0.07025169349045697,0.0038754042234918212,-0.05105632084102516,44.50189753320683,-0.75,93.30585863377608,0.6350896809867174,0.28468639152992165,-0.6693013294876662,-0.26007578738480275
349.0,0.006696914770635353,-0.2338153977396099,-0.09532509953252542,-0.12499277804525762,-9.779999999999985,-0.571309297912713,0.05326481273123772,-6.227487712378286e-05,-0.022439579959440334,44.53320683111954,-0.75,93.34143738140418,0.6348288757251692,0.2847719735543346,-0.6695248352703279,-0.26004347364496305
350.0,0.005534849471806056,-0.2348962021014474,-0.0894468832309043,-0.12233509870004822,-9.779999999999985,-0.5759772296015173,-0.03522473023874932,-0.0074131241326573965,0.008275156475686087,44.5488614800759,-0.75,93.35922675521822,0.6346968378625847,0.28481545951910275,-0.6696386937641963,-0.2600266218224815
351.0,0.005213260075334901,-0.2367259055764821,-0.08855589226542808,-0.1210062590274435,-9.779999999999985,-0.5783111954459195,0.011741871760740888,0.0018152241638109256,-0.013210158883004332,44.55668880455408,-0.75,93.36812144212524,0.6346308189312925,0.2848372025014868,-0.6696956230111305,-0.26001819591124076
352.0,0.006563531746133917,-0.2361493142361336,-0.09048933785445723,-0.12034183919114116,-9.779999999999985,-0.5794781783681205,0.034460575658021776,-0.02770391240708653,-0.018057166513473687,44.56060246679317,-0.75,93.37256878557875,0.6345978094656464,0.28484802990986713,-0.6697240876345977,-0.2600139682637571
353.0,0.005452356983411389,-0.23682350709794153,-0.0900099210691411,-0.12000962927298997,-9.779999999999985,-0.5799999999999991,0.009422280095125548,-0.009778818517383756,-0.009960279248916707,44.5625,-0.75,93.375,0.6345825787674533,0.28485106999999993,-0.6697386818343767,-0.26000977
354.0,0.004644811134941132,-0.23689514305306328,-0.08995681416962109,-0.1200000000000001,-9.779999999999985,-0.5799999999999991,-0.04164478195532601,0.0038371193883952673,-0.008455705344246509,44.5625,-0.75,93.375,0.634557128300433,0.28487646169956676,-0.6697387700000003,-0.26000977
355.0,0.00487053341458734,-0.23636864852367998,-0.0881641779821847,-0.1200000000000001,-9.779999999999985,-0.5799999999999991,-0.005466941179507381,0.0180100933410996,0.020495537202325838,44.5625,-0.75,93.375,0.634538319634087,0.2848952703659125,-0.6697387700000001,-0.26000977
356.0,0.003917445257358595,-0.23578656233831985,-0.08864176859891833,-0.1200000000000001,-9.779999999999985,-0.5799999999999991,-0.034976945298322286,0.002011969534237229,-0.0019032614392508473,44.5625,-0.75,93.375,0.6345289153009142,0.28490467469908537,-0.6697387700000003,-0.26000977
357.0,0.004879054984495524,-0.23452573473709748,-0.0882578344460867,-0.1200000000000001,-9.779999999999985,-0.5799999999999991,0.0002595723166257599,0.0023653444934138247,-0.004021645382382023,44.5625,-0.75,93.375,0.6345242131343276,0.2849093768656718,-0.6697387700000003,-0.26000977
358.0,0.003797937899045265,-0.23476346891753747,-0.08587577788925885,-0.1200000000000001,-9.779999999999985,-0.5799999999999991,0.011696915265764569,0.00999348508977782,0.01642782871117007,44.5625,-0.75,93.375,0.6345218620510344,0.284911727948965,-0.6697387700000001,-0.26000977
359.0,0.0031068501391082032,-0.23568538987893844,-0.08571697120084214,-0.1200000000000001,-9.779999999999985,-0.5799999999999991,-0.03788348748026167,0.014651477554703361,0.00037878787878787776,44.5625,-0.75,93.375,0.6345214799999992,0.28491211000000016,-0.6697387700000001,-0.26000977
360.0,0.0037742687420106776,-0.23568636739604498,-0.08950612828032181,-0.1200000000000001,-9.779999999999985,-0.5799999999999991,0.052599819535303405,0.011295962102413716,-0.016978720204526655,44.5625,-0.75,93.375,0.6345214799999992,0.28491211000000016,-0.6697387700000001,-0.26000977
361.0,0.002473494247687796,-0.23585442514474791,-0.08508286337318594,-0.1200000000000001,-9.779999999999985,-0.5799999999999991,0.03869181893375442,0.012809703737123092,0.006299815775622228,44.5625,-0.75,93.375,0.6345214799999992,0.28491211000000016,-0.6697387700000001,-0.26000977
362.0,0.0029400706820061663,-0.2348284833446125,-0.08155169561621173,-0.1200000000000001,-9.779999999999985,-0.5799999999999991,-0.03402041506880217,-0.01120572975411685,0.0003242725016918569,44.5625,-0.75,93.375,0.6345214799999992,0.28491211000000016,-0.6697392472629522,-0.26000977
363.0,0.0026958417926159868,-0.2354291300097753,-0.08587758478081056,-0.1200000000000001,-9.779999999999985,-0.5762679900744413,-0.016870629370629373,-0.001911797879539814,-0.010833521317392285,44.5625,-0.75,93.35862282878412,0.6346140495682383,0.2848733377518613,-0.6696774584974813,-0.26004175634243165
364.0,0.0027374990600797064,-0.23681630197759243,-0.09031100082712984,-0.1200000000000001,-9.779999999999985,-0.5729727047146401,0.05898093841642228,0.05133938642003158,-0.015590457929167608,44.584832506203476,-0.75,93.33455334987593,0.634704920674938,0.2849484566004962,-0.6694798457822393,-0.26026129873449133
365.0,0.0033613053613053643,-0.23585728250244392,-0.08502398676592224,-0.1200000000000001,-9.779999999999985,-0.5754540942928035,-0.0779692082111437,-0.04593390480487255,0.03638901421159486,44.60592431761786,-0.75,93.349317617866,0.6345497140049626,0.285144498605459,-0.6694634291814422,-0.26042777313647647
366.0,0.003838220918866082,-0.23646089931573816,-0.08378742762613729,-0.1200000000000001,-9.779999999999985,-0.5777270471464013,-0.008595336115497405,0.0614933453643131,0.09788588427701331,44.61647022332506,-0.75,93.362158808933,0.6344095892605457,0.2852803197866004,-0.669538095719753,-0.26047078705210935
367.0,0.005356699751861043,-0.23451923076923087,-0.08398511166253098,-0.1200000000000001,-9.779999999999985,-0.5906947890818852,-0.08503024193548386,0.025341191066997514,-0.003570874689826302,44.621743176178654,-0.75,93.44302109181142,0.6339871902133996,0.2854945935334987,-0.6699030358709679,-0.2603425380595533
368.0,0.005453896909542072,-0.23771513835626745,-0.09113722836303478,-0.12398826979472144,-9.779999999999985,-0.591798330701556,0.11338334884201817,0.01059149184149184,0.04839361747123844,44.652238890142115,-0.7495112414467253,93.45790942928039,0.6338271220730882,0.28581169317467486,-0.6698390543341604,-0.26054983527768993
369.0,0.004190968305887661,-0.235314144860516,-0.09192593428077299,-0.12318520189487936,-9.779999999999985,-0.5911423415294383,0.09879775382547559,-0.04647224415369577,0.025515046949018724,44.69798669072863,-0.7497556207233627,93.44972084367245,0.6337711542896459,0.2859877756220769,-0.6697519405839532,-0.26071928451477555
370.0,0.003907800868486353,-0.23515831312504715,-0.09104357470486504,-0.12159260094743973,-9.779999999999985,-0.5907647191518162,0.10645015896401985,-0.026379215542521994,-0.022820339522708472,44.72600947439657,-0.7498778103616813,93.44478908188586,0.6337387785120687,0.2860732872924281,-0.6697184094855244,-0.26079642189262353
371.0,0.004075494398075043,-0.23535919993984528,-0.08946973456650875,-0.12079630047371992,-9.779999999999985,-0.5905436498984891,0.004854688322430259,0.01886608015640273,0.0007481765546281677,44.740020866230545,-0.7499389051808406,93.44215260545906,0.6336729955610195,0.2861898002884427,-0.6696775775775615,-0.2609102273050603
372.0,0.0035166553876231294,-0.23605180840664725,-0.08903759681179034,-0.12039815023686001,-9.779999999999985,-0.590063388224679,0.001527840439130763,-0.007750582750582749,-0.03222516730581247,44.747026562147525,-0.7499694525904204,93.43850806451613,0.633639659591924,0.2862630529084893,-0.669636900607639,-0.26099233336468874
373.0,0.004329197684036394,-0.23418181818181838,-0.08594841717422361,-0.12007444168734502,-9.779999999999985,-0.5899950372208441,0.011531882096398225,-0.015544401834724414,-0.01913677720129333,44.749658808933006,-0.75,93.4375,0.6336213033516802,0.2862931557455447,-0.6696243243091955,-0.26102487322926504
374.0,0.004499586435070306,-0.23394698849537576,-0.08602383637867506,-0.1200000000000001,-9.779999999999985,-0.5900000000000005,-0.020924505601924954,-0.013153714565004887,0.0013187081735468835,44.75,-0.75,93.4375,0.633611329618768,0.286307566979472,-0.6696199215640268,-0.2610388881133916
375.0,0.004493871719678172,-0.23475140988044232,-0.0869026994510865,-0.1200000000000001,-9.779999999999985,-0.5900000000000005,0.002249699225505679,-0.010379069854876306,-0.018122603203248364,44.75,-0.75,93.4375,0.633606675938416,0.28631469687683275,-0.6696173264271743,-0.26104607728250206
376.0,0.0061667794571020375,-0.23580434619144308,-0.08277930671479056,-0.1200000000000001,-9.779999999999985,-0.5944574780058652,-0.04675821490337619,0.00936630573727348,0.014429656365140237,44.75,-0.75,93.46535923753666,0.6334990441055717,0.2863593532746824,-0.6697264790811335,-0.261009177321603
377.0,0.004145424468005114,-0.23605105647041147,-0.08212662606210992,-0.1200000000000001,-9.779999999999985,-0.6025513196480937,-0.06198022407699826,0.028054740957966767,0.01572909617264456,44.75,-0.75,93.51594574780059,0.6333004865689149,0.28643213986314786,-0.6699236050244377,-0.2609337654349951
378.0,0.004371757274983081,-0.23687480261673827,-0.08434453718324685,-0.1200000000000001,-9.779999999999985,-0.606598240469208,-0.02502725768854801,0.016875328972103167,-0.0035040228588615694,44.75,-0.75,93.54123900293254,0.6332012078005866,0.28646853315738063,-0.6700221679960897,-0.26089605949169115
379.0,0.0058651026392961885,-0.23533288217159198,-0.08668441236183169,-0.1200000000000001,-9.779999999999985,-0.6086217008797651,-0.016121512895706444,-0.0020979020979020966,-0.005025753816076397,44.75,-0.75,93.55388563049854,0.6331515684164224,0.28648672980449696,-0.6700714494819157,-0.2608772065200392
380.0,0.00632712929824148,-0.23496517076247475,-0.08629702266919403,-0.1200000000000001,-9.779999999999985,-0.6096334310850436,0.032895365547628425,-0.026442454993249404,0.0034035706309418394,44.75,-0.75,93.56020894428153,0.6331267487243402,0.2864958281280552,-0.6700960902248287,-0.2608677800342132
381.0,0.008122020172092397,-0.23471865576246911,-0.08426043704329689,-0.1200000000000001,-9.779999999999985,-0.6099999999999997,0.03900694474839876,-0.007844883410603196,-0.02250703677641569,44.75,-0.75,93.5625,0.63311768,0.28649902000000044,-0.6701049799999997,-0.26086426000000007
382.0,0.006645432885201785,-0.237033710311515,-0.08333547017899448,-0.1200000000000001,-9.779999999999985,-0.6099999999999997,-0.007693205526619104,0.0021046498838988015,0.0005504425762008821,44.75,-0.75,93.5625,0.63311768,0.28649902000000044,-0.6701049799999997,-0.2608642600000001
383.0,0.005594315810974455,-0.23597591222771788,-0.08109430851607068,-0.1200000000000001,-9.779999999999985,-0.6099999999999997,-0.042171382821960576,-0.0014690112487416285,0.010407092105455129,44.75,-0.75,93.5625,0.63311768,0.28649902000000044,-0.6701049799999997,-0.2608642600000001
384.0,0.00799754891232985,-0.2348036941392745,-0.08360922659430121,-0.1200000000000001,-9.779999999999985,-0.6099999999999997,-0.020948228067871784,-0.005774828205015976,-0.015232670956070088,44.75,-0.75,93.5625,0.63311768,0.28649902000000044,-0.6701049799999997,-0.2608642600000001
385.0,0.007819188514903489,-0.23540858756073024,-0.08478968792401627,-0.1200000000000001,-9.779999999999985,-0.6105392392874334,-0.06376612173735428,0.011390992252812185,-0.021262820793393734,44.75,-0.75,93.56538878189696,0.6330363384496875,0.28654039806451614,-0.6701562318440062,-0.26085344563312485
386.0,0.008835003866299006,-0.2365597233772488,-0.0795874002421908,-0.1200000000000001,-9.779999999999985,-0.6151227732306209,-0.15723891539370594,0.05847321311331904,-0.03493438234049693,44.75,-0.75,93.59427660086664,0.632787845392393,0.28666875785267215,-0.6703356056716416,-0.26080055026480514
387.0,0.008803635780044065,-0.2365971462336413,-0.07128142279803329,-0.1200000000000001,-9.779999999999985,-0.622883967260472,-0.06569516785573598,0.03239621175646693,0.009118629725273924,44.75,-0.75,93.64290442946557,0.6325432349542612,0.2868044050553683,-0.6705353121906595,-0.2607378967453058
388.0,0.01003720400927912,-0.23798821143549131,-0.07010307699041449,-0.1200000000000001,-9.779999999999985,-0.6267645642753974,-0.034588786273909045,-0.00034331640915656256,-0.020184086896893827,44.75,-0.75,93.66721834376503,0.6324209297351954,0.2868722286567164,-0.6706351654501685,-0.2607065699855561
389.0,0.008527888417151781,-0.2376109190119784,-0.07119767730263638,-0.1200000000000001,-9.779999999999985,-0.6287048627828602,-0.007519222071460876,0.033720692724062966,0.016942414029558952,44.75,-0.75,93.67937530091478,0.6323597771256624,0.2869061404573905,-0.670685092079923,-0.2606909066056813
390.0,0.005835923024175313,-0.23802308107556075,-0.059633504034081776,-0.1200000000000001,-9.779999999999985,-0.6296581608088594,0.018086802060080828,0.015957602019229366,0.012744196904042836,44.75,-0.75,93.68536350505536,0.6323317427443432,0.2869218032932114,-0.670708453774675,-0.2606834128647087
391.0,0.0055743277746166525,-0.23928466173531185,-0.05324652397834871,-0.1200000000000001,-9.779999999999985,-0.6300000000000003,0.015384040209509637,0.004368735501378737,0.028659853226535942,44.75,-0.75,93.6875,0.6323242200000004,0.28692627000000004,-0.6707153299999999,-0.26068115
392.0,0.0054627886958171015,-0.2382876672356693,-0.052577216556513595,-0.1200000000000001,-9.779999999999985,-0.6300000000000003,-0.021032119461344305,0.003056564683911819,0.005178469820983061,44.75,-0.75,93.6875,0.6323223107135879,0.2869267472629521,-0.6707186711534703,-0.26067971821114366
393.0,0.005252749337005477,-0.23963247938067403,-0.0465315964728579,-0.1200000000000001,-9.779999999999985,-0.6300000000000003,-0.10570977730342199,0.003040144136075768,0.016256145956434834,44.75,-0.75,93.6875,0.6322287569696968,0.28695800798631466,-0.6708425237132114,-0.26061743023460415
