time,linaccel_x,linaccel_y,linaccel_z,gravity_x,gravity_y,gravity_z,gyro_x,gyro_y,gyro_z,euler_x,euler_y,euler_z,quaternion_w,quaternion_y,quaternion_x,quaternion_z
0.0,0.04142857142857144,0.1064285714285714,-0.05357142857142857,-1.5076190476190472,0.3364285714285714,9.676666666666671,3.6101190476190474,-1.6220238095238095,1.6235119047619047,71.33333333333333,-8.837797619047619,-1.9925595238095237,0.8096778514285713,0.052621024285714274,0.059356689999999976,-0.5814049133333332
1.0,0.01714285714285715,0.07674603174603173,-0.05436507936507936,-1.43984126984127,0.35722222222222216,9.677777777777777,-3.600198412698413,0.7083333333333331,-0.8874007936507935,70.96428571428571,-8.442956349206348,-2.0967261904761902,0.8115621903174602,0.04960026809523809,0.05787925142857143,-0.5788143096825396
2.0,0.01478879924062649,0.06730976111374781,-0.03605679481094764,-1.5277725043505774,-0.012884828349944671,9.670276854928021,-1.748922243315931,-0.030315614617940245,-0.3412780809998417,71.5079496915045,-8.960602554975479,0.0847917655434266,0.8086411803021674,0.06416274200759373,0.04526454004746084,-0.5825602646812212
3.0,0.010413634767576913,0.05976894543031809,-0.028924065220718657,-1.5759198516237651,-0.2577202369698117,9.661673914413566,-0.6421799737100362,-0.11902533560219326,-0.3104826166617147,71.85086432758015,-9.246655176061726,1.5216833117251438,0.8067294511003611,0.07337423791248682,0.03672145774572563,-0.5848513267699358
4.0,0.013149454611039519,0.06455793826505407,-0.026038526182068172,-1.6128030004016682,-0.3263623266443789,9.657246210507331,0.2829697515842375,-0.07909828066772791,0.34746232834340995,72.03690055789208,-9.465739447710359,1.927542616272535,0.8056942916998673,0.07690856378253971,0.0350840555298058,-0.5860854752880642
5.0,0.02237349842687153,0.07467912274235806,-0.023706667084889697,-1.6234982743943827,-0.2903893046432341,9.658354288049368,0.0678961661146994,0.16403188885200395,0.1283442594098002,71.79725212226401,-9.532720914331371,1.7178755708090785,0.8069202717485512,0.07640703882675372,0.03668894837166173,-0.5844659903782872
6.0,0.021815781471500286,0.0825346458565861,-0.022970077014027035,-1.6570724858915078,-0.2712530240574081,9.654107251551565,0.32274416600665845,0.154217365316939,0.014863373944531424,71.74733957879714,-9.730142139193335,1.5984347132079186,0.8071410761361804,0.07719365821982849,0.03845044766739768,-0.5840042051269316
7.0,0.029923644674234764,0.09242486231313926,-0.023770109774830475,-1.6734117118129705,-0.25481255854033197,9.652462477988836,-0.4634591247986212,0.06475872016784684,-0.15496047356786932,71.74438434303698,-9.823154340414373,1.5061378367239893,0.8070860810553369,0.07738704721569067,0.03957453669641452,-0.5839837586452363
8.0,0.025436251920122884,0.0885806451612903,-0.017841781874039942,-1.713188940092166,-0.35514900153609846,9.64200307219662,-0.6200556835637481,0.39280913978494625,-0.1317780337941628,71.80362903225807,-10.059206989247311,2.10098886328725,0.8065526156236558,0.08206173907834102,0.03667237794930875,-0.5842559210307221
9.0,0.014271121351766513,0.07956374807987712,-0.018221966205837176,-2.2006044546850996,-0.5264984639016898,9.50259677419355,-2.5632584485407066,6.695463709677419,1.0653321812596006,71.28308371735791,-13.0397465437788,3.203590629800307,0.8061951709447004,0.10858541053456222,0.04375903789477725,-0.5784799279746544
10.0,0.01694354838709677,0.08369354838709678,-0.018427419354838707,-2.633879032258064,-0.7105403225806451,9.371879032258065,0.4382056451612901,-2.3497479838709676,-1.0506048387096776,71.06975806451612,-15.646068548387095,4.370362903225806,0.8045247724032258,0.13253139375806455,0.048823399217741925,-0.5750555716048387
11.0,0.02194354838709677,0.07614516129032257,-0.014516129032258063,-2.262717741935484,-0.6735806451612902,9.483185483870969,0.28870967741935477,-1.4772681451612901,-0.6686491935483871,71.94989919354839,-13.383921370967741,4.081703629032258,0.8024521356370968,0.1151474487016129,0.04004427978225805,-0.5828536004435483
12.0,0.02327419354838709,0.07644354838709677,-0.013572580645161286,-2.1139596774193548,-0.6615645161290321,9.531217741935484,0.16567540322580643,-0.4484374999999999,-0.09299395161290328,72.30725806451612,-12.46859879032258,3.9759576612903222,0.8016587291693551,0.10821380587903226,0.03643754522580645,-0.5860892023064515
13.0,0.025112903225806452,0.08977419354838709,-0.014201612903225806,-2.0619354838709674,-0.6358145161290321,9.55231451612903,0.2520665322580645,-0.24828629032258065,0.19566532258064512,72.33553427419355,-12.142842741935484,3.8097782258064514,0.8019558324354839,0.10508979011290323,0.03600660736290323,-0.5866137598790322
14.0,0.029368607395751378,0.11437155782848153,-0.012211447678992918,-1.9952181353265142,-0.5782147915027536,9.573788158929979,0.7906741738788354,-0.7851249016522424,-0.16223691974822974,72.36323514948859,-11.74305910700236,3.452491886309992,0.802284086006491,0.10046468364791503,0.03642736767604249,-0.5871486674238786
15.0,0.03512977220786033,0.12274434266232062,-0.01428256715746881,-1.9699383687385261,-0.46696146641189895,9.587555177775283,0.23792061228503986,1.3644195960248773,0.20493664765276687,72.55378299333108,-11.590725982072609,2.7818803037540745,0.8015970457868475,0.09593932520529391,0.04045353282822862,-0.5886613211848656
16.0,-0.002252875501105242,0.0830404443445356,-0.03667275486118917,-2.3740466824023074,-0.48865618560563473,9.473995429170884,-0.7197327750927278,1.1219293839683788,0.5177300517964857,71.80067444316437,-14.042257045914353,2.9643450741823085,0.8029999362646865,0.11421789501492075,0.050970018290884565,-0.5816796260392265
17.0,0.006089384062043388,0.0816834326177363,-0.030907037952868005,-2.039153525532951,-0.39184594994567445,9.559170141620768,0.42042115085609383,-1.1063008130081302,-0.7431427025963807,72.54753024193548,-12.021487345921845,2.3549307936195722,0.8009598292147165,0.09673852076840506,0.04540690053599527,-0.5882013935641601
18.0,-0.0005818440672885937,0.07027912030272378,-0.02910194447566595,-1.9611768011689334,-0.3761455172155407,9.584776891086882,0.12772329624217904,-0.9774783634933123,-0.39290631673597837,72.83650153609831,-11.543659379566144,2.2512785208497244,0.8000243663661907,0.09282286097598441,0.04399152945674571,-0.5906050856599602
19.0,-0.01396706755085984,0.06131973324341538,-0.03097167584579072,-1.8025733393278633,-0.36822412049005265,9.619981267093772,-0.10526371248735528,-0.14877674122363344,-0.1763890449964407,73.07019337042448,-10.59736896332097,2.192649207598067,0.7995856169253681,0.08584507647933759,0.03970332851073395,-0.5927492396352703
20.0,-0.023485069873740213,0.05019519688284442,-0.03070473193211195,-1.7954610168221494,-0.38886628451537975,9.623661908508485,-0.1423255966430632,0.16428290434978082,-0.31064075905736016,73.27211185418307,-10.551756678281068,2.31483458843805,0.798604441446555,0.08608421390019107,0.038835754240006,-0.5942412765726275
21.0,-0.023394777265745008,0.058837173579109066,-0.02939170506912443,-1.8376298003072198,-0.3799508448540706,9.618285714285715,0.20900537634408603,0.29933755760368663,-0.020574116743471565,73.37876344086021,-10.805318740399386,2.259600614439324,0.7979651663778802,0.0875049315299539,0.04062023627342551,-0.5948982673579108
22.0,-0.013999999999999999,0.06786635944700461,-0.02874807987711214,-1.8737803379416278,-0.3665929339477724,9.611814132104461,-0.0037538402457757275,0.2845526113671275,-0.0582373271889401,73.44302995391705,-11.020439708141321,2.1804531490015364,0.7975466877419357,0.08857601900921658,0.04232556443625192,-0.5952043228801842
23.0,-0.0048859915327263866,0.07198598778614515,-0.026528605147802635,-1.8631832078228614,-0.33081342025401805,9.615198681203406,0.1468886984376756,0.0037002173017122164,-0.10893840620433853,73.51335258139449,-10.95530258326777,1.9620080270503166,0.7972387917105018,0.08696664047918773,0.04353372561383986,-0.5957690998027425
24.0,-0.0031933797909407665,0.07523492937694354,-0.02900393391030685,-1.8939533550635044,-0.32686677157094146,9.609839739987269,-0.011367478738151443,0.2126411992806564,-0.07745787437713086,73.57484065321644,-11.137194302386572,1.9452753268892136,0.7968105421893523,0.08809898349765838,0.044666081089562014,-0.5961003461932298
25.0,0.0003180566483084186,0.078102871754524,-0.02576003147128246,-1.9433269079464988,-0.3431699449252557,9.599207120377656,-0.18745697285601887,0.32070712037765536,-0.10781495869394178,73.63259121754524,-11.431634785601888,2.0455399291896144,0.7963092293151061,0.09063198706372935,0.045567403953383157,-0.5963217392755702
26.0,-0.0033603461841070032,0.07712509834775767,-0.025000786782061378,-2.003501770259638,-0.367322383949646,9.58541974822974,-0.20709579071597167,0.49775644177812745,-0.23554533831628638,73.71407356412273,-11.788138031077892,2.1936553402832413,0.795598625517309,0.09384555282140046,0.046510049494295824,-0.5966904655725804
27.0,-0.005014555468135326,0.07546380802517703,-0.029546813532651466,-1.7621073957513766,-0.23463611329661688,9.628104642014161,1.7228338906372935,-2.937037765538946,-0.18453973249409913,73.97525078678206,-10.345235051140833,1.3966783044846576,0.7950900359917386,0.07952237352242329,0.044689141756490955,-0.5991731032450827
28.0,-0.012401249484845079,0.06661991869918699,-0.033181859053613594,-1.4627688827694727,-0.03780679817166835,9.679256509684917,1.0534643583042973,-1.204172989022517,-0.29636722116069086,74.25034386590985,-8.579819391367876,0.23450654012588507,0.7946956451205556,0.06097916537478925,0.043774547812980034,-0.6018662438356468
29.0,-0.016118251470533137,0.060074360271252486,-0.036236474841706945,-1.2265601326289757,0.10061215390955755,9.713878638867033,0.6754588976621333,-1.5398673124836089,-0.322593172792327,74.6227717793451,-7.185728628095612,-0.5852464899216966,0.79341716818835,0.0468021917572871,0.042290896446236556,-0.6049932285578004
30.0,-0.016915439661309054,0.0673976246674909,-0.027947997452324756,-1.0927110261886026,0.14865422801693454,9.73364280094414,-0.05618466898954705,-0.2898964070285864,-0.33752716271402344,74.87196995241841,-6.397250009366452,-0.8694691094376382,0.79250079113971,0.039765720953879584,0.04023564354314188,-0.6070343053366305
31.0,-0.009073095800082425,0.06798995916226441,-0.031645123824510145,-1.113087932261811,-0.011409838522348378,9.733375669701395,-1.7275626615713162,0.5201659735491364,-1.3475633172230341,75.66681887152973,-6.517800944138473,0.0790083736090817,0.7882269398669963,0.04553781331197783,0.034601690336442996,-0.6125071359458245
32.0,0.01289685661833577,0.06413941028811208,-0.022771908133827887,-1.243221123225057,-0.30120040463077447,9.709818103480576,-1.5597907534374884,0.861865891124349,-0.6516487299089582,76.58188738713423,-7.283896023004009,1.7856077423101417,0.782818025295418,0.059800825224982215,0.027468850375032782,-0.6184109054576448
33.0,0.02954085646847253,0.07128620134127608,-0.021120977108388603,-1.3673757071672101,-0.49169195609006794,9.685844104754416,-0.8741593608332396,0.6659360833239669,-0.3398242853396276,77.07838784609044,-8.016998941590797,2.9095598703682883,0.7796907669978645,0.07076693922089844,0.02400262143213068,-0.6214246680036344
34.0,0.028371810722715527,0.07644494398861039,-0.020124236634071417,-1.4673767936757707,-0.6184496646809787,9.667308381102245,-0.6101883593720729,0.6120579034131355,-0.36282688921359263,77.51092971413584,-8.60264789629463,3.660434697088906,0.7769509980734333,0.078737964325503,0.02234915587044322,-0.624065419939605
35.0,0.035597991832452894,0.0908396463227305,-0.01797695852534563,-1.5111918624255365,-0.6855724776141771,9.65891214266982,-0.13592198681203405,-0.045595893746955884,-0.29948812333745456,77.74271477276984,-8.860637012476115,4.054531021692705,0.7755249378793978,0.08254228227383763,0.021232401461691204,-0.6254896859753849
36.0,0.040015585777977605,0.10263257277734067,-0.015133640552995396,-1.485880109400172,-0.6968131205275186,9.66171259975273,-0.09297539432767599,0.025435540069686416,-0.21515304784384248,77.94268035105466,-8.716455218987674,4.118903375669701,0.7745186985149677,0.08185678691648869,0.020084130534225017,-0.6268941333402269
37.0,0.04072591884905026,0.1096918624255367,-0.012248079877112138,-1.4894953542392564,-0.7108527968228991,9.660441553332591,-0.0073171902513956,0.08841861488891387,-0.17502084035817317,78.09708422314638,-8.734835712412423,4.203484905960811,0.7736488270992656,0.08244413669941178,0.019725582797834477,-0.6279092617507587
38.0,0.03513479262672812,0.0992684331797235,-0.013672427035330264,-1.472071044546851,-0.690646697388633,9.664415898617516,-0.02106614823348694,-0.08435579877112136,-0.1255808371735791,78.21824116743471,-8.63123079877112,4.079466685867896,0.7730529709327958,0.08107479314592933,0.020083692547619048,-0.628812865093318
39.0,0.02966820276497696,0.0814930875576037,-0.014775729646697393,-1.4519347158218125,-0.6750814132104457,9.667502304147469,-0.023007872503840246,-0.014506528417818743,-0.17433275729646697,78.3163786482335,-8.509365399385562,3.9867847542242703,0.7725841613655913,0.07972250902457757,0.02011003918509984,-0.6295645625506912
40.0,0.03185099846390169,0.0633225806451613,-0.01564669738863287,-1.3913644393241167,-0.6232895545314903,9.679467741935486,0.595696524577573,-0.7007728494623655,-0.23410858294930875,78.46893241167436,-8.1552491359447,3.6744119623655913,0.771972192234255,0.07559693058909372,0.020320982892089084,-0.6307856752814899
41.0,0.025941628264208913,0.05951612903225806,-0.03767818740399385,-1.3178233486943165,-0.5415238095238097,9.69504838709677,0.05190572196620588,-0.2743279569892473,-0.2767569124423963,78.57257104454686,-7.716863479262672,3.1930779569892476,0.7717153386897082,0.07001149173809526,0.02118887959523809,-0.6317041633786482
42.0,0.020693548387096774,0.06403225806451614,-0.02668548387096774,-1.2827580645161287,-0.534241935483871,9.700362903225804,0.08341733870967744,-0.6045362903225806,-0.32096774193548383,78.74153225806452,-7.511945564516129,3.151209677419355,0.7708935650645163,0.06836749671774195,0.020446925362903223,-0.6329285653629033
43.0,0.025088709677419357,0.07200806451612905,-0.019806451612903224,-1.264741935483871,-0.5151532258064515,9.703532258064516,0.1407258064516129,1.4918346774193547,-0.2762096774193548,78.9584677419355,-7.4135080645161295,3.036038306451613,0.7697564896935485,0.06706247678225807,0.020810379491935482,-0.6344142792258064
44.0,0.0360241935483871,0.06670967741935484,-0.01661290322580645,-1.4712822580645164,-0.4954274193548387,9.673862903225803,-0.04682459677419354,0.9722278225806451,0.0454133064516129,79.10347782258063,-8.632409274193549,2.9284274193548385,0.7683620323387096,0.07456079333870969,0.02839980563709677,-0.6349111247741935
45.0,0.028169354838709682,0.0598225806451613,-0.017201612903225808,-1.6074919354838708,-0.4917096774193548,9.653282258064511,-0.06754032258064516,0.5984375,-0.15161290322580645,79.18321572580645,-9.43492943548387,2.9046874999999996,0.7674939553225807,0.07978747033064518,0.03307701797580646,-0.6351204164354838
46.0,0.021362903225806452,0.05143548387096776,-0.018758064516129037,-1.6775080645161284,-0.4887741935483871,9.643072580645155,-0.017137096774193547,0.25161290322580643,-0.15942540322580645,79.31970766129032,-9.848639112903225,2.894203629032258,0.7665374259838708,0.0824123258467742,0.03557601356451613,-0.6358486046209675
47.0,0.01570967741935484,0.04613709677419357,-0.016612903225806455,-1.7165725806451608,-0.493209677419355,9.635854838709673,-0.10070564516129032,0.12580645161290321,-0.11910282258064517,79.4608366935484,-10.08155241935484,2.9245967741935486,0.7656402579193545,0.08407272793548387,0.036790515209677424,-0.6366680024516129
48.0,0.014428599527930762,0.045944138473642815,-0.014391030684500393,-1.731857002360346,-0.5358568056648308,9.631583792289533,-0.032184303697875685,-0.5154676435877262,-0.219547846184107,79.67806353265146,-10.168440204563336,3.181779848544453,0.7643299267580642,0.08601122131884342,0.03573518298131392,-0.6380559263599528
49.0,0.020790912667191193,0.05191561762391819,-0.02104228953579859,-1.5904728560188826,-0.4879042092840283,9.65751770259638,0.5279098642800943,-0.7519374508261212,-0.5871680763178599,80.07738862116445,-9.332506392604248,2.8892014162077104,0.7625865833629031,0.07872390067958301,0.033222511446302117,-0.641155126688041
50.0,0.0010285208497246272,0.056074744295830065,-0.022105822187254136,-1.3780267505900863,-0.40816581431943355,9.692589496459483,0.36392973052714395,-1.0892751770259639,-0.20331186073957513,80.41382031864674,-8.07895480920535,2.409973691974823,0.7614079633145159,0.06764706887608182,0.02952772163040912,-0.6439218857795044
51.0,-0.0023672305271439805,0.06333890637293471,-0.017000393391030686,-1.2492132179386308,-0.3655717938630999,9.712445318646738,0.04557435090479936,-0.5204096184107002,0.009692171518489376,80.44975781864673,-7.319971970889063,2.154606363099921,0.7615941069931156,0.06116197914752164,0.02696151393666404,-0.6445052224026356
52.0,0.008359203476827394,0.0656504439698775,-0.024241748154808743,-1.2310121389232327,-0.4057707279607359,9.713848619384812,-0.6272320257764789,0.9829523528530215,0.027762752425911346,80.58496075456145,-7.2140110430482185,2.3928333754823723,0.760853369780544,0.061783611207017336,0.024863518495597765,-0.645442164207654
53.0,0.019934725188265716,0.057384811359634344,-0.022123871342400063,-1.457744277097149,-0.493194082274924,9.675123328088116,-0.5055240998838559,1.003961658424188,0.018995459611854185,80.39669621782623,-8.550586691206775,2.9192282159716756,0.7611796878395807,0.07361780176195158,0.028834059955528082,-0.6435510510416712
54.0,0.02966140272001799,0.051549211344648016,-0.020693229927690987,-1.5502033737964107,-0.5462621670225919,9.659649685287171,-0.5835731730733206,0.3102789212655951,-0.3368922928140572,80.42417914746544,-9.095105501386234,3.23664314516129,0.7607118057279139,0.0789920262207673,0.029838573260218805,-0.6434731333069292
55.0,0.0410452961672474,0.05174628151811474,-0.017276984751414336,-1.5645771983065453,-0.6078936720242777,9.654374508261204,-0.216994960848226,0.0813546701135214,0.008293994230264834,80.55086686523546,-9.180866209583755,3.594561369000787,0.7598944749533549,0.08155050302836163,0.028035841296317116,-0.6442490095683939
56.0,0.049766550522648084,0.05442546176613841,-0.01566760331197782,-1.5908771121351768,-0.6436879847139485,9.649102281667968,-0.13892135925967555,-0.024551815218613007,0.08220561237870441,80.59313111161066,-9.334404387246638,3.804863296616837,0.7595474682886365,0.08373548731433816,0.027547210760668395,-0.6444303859061482
57.0,0.05993473455471883,0.060968491251732815,-0.014044247124498897,-1.5896758832565285,-0.6419791690082799,9.649315349743354,0.2517470776666292,-0.30514265108088867,0.2726888276947286,80.4822990427485,-9.325180304222396,3.7969256959274658,0.7602187168263461,0.08366334371323667,0.02749145355160916,-0.6436616996097562
58.0,0.053889850511408356,0.05650668764752165,-0.01778127458693942,-1.4923658536585365,-0.5715798583792289,9.66951848937844,-0.06327202989771835,-0.2813729346970889,0.17253638867033833,80.08768194335168,-8.749242722265933,3.378697875688434,0.7628038069402044,0.0776018263729347,0.026736399919748226,-0.6413579547340678
59.0,0.052121951219512214,0.049316286388670354,-0.016833988985051146,-1.4470082612116437,-0.5510416994492526,9.676995279307631,-0.07263227773406766,-0.09873623131392603,0.0886826317859953,79.98333743115657,-8.483408733280882,3.2566974822974037,0.7635699469429582,0.07517175793076318,0.02599840054681353,-0.6407897814897718
60.0,0.05337962234461056,0.04562273800157358,-0.011801730920535014,-1.434107592446892,-0.5592140047206924,9.67895790715972,-0.16294379425649097,-0.05443302517702595,0.016961300157356418,79.89846946302124,-8.411968922108576,3.29463512981904,0.7640668472677026,0.07492325956648307,0.02520920401140834,-0.6402727053452004
61.0,0.05416561762391818,0.0395613690007868,-0.010707317073170733,-1.43598524783635,-0.5761795830055076,9.677309598741154,-0.22071080841856805,0.0627028422501967,0.07851593233674271,79.8076268686074,-8.422919944925257,3.3957046616837134,0.7645236925814319,0.07561667545259637,0.024542513029897725,-0.6396748628540516
62.0,0.0557844217151849,0.04191778127458696,-0.01314398111723053,-1.458101494885917,-0.5996664044059794,9.673695121951223,-0.18911044453186465,0.17477380015735644,-0.1462259047993706,79.77427714398112,-8.55178255310779,3.5316728953579855,0.7646399140165222,0.07726316064162075,0.02433480572462628,-0.6393462358867033
63.0,0.05745161290322581,0.04437903225806454,-0.013193548387096776,-1.5039516129032264,-0.6320967741935485,9.663556451612902,-0.29732862903225804,0.43286290322580645,-0.28150201612903225,79.97167338709676,-8.821421370967743,3.7299395161290323,0.7633614822741934,0.08010943012096775,0.024683552677419354,-0.6404995327741936
64.0,0.05488709677419357,0.037379032258064535,-0.014209677419354843,-1.546411290322581,-0.6717177419354836,9.654822580645156,-0.2132056451612903,0.1282258064516129,-0.13805443548387097,80.1858870967742,-9.072631048387096,3.9674395161290326,0.7619793804919353,0.0830313901048387,0.024686702596774197,-0.6417666028467741
65.0,0.0642910906298003,0.039021889400921675,-0.015102534562211986,-1.5081820276497702,-0.5818993855606758,9.665076420890937,0.741364247311828,-0.24131864439324116,-0.36404569892473115,80.49105942780338,-8.846829397081413,3.436599942396313,0.7604618359746542,0.07847837142895545,0.027113037463133642,-0.6440070759447005
66.0,0.06867780337941629,0.04295852534562214,-0.01384562211981567,-1.5173974654377878,-0.5034093701996927,9.668622887864824,0.4121639784946237,0.12498079877112135,0.06328965053763441,80.68028273809523,-8.89899433563748,2.9769945276497696,0.7594355263824886,0.07618288010560675,0.030622760207373274,-0.6453435044400924
67.0,0.07069777265745009,0.057785714285714294,-0.015447004608294934,-1.5603237327188944,-0.47429339477726584,9.663254992319505,0.08647513440860216,0.2969662058371736,-0.08536626344086021,80.75690044162826,-9.152748175883257,2.805105126728111,0.7588872767235024,0.07688959377457757,0.03320991502304148,-0.6457898018168203
68.0,0.071144777265745,0.06524692780337941,-0.015493471582181263,-1.623932795698925,-0.4638060675883257,9.653236943164357,0.05667722734254993,0.6562307987711213,-0.24281153993855606,80.90130088325652,-9.528489823348693,2.7467405913978498,0.757911128670507,0.07899801580837174,0.035832380518433175,-0.6465478079274193
69.0,0.06204671986812036,0.0719071971825709,-0.015179760968116594,-1.7023703120902183,-0.45856874976583895,9.640459049866994,0.024110889438387476,0.40951537971600915,-0.1010250412123937,81.00778680079426,-9.998345767299838,2.7254368279569894,0.7570413589204226,0.08187237300912292,0.03875916991519614,-0.6470348887069235
70.0,0.05393042598628753,0.07744745419804427,-0.014341032557791017,-1.745962421790117,-0.46782124124236657,9.632898495747629,-0.11570473193211193,0.1651551552957926,-0.078138288655352,81.06065703326965,-10.258869504233637,2.7864415322580642,0.7566221283081378,0.08390090481869356,0.03989578791458731,-0.6472069185892528
71.0,0.055882404181184675,0.08379591435315276,-0.01502555168408827,-1.6797459630587097,-0.4724471076392792,9.643733964632268,0.333592608463527,-1.5585440785283429,-0.4622269678917988,81.19350342812184,-9.855487687797385,2.8053034028324153,0.7560911400358548,0.08132581229595182,0.03754150502269492,-0.6482630593090836
72.0,0.04587265370349557,0.09170844104754411,-0.018593421003334457,-1.4400100783035485,-0.40714694091641385,9.682217788767744,0.16173078003821512,-0.6496349424899779,-0.04905703233299616,81.45400977857705,-8.451382956801918,2.405625491738788,0.7553595402276048,0.06979274653104042,0.03225777422505713,-0.6506346677876063
73.0,0.05678415945449778,0.09454497770784158,-0.015719006406653933,-1.4767450451463042,-0.4372279794687349,9.677164587314078,-0.16561340901427446,0.44104286088943834,-0.24702568281443182,81.6138136450489,-8.664323648420815,2.5892117193061335,0.754308638414072,0.0722020024809861,0.032427367284777645,-0.6516486523311977
74.0,0.04547390506163127,0.08022292158405453,-0.015748566932673937,-1.582523584728935,-0.4940136750215428,9.657480798771122,-0.38664226705631116,0.9156433816642313,-0.1354424244127234,81.68849612228841,-9.288106946161626,2.930896182233712,0.7535204840614813,0.07822224643718856,0.03381869089179873,-0.6518045716258664
75.0,0.039532651455546824,0.07634264358772619,-0.011913453973249413,-1.7037210857592446,-0.5327226593233673,9.63462903225807,-0.26192712431156573,0.9069384343036978,-0.0020530094413847427,81.73049518095988,-10.00760474036192,3.1622270849724625,0.7528306034523999,0.0842376252938631,0.03646588621164437,-0.6517099419657748
76.0,0.03134225019669552,0.07299744295830055,-0.01357592446892211,-1.803042289535799,-0.5615289142407551,9.615393194335176,-0.2682324449252557,0.5432213808025177,-0.24046395554681355,81.82394153225806,-10.599996311959087,3.340540175059009,0.7519320739110935,0.0890640964699056,0.03876299942446891,-0.6519904460261605
77.0,0.03159047993705745,0.07413178599527931,-0.010304091266719119,-1.8908638867033833,-0.6217765538945712,9.595845790715973,-0.35319384343036975,0.5205522226593233,-0.3290273406766326,82.10977822580645,-11.117412470495672,3.705325531077891,0.749929399084579,0.09441977306963023,0.0396271808815893,-0.6535090095251771
78.0,0.03083064516129033,0.08428225806451613,-0.007911290322580648,-1.9445483870967741,-0.6643870967741935,9.581806451612902,-0.1584173387096774,0.3543850806451613,-0.10574596774193548,82.30972782258064,-11.43921370967742,3.954737903225806,0.7485201925887096,0.09786180086290323,0.04002129336290323,-0.6546093842661291
79.0,0.03449291896144769,0.09104897718332022,-0.006345200629425649,-1.991986624704957,-0.6846451612903225,9.57091207710464,-0.1948060090479937,0.2686897619984264,-0.04071843036978757,82.3557176927616,-11.717619000786783,4.08299198465775,0.7480401949769866,0.1003861663072384,0.04086803223505114,-0.6547336131986625
80.0,0.044440007867820625,0.10306077891424074,-0.0032976003147128243,-2.034323957513769,-0.7114758064516129,9.559968135326516,-0.18225683516915814,0.14132572777340677,0.023592397718332016,82.33347880605822,-11.972216758457908,4.250744984264358,0.7479777737909126,0.10298544184716757,0.04121429659736429,-0.654385026534815
81.0,0.04131274586939419,0.11104248623131394,-0.0032092840283241544,-2.0568192368213998,-0.7393064516129033,9.554209874114875,-0.14528668371361134,0.21945318646734854,-0.03999311565696302,82.35708718528718,-12.100826121164438,4.414939024390243,0.7476972044075533,0.10471924124213214,0.04096286396400471,-0.6544484028198271
82.0,0.03639830841856807,0.12010188827694729,-0.005741738788355627,-2.04294590873328,-0.7447580645161287,9.55702832415421,0.030985690401258842,-0.18770284225019668,-0.07816188040912667,82.35881072974036,-12.019062254130606,4.454142899291896,0.7477146019215186,0.10440235453638866,0.040256993897324934,-0.6545218546437843
83.0,0.0440051140833989,0.12209874114870183,-0.011464201416207707,-1.7789107002360343,-0.6696412273800154,9.609446105428797,0.504543666404406,-1.8182484264358774,-0.3963193351691581,82.60508457907159,-10.453847856018882,3.990039830841857,0.7473479205385525,0.0914994092018096,0.034344063757671114,-0.6570036355121951
84.0,0.03651264797906793,0.10857988125080051,-0.011530958959252005,-1.7261143624320714,-0.6455708012368944,9.622613195981925,-0.05439648784147255,0.5036893560280313,-0.11450746642453295,82.84028152617422,-10.140258397297496,3.839805997612208,0.7462791326783844,0.08857131360507658,0.033696637708799146,-0.658726274263334
85.0,0.02474422721534042,0.09361655352862605,-0.011692898834464713,-1.823754761861197,-0.6412854006184474,9.605129178636123,-0.09141195359815564,0.5826410489817576,-0.07804506385742777,82.93153189211938,-10.723682626068102,3.81690400687062,0.7454098431899987,0.09220930470979635,0.03725325724149635,-0.659062426260699
86.0,0.015118081349605694,0.0845260186997969,-0.011725481675296873,-1.8958531873822113,-0.638683022889869,9.593048460285802,-0.05921404131520685,0.4156652825553949,-0.11780277386419774,82.98567522025323,-11.149013692066308,3.813366317951439,0.7448071311272575,0.09490457383070461,0.03982679612881268,-0.6592392641142202
87.0,0.011309040674802845,0.08227107386602747,-0.015536127934422632,-1.9410435291749772,-0.6379907049933218,9.58348390756225,-0.0076312142059905205,0.225750988051891,-0.100433644996615,83.06766119883628,-11.416064305710574,3.8134875944595903,0.7441771181442738,0.0966284358750297,0.04143215412892247,-0.6596250296780777
88.0,0.012445236309077269,0.08198762190547637,-0.014851462865716432,-1.9728199549887475,-0.6427726931732933,9.578402850712674,-0.0876570705176294,0.23519551762940732,-0.15120030007501875,83.15496061515378,-11.60036102775694,3.843909414853713,0.7436072845292574,0.0979388252648162,0.042395931694673664,-0.6600333594448607
89.0,0.015814516129032258,0.08578225806451613,-0.012790322580645162,-1.9874999999999996,-0.6483548387096774,9.574080645161285,0.0828125,-0.5573084677419354,-0.18064516129032257,83.26935483870966,-11.691431451612903,3.8726814516129036,0.7429292739758063,0.09861922683870966,0.04281286417741935,-0.6606686489032256
90.0,0.030336742722265934,0.09913434303697877,-0.01577694728560189,-1.701001770259638,-0.6096848937844217,9.627415420928397,0.6847253638867034,-1.9302394767899291,-0.3517161683713611,83.46197875688435,-9.985483870967741,3.6207181845003937,0.7428198552730134,0.0861315539643981,0.03461490164299763,-0.6628446168605427
91.0,0.02499901652242329,0.09232926829268291,-0.014670731707317076,-1.506319433516916,-0.5603263178599528,9.663449645948068,-0.036997197088906364,-0.8489907061369001,-0.22253147128245473,83.70004179779701,-8.833971774193548,3.317894374508261,0.7420922310881195,0.07692315900236034,0.029993878873918172,-0.6650328676439807
92.0,0.018301927616050352,0.08188237608182533,-0.011674075531077893,-1.3666516522423289,-0.5485381589299765,9.687636113296612,-0.1176669453186467,-0.5852564417781274,-0.23490484854445318,83.86816606018883,-8.008266129032258,3.2390379130605824,0.7415157071327696,0.07111750488827694,0.025769694336152636,-0.6665586453865067
93.0,0.02225688434303698,0.07761978756884344,-0.011901455546813534,-1.330509244689221,-0.5560291109362706,9.693426239181743,-0.22270235051140833,0.06636260818253342,-0.13676607985837924,83.98978043863099,-7.796591020849725,3.2818216463414633,0.7409453938723447,0.06997329122344609,0.02435030961054288,-0.6674294415169156
94.0,0.02340243902439025,0.08079268292682928,-0.026548387096774193,-1.3037116443745085,-0.5474508261211645,9.69878166797797,0.27287814712824543,-0.5647349527930763,-0.14700776947285601,84.07895357985838,-7.641544551534225,3.2193105822187253,0.7405773362199057,0.06856788627301337,0.023850896597954366,-0.6680199447136114
95.0,0.014347954366640445,0.08182435090479936,-0.020201022816679782,-1.2650415027537372,-0.541383949645948,9.703877852084972,-0.21182508851298196,0.2406950727773407,-0.21531643391030683,84.18570023603462,-7.414723888670338,3.186548485444532,0.740044407846381,0.06687780161014947,0.022844642455546814,-0.6688244921199842
96.0,0.02599803304484659,0.07931687647521637,-0.021086546026750592,-1.312213021243116,-0.5590967741935482,9.696594413847365,-0.14203629032258067,0.3597081530291109,-0.0722892899291896,84.25560213414634,-7.690842594413847,3.2932484264358775,0.7395088466011017,0.06926956542328874,0.02382277303717545,-0.6691395430580251
97.0,0.0395232100708104,0.08224311565696302,-0.01891424075531078,-1.353481510621558,-0.56658064516129,9.688627852084975,-0.0961693548387097,0.25906274586939415,-0.08949645948072382,84.28896538158929,-7.936172305271439,3.3412814712824543,0.7391855083973253,0.07115755663099924,0.024957208675845784,-0.6692581413878838
98.0,0.030570416994492533,0.09090125885129818,-0.023712037765538943,-1.3455778914240757,-0.563191974822974,9.690775767112509,0.1006515538945712,-0.1559475806451613,-0.11822875688434303,84.34393686073957,-7.886418174665618,3.320778422501967,0.7388714648280884,0.07070849667269866,0.024827072593627063,-0.6696595189866248
99.0,0.03780291109362708,0.08916030684500392,-0.019263571990558614,-1.3455859559402055,-0.5534449252557042,9.690856018882767,0.04528545436664044,-0.009892555074744278,-0.10848495279307632,84.38208841463414,-7.885626475216365,3.2644903127458695,0.7386379218318252,0.07034938670771046,0.02522945484520063,-0.6699438620464202
100.0,0.037598460155108475,0.09275315649469859,-0.016041924244127235,-1.3424337229777832,-0.5407574088644111,9.692964107751674,-0.10074076936045859,0.2137977220786033,-0.236190921096999,84.51692026338466,-7.866987584766401,3.188789175190139,0.7378890662260126,0.06975644311768012,0.02568506988861414,-0.6708123120762055
101.0,0.054707963358435426,0.09951583867221162,-0.011950938518601777,-1.4292892454385373,-0.5772040388145817,9.678523753325093,-0.06460622260312465,0.36602061556329846,-0.27650911121726424,84.69087063523284,-8.383361022910345,3.4091319990820876,0.7365998332979,0.07430004129920197,0.02744998586484209,-0.6716505607351918
102.0,0.06415895807575588,0.11020058259338356,-0.012758907496909071,-1.4776185605634857,-0.5921846315237346,9.669544528118092,-0.2682424553220186,0.4867499812670938,-0.1482669720130381,84.84157516812783,-8.665975480967367,3.5036630441909256,0.7355591698425968,0.07664127104869618,0.028628387778998537,-0.672479996824913
103.0,0.062318759132291776,0.11921958712674684,-0.011844441946723615,-1.5299591622644337,-0.6244322056123786,9.659456371061403,-0.17401230751938856,0.4226752463377169,-0.11272760481061031,84.95031096624328,-8.978485257202802,3.6914994754786257,0.73475882873965,0.07970540349218838,0.029320149237945375,-0.6729730384286838
104.0,0.055368663594470055,0.11031789741860551,-0.012342362594132853,-1.5614272601251358,-0.6254615788093365,9.65431512494848,-0.08093317972350231,0.10910512906972389,-0.039792205237720576,85.06961850436477,-9.163146051103368,3.706686008392342,0.7339569948497621,0.08090210968472517,0.030438767648083623,-0.673664722935821
105.0,0.0498310291858679,0.10547000861713687,-0.011370874077404369,-1.588536210707729,-0.6426424637518265,9.649089206099429,-0.24135944700460826,0.36599649694653635,0.10037559476977256,85.06749934434828,-9.321660391143082,3.803107789142407,0.7338531323442359,0.0825011371349893,0.03074361935783597,-0.673572154662995
106.0,0.04303510546626203,0.10252257315199881,-0.010838859540669139,-1.6364868307669247,-0.6580049454872428,9.640492675433663,-0.15952708778239855,0.2824524184181934,0.26989668802217975,84.9606772882245,-9.60666516803417,3.8989968528717545,0.734307616124911,0.08488753585703046,0.03174178859315874,-0.6727321494754788
107.0,0.04174178562062118,0.09779551159566893,-0.009353340077179573,-1.6597894421340522,-0.6689355962684052,9.634994567457191,-0.10068702933573113,-0.0005174965344123261,-0.11487954741298564,84.89347298714922,-9.742799539170507,3.9623819826907942,0.7345826404346032,0.08617396888838934,0.03209659379303885,-0.6722501759454499
108.0,0.035398823573489197,0.08385448278445919,-0.009275411187291596,-1.705079614851448,-0.671997302461504,9.627127496159755,-0.044516410025851404,0.0919668614888914,-0.34648383350192946,85.06413912929452,-10.01417612678431,3.983428402832415,0.7334297930733207,0.08799481285489491,0.03369979857629912,-0.6731934910175714
109.0,0.04375920722340865,0.07771795736390544,-0.01888082125060882,-1.6278765501479902,-0.6561292570529395,9.641523622194752,0.15577090592334494,-0.6742565377842719,-0.26806390730957996,85.19070449777078,-9.55625210745195,3.8908143194335167,0.7329790607490916,0.08445261277048444,0.031660202273200704,-0.6742273681327039
110.0,0.05239496459480724,0.07839968528717545,-0.015723052714398115,-1.5748591660110152,-0.6217466561762391,9.65254445318647,0.058487411487018096,0.08597560975609758,-0.15131785995279307,85.33402832415422,-9.246213611329662,3.6837136113296616,0.7323552023115656,0.08121655801888278,0.031239588769472852,-0.6753195928512983
111.0,0.056563335955940215,0.07759087332808812,-0.013889850511408341,-1.6131227380015731,-0.6135916601101492,9.647031471282453,0.033698859166011015,0.304941974822974,-0.048500196695515335,85.45001966955152,-9.46891719118804,3.634062745869394,0.7315526697175452,0.08232023284500394,0.03299617175688434,-0.6759743830188829
112.0,0.06167741935483872,0.08463571990558616,-0.01610542879622345,-1.6109799370574347,-0.6025771046420139,9.64831431943352,0.0016055271439811176,-0.17888227773406767,-0.23256048387096773,85.56483575924469,-9.456247541306059,3.570866935483871,0.7308856818603462,0.08181138878756886,0.033358881998819825,-0.6767498554118805
113.0,0.06054838709677421,0.09148387096774194,-0.012677419354838713,-1.6134758064516124,-0.616733870967742,9.647443548387097,-0.12192540322580644,0.31960685483870965,-0.11527217741935483,85.70131048387097,-9.472429435483871,3.659627016129032,0.7300698561048384,0.08240750211290322,0.0330309462983871,-0.6775738141048386
114.0,0.05666129032258066,0.09760483870967741,-0.008983870967741937,-1.6537096774193547,-0.633532258064516,9.63856451612903,-0.08830645161290322,0.34369959677419354,-0.09420362903225807,85.76496975806452,-9.708719758064516,3.754889112903226,0.7295245266935484,0.084455576,0.03387564378225806,-0.6778685546451613
115.0,0.05587096774193549,0.10583870967741937,-0.007774193548387097,-1.6976209677419356,-0.6442903225806449,9.630266129032258,0.049395161290322585,0.0760584677419355,-0.12328629032258065,85.80887096774194,-9.972883064516129,3.822782258064516,0.7290608570403228,0.0865151676854839,0.03503004518548387,-0.6780416681370965
116.0,0.06761290322580646,0.11721774193548389,-0.007048387096774194,-1.6762258064516131,-0.6415080645161291,9.63420967741935,-0.020564516129032255,-0.12671370967741935,-0.20221774193548386,85.91260080645162,-9.839717741935484,3.8074092741935486,0.7285871443790324,0.08556021341935485,0.03444548532258064,-0.6787075907661289
117.0,0.06848387096774194,0.12048387096774195,-0.0063306451612903224,-1.690580645161291,-0.64575,9.631669354838706,-0.0686491935483871,0.42293346774193546,-0.09596774193548388,85.99818548387097,-9.927016129032257,3.8339717741935484,0.728043537201613,0.08626167537096774,0.034840442548387085,-0.6791825327822579
118.0,0.06594354838709678,0.12228225806451615,-0.006241935483870968,-1.7448387096774198,-0.6464838709677421,9.621032258064519,-0.03533266129032258,0.3131048387096774,-0.045312500000000006,86.07379032258063,-10.24717741935484,3.841078629032258,0.7274195025241935,0.08830778070967742,0.03680867891935484,-0.6794800302499999
119.0,0.054732334869431645,0.10384639016897082,-0.008062596006144396,-1.7959527649769593,-0.6374278033794166,9.612113287250388,-0.10607958909370199,0.4441388248847926,-0.05367943548387097,86.11749231950844,-10.551166474654378,3.790111367127496,0.7269179686225038,0.08990799350345624,0.03897872923425498,-0.6796915840576034
120.0,0.04636488891386611,0.08836969390431232,-0.007950751189539546,-1.8478722322131063,-0.6283075287550113,9.603163941028809,-0.056724762092090965,0.40796019725750254,-0.09525595003933911,86.11639146856618,-10.863281162189502,3.7404517791577687,0.7267219388917988,0.09157350259132291,0.04118421435512907,-0.6795452160026412
121.0,0.035976799295642736,0.08033000824247874,-0.013547956239931068,-1.8513111161065525,-0.6327706998613767,9.60277148664344,-0.16082205846540032,-0.09677594975834547,-0.12794551534225018,86.15575117783148,-10.883959129481848,3.7672268976434005,0.7265079178491249,0.09183007314243566,0.04114008489127421,-0.6797465249368045
122.0,0.02809727061556331,0.07586258476640065,-0.016225591023191342,-1.865945880633921,-0.6372845434790755,9.600905904612045,-0.025345505039151783,0.05932371866921436,-0.11956751573564123,86.27109635504478,-10.971062226031247,3.7949037714023452,0.7257838619003689,0.09246359668815332,0.04161447198595969,-0.6804054046256605
123.0,0.023609119178749402,0.07078209883481323,-0.017044247124498903,-1.8834003596717985,-0.6369850136750217,9.59652553295118,-0.11413444606796298,0.19947032707654264,-0.17114968528717545,86.35024071784497,-11.07691216140272,3.793495232475366,0.7252427644703459,0.09305176790052827,0.042355944408302426,-0.6808530022886365
124.0,0.015252163650668768,0.06069236821400473,-0.02107907159716759,-1.9052218725413064,-0.6386691581431947,9.593036191974818,-0.13846872541306057,0.1928722462627852,-0.15537716365066878,86.42053255310779,-11.208848839496458,3.8041256884343038,0.7247826287580643,0.09394214736742723,0.04306843498701811,-0.6811658879311563
125.0,0.023778717545239973,0.060376081825334396,-0.02422010228166798,-1.8676007081038555,-0.6399112903225809,9.599822580645156,-0.19904848544453188,-0.2730023111723053,-0.05692737018095987,86.43838390047208,-10.981927370180959,3.810181451612903,0.7248136299565301,0.09255343432494101,0.04166329514181748,-0.6814006631607001
126.0,0.03286919748229741,0.05983320220298977,-0.030904405979543675,-1.838824547600315,-0.6481290322580646,9.604629032258064,-0.03243754917387884,0.05692122344610542,-0.059688483477576715,86.47420707120378,-10.806009047993706,3.8535786290322576,0.7246841596355234,0.0917167017108576,0.040369961074940994,-0.681736507221479
127.0,0.034664437450826126,0.04744885916601102,-0.02766994492525571,-1.8514929189614473,-0.6457096774193548,9.602056451612906,0.06921469315499607,0.1964041601101495,-0.2902021046420141,86.58102994689222,-10.882440007867821,3.841733870967742,0.7240034618782455,0.09208079141994494,0.04098531833182534,-0.6823806261107395
128.0,0.02719512195121952,0.044700236034618424,-0.022584972462627858,-1.8675287175452402,-0.6350322580645162,9.6005,0.0047182336742722306,0.27988050747442955,-0.1375909716758458,86.79583251376869,-10.97972806845004,3.787903225806452,0.7227058953060581,0.09228181182690795,0.04213710433123524,-0.6836589443174665
129.0,0.020177419354838712,0.0456451612903226,-0.017604838709677422,-1.8905967741935488,-0.6265483870967743,9.595895161290322,0.10740927419354838,-0.19067540322580645,-0.1585181451612903,86.88371975806452,-11.116885080645162,3.7340725806451616,0.722056136612903,0.09284426835483872,0.043281554370967736,-0.684200754185484
130.0,0.02605546813532652,0.0529404012588513,-0.02133713611329662,-1.670934893784422,-0.5686870574350906,9.63712293469709,0.3386432926829268,-1.1343258261211644,-0.3481313926042486,87.07275767112509,-9.81042732100708,3.375174567269866,0.7216930483570022,0.082438936211251,0.03776596566070023,-0.6861266741341465
131.0,0.03350708103855233,0.05861428009441384,-0.025303894571203776,-1.5873709677419356,-0.548825924468922,9.654415420928403,0.1571277537372148,-0.4281409815106215,-0.24775152439024387,87.24900668764752,-9.312712677025962,3.247129474822974,0.7209160799099132,0.07849373628068451,0.03574772278284814,-0.6875588935143588
132.0,0.029076121164437457,0.05969020456333596,-0.016684781386984374,-1.5202334869431646,-0.513500327825859,9.667522994642393,0.1273013960698363,-0.3645997246262785,-0.1087727956052602,87.3247793614889,-8.915050894964594,3.0349138637555724,0.7207454331830674,0.07471945791664793,0.03471036642137798,-0.6882416799666649
133.0,0.02613963508298678,0.05299583192836537,-0.019980255516840878,-1.4260122887864828,-0.48409290584841336,9.683305468135327,0.18833987814244502,-0.5737073123899441,-0.20274589281031058,87.36681676407778,-8.355625725900115,2.8588895835674943,0.7207742150145369,0.07017623834407664,0.03246965476637256,-0.6888080895776103
134.0,0.02922520699861377,0.056837510771421074,-0.02325015922970289,-1.3716080326701885,-0.4619328612640966,9.691770259638076,-0.03255544940242029,-0.1696194410100783,-0.20078163051215764,87.5641297628414,-8.033239200479564,2.722497752051253,0.7197992026162379,0.06730726086096436,0.03147480385673073,-0.6901825124142968
135.0,0.04191787493911807,0.058918361994679855,-0.016129406916188974,-1.4377827732194377,-0.49633621820089174,9.68091266719119,-0.27053126522048626,0.6419556217451574,-0.0896463227305084,87.6653506800045,-8.429852291034432,2.930608632123188,0.7189492083065454,0.07099602869956165,0.03263684124386498,-0.6906350696178489
136.0,0.04534918137199806,0.05460866958900004,-0.014134727061556327,-1.543954329174628,-0.5311224757408866,9.661738788355622,-0.23486732419167508,0.4816780469071971,-0.2596392510584092,87.79756519051364,-9.060815209246563,3.1431662358098236,0.7178322474223523,0.07613126887771157,0.035223016239556405,-0.6911100036248177
137.0,0.04807781649245065,0.053691431568693576,-0.01647750177962609,-1.6137521261848562,-0.5571203776553895,9.649222696789174,-0.22307402307894048,0.5752140234535985,-0.11793886516054099,87.95075072121688,-9.474056798171668,3.301354623281256,0.7166560381259228,0.07961070873301862,0.036849236124386495,-0.6918579583853736
138.0,0.048214004720692386,0.059460267505900874,-0.010383949645948073,-1.694259638080252,-0.580818253343824,9.633763965381588,-0.09809205350118017,0.40272423288749015,-0.2415912667191188,88.07874704956727,-9.947157749803305,3.4455841856805662,0.7156272954461056,0.0833462099166011,0.03900609286231313,-0.692370201126672
139.0,0.0536601101494886,0.06256490952006295,-0.008642014162077105,-1.7562934697088903,-0.5945806451612905,9.621126671911885,0.009652832415420927,0.21495377655389458,-0.2417928796223446,88.21943351691581,-10.315165224232889,3.5329464988198267,0.7145304835003935,0.08610728068135329,0.040797511423288746,-0.6930745453855233
140.0,0.07034775767112511,0.07662155782848151,-0.006877261998426436,-1.671200236034618,-0.5803509047993707,9.637559402045635,0.243949154209284,-1.1117894374508261,-0.358066974822974,88.39681353265146,-9.809702006294255,3.440091463414634,0.7137485059358775,0.08234986008182535,0.03836484983123525,-0.6944475842112507
141.0,0.08032651455546816,0.08536349331235246,-0.00684697088906373,-1.5547315106215576,-0.5618387096774196,9.657563335955945,0.038000344217151844,-0.3441224921321794,-0.260150717938631,88.60142112509834,-9.121525865460267,3.324092741935484,0.7129134965800552,0.07737282077104643,0.03492726709579072,-0.696048090258261
142.0,0.07355035405192763,0.0858269079464988,-0.014350904799370576,-1.4525149488591658,-0.528209677419355,9.675007474429588,0.397251180173092,-0.7976912863886703,-0.19819531864673487,88.77843233674271,-8.51323269079465,3.121875,0.7121292033666404,0.07233501819197483,0.032613690939024394,-0.6974876502057434
143.0,0.06349193548387098,0.08277419354838708,-0.012516129032258065,-1.3921693548387095,-0.5062983870967742,9.686330645161291,-0.15272177419354835,0.19551411290322585,-0.1626008064516129,88.91451612903225,-8.15836693548387,2.9897681451612903,0.7114932155000001,0.0692956246451613,0.03136380099193548,-0.6985265434435484
144.0,0.06461290322580646,0.07181451612903225,-0.014395161290322585,-1.4770645161290323,-0.5210967741935483,9.673435483870964,-0.30388104838709673,0.8214213709677418,-0.05322580645161291,88.9969254032258,-8.659122983870969,3.0813508064516126,0.7107919509435483,0.0729101858467742,0.033936728217741935,-0.6987544884677419
145.0,0.06640322580645161,0.06736290322580646,-0.009564516129032261,-1.5869274193548386,-0.5466612903225807,9.653903225806447,-0.07530241935483871,0.28361895161290324,-0.045010080645161286,89.0251008064516,-9.315221774193548,3.2392137096774194,0.7102489350080644,0.07787706927419356,0.03702372847580645,-0.6986059861209677
146.0,0.0600241935483871,0.07321774193548389,-2.4193548387098363e-05,-1.5546774193548387,-0.5399112903225807,9.66081451612903,0.4682963709677419,-0.368195564516129,-0.3471774193548387,89.21935483870968,-9.121774193548386,3.1960181451612906,0.7091658560967742,0.07637850840322581,0.03621137033870968,-0.6999220814354837
147.0,0.05810483870967743,0.08645967741935484,-0.018241935483870972,-1.441459677419355,-0.5029677419354839,9.680040322580641,-0.2332157258064516,-0.4834173387096774,-0.12308467741935482,89.3914818548387,-8.446925403225805,2.976461693548387,0.7084544521209677,0.07085438431451614,0.03353876912903225,-0.701338540516129
148.0,0.06393548387096774,0.0907258064516129,-0.015274193548387098,-1.5041935483870965,-0.5677419354838708,9.667258064516124,-0.4056451612903226,0.8460685483870966,-0.18679435483870965,89.56391129032258,-8.82373991935484,3.365171370967742,0.70714677366129,0.07546716509677423,0.03362643291935484,-0.7021744761209678
149.0,0.06250845790715973,0.0948589693154996,-0.014302714398111725,-1.6142724232887486,-0.6133210070810386,9.646273013375293,-0.2547747836349331,0.18246459480723828,0.1599773800157356,89.6736526357199,-9.475051632572779,3.643001327694728,0.7060759299461054,0.08110031607612117,0.03602163996380803,-0.702499468339103
150.0,0.06388257277734069,0.08895043273013375,-0.0116066089693155,-1.599589693154996,-0.6243583792289535,9.649133752950428,-0.2905119000786782,0.21203038945712033,0.12485493705743508,89.54550550747442,-9.387427468528717,3.7053685582218723,0.7069274710204563,0.08099629584126672,0.034986396800747444,-0.7017348718560187
151.0,0.04899370574350906,0.0797090873328088,-0.012916207710464202,-1.6267625885129817,-0.6588001573564123,9.642308811959085,-0.40372369197482294,0.7612571302124311,0.0879819040125885,89.46156323760817,-9.549938532651456,3.910673190401259,0.7073580245424862,0.08328723813434302,0.03466841746892211,-0.7010517720086547
152.0,0.043843627065302926,0.08431825334382377,-0.008587136113296617,-1.7525869394177815,-0.7007065302911093,9.61607376081825,-0.3061713217938631,0.7792928796223446,-0.012359854445318647,89.45830178009442,-10.295483379228955,4.166425304878048,0.7069016928760818,0.08941522035346182,0.03770346183929976,-0.7005905884236822
153.0,0.040546813532651466,0.08902202989771835,-0.007708890637293469,-1.8649386309992133,-0.7324822974036196,9.59216994492525,-0.14048485444531864,0.5679730527143981,-0.005423878835562548,89.47811762391817,-10.965332415420928,4.371493902439024,0.7063302296073956,0.09474258218882767,0.040635867375295044,-0.7002981987521636
154.0,0.038769866247049575,0.09661093627065304,-0.0037671125098347746,-1.910412667191188,-0.7458682140047208,9.58301494885916,-0.10710808418568055,0.21902291502753735,-0.07194384343036979,89.473564122738,-11.23189909520063,4.451103953579858,0.7061996808210069,0.09687040907867817,0.041792329497246275,-0.7000866624531865
155.0,0.03255566483084186,0.08486723052714398,-0.016092840283241545,-1.8858121557828484,-0.7403731313926042,9.58904091266719,-0.015493459874114872,-0.32211226396538156,-0.18447703579858377,89.47021046420141,-11.08088857199056,4.418313581825334,0.7062958111382768,0.0957256616085759,0.04107462245515342,-0.7002020234413846
156.0,0.021007671125098347,0.07677635719905586,-0.015441581431943354,-1.8804262391817468,-0.7299244689221085,9.590705940204561,-0.19693523800157353,0.6383138276947286,-0.12255605822187252,89.6999741837136,-11.053549124704958,4.35535134736428,0.7049350299118804,0.09510345126396538,0.041463239074350906,-0.7016304098013373
157.0,0.023214594807238392,0.06879760031471283,-0.013804484657749805,-1.9385485837922893,-0.7246105428796223,9.579222659323367,-0.10027045633359559,-0.09188876868607393,-0.01865165224232887,89.77218602478362,-11.396758212037764,4.327485739575137,0.7043230389596774,0.09699692663906373,0.043817449431746654,-0.7018369795662862
158.0,0.02131294256490952,0.061918961447679,-0.011434500393391034,-1.8582380015735644,-0.6976601101494888,9.597304878048783,0.5763768686073958,-1.2308234166011014,-0.368095987411487,89.9360174075531,-10.923253097954365,4.158097708497246,0.703595575201613,0.0930010662106609,0.042026773405389455,-0.7031945350210465
159.0,0.023319489715634488,0.055580064441197424,-0.014684032070735454,-1.597415083736091,-0.6186641564572327,9.645622101082761,0.2271861301562324,-1.1984222209733617,-0.16293144224645012,90.0862570716721,-9.373647718332023,3.6660460220673627,0.7035472711958528,0.080525403426567,0.035482196007418226,-0.7050288777603309
160.0,0.011592868382600879,0.055811275336255683,-0.019104407852834286,-1.4120985725525461,-0.5620150050578845,9.677873993106289,0.23215128695065754,-0.8155761773631561,-0.27749738910119515,90.28936673410513,-8.277672600314713,3.3212212801131464,0.7028923941581154,0.07166137542689484,0.030911942779476224,-0.7068633796590795
161.0,0.00924401483646173,0.055183863474579466,-0.02570139747480425,-1.3301138024053056,-0.5447736315612003,9.692715222359594,-0.014065485556929283,-0.11242518545577163,-0.21442913809898467,90.47835272189127,-7.791507671125098,3.2164826158630246,0.7019841673976059,0.06802097414489902,0.028651895728447785,-0.7082885631279269
162.0,0.01891469034506014,0.056274071784496664,-0.02259342100333446,-1.3210498201641006,-0.5380681690457456,9.695510246899701,0.014913559345846927,-0.005843788636619107,-0.18349308989921698,90.58946156944288,-7.735835464201417,3.169502126184856,0.7013340522700069,0.06740378171839759,0.028661790845341123,-0.7090423124443724
163.0,0.009764190176463981,0.06285526956652056,-0.021725900116144024,-1.2709994380128133,-0.5023883331460043,9.704429395676442,0.04845734517253007,0.0826781499381814,-0.2740802143044472,90.76784988385597,-7.443110739575138,2.9599452999138283,0.7004342887196808,0.06424867551507998,0.02822665121141958,-0.7102465060444716
164.0,0.022972462627852096,0.06761605035405195,-0.024555861526357206,-1.3037356412273802,-0.5074948859166011,9.700735641227375,-0.10364624311565696,0.3310680566483084,-0.20451662077104643,90.90448957513769,-7.63444384343037,2.9945884146341464,0.69948805016011,0.06560057419472855,0.02928995528284815,-0.7110184741947285
165.0,0.03312667191188043,0.07242328874901655,-0.021841266719118808,-1.3574933123524784,-0.5307380015735641,9.691953186467348,-0.18537937647521635,0.4292043666404406,-0.08261334579071597,90.98533880802518,-7.950507720298978,3.133874655782848,0.6988216123263178,0.06834930426101495,0.03050506668154996,-0.711360237459284
166.0,0.02972232213105542,0.07403422501966955,-0.016061378367239896,-1.3391018789104936,-0.5636151605410065,9.691488113970998,-0.10148745129444382,-0.5519564764340039,-0.1272381725113334,91.04680246852871,-7.843282613989734,3.3302881823461092,0.6984541163887732,0.06886626728354125,0.028674820459246554,-0.7117412897586358
167.0,0.018933348319658316,0.08279307631785995,-0.013133265894870929,-1.2898092990146488,-0.5786654677606683,9.69709565021917,-0.045916694766026,-0.19376381551833952,-0.03137761792364467,91.06643391030684,-7.557339084335544,3.4182776966018507,0.6984462685965305,0.06766933093327338,0.026345642038140195,-0.7119533648349632
168.0,0.018510733955265826,0.08421715184893785,-0.012782211232250571,-1.2880911168558686,-0.596413772432655,9.697879060357417,-0.12398608145067626,0.08963461466411897,-0.1709307444456933,91.13050747442958,-7.545216552395939,3.5280314525495484,0.6980058704076281,0.06824869790566111,0.025658663930163722,-0.7123573332475365
169.0,0.02648353377542993,0.0866294256490952,-0.011373796410775168,-1.304802442770971,-0.6137930388520476,9.693829380690117,-0.08212974410850099,0.054883200329699136,-0.1882141920497546,91.22307238394964,-7.646329755348244,3.633611516990746,0.6973377691857181,0.06948811821168185,0.02571601500678131,-0.7128868824860815
170.0,0.0330812633471957,0.08414398111723054,-0.010666441871791988,-1.3144964220149111,-0.622240343186842,9.69201303810273,-0.14829834963096175,0.14684561275336255,-0.22113797722078604,91.28658044846577,-7.704031321419205,3.6867211794237758,0.6969213774795624,0.07011893051732794,0.025813635417631407,-0.7132332552532687
171.0,0.04243587726199845,0.07963493312352479,-0.012206136900078678,-1.3290967741935487,-0.6244264358772618,9.690983477576712,-0.09419748229740363,0.13325629425649094,-0.2541502753737215,91.3494885916601,-7.792702596380803,3.704056845003934,0.6965370307285603,0.0707536917458694,0.0262901523335956,-0.7135335829464988
172.0,0.050495672698662494,0.07835798583792289,-0.012127458693941778,-1.3461707317073168,-0.6284720692368213,9.688613690007868,-0.08356117230527144,0.1406348347757671,-0.14252557041699448,91.43162863886704,-7.886059205350119,3.727908634933123,0.6959810616522426,0.07145358803973251,0.02681838123288749,-0.7139921923442173
173.0,0.05744295830055077,0.07544571203776554,-0.012531077891424075,-1.3638642800944139,-0.6353532651455547,9.684000000000003,-0.0654332218725413,0.07938999803304485,-0.15748918174665616,91.5212332808812,-7.988466266719119,3.770302665224233,0.6954150057317074,0.07233340981845006,0.02722373759126671,-0.7144323544057828
174.0,0.06970712037765539,0.08337647521636507,-0.012012785208497245,-1.3751335562549172,-0.6419065696302122,9.681838709677423,-0.0571375885129819,0.0029233870967741923,-0.21630237018095988,91.63883998819827,-8.062781520456333,3.802380015735641,0.694635501697089,0.0729746761280488,0.027514232403619197,-0.7151152954376476
175.0,0.06404720692368214,0.08695121951219513,-0.020821400472069238,-1.2889213217938629,-0.6128186467348542,9.695612509834778,0.1708177616050354,-0.472229051927616,-0.2261457513768686,91.76317859952792,-7.551123623131392,3.616089693154996,0.6940818007348544,0.06873675359992132,0.02548459514988198,-0.716129603732494
176.0,0.0474594807238395,0.07490912667191188,-0.018706530291109365,-1.2748005507474431,-0.6052220692368213,9.698225609756095,-0.11556476199842643,0.15710931353265148,-0.22946744689221085,91.90413060582219,-7.467875934303698,3.569900668764752,0.6932791608992921,0.06791513308792291,0.025327958117820615,-0.7170041526671909
177.0,0.05881038552321008,0.06807553107789142,-0.015611329661683715,-1.3251502753737219,-0.6223650668764754,9.689132966168373,-0.20180959874114868,0.3979346970889064,-0.07557041699449252,91.96738788355626,-7.767682926829268,3.669728560188828,0.6927236587238397,0.07032499504799371,0.026648486514555467,-0.7172608674303697
178.0,0.07587411487018096,0.07918410700236037,-0.010822974036191976,-1.3754374508261216,-0.645485444531865,9.679405192761607,-0.07103658536585365,0.24043568056648307,-0.06557828481510622,91.99018489378442,-8.065725806451614,3.805728756884343,0.6924136145790717,0.07294722514240753,0.027753577284028334,-0.7172539490967742
179.0,0.08076789929189615,0.08379819040125885,-0.00638788355625492,-1.4053898505114084,-0.6569394177812751,9.675186467348546,0.1563975216365067,-0.024618902439024384,-0.15742033831628638,92.05005409126672,-8.238104838709678,3.8870451416207707,0.6919422124051928,0.0744439914122738,0.028404547581431946,-0.7175333916412273
180.0,0.07983870967741934,0.08586290322580645,-0.004145161290322582,-1.3992338709677417,-0.6389032258064521,9.678548387096775,0.06885080645161291,-0.0056955645161290355,-0.21764112903225805,92.15695564516129,-8.204334677419356,3.7799899193548385,0.6912825062741934,0.0735485935,0.028901081161290323,-0.7182489709999997
181.0,0.07308870967741934,0.08126612903225805,-0.013806451612903227,-1.3802741935483867,-0.6147016129032261,9.683975806451613,-0.03346774193548386,0.08079637096774193,-0.1969758064516129,92.34904233870968,-8.093296370967742,3.6338709677419354,0.6901628057903224,0.07195040773387097,0.029182040508064513,-0.7194724790725806
182.0,0.07412903225806451,0.08286290322580644,-0.011475806451612905,-1.3874435483870964,-0.6197500000000002,9.681983870967745,0.06038306451612903,0.1819556451612903,-0.12066532258064516,92.46542338709676,-8.13109879032258,3.664213709677419,0.6894372253790322,0.07233867036290323,0.029329755104838706,-0.720128950604839
183.0,0.07558064516129032,0.08927419354838709,-0.011185483870967744,-1.4102338709677418,-0.618201612903226,9.679475806451613,-0.06910282258064515,0.15982862903225806,0.0003024193548387122,92.57061491935482,-8.266280241935483,3.6548891129032257,0.6887048041774193,0.07306602273387097,0.03030233028225806,-0.7207100646129032
184.0,0.07499193548387097,0.09391935483870968,-0.013943548387096775,-1.4210887096774192,-0.6134274193548387,9.678846774193552,0.06995967741935483,0.05060483870967741,-0.052268145161290316,92.57404233870969,-8.329082661290322,3.6223790322580642,0.6886592738790321,0.07325355786290323,0.030886249887096776,-0.7207133126693549
185.0,0.057395161290322586,0.07741129032258065,-0.01931451612903226,-1.4190080645161292,-0.6100080645161288,9.67795967741936,-0.2036290322580645,-0.06638104838709677,-0.09989919354838708,92.65877016129032,-8.317993951612902,3.599647177419355,0.6881317143548384,0.07303299441935485,0.03098124833064516,-0.7212357553951616
186.0,0.053703383162863896,0.07297541306058221,-0.023381392604248628,-1.3763143194335166,-0.6065379622344609,9.683857985837923,-0.11995230133752949,-0.22816433910306844,-0.18082956333595596,92.70408020259637,-8.063589201416207,3.5806845003933914,0.6879221014136505,0.0713663454643981,0.02952461437175452,-0.7216579377321009
187.0,0.03571282454760032,0.06031392604248624,-0.017583988985051143,-1.3254372541306059,-0.6196044453186469,9.690111526357196,-0.23376278520849725,-0.12432754720692367,-0.04727330841856805,92.76387072187254,-7.765551239181747,3.661478412667191,0.6876489899492526,0.07006518472639653,0.027212682533634933,-0.722136716074941
188.0,0.038283831628638874,0.04797147915027539,-0.016102478363493312,-1.3376742722265935,-0.6393143194335171,9.68717269866247,-0.22590357002360345,0.20338562155782852,-0.11582415420928402,92.79073072383949,-7.839227232494099,3.7750184402045637,0.6874143255472067,0.07121945023013374,0.027015224117623915,-0.7222567654205349
189.0,0.042323367427222675,0.04394944925255706,-0.01578914240755311,-1.3529661683713614,-0.6530361919748232,9.68465086546027,-0.04704956726986624,-0.13192614083398896,-0.14566409323367427,92.83709923288748,-7.9229654307631785,3.85280659913454,0.6870856845155386,0.07223662670377655,0.02711495721203776,-0.7224648754602675
190.0,0.03976081825334384,0.04628166797797012,-0.013675845790715973,-1.3379559402045638,-0.6619047993705747,9.68690165224233,-0.04438926042486231,0.10842840283241542,-0.18761801730920535,92.93473642800944,-7.838601494885916,3.9048583792289535,0.686543534237608,0.07201892536506688,0.02631876795043273,-0.7230313452171518
191.0,0.04409834775767115,0.05067663257277735,-0.016461841070023606,-1.3528749016522428,-0.6661349331235251,9.684196695515345,-0.05703924075531078,0.14731018882769473,-0.1347905192761605,93.00942663257277,-7.923913257277734,3.9313090086546025,0.6860410509685285,0.07268662625295044,0.026739398806845005,-0.7234232323906374
192.0,0.0475409126671912,0.05463808025177028,-0.01597285601888277,-1.402318646734854,-0.6839053894571208,9.675170731707322,-0.1695011309992132,0.43889407946498815,-0.09389998033044847,93.05725560582218,-8.21802960267506,4.03671075924469,0.6855824044063726,0.07507996449154211,0.02800915710601888,-0.7235623099325336
193.0,0.047738198269079476,0.05600452399685289,-0.01510739575137687,-1.4532802911093623,-0.7006341463414636,9.66719826907947,-0.10866689614476789,0.296563975216365,-0.16912740952006294,93.14294231904012,-8.523883752950432,4.143657798977183,0.6848542461628642,0.0775151296933517,0.029385412686073965,-0.7239381767606212
194.0,0.0486553894571204,0.0564901652242329,-0.015561762391817469,-1.4764103068450036,-0.7083654602675058,9.663244295830062,-0.08795239968528717,0.21287372147915026,-0.1535405192761605,93.20899636113296,-8.664058811959087,4.190856117230528,0.6843515569685288,0.07864115995554682,0.03004440085916602,-0.7242666625133749
195.0,0.04966129032258067,0.060099527930763195,-0.015071990558615266,-1.4968204169944923,-0.7155249803304484,9.65973859166011,-0.08825236034618411,0.25510916601101497,-0.19488099921321794,93.26703260228166,-8.783298092053501,4.229377704563337,0.6839660410971675,0.07958399298013377,0.03059662454760032,-0.7245096477122345
196.0,0.0383709677419355,0.057670731707317076,-0.015221479150275373,-1.4648174665617624,-0.6878874901652241,9.665712037765541,0.23924075531077887,-0.3324252557041699,-0.15731953186467348,93.34281569630213,-8.59079219118804,4.0704096184107,0.6835804481856805,0.07738101459087333,0.030377662789929188,-0.7251103292230527
197.0,0.044314516129032276,0.061701612903225816,-0.013040322580645159,-1.4461129032258062,-0.6755000000000002,9.668806451612905,0.039516129032258054,-0.026814516129032268,-0.1706149193548387,93.434375,-8.482006048387095,3.9927923387096773,0.6830777070967741,0.07624472330645163,0.030216143516129036,-0.7257177535887097
198.0,0.04706451612903228,0.06554838709677419,-0.015967741935483868,-1.4401612903225804,-0.6705967741935488,9.669564516129034,-0.003578629032258071,0.15730846774193546,-0.16285282258064515,93.50403225806451,-8.451461693548387,3.9651209677419352,0.6826923982096773,0.07586684686290324,0.030197882419354834,-0.7261246211935488
199.0,0.0457708497246263,0.06786605035405194,-0.014145948072383948,-1.4699014555468133,-0.6831762391817466,9.664908143194339,-0.12039732494099135,0.22792707513768684,0.02309820023603462,93.5349577104642,-8.628576170338317,4.0394632671125095,0.682416758848741,0.07736226520416994,0.03091424252832415,-0.7261972680399296
200.0,0.03655173092053502,0.06488768686073956,-0.012378048780487805,-1.5575308811959085,-0.7229724626278521,9.64802163650669,-0.3782208890637293,0.9691028225806452,-0.3268956530291109,93.54405610739575,-9.144518341856806,4.279145357985838,0.6820437935049173,0.08197203651789928,0.032792989370377654,-0.7259356210887099
201.0,0.03540124948484509,0.05760494174066165,-0.01663026862987524,-1.6028777677868944,-0.6895119609606235,9.642634474167323,0.3105175316586116,0.30913258448540704,-0.2375693702933573,93.82151802105578,-9.411656492356974,4.081844184369263,0.6801973211393635,0.08219491079485594,0.035860587010265635,-0.727493856781106
202.0,0.02649254147160484,0.051031840712791446,-0.014499305357698309,-1.6710697916203794,-0.7314616256416019,9.628081959514272,-0.285455905025908,0.5984657436680598,-1.667274346624548,94.95913204128559,-9.813032977048703,4.339256441396934,0.6726263436350417,0.08582443591880833,0.03784318823206455,-0.7339066469820757
203.0,0.012821506770420828,0.03522913829502673,-0.016766273449895577,-1.745681925707908,-0.8102952306020754,9.6085059679554,-0.3189978679338824,0.4488105911495296,-1.0230666333830845,96.24035968704719,-10.253587569366209,4.815646365859758,0.6640215409625837,0.09099241071205955,0.03900079913865226,-0.7409953130525053
204.0,0.012866300198743064,0.03600166592170692,-0.016994466386631504,-1.8097882484558427,-0.8618313289123674,9.592581072097293,-0.2784997207490026,0.451785311310406,-0.6012756455664439,96.85668161378322,-10.62994091292858,5.125835574747345,0.6597572183058394,0.09493605047404707,0.040194678806147535,-0.744291575932232
205.0,0.01540010525279403,0.03571129716226967,-0.013485431462395218,-1.8309429047157266,-0.8897307706717619,9.585581645411349,-0.05184820813217243,-0.12194861106391577,-0.21736185897519678,97.2550225535478,-10.755524154339978,5.293390840088071,0.6570995871820304,0.0965858539624366,0.040360449608423894,-0.7464628326820877
206.0,0.01966702651272574,0.04013829067022855,-0.012602162735805904,-1.7837064753993386,-0.8898945712037765,9.594882220555139,0.09205784677876785,-0.6921427003092236,-0.18291768063967212,97.43352126141292,-10.47149767624833,5.28483386090425,0.6560866708091411,0.09488657919166377,0.03865412779115511,-0.7476834310207672
207.0,0.039856018882769476,0.05211565696302124,-0.010360346184107003,-1.597118804091267,-0.851366640440598,9.630225806451614,0.2768194335169158,-0.8891227380015735,0.09089299763965382,97.3366640440598,-9.367087922895358,5.039584972462627,0.6572940610047204,0.0870240940039339,0.0326820596097561,-0.7478062969409911
208.0,0.055142014162077105,0.06275177025963807,-0.007583005507474429,-1.5475869394177812,-0.8524866247049567,9.638734461054288,-0.17944531864673485,0.0005950039339103208,-0.2606510621557829,97.38207612116443,-9.079133064516128,5.043986034618411,0.6571499103056647,0.08541900631274588,0.0307767761093627,-0.7482314300503538
209.0,0.06166935483870968,0.06457258064516129,-0.004161290322580644,-1.5434999999999999,-0.8671048387096776,9.638798387096768,-0.07782258064516129,-0.005342741935483873,-0.2969758064516129,97.63457661290322,-9.053477822580646,5.128528225806451,0.6555244683951613,0.08577255766935482,0.030306662403225805,-0.7496520991935482
210.0,0.05221774193548387,0.05544354838709677,-0.009403225806451613,-1.5119193548387093,-0.8459274193548387,9.646298387096774,0.26431451612903223,-0.4442540322580645,0.07585685483870969,97.74269153225806,-8.864768145161289,5.00327620967742,0.6549457671209679,0.08384104102419354,0.029875675895161293,-0.7504022900967742
211.0,0.04791129032258066,0.047516129032258075,-0.009282258064516128,-1.4740645161290318,-0.8221451612903226,9.653774193548385,-0.09138104838709676,0.1655241935483871,0.02016129032258065,97.62938508064516,-8.640927419354838,4.861592741935484,0.6558397362096777,0.08169225877419356,0.029134394104838708,-0.7498941723064516
212.0,0.04855645161290324,0.0455725806451613,-0.009927419354838709,-1.4988951612903225,-0.8212096774193548,9.651661290322576,-0.07263104838709677,0.17671370967741934,-0.05136088709677419,97.57515120967741,-8.791885080645162,4.867288306451613,0.6560679787822583,0.08252917836290322,0.03010618101612903,-0.7495718680322578
213.0,0.05053225806451614,0.040467741935483886,-0.012362903225806455,-1.5091290322580653,-0.8205645161290323,9.650903225806447,-0.08669354838709678,0.10493951612903224,-0.15705645161290321,97.61779233870968,-8.841129032258063,4.868245967741935,0.6558030157580648,0.08281653576612905,0.030491982153225808,-0.7497515267741937
214.0,0.046258064516129044,0.03440322580645162,-0.01416129032258065,-1.5187338709677425,-0.8262419354838708,9.647822580645155,-0.062147177419354833,0.08709677419354839,-0.12001008064516128,97.69405241935485,-8.898185483870968,4.890272177419354,0.6552528141774194,0.08331490699193547,0.030747935524193554,-0.7501637606612903
215.0,0.053161290322580664,0.03878225806451614,-0.012008064516129034,-1.5185322580645166,-0.8325483870967743,9.64733870967741,-0.02368951612903225,-0.06411290322580644,-0.08240927419354838,97.79314516129031,-8.901612903225807,4.92585685483871,0.6545708437096776,0.08353409236290321,0.030606767161290325,-0.7507437915241935
216.0,0.05156451612903227,0.05062096774193549,-0.015016129032258067,-1.4525967741935486,-0.8108387096774192,9.658193548387095,0.27323588709677415,-0.3814516129032258,0.01990927419354839,97.83019153225806,-8.51577620967742,4.791381048387096,0.6545564708629033,0.08045816704838707,0.02881302322580645,-0.7511494294919354
217.0,0.03845357985837924,0.04675255704169944,-0.022193154996066094,-1.2705232100708104,-0.6773233674272228,9.690855232100711,0.8650213906372934,-1.3701711250983475,-0.24081309008654603,97.87735051140834,-7.437329120771047,3.9929828874901654,0.6547935077201024,0.06912222179209283,0.02625220269944925,-0.7520574487938629
218.0,0.05927517702596382,0.06859402045633357,-0.00892722265932337,-1.2003099921321791,-0.6135487804878048,9.704879228953583,0.08036855822187255,-0.4602367722265931,-0.04744787568843431,98.03297969118803,-7.03013129425649,3.6130237018095985,0.6540345875818254,0.06427644586782062,0.025789665914240756,-0.7532088608082219
219.0,0.03951642875875764,0.05630968303922669,-0.017731276460230042,-1.1533124461428947,-0.6050973549136411,9.712920029223337,0.2381525490802143,0.10673957279607366,-0.00690126119291147,98.02091212862013,-6.7553522254692595,3.5581559561275333,0.654229308389991,0.06234105887208236,0.02427294208768873,-0.7532915633624442
220.0,0.04133197519763217,0.05351548274699335,-0.019530469071971826,-1.204013618822824,-0.5585445468509984,9.709580785658085,0.06583264255741636,0.41280072168521226,0.0387276493012626,98.04605180585216,-7.049233941216141,3.28760104061294,0.6540097166526075,0.06224744765309467,0.027761403925433664,-0.7533848383346445
221.0,0.04419536547900042,0.044563616949533535,-0.014148683076692519,-1.258812876999738,-0.5477058371735792,9.703819770709224,0.07568105822187254,0.4051318796598104,-0.1100224560713349,98.05299422089843,-7.369507043572739,3.2260993874339663,0.6538489815254206,0.06366023658864411,0.03026990606966768,-0.7533170540628675
222.0,0.03136990933273389,0.029897858828818697,-0.02574467985463265,-1.2993434959349597,-0.5344626746843506,9.699301702821172,0.006443007474429585,0.3919837211044921,-0.12658380868082875,98.35286414428083,-7.607648879772207,3.1491924946611216,0.6518253123048032,0.06442951866410962,0.03244715972641527,-0.7549141598520477
223.0,0.03621318047281856,0.02500134876924806,-0.019771533475703422,-1.3324096511932866,-0.537324079277659,9.694219399797682,-0.06474724626278522,0.1994192799070848,-0.09365984788880147,98.39704699149524,-7.808763956015135,3.1683966505563674,0.6514422341927242,0.06566256635221608,0.03367001156078829,-0.7550895161034432
224.0,0.04081330785658088,0.02312757109137912,-0.019030609568768498,-1.3549929938930727,-0.5449303510546626,9.691648870405754,-0.07001330036341838,0.16310647783897192,-0.08743583979618598,98.43453411262223,-7.9386544153459955,3.2146261848563187,0.6511547410004872,0.06669022871439809,0.03429012454954855,-0.7552254989204601
225.0,0.03596054849949422,0.03397527256378555,-0.019628601401221392,-1.30590090292608,-0.513462028399086,9.69988265707542,0.2585761586302499,-0.5779471544715448,0.05578542392566782,98.43879046307744,-7.647685783597467,3.024607545614627,0.65126277949867,0.06380070633516914,0.03343831303401896,-0.7554133985310405
226.0,0.01910818253343824,0.03402399685287176,-0.0207462627852085,-1.1810881195908731,-0.4718941778127459,9.716226593233678,0.27008752950432735,-0.7858059598741148,-0.372529012588513,98.56943597560976,-6.917525570416994,2.77522128245476,0.650676239234461,0.057975462559795424,0.03005730964437451,-0.7565030359390243
227.0,0.024612163276010644,0.0412070454460305,-0.03177210482934323,-1.0921867483421377,-0.37892243640178336,9.730181034805742,0.170644482222472,0.37344850558240605,0.007463014218275832,98.61480935755498,-6.395138810835112,2.225834433891574,0.6505867780172528,0.05140622446318047,0.029712067833501925,-0.757035842672783
228.0,0.03626979131542468,0.04553497433591847,-0.024575568543703876,-1.2168272451388107,-0.4115781536847627,9.713703420628677,-0.28882090405005434,0.4686546963395901,-0.27522514611666854,98.66897221910007,-7.124686340901428,2.4235522975909483,0.6499506817263685,0.05682811342917087,0.033492159207073546,-0.7570389362033267
229.0,0.041836705256453485,0.04733869094451312,-0.020926651305683566,-1.265474991570192,-0.4369141751901391,9.707013000636916,-0.06710911449552286,0.26978171481023566,-0.3173185132628976,98.90854197107639,-7.414083925761493,2.5760316562699037,0.648289487940289,0.059364235321981186,0.03465072546899704,-0.7582392488687758
230.0,0.05086190101532352,0.04204031321419205,-0.022523809523809526,-1.3502697538496125,-0.4834369263047469,9.694216177737815,-0.30316141208647107,0.5938626315986661,-0.25132558727661003,99.1973153403769,-7.914980470945262,2.852657965231726,0.6461602236274022,0.06392663009647447,0.03659947716998239,-0.7595960034585812
231.0,0.057299923848557956,0.042074810514475314,-0.025919471592636842,-1.4058742690899209,-0.5147500442183716,9.685077733719147,-0.31657107711161236,0.5433313304371389,-0.11377529432445217,99.37838956962673,-8.241025677259907,3.038657560187085,0.6448293449656779,0.06692593960123525,0.037855618230207375,-0.7604228443135037
232.0,0.05007394379082575,0.0395336212101806,-0.020832520630157544,-1.5027025048945162,-0.5711332177556583,9.667429747680822,-0.44105758718643073,0.06110077443141271,0.16136885783945987,99.4149901137632,-8.808453647329515,3.3782863875267592,0.6442839161273259,0.07234226663822206,0.03979543751418953,-0.7602900757950568
233.0,0.03584824254844198,0.04188758165151046,-0.015802865350483964,-1.5154810714873843,-0.6829477064388045,9.657579153934824,-0.7933387119645764,0.7070169981519769,-0.3370064886648491,99.40329499295555,-8.88803079199678,4.0423290464384385,0.6441866054010941,0.07718701828321409,0.03659865397306644,-0.7600419577623002
234.0,0.021315151958721384,0.046097213327722195,-0.016559969260607835,-1.683173265877445,-0.8125871498362396,9.61760940387536,-0.9498017320641136,1.495522661153093,0.27932327022304354,99.36325744927086,-9.884515002607358,4.829755199851792,0.6437773887312315,0.08793327750510035,0.038874849732402614,-0.7590444494043602
235.0,0.011971895412877609,0.04548881122719707,-0.012802407919052936,-1.8890573253069363,-0.9186820485609211,9.56832781366073,-0.6587355680383511,1.2438864289243041,0.05276585914771377,99.22467430882111,-11.110748723766307,5.480993724040766,0.6438613026520044,0.09907688830457614,0.043343409163998314,-0.7573248550383328
236.0,0.0008591660110149491,0.03935955940204565,-0.010706530291109363,-2.051479150275374,-0.9822029897718337,9.529491738788357,-0.3856412273800157,0.9824645948072384,0.11511605035405195,99.22633752950432,-12.081274586939418,5.88398898505114,0.6432227540251768,0.10707533341935482,0.047630808577498025,-0.7565574901620772
237.0,-0.052874901652242325,0.05306687647521637,0.0564720692368214,-2.195767112509835,-1.0162863886703384,9.493022816679783,-1.990470102281668,4.394777734067663,0.26927616050354053,99.16765342250196,-12.961959087332808,6.117496066089693,0.64298819904642,0.11358579226435879,0.052228613954366634,-0.7554788912808813
238.0,-0.4583335955940205,0.43003461841070034,0.04641463414634147,0.8631628638867033,-3.171439811172306,7.067793863099922,-28.29167977970102,-13.872020062942564,-45.34613493312352,122.14079464988197,7.213847364280094,28.931166404405978,0.45248702204878055,0.20105820380723838,-0.15149763786546028,-0.7724345441416208
239.0,-0.31626435877262005,0.1351101494885917,0.038196302124311576,4.65729346970889,-4.014892210857592,4.787615263571991,-14.668951612903225,-4.842702596380802,-23.040917584579073,148.39754130605823,32.69534323367427,45.351430959874115,0.24348192310070813,0.2366646470035405,-0.3540087499429582,-0.7857529247380015
240.0,-0.2572997639653816,-0.016519669551534208,0.10970318646734856,6.506874901652241,-4.415941778127459,3.826256884343037,-8.1099282061369,-1.729219118804091,-11.804752655389457,162.24800354051928,44.926920239968524,51.87752016129032,0.13420300023092055,0.2547790087795044,-0.44660976563552307,-0.7983766279645946
241.0,-0.6141982690794651,0.48139339103068457,0.15371046420141624,4.642050354051925,-4.735487018095987,4.677378442171518,20.175177025963812,8.51341463414634,41.230335365853655,152.92097757671127,31.953933910306844,48.18165322580645,0.20839289051062154,0.2736884360228167,-0.35568174441856804,-0.8023991570952005
242.0,-0.34637641901764643,0.2672843093177476,0.06325720280244278,1.3162964295080724,-2.924292345734517,7.070980817504026,8.209324304072535,11.273920516278896,24.957026830204935,128.1905218519351,10.009757736690268,27.46824432861264,0.41062062278425304,0.1905458394613353,-0.1535457655549811,-0.7893498420632048
243.0,-0.17727572964669738,0.12174769585253457,0.008086021505376361,-0.4976666666666668,-1.9035,8.314000768049155,9.17330069124424,-4.037423195084487,10.352584965437787,125.21478974654377,-1.92626248079877,16.15522033410138,0.44456840265322584,0.14259616143817205,-0.035354108178187404,-0.8306882516505376
244.0,-0.08705308905623618,0.10085939080588965,-0.006613362182008911,-1.058105559926567,-1.2639783634933122,9.110380203064707,4.39267783382039,-1.5423642332621492,5.616938996290885,132.29335081347645,-5.84546675377468,9.40153756181859,0.39543062274075536,0.09753550458287438,0.017043932646350835,-0.8862629875296353
245.0,-0.03489981641751901,0.08105296729234575,-0.0168245382338616,-1.399959461990933,-0.9607618391967327,9.494012682177518,2.20386219840021,-0.7372415444344539,2.747548799220711,139.68543428730658,-8.1529969137537,6.181482346577498,0.33900113628742834,0.07499835469504701,0.04773515673427373,-0.9243730674883199
246.0,0.003017833726724366,0.05901438687197934,-0.020529204600801768,-1.5129797309954667,-0.8135220486306247,9.638030534637144,0.2415732362968791,-0.2588173447978722,-0.20969334232512837,144.4950104904275,-8.883504505263947,4.8368853265145555,0.3016296960993594,0.06391056625881383,0.060469574068749775,-0.9448248124256116
247.0,0.014746806039488967,0.06867460941890526,-0.018208197519763217,-1.5164973586602226,-0.8036377805252707,9.646377393128766,0.20012925705293919,-0.2840529110936272,-0.3131273181971451,147.61166708815705,-8.897467076917312,4.768433648046157,0.2771229082160279,0.06162169477715336,0.06302370611168559,-0.9556058102594884
248.0,0.017599977520512535,0.07547555355737888,-0.015224682477239519,-1.5402786332471623,-0.8072198119216215,9.646022029897715,-0.09213967254879922,0.38322796073582854,-0.2698941122475741,148.98874925068372,-9.036497555355737,4.786444166573002,0.2659783853568619,0.061191939645873134,0.06513479895676447,-0.9596848157856581
249.0,0.015803135888501744,0.08172676182983027,-0.015809823536023383,-1.5686892772844783,-0.8204981829080962,9.640132966168366,0.053261398973436735,0.12868125023416133,-0.14191991214266983,149.47661793769436,-9.208428754074408,4.855471296504439,0.26190198422131056,0.06193507330287362,0.06662776817389755,-0.9607886934325617
250.0,0.020115853658536586,0.09198780487804879,-0.015054681353265148,-1.5618215971675844,-0.8107682926829269,9.642114870180954,0.06425550747442958,-0.062411487018095985,-0.14055000983477578,149.60832144964596,-9.157195367820613,4.801237952399685,0.2608105294378442,0.061333745279701014,0.0664448544824941,-0.9611382669305666
251.0,0.019957120377655388,0.0948729346970889,-0.013438630999213219,-1.5628906372934694,-0.8081018882769473,9.641105822187246,-0.044485149488591655,0.13119345003933908,-0.16117722265932335,149.7213734264359,-9.162443450039339,4.786329661683713,0.25984079659795434,0.061116180905979554,0.06661121749527929,-0.9614063096467348
252.0,0.019411290322580647,0.09160483870967742,-0.012782258064516131,-1.571774193548387,-0.8067016129032261,9.640411290322572,-0.01315524193548387,-0.033316532258064524,-0.12429435483870968,149.80831653225806,-9.219808467741935,4.784879032258065,0.2591639351612903,0.061114945669354846,0.0671148980080645,-0.9615597638870963
253.0,0.022048387096774195,0.08632258064516128,-0.015209677419354842,-1.4817983870967737,-0.7877177419354837,9.654943548387095,0.07595766129032258,-0.36990927419354835,-0.23981854838709676,149.78145161290323,-8.68921370967742,4.656149193548387,0.2594607929758064,0.05894878766935485,0.06290263532258064,-0.9618845790161289
254.0,0.023322580645161295,0.07658870967741935,-0.014177419354838714,-1.4739919354838706,-0.7730967741935486,9.657475806451611,-0.05120967741935484,0.13744959677419352,-0.14672379032258065,149.98079637096774,-8.642540322580643,4.568245967741936,0.2577600785806452,0.05801017563709679,0.06279597105645161,-0.9624129275403221
255.0,0.024822580645161296,0.0762822580645161,-0.013306451612903229,-1.473266129032258,-0.7727338709677422,9.657306451612902,-0.15982862903225806,0.07021169354838708,-0.26547379032258067,150.1632560483871,-8.638457661290323,4.565675403225806,0.2562041740645161,0.05788864686290324,0.06285365920967742,-0.9628314614838707
256.0,0.025903225806451616,0.07864516129032258,-0.013298387096774195,-1.4873145161290324,-0.7851209677419355,9.653806451612901,0.04032258064516128,-0.02842741935483872,-0.1733366935483871,150.3709677419355,-8.717540322580646,4.648639112903226,0.2544246043225807,0.0585761286451613,0.06347528140322581,-0.9632208065887093
257.0,0.03083870967741936,0.08861290322580645,-0.011612903225806454,-1.4967661290322583,-0.7794435483870967,9.653612903225802,-0.02207661290322581,0.25977822580645166,-0.13200604838709679,150.57056451612902,-8.774596774193547,4.6157258064516125,0.25277439162096776,0.058327065943548397,0.06413574140322581,-0.9636250660403224
258.0,0.03126337529504328,0.0904586939417781,-0.012196105428796223,-1.5448473642800948,-0.7880615656963021,9.644836152635715,-0.043456186073957515,0.22176435877262002,-0.013024931156569636,150.6788220397325,-9.055298485444531,4.669767899291896,0.2518596818180566,0.05936212964752165,0.06644987189712824,-0.963645255308615
259.0,0.03207619609606235,0.08838026862987523,-0.012397399872616236,-1.558667921771384,-0.7899941085009929,9.643090695365474,-0.1503679259862875,0.19839418015435917,-0.08939817026338467,150.73307821456672,-9.142093367146229,4.682526998801094,0.2513737544864093,0.05959450833528156,0.06717334605513095,-0.9637120672025025
260.0,0.01922761417706343,0.07275868270203441,-0.015803538645985542,-1.6155436383050468,-0.798525280056948,9.633146154134351,-0.14118698718669215,0.45653075943201826,-0.06523839964782135,150.78065201050916,-9.483168659379565,4.7353159187553855,0.2509390909085271,0.060739371248285934,0.06995540613240417,-0.9635548147544772
261.0,0.014085581282080102,0.06577450264133979,-0.01968805964557342,-1.665074238507362,-0.7998150593833127,9.625573077067177,-0.09282131617399123,0.292983121651493,-0.09012928046907197,150.8467020133191,-9.778555095818815,4.746160983571241,0.25030000091394095,0.0614009428418849,0.0724538061226537,-0.9634924806715934
262.0,0.013397924393990485,0.06894222771720804,-0.01635465138061519,-1.6841152073732713,-0.7943981866546777,9.62124719943052,0.036725160166348206,0.08216229253306355,-0.12936219137536997,150.92829605484997,-9.887445206249296,4.717631411337155,0.2495733291910381,0.06131031962009665,0.07350377556850626,-0.9636100243525159
263.0,0.022062455509347725,0.06511706193098797,-0.012613989734367389,-1.6696248735528827,-0.7820401633509423,9.625251451800231,0.054780754748791724,-0.25338679236446743,-0.20647889269791314,151.10359039563897,-9.801782201865798,4.63917074107377,0.24814381054752527,0.06039170340170843,0.07301227381493763,-0.9640733864067852
264.0,0.019666404405979547,0.058143784421715194,-0.012684107002360345,-1.6605981510621557,-0.7879402045633358,9.626530487804878,-0.11931181156569629,0.2452584087332809,-0.2554619885916601,151.25957169551532,-9.751539142407552,4.6713758851298195,0.24681748193351685,0.06050504319394177,0.07258831647659324,-0.9644383914860346
265.0,0.012171911880409128,0.05549527930763179,-0.011325924468922109,-1.6938756884343031,-0.8025184893784422,9.619454760031475,-0.11230207513768685,0.24775521243115656,-0.14383482494099134,151.35861649291894,-9.942100216365066,4.765022619984265,0.2459420594103068,0.06159953787116443,0.0741033209520063,-0.9644762749325334
266.0,0.006319826907946498,0.05362667191188043,-0.01212667191188041,-1.7177120377655388,-0.8123398898505114,9.61458221872542,-0.08057140047206923,0.16142800944138472,-0.12007769472856018,151.4067023996853,-10.088237608182533,4.825958890637294,0.24551852484225017,0.0624315093509048,0.0752060167501967,-0.9644496371073957
267.0,0.0016532258064516127,0.0563467741935484,-0.011790322580645163,-1.7345806451612897,-0.8199032258064513,9.611000000000008,-0.06622983870967741,0.2026209677419355,-0.1065524193548387,151.42913306451612,-10.189112903225805,4.873689516129032,0.2452517123306452,0.06300063591935484,0.07595460973387096,-0.964418077120968
268.0,-0.0030241935483870967,0.056459677419354856,-0.01387903225806452,-1.7611451612903224,-0.8323629032258066,9.605024193548394,-0.13341733870967742,0.2080141129032258,-0.16743951612903224,151.48775201612904,-10.350151209677419,4.951108870967742,0.24464214720161298,0.06387137158870967,0.07718343443548387,-0.9644181762419357
269.0,0.0002661290322580655,0.056290322580645175,-0.013185483870967744,-1.7719112903225809,-0.8420887096774197,9.602056451612908,-0.04022177419354839,-0.004485887096774194,-0.15549395161290325,151.52782258064514,-10.41078629032258,5.010181451612903,0.24422818967741938,0.06445607912096775,0.07762185376612904,-0.9644525814919357
270.0,0.004314516129032258,0.05929032258064518,-0.010169354838709678,-1.7736129032258066,-0.8492903225806452,9.600822580645165,0.000957661290322577,-0.0266633064516129,-0.10625,151.56975806451612,-10.424395161290322,5.041280241935484,0.24400048774193558,0.06477483938709677,0.07763903129032258,-0.9644949605645159
271.0,0.015488985051140831,0.06808261211644374,-0.007892210857592449,-1.7418180566483086,-0.8425517309205348,9.607173682140052,0.07049690204563336,-0.13258384146341462,-0.21914707907159717,151.6672797010228,-10.23133482494099,5.00207390833989,0.2432114772755705,0.0639876432629819,0.07615880763611331,-0.9648602742051532
272.0,0.017729740361919752,0.07474960660896932,-0.007033634933123525,-1.7644181746656171,-0.8504354838709675,9.602454760031467,-0.024602920928402827,0.23522447875688432,-0.13163970298977182,151.75616640440597,-10.365286929583004,5.055137440991345,0.24241957456864682,0.06457470268686072,0.07727363973190401,-0.9649319408249406
273.0,0.02143233674272227,0.08064516129032258,-0.008172305271439813,-1.7998473642800943,-0.8565070810385519,9.59606608969315,-0.04775398308418567,0.22943302517702596,-0.1549554976396538,151.81709284028324,-10.574491050354052,5.093431599134539,0.24195041898465777,0.06531481193056646,0.07899083977458694,-0.9648577805773013
274.0,0.02587745869394178,0.0843225806451613,-0.005690991345397326,-1.8934317466561765,-0.8868019276160503,9.573516915814317,-0.1931058221872541,0.7645148996852871,-0.19605133752950432,151.7559254523997,-11.137295928402832,5.288525275373722,0.24232845820200632,0.06811356443705743,0.08329675820987412,-0.9641885335346183
275.0,0.028289535798583794,0.08812903225806452,-0.0067285601888276945,-1.9297199055861527,-0.8897356412273796,9.566371361132962,0.036713217938631026,0.03772619984264358,-0.3576022816679779,150.88189417781274,-11.352065302911093,5.310139653815893,0.24959841650826126,0.0693425350653029,0.08453677422187256,-0.9621159335011802
276.0,0.033598741148701816,0.07741778127458696,-0.006624704956726986,-1.928618410700236,-0.8773296616837134,9.568259638080246,0.05732199055861527,0.04593823760818253,-0.34130605822187254,150.32393784421714,-11.347900275373721,5.233128442171519,0.25426885916915815,0.06912552688355625,0.08432009240204563,-0.9609397657671124
277.0,0.028617623918174667,0.06863257277734068,-0.007984264358772622,-1.9347309205350116,-0.8688371361132966,9.56777419354838,-0.14605871361132966,0.2964939024390244,-0.11185090479937057,150.10660896931552,-11.378105330448465,5.183465283241542,0.25610072092053504,0.06896655208457908,0.0845962009602675,-0.9604543950314709
278.0,0.026435483870967745,0.05874193548387097,-0.006548387096774194,-1.9811451612903226,-0.8748387096774193,9.557983870967742,0.012852822580645157,0.21965725806451614,-0.21754032258064515,150.02641129032259,-11.655594758064515,5.223538306451613,0.25669496658064517,0.06995150663709676,0.08680154107258065,-0.9600331954032255
279.0,0.02608575924468922,0.05792840283241544,-0.01253324154209284,-1.8428461841070023,-0.8127793076317857,9.589451219512195,0.5537863886703384,-1.6279283044846578,-0.414982051534225,150.3203198760818,-10.831692564909519,4.8406114771833195,0.2543926897964201,0.06479076124291896,0.08082395794236823,-0.9614820118149093
280.0,0.02068804091266719,0.06130291109362707,-0.012077104642014162,-1.680390833988985,-0.7529138473642802,9.623749803304484,0.23964521046420142,-0.27575850708103855,-0.3485444531864673,150.6858403815893,-9.870987411487018,4.470734166011015,0.25157078407159716,0.059434545440007855,0.07371396634618411,-0.9631269972260033
281.0,0.022239181746656175,0.052667584579071614,-0.014707907159716756,-1.6043123524783636,-0.7221343430369789,9.63956038552321,0.08627925845790717,-0.2740939712824548,-0.3722560975609756,150.97875688434303,-9.42254007671125,4.278109018489379,0.24915235721321802,0.05667150491758459,0.070474802640834,-0.9641913685605825
282.0,0.018740558615263574,0.051938630999213226,-0.015591856805664828,-1.5135110149488593,-0.7026760424862313,9.656292289535797,0.09946523406766325,-1.2499250098347758,-0.1613296616837136,151.16921715184895,-8.883371852871754,4.15546075924469,0.24773402484854445,0.054393579938631004,0.06627712530428798,-0.9649929440786784
283.0,0.0021404405979543644,0.0516144767899292,-0.01958221872541306,-1.3526667977970102,-0.6936565696302124,9.68121872541306,-0.14001032651455544,-0.23537077104642018,-0.1932656372934697,151.1466045436664,-7.932058910306845,4.095321105428796,0.2480745649484658,0.05189466598544453,0.058376009543273016,-0.9655498392812747
284.0,0.013943548387096775,0.05700000000000001,-0.01943548387096774,-1.3222499999999995,-0.7108951612903227,9.684951612903223,-0.08130040322580644,-0.10917338709677418,-0.16920362903225805,151.21930443548388,-7.75297379032258,4.196219758064515,0.2474741295725807,0.05228827728225807,0.05668782937903226,-0.9658022483629034
285.0,0.020395161290322587,0.06228225806451614,-0.015596774193548386,-1.315,-0.7226209677419354,9.683782258064518,-0.052520161290322574,-0.06058467741935486,-0.13881048387096773,151.27061491935484,-7.7064516129032254,4.257157258064516,0.24703334651612913,0.052783056225806466,0.056192360854838704,-0.965925794516129
286.0,0.02838709677419356,0.06641935483870968,-0.011911290322580644,-1.3162661290322581,-0.7325241935483867,9.682330645161294,-0.05992943548387096,0.07152217741935483,-0.1791834677419355,151.31552419354836,-7.716179435483871,4.322631048387096,0.24672452989516128,0.05336471091129033,0.05614983228225807,-0.9659793492096774
287.0,0.032266129032258076,0.06528225806451614,-0.010338709677419355,-1.327314516129033,-0.7400564516129027,9.681330645161296,-0.0751008064516129,0.15252016129032256,-0.171875,151.3462197580645,-7.777620967741935,4.35539314516129,0.2464354004354839,0.05379697632258065,0.05661822873387097,-0.9660094234758065
288.0,0.035607199055861544,0.062152832415420925,-0.00995967741935484,-1.3519940991345396,-0.7427108575924466,9.677804878048786,-0.04507892407553108,0.27565647128245474,-0.16172305271439813,151.38567810778915,-7.918507818646735,4.380288650668764,0.24608921608556256,0.05423152354799371,0.057806008384146346,-0.9660010312724234
289.0,0.04267859952793078,0.0607820613690008,-0.010862903225806452,-1.3895293076317858,-0.7466941384736426,9.673636309992137,-0.029973937844217154,0.20375565499606607,-0.19200063926042488,151.46667977970102,-8.13826096577498,4.407029405979543,0.2453605373935877,0.054800054225609754,0.05968256555094413,-0.9660336775354053
290.0,0.048008654602675074,0.05962490165224234,-0.01117741935483871,-1.4166557828481512,-0.7483591660110149,9.669177025963812,-0.06539019472856018,0.2507437549173879,-0.1554509244689221,151.57184795436666,-8.300556894177813,4.42186147718332,0.24454444006372938,0.05517931737490166,0.06105424335208496,-0.9661358680822185
291.0,0.04342368214004722,0.05539712824547602,-0.006225806451612904,-1.4352230527143983,-0.7517763571990561,9.665685287175457,0.055485346184107005,-0.19058074350904797,-0.2168383654602675,151.6592102675059,-8.41209800354052,4.440290617623917,0.2438022478463808,0.05554211121164436,0.06196177840991344,-0.9662468414604641
292.0,0.051332808811959105,0.06150904799370575,-0.014580645161290328,-1.4552002360346183,-0.7412793076317858,9.663294256490957,-0.02492869787568843,0.24165519276160508,-0.10909962627852084,151.6477502950433,-8.531729445318646,4.380982002360346,0.24379076741109357,0.05525373515420927,0.06312020614044059,-0.9661885516616835
293.0,0.0484193548387097,0.06554838709677421,-0.017322580645161297,-1.4761854838709674,-0.744709677419355,9.660629032258063,-0.08462701612903226,0.43034274193548394,-0.1956149193548387,151.79460685483872,-8.65569556451613,4.402671370967742,0.24248534124999993,0.0555978105,0.0642060315564516,-0.9664269711290318
294.0,0.04708575924468923,0.06429287962234462,-0.015139653815893002,-1.49990499606609,-0.7474807238394965,9.656502557041701,0.05232715381589299,0.0046579956726987,-0.19968282848151062,151.96374655782847,-8.79607223642801,4.422572039732494,0.2410426227669157,0.0559212281573564,0.06543340872442958,-0.966685997465578
295.0,0.04192191188040914,0.058295633359559416,-0.012932730133752957,-1.4815694335169156,-0.7310710070810387,9.660489181746659,0.1148480527143981,-0.22249459087332807,-0.19792609166011016,152.11065352084972,-8.690148013375296,4.322047108575925,0.23982225282297395,0.054833089514162076,0.06477598572108575,-0.9670931511561762
296.0,0.032295043273013385,0.054245476003147136,-0.025576711250983493,-1.4730900865460268,-0.7132677025963808,9.664354445318647,-0.004306402439024387,0.18885351101494885,-0.09922305271439812,152.17212086939418,-8.636773455940205,4.218967594413847,0.23936175263985038,0.05385036324803304,0.06456418602576712,-0.967279587434894
297.0,0.03533300550747444,0.04848564122738003,-0.024554484657749814,-1.4756579464988198,-0.7129685287175453,9.663185287175457,-0.11578727380015735,0.22978461841070022,-0.12451071990558615,152.23560680566482,-8.651022816679781,4.2139444826907955,0.23880171451750587,0.05383484424901652,0.06471819287175452,-0.967412884342447
298.0,0.04235601888276949,0.045448465774980344,-0.02757159716758459,-1.49245397324941,-0.7211939417781277,9.659681353265146,1.9669551534227947e-05,0.13243263178599526,-0.16018882769472856,152.3028840479937,-8.75363640833989,4.262239378442171,0.23817342510149486,0.05440467937450827,0.065519693806845,-0.9674774900865459
299.0,0.04701907946498821,0.05099960660896932,-0.019641817466561767,-1.5046707317073174,-0.72539948859166,9.657116050354052,-0.022295436664044054,0.03886088709677418,-0.1872836349331235,152.38669477773408,-8.825726544059794,4.2901185090479945,0.2374395717049567,0.05470101665814319,0.0661410930529111,-0.9676006798450039
300.0,0.04742486231313928,0.05316915814319434,-0.01971203776553895,-1.4981660110149493,-0.7307682926829264,9.658356412273804,-0.004192073170731708,-0.04223790322580645,-0.17680714004720693,152.51045928402831,-8.787384441384736,4.319605625491739,0.23643580619118804,0.05478261207907159,0.06576968821597168,-0.9678669392773407
301.0,0.042725019669551556,0.05195830055074745,-0.014545239968528717,-1.4430129819040123,-0.7115249803304482,9.667608575924472,0.07370549763965381,-0.25363763768686076,-0.16300034421715184,151.83943990952005,-8.460642456726987,4.2041822383949645,0.24218078561723053,0.05351819428107789,0.06293870420239968,-0.9666808820344218
302.0,0.031056058221872553,0.043464941366003526,-0.02938206698887266,-1.3701101775879507,-0.6835518526844253,9.680484779513694,0.07885903722228466,-0.3049594198418943,-0.2642562684987449,151.25471179423775,-8.03297459817916,4.031843423344948,0.24719677408818516,0.05148586639073095,0.05940079054494024,-0.9657351949978179
303.0,0.0219594807238395,0.04838972874751789,-0.019622485107339556,-1.330784927503653,-0.6754210876325353,9.685915776853621,-0.009083586227567345,-0.1678526937919149,-0.09989527134614663,151.04419057453822,-7.801114315218612,3.984243284253119,0.24902418091102807,0.05071184934859128,0.057441489369244314,-0.965438565640038
304.0,0.028905979543666412,0.047197716458731415,-0.019440766550522653,-1.3365659491963582,-0.6912509647446703,9.684879800307222,-0.16522727698475143,0.2389259839458994,-0.1558577212356225,151.0040644552471,-7.830991485894121,4.076623264864561,0.24935386604215837,0.05158611422140422,0.057517964814047806,-0.9653156254796372
305.0,0.03911565696302125,0.04159049866996367,-0.01935079240193324,-1.3664416095313028,-0.6958082125060883,9.679997040200819,0.0398219437263497,-0.05148692443145628,-0.06815124948484508,151.03330804390993,-8.003421096998988,4.105912807687985,0.24909039896747967,0.052205568537334684,0.05894793089059984,-0.965267462440448
306.0,0.05331864673485445,0.048678805589899225,-0.012657300213555132,-1.3551798920984601,-0.6678136263159866,9.68332660822,0.2064274942864636,-0.38697477614177056,-0.20089800869206847,151.10703561125473,-7.939530178711925,3.9421430678880522,0.24846673567178074,0.0506671535684313,0.05878195709754225,-0.9655174279786818
307.0,0.02659480723839497,0.047125885129819044,-0.012464594807238397,-1.2879309598741147,-0.6444651848937843,9.693592643587724,0.07056205743509048,-0.14048239575137686,-0.1519226986624705,151.32173977183322,-7.546565204563336,3.7965467643587725,0.246716759986428,0.048531956775767104,0.05586068808870967,-0.9662464408910307
308.0,0.024149488591660113,0.04020613690007868,-0.01839968528717545,-1.2685649095200628,-0.6313123524783633,9.697457120377653,-0.09543666404405979,0.12140047206923683,-0.21140833988985053,151.40590086546024,-7.434972462627852,3.7236526357199056,0.24603550881982694,0.047602350799370585,0.05509371280409127,-0.9665164211046418
309.0,0.02426278520849725,0.04090401258851299,-0.01766719118804091,-1.2734468922108582,-0.6406270653029108,9.69693941778127,-0.06525865460267506,-0.01145259638080251,-0.12648013375295045,151.53826219512194,-7.462755704169945,3.7727330841856803,0.24488545105350124,0.04806399835877261,0.05529194489850513,-0.9667765535633359
310.0,0.019723839496459485,0.03482966168371362,-0.02323249409913454,-1.2576384736428012,-0.658418961447679,9.697072383949639,-0.2042068253343824,-0.28176878442171516,-0.3618484461054288,151.74636850904798,-7.364545633359559,3.8824670535011805,0.24312106623092056,0.048645989315499606,0.05433312127852086,-0.967243065976003
311.0,0.025691188040912673,0.035614673485444545,-0.02132435090479937,-1.2819584972462632,-0.6967987804878047,9.691401652242323,-0.4862300845790716,0.9472351986624705,-0.07644448269079467,151.9517100216365,-7.508334972462627,4.112393046813533,0.24136844812096775,0.05079006642643588,0.055163587769866254,-0.9675123619140438
312.0,0.03541817466561763,0.037206530291109374,-0.021029110936270655,-1.3123461841070023,-0.7142340676632573,9.685321793863093,0.08851298190401258,-0.6665789732494098,-0.2694974429583005,152.1160011801731,-7.690961841070024,4.218167289535798,0.2399380343064516,0.051932922406766335,0.05651856126396539,-0.9677166832836348
313.0,0.020717741935483876,0.030185483870967745,-0.020967741935483872,-1.2063225806451614,-0.7166693548387095,9.698322580645156,-0.11693548387096774,-0.30055443548387095,-0.09264112903225805,152.1850806451613,-7.0667338709677425,4.221824596774193,0.2394529271854839,0.05068999272580645,0.051255306040322586,-0.9681901993145159
314.0,0.022862903225806457,0.03867741935483872,-0.01769354838709677,-1.1628951612903222,-0.719048387096774,9.703999999999997,-0.0029233870967741923,-0.23785282258064513,-0.17137096774193547,152.29657258064518,-6.809122983870967,4.231350806451613,0.23857707267741934,0.0501690778951613,0.04910140475806452,-0.9685624155887097
315.0,0.03491129032258066,0.04170967741935484,-0.013419354838709674,-1.2222419354838707,-0.7380241935483871,9.695475806451611,-0.2397681451612903,0.6640625,-0.0828125,152.35428427419356,-7.161088709677419,4.354435483870968,0.23804444260483865,0.05188997348387097,0.05186319660483872,-0.9684599843387098
316.0,0.052411290322580656,0.04154838709677419,-0.014790322580645162,-1.275709677419355,-0.7473951612903225,9.687,0.282258064516129,-0.5153225806451613,-0.24450604838709677,152.40977822580646,-7.467489919354839,4.4131048387096765,0.2374701223870967,0.052968425290322585,0.054393300911290327,-0.9684042646693547
317.0,0.028338709677419364,0.03485483870967742,-0.01725806451612904,-1.1580645161290324,-0.6998870967741936,9.705435483870971,-0.0038810483870967694,-0.36481854838709676,-0.19319556451612901,152.6281754032258,-6.778074596774194,4.125856854838709,0.23574858641129032,0.04904927918548388,0.049206985669354844,-0.9692958702016128
318.0,0.02167741935483871,0.03240322580645162,-0.012290322580645163,-1.0888225806451612,-0.6869112903225807,9.713895161290328,0.12499999999999999,-0.4424899193548387,-0.07600806451612903,152.76683467741935,-6.3717741935483865,4.044254032258064,0.23464104400806451,0.04750380983870968,0.04598132729032258,-0.9698096977499997
319.0,0.018951612903225806,0.03195967741935485,-0.020750000000000005,-1.0034354838709678,-0.6696612903225806,9.724991935483875,-0.0029233870967741923,-0.3797379032258065,-0.2534274193548387,152.9086693548387,-5.870060483870967,3.936189516129032,0.23347704365322583,0.04557716637903225,0.042001343056451604,-0.9703678255725808
320.0,0.023965971675845785,0.03326770259638081,-0.021169748229740364,-0.95477025963808,-0.6539909520062942,9.731710267505907,0.011656667977970103,-0.03467619000786784,-0.22879376475216362,153.03172575727774,-5.585008113690007,3.844978117623918,0.23245809316247046,0.0441633930920535,0.03984193947246261,-0.9707772830733674
321.0,0.014650668764752161,0.03397010228166798,-0.022030094413847366,-0.9727161683713611,-0.6582165617623921,9.730171125098355,-0.19362337726199844,0.5407417879622344,-0.12388252360346183,153.15447728166797,-5.696287372147915,3.871680763178599,0.23145507068371357,0.04455973248465774,0.040765791178796223,-0.9709629014634145
322.0,0.0037118410700236037,0.035282258064516146,-0.018753147128245478,-1.0491276553894573,-0.6798381195908736,9.720513375295045,-0.055624262391817475,0.24729420731707313,-0.20819851494885913,153.25703678206136,-6.141655192761605,4.00272546223446,0.23049647086349326,0.04647306948800156,0.044340508790912656,-0.9709385325802519
323.0,0.004000151304242572,0.03740942928039703,-0.016000953216728196,-1.0803174463878633,-0.6882008009037905,9.71731293247796,-0.09613370377655389,0.39228272710766804,-0.16019740160180757,153.37025096960804,-6.3267131422865095,4.044852314450564,0.22952485602562592,0.04718790461507191,0.045833172542995626,-0.9710693340713502
324.0,0.0027662046843793505,0.043091811414392084,-0.01773031531804152,-1.1176345296455443,-0.6967697552906051,9.712991143658332,-0.04768882769472856,0.23585910548931788,-0.0740503137041296,152.36367891222338,-6.546320280820675,4.102416076580121,0.23801930792007098,0.04849883050914887,0.04716718297714298,-0.9688494276606752
325.0,0.006697815166737273,0.0479227743145918,-0.016705440900562855,-1.1473813875607735,-0.7039788981016362,9.70829336883939,0.03499213217938631,0.027351267929552725,-0.061366226875668256,151.41379264257904,-6.7144957029595105,4.14451547338054,0.24604235045492134,0.04962356897605359,0.04812817554443302,-0.9667303529963485
326.0,0.011359922532227801,0.055914967015675124,-0.016244931307873876,-1.1550903790675622,-0.7040964514111645,9.706935826827245,0.027380015735641226,0.002675437269261025,-0.14148169723012366,150.9592910891888,-6.760168779882587,4.144577760293732,0.2498665309261232,0.04996024320163813,0.048301316547196854,-0.9657490000245315
327.0,0.008112691399866851,0.05756487925921444,-0.016773921200750472,-1.1658811454739857,-0.7118546773184854,9.70406114708789,-0.08262686860739576,0.1038111647400593,-0.20883585254897213,150.79024251548347,-6.826484862010531,4.192853396275899,0.2512509144780105,0.050579429236538964,0.048687511980128724,-0.9653611037140752
328.0,0.014433516915814324,0.061181943351691595,-0.020047010228166802,-1.168541896144768,-0.7167031864673484,9.703476396538154,-0.08526504720692368,0.17440868410700236,-0.08171838119590874,150.75698023210072,-6.844771587332809,4.21927616050354,0.25152478399665623,0.050839525992132165,0.048764609105035404,-0.965283104666798
329.0,0.025119984264358783,0.05936113296616839,-0.017446892210857597,-1.2271782061368999,-0.7288072383949642,9.695907553107787,-0.1643563139260425,0.49257228560188826,-0.07631785995279308,150.77591955153423,-7.192169059795436,4.299154209284028,0.25127774595397334,0.05222696991542091,0.05153091360896932,-0.9651222729059794
330.0,0.037798387096774216,0.05812903225806453,-0.01801612903225807,-1.2827338709677418,-0.7390322580645158,9.687556451612906,-0.0703125,0.2674899193548387,-0.16471774193548386,150.8267137096774,-7.518094758064516,4.354032258064516,0.25080591037903227,0.05339153642741935,0.054178397177419346,-0.9650409830241935
331.0,0.04754838709677421,0.059790322580645164,-0.015717741935483875,-1.3136612903225808,-0.7446290322580643,9.683354838709683,-0.05786290322580645,0.2698588709677419,-0.04420362903225806,150.88286290322577,-7.702973790322581,4.390927419354838,0.2503219605,0.054051454403225806,0.05568301312096775,-0.9650459548709678
332.0,0.057895161290322586,0.06056451612903226,-0.014161290322580646,-1.3403306451612904,-0.7465241935483868,9.680040322580648,-0.015473790322580642,0.1882056451612903,-0.12651209677419356,150.90665322580645,-7.854183467741937,4.401310483870967,0.25008121588709675,0.05445162865322581,0.056979911338709686,-0.9650075126209678
333.0,0.06588296616837136,0.06223190401258852,-0.014136900078678207,-1.373257671125098,-0.7487338709677418,9.67498741148702,-0.04563950629425649,0.2583915224232887,-0.12606707317073168,150.97056328678207,-8.043962677025965,4.421007081038551,0.24956683822285602,0.05501708643705744,0.05858652063434305,-0.9650105348109758
334.0,0.07276809598741149,0.0639990165224233,-0.010568450039339103,-1.3966691581431938,-0.7495322580645161,9.672187254130609,-0.05127237411487018,0.1866554386309992,-0.10789240755310778,151.02053869984263,-8.188690007867821,4.430312008261211,0.24909121253481514,0.055348868420141625,0.05975878659539733,-0.9650408953127462
335.0,0.0757187254130606,0.06256805664830845,-0.009501966955153422,-1.4154152242328872,-0.754443548387097,9.670287175452403,-0.08251622738001574,0.20161904996066088,-0.21689983280881195,151.10192761605038,-8.297369197482297,4.463517899291896,0.2483794161424076,0.05575240231490951,0.060685509987214795,-0.9651492281160508
336.0,0.07966581431943351,0.06151789929189616,-0.007759047993705744,-1.428824547600314,-0.7594677419354839,9.665337136113301,-0.05426214594807238,0.1030020653029111,-0.14501745672698663,151.2230908241542,-8.373634195515342,4.492746852871754,0.247330547667978,0.05612597842761605,0.06134900820731706,-0.9653531025177025
337.0,0.07515145554681353,0.0575129819040126,-0.01064162077104642,-1.4280735641227376,-0.7596774193548389,9.666386309992134,-0.024232887490165222,0.029575629425649095,-0.11749360739575138,151.32487706530293,-8.373586250983479,4.490627458693941,0.24643645649527926,0.05605255510896931,0.06138613998269079,-0.9655822277588515
338.0,0.06398013375295045,0.0540357985837923,-0.011508851298190402,-1.395299567269866,-0.7477891424075531,9.672583398898508,0.032385916601101496,-0.1415359461054288,-0.15043150078678205,151.45625245869394,-8.178999065696303,4.418479543666404,0.24541805557651455,0.05493608248367428,0.05995683412981904,-0.9659983780297007
339.0,0.059373131392604264,0.0489291896144768,-0.012218135326514556,-1.3887505900865458,-0.7436042486231312,9.672969118804094,-0.06828284815106214,0.13349109952793076,-0.1842631294256491,151.58034397128245,-8.141792879622344,4.393312352478363,0.24438785404228955,0.054586600229740365,0.059754517226199844,-0.9662931765269467
340.0,0.05823898505114084,0.044900078678206154,-0.013064712824547601,-1.4043269079464986,-0.746398898505114,9.67150472069237,-0.05657085955940205,0.2496336546026751,-0.1272374114870181,151.67447138080252,-8.232388375295042,4.412079563335956,0.24359718454130597,0.054802461453579865,0.060540065121164444,-0.9664329707433117
341.0,0.05242997639653818,0.04057100708103857,-0.013141227380015734,-1.4285021636506687,-0.7448768686073952,9.66741365066877,-0.07382474429583005,0.2786474724626279,-0.09234854445318647,151.7415703678206,-8.374561123131391,4.404124459087333,0.2430615195932335,0.05505773717033832,0.06176830824606609,-0.9664745175289138
342.0,0.042239181746656196,0.035031471282454776,-0.014998033044846579,-1.4559083398898505,-0.7428981117230521,9.66358182533439,-0.08459382376081825,0.2705989378442172,-0.10675894964594806,151.78351199842643,-8.532265440597953,4.387772915027537,0.24274224886113285,0.05535802035129819,0.0631581665302911,-0.9664464619862311
343.0,0.035870967741935496,0.029467741935483883,-0.014266129032258067,-1.4735725806451612,-0.7411209677419349,9.661491935483879,-0.03235887096774194,0.05050403225806452,-0.15367943548387097,151.2648185483871,-8.633215725806451,4.379385080645161,0.24704737565322576,0.05576993816935484,0.06381156735483869,-0.9652692231693544
344.0,0.013767309205350124,0.02673052714398112,-0.02278894571203777,-1.351454563335956,-0.6987706530291107,9.680170338316291,0.18397423288749015,-0.5823010916601101,-0.25985444531864677,150.62884539732494,-7.919853953579858,4.121563975216365,0.25247522490755303,0.052383205009638084,0.05798877351042485,-0.9643645032859951
345.0,0.010106412273800158,0.029564516129032256,-0.02350944138473643,-1.2948341856805667,-0.679452399685287,9.689687844217154,0.4090295535011802,-0.8728965873328087,-0.32300231117230527,150.35779405979542,-7.586471036585365,4.008167781274587,0.254824048251967,0.050821833756884344,0.05528440792781274,-0.9640167856203776
346.0,0.014734657749803308,0.03405645161290323,-0.016061172305271442,-1.232767899291896,-0.6568874901652242,9.69956569630212,-0.0884035700236035,-0.5065843823760818,-0.24766547010228168,150.21609461054288,-7.221234510228166,3.8750516325727773,0.25606121288808026,0.048959830321990555,0.05243237079858379,-0.963962757906963
347.0,0.010229937057435091,0.04058438237608182,-0.01757946498819827,-1.1444950826121163,-0.6160906766325727,9.713142407553109,0.1996139850511408,-0.1598138768686074,0.44459087332808817,149.8152414437451,-6.698789093233675,3.628566335562549,0.2595045940798584,0.04592620815696302,0.04844287686998426,-0.9633962342684894
348.0,0.012369000786782061,0.04544138473642802,-0.017346184107002362,-1.177033831628639,-0.6103154996066089,9.710055074744295,-0.019900668764752175,0.3954710857592447,0.08277930763178601,149.5371066089693,-6.891960070810385,3.593794256490952,0.26185021833831634,0.046208343538158926,0.050038547116443746,-0.9626795132753737
349.0,0.030204956726986625,0.04246498819826909,-0.01862588512981904,-1.2432297403619197,-0.5884701022816679,9.703044846577498,0.09166748623131392,1.036346872541306,-0.08181549960660896,149.53650177025963,-7.2844438434303695,3.4676042486231315,0.26181101524704953,0.04604455394846577,0.05364850739378442,-0.962503880036585
350.0,0.044555664830841835,0.037699842643587736,-0.02164181746656176,-1.3895928402832416,-0.5828975216365064,9.682289535798585,0.02572162667191188,-0.2513977675059008,-0.07023996852871754,149.6818277930763,-8.14782774390244,3.4393981117230528,0.26046158294610533,0.04764619272167584,0.06100663059303699,-0.9623182919655779
351.0,0.02801573564122737,0.032164437450826124,-0.030550747442958305,-1.2864819040125888,-0.5601302124311565,9.697725413060585,-0.028747049567269867,-1.0615607789142407,-0.263043371361133,149.7186860739575,-7.539110444531865,3.302561959087333,0.26026001451337527,0.04513039540519276,0.05621292275216365,-0.9627883517690794
352.0,0.01541227380015735,0.041892604248623136,-0.023025177025963812,-1.1627649488591663,-0.5753444138473641,9.712060975609761,-0.24224527930763176,-0.16168125491738788,-0.2459984756097561,149.79598249409912,-6.811082562942565,3.389307140047207,0.25970132917250194,0.04419418909913453,0.049917165597167586,-0.9633357895745474
353.0,-0.0003406766325727787,0.04809441384736429,-0.018036191974822976,-1.1399236821400471,-0.6111974822974036,9.713746656176243,-0.0442220692368214,-0.14438926042486233,-0.44977380015735635,150.0311319826908,-6.672034815106215,3.599075531077891,0.2577193189008654,0.04557820702911093,0.048387476150275374,-0.9639053934476787
354.0,0.0033623131392604244,0.05237136113296618,-0.01725177025963808,-1.1683607395751376,-0.6408347757671127,9.709076317859955,-0.20014506294256493,0.7542707513768686,-0.184662667191188,150.38078038945713,-6.8442048583792285,3.7744836742722265,0.2547491831325728,0.047238293628638864,0.04957684780763179,-0.9645566688206136
355.0,0.040662273800157356,0.04353029110936272,-0.01590755310778914,-1.3017728166797795,-0.67159756097561,9.68877498033045,0.2511518981117231,0.009142653422501978,-0.5577866837136113,150.5541539634146,-7.626960808418568,3.962576219512195,0.2531446862437057,0.05041742223131393,0.05584945964339102,-0.9644565251538157
356.0,0.0028953579858379264,0.06073170731707317,-0.03565696302124312,-1.3388985051140834,-0.7047364280094415,9.68070810385523,-0.49124704956726983,0.17628835562549175,0.7613591660110148,149.96375885129817,-7.853560188827695,4.1612411487018095,0.258032533949646,0.05287157171518489,0.05702225059008653,-0.9629081529032257
357.0,0.02536360570978983,0.05374470795399199,-0.02814506762579147,-1.4118762878873028,-0.7493612078977931,9.667686486081445,-0.5759127608557191,1.1080045708291182,0.00044724813607577296,149.8381874976584,-8.27942471244989,4.431652991645123,0.25901028773294366,0.0561330046712375,0.0600131308354876,-0.9623115678224871
358.0,0.03034506013262899,0.04135386459855383,-0.025214941366003524,-1.54580517777528,-0.7957474804241129,9.643728372859764,-0.4620171593421003,1.0176234498520098,-0.014425274437076203,150.01931503128395,-9.069521561575062,4.709345378592035,0.2573681637405867,0.06011139555198382,0.06614413663961634,-0.9621184193990484
359.0,0.029767337304709464,0.03878078753137763,-0.01724948484507887,-1.7067460192574269,-0.8562844404480915,9.611624217901163,-0.3829066913941029,0.9574004346034244,-0.09331609905960812,150.28092521823834,-10.016861488891387,5.090633546888464,0.25492048794425093,0.06512853387748682,0.07349234865812446,-0.9619000057420104
360.0,0.03157210295605262,0.03947693979243942,-0.01302993518414447,-1.801404480911168,-0.8935206623955645,9.59090416245176,-0.2758062174515754,0.5933884549098947,-0.020787671874414604,150.4235320426361,-10.583804465924844,5.326315986662171,0.25361058646229073,0.06818605567359785,0.07781854607807875,-0.9617151653344198
361.0,0.03606693267393504,0.039281349518564324,-0.009500805514967594,-1.9282828856168739,-0.9398618260836988,9.561485912854515,-0.32502938724663744,0.9374052817429095,-0.13380551965081863,150.50231971919374,-11.336350502041887,5.615203626690644,0.25273797872052384,0.07213168834427336,0.08361183953077816,-0.9611775813351878
362.0,0.04739214529242067,0.043215943576486476,-0.007861001835824812,-2.0348557285227225,-0.9697926641939231,9.536077057809745,-0.2095817059121052,0.6300169649881983,-0.24540218378854298,150.58598128816828,-11.973786810160728,5.803809570641789,0.251869810627543,0.07495480201007831,0.08863378345586526,-0.9607484030869489
363.0,0.040272095462890116,0.04517219287400248,-0.0072263309729871505,-2.078390787156719,-0.9794848450788654,9.525751845191264,0.13975883724851074,-0.23759097167584586,-0.1384422651830205,151.01043200423362,-12.232366949533551,5.869272999325615,0.24826539868759137,0.07569615885594395,0.09094323130287363,-0.9614120178795287
364.0,0.03912064144084802,0.04731840756356338,-0.00718067321708476,-1.9877724158827164,-0.9488391784357237,9.54801964755126,0.0770473691484718,-0.36320338659359963,0.6258573626420543,150.60441629761752,-11.69075852096735,5.670862095695963,0.2518043808488366,0.07323609177413778,0.08651857371650186,-0.9610782396367983
365.0,0.03410605242774108,0.045673365858886344,-0.009613546679352767,-1.9658328051089424,-0.9367549550715204,9.555432620785858,-0.06697211105912367,0.07719612830036773,-0.046983543305251396,150.4448584979433,-11.55675194931137,5.596955561026581,0.2531826663444616,0.07248817851216724,0.08545710881812504,-0.9608870451341938
366.0,0.035016735891289896,0.04192942486492705,-0.009072902371934448,-1.9674043057802773,-0.9400831226970503,9.55448243942519,-0.0544537974650457,-0.04446645197884838,0.0027431073796323827,150.52494941026197,-11.572529200462135,5.616950562771354,0.25250944434965017,0.07259542272382555,0.08554931858244963,-0.9610592251638712
367.0,0.034761056117687955,0.04343015022048197,-0.012299892046182278,-1.8283396336889097,-0.89983034783086,9.584156734305525,0.3350570874425923,-1.2968300001829727,-0.19186961374489964,150.53844436718936,-10.740512872120469,5.3632995901414375,0.2525902105204472,0.06873155363994657,0.0790712306237901,-0.9618282254375422
368.0,0.0315551936764679,0.04212498856421424,-0.01416489488225715,-1.7061123817539752,-0.8702959764331326,9.610033520575264,-0.0020426600552577168,-0.19772656578778847,-0.12364428759628932,150.75637796644284,-10.018555019852524,5.172714901286296,0.25091255760955483,0.06552505479086235,0.07350826803258742,-0.9629412183112177
369.0,0.01929897718332022,0.03085169158143196,-0.019095200629425647,-1.6860952006294259,-0.8516978756884344,9.615166797797013,0.7110051140833988,-1.5005605822187253,0.23347511801730916,150.8635228166798,-9.898155979543667,5.061019866247049,0.2501415827785209,0.06424984584854446,0.07276890555192764,-0.9632988962568841
370.0,0.01885483870967742,0.03433064516129033,-0.03438709677419355,-1.5114677419354838,-0.7696451612903223,9.649983870967747,-0.11532258064516132,-0.050403225806451624,0.32797379032258067,150.52540322580643,-8.868245967741935,4.557560483870967,0.25313676434677423,0.058079774766129036,0.0650169618467742,-0.9634250282983872
371.0,0.022524193548387098,0.025193548387096778,-0.028540322580645164,-1.5137500000000002,-0.7582338709677421,9.65207258064516,-0.26003024193548385,0.4961189516129033,0.19954637096774194,150.37313508064514,-8.884122983870967,4.4909778225806445,0.2544359761290323,0.05762900073387098,0.06522827204838712,-0.9631321082580644
372.0,0.014951612903225806,0.01470967741935484,-0.02370161290322581,-1.583733870967742,-0.7693145161290321,9.640314516129031,-0.3106350806451613,0.6320564516129032,0.11164314516129033,150.30665322580643,-9.294657258064516,4.559425403225806,0.25501078866129034,0.059157734233870954,0.06848188891129034,-0.9626714889274195
