time,linaccel_x,linaccel_y,linaccel_z,gravity_x,gravity_y,gravity_z,gyro_x,gyro_y,gyro_z,euler_x,euler_y,euler_z,quaternion_w,quaternion_y,quaternion_x,quaternion_z
0.0,0.04944444444444446,-0.00013888888888888913,-0.12194444444444441,-0.23930555555555566,-0.9349999999999999,-9.752916666666664,-0.20833333333333334,0.7421875,0.2439236111111111,277.0677083333333,-1.3984375,174.46875,0.0411037861111111,0.7486317958333335,-0.6611277256944447,-0.027726067083333333
1.0,0.01942265795206972,-0.0027913943355119823,-0.12015795206971677,-0.20761165577342036,-0.9243137254901962,-9.754795751633985,0.13398692810457516,0.19715073529411764,-0.18768722766884532,277.17391748366015,-1.2112438725490196,174.52757352941177,0.039546659782135084,0.7492626908660133,-0.6604675097412847,-0.02843518441993463
2.0,-0.0010266530854766125,-0.003101073762838468,-0.1188555725320431,-0.19598941091588146,-0.9275630252100839,-9.75292112299465,0.04605933282403872,0.18351914629488159,-0.3363897642390289,276.9787568436466,-1.1446456423478482,174.51181722689074,0.03928268085901028,0.7481472988559972,-0.661727540538473,-0.028899041980837786
3.0,-0.006895771439889087,-0.0030305010893246186,-0.11904926718162014,-0.18654505842741126,-0.933196078431372,-9.752279857397504,0.09076518865121808,0.03355893493761141,-0.1366693899782135,276.8447740270351,-1.0945846330956623,174.47791053921569,0.039119476234204795,0.7473074035494658,-0.6626651337512879,-0.029329930591057606
4.0,-0.014888122893341118,-0.0024494744134212825,-0.11945804274789093,-0.18316696375519892,-0.9367077798861474,-9.751103156805243,0.05723149169247366,0.04388796390990414,-0.08405149694286318,276.7958584001783,-1.0780248224656432,174.45705348671726,0.03912157366171199,0.7469960210723223,-0.6630083318151397,-0.029501883834382688
5.0,-0.019048004099000315,6.78255173036952e-05,-0.11816540130226089,-0.1806269406589614,-0.9384345351043635,-9.750504535391869,0.05818563831935511,0.03819902227753272,-0.20977048413451405,276.65439761406765,-1.0648440644586281,174.44677271110055,0.03906108189358001,0.7461653035065906,-0.6639415796060466,-0.02964129115778275
6.0,-0.023411536715972212,0.00010032642089093686,-0.11830051556866072,-0.18012371700879753,-0.9395564516129025,-9.750159762952102,0.019208313248131798,0.02775928708388386,-0.07604478994347946,276.56547264479474,-1.062782563538612,174.4402091733871,0.03906653938844086,0.7456322998439019,-0.6645378794519797,-0.029697776174242428
7.0,-0.02499022583599198,0.0016361847158218124,-0.11660382572176926,-0.17994455645161278,-0.9399395161290314,-9.750055443548387,0.029582162489168538,0.0035240716944345968,-0.058519706799696716,276.5273752520161,-1.0621219758064515,174.4378465221774,0.03906416168346774,0.7454023687147167,-0.6647951396673389,-0.029718644616935495
8.0,-0.02520428630509277,0.0006240399385560673,-0.1174274168931427,-0.17999999999999983,-0.9399999999999991,-9.75,0.013200229430068138,-0.006239476249556895,-0.02735398142404191,276.510017641129,-1.0625,174.4375,0.03906471516129032,0.7452993105645149,-0.664910657449597,-0.02972165911290324
9.0,-0.02502527915632756,0.0011367866004962778,-0.11768401054590572,-0.17999999999999983,-0.9399999999999991,-9.75,0.004198976426799007,0.038696107320099246,-0.03941968439826302,276.5009765625,-1.0595223325062033,174.4375,0.039059714955334994,0.745245658830644,-0.6649709235635082,-0.029726782020471486
10.0,-0.019604067975035725,0.0017792926159861644,-0.11802967328370555,-0.18156402737047878,-0.9399999999999991,-9.75,0.031094707543800282,-0.06853302527445672,0.039661434835325964,276.5,-1.059056132040003,174.4375,0.03912166326701256,0.7452392599999988,-0.6649780300000001,-0.029665913057523127
11.0,-0.016913696518535238,0.0010484552409955636,-0.11872203267162945,-0.18594330400782,-0.9399999999999991,-9.75,0.01470988478926987,-0.06576465159504474,0.026576995333295737,276.5,-1.0930361305361305,174.4375,0.03931259776253854,0.7452392599999988,-0.6649780300000001,-0.029474505561019618
12.0,-0.017085570343634872,-0.000873531374539439,-0.11952106596360629,-0.18813294232649064,-0.9399999999999991,-9.75,-0.003184905232536281,-0.040090229411045945,0.009192023953868712,276.5,-1.1100261297841942,174.4375,0.03940806501030153,0.7452392599999988,-0.6649780300000001,-0.029378801812767863
13.0,-0.014491916685465081,-0.0005880141364012331,-0.12026468155500414,-0.18922776148582593,-0.9399999999999991,-9.75,-0.013022595683886008,-0.0356267388525453,0.027842318971351226,276.5,-1.118521129408226,174.4375,0.03945579863418302,0.7452392599999988,-0.6649780300000001,-0.02933094993864199
14.0,-0.014866305737273487,-0.0007952477629896983,-0.11881472291149708,-0.18977517106549358,-0.9399999999999991,-9.75,-0.026300379727799084,-0.018154560493270168,-0.0006414956011730234,276.5,-1.122861681329423,174.4375,0.03947975632453568,0.7452392599999988,-0.6649780300000001,-0.02930693312316714
15.0,-0.01541213625084594,-0.0016879464621400104,-0.12099827054665764,-0.18999999999999995,-0.9399999999999991,-9.75,0.0215974885329724,-0.005869802240769982,-0.0093475073313783,276.5,-1.125,174.4375,0.03948975,0.7452392599999988,-0.6649780300000001,-0.029296879999999983
16.0,-0.009816377171215886,0.0029829310474471776,-0.12082186630573727,-0.19078201368523942,-0.9399999999999991,-9.75,0.08414354462741559,-0.0547437777276487,0.011222648319422513,276.5,-1.1284213098729228,174.4375,0.0395212516226784,0.7452392599999988,-0.6649780300000001,-0.029273491612903206
17.0,-0.003686893751409883,0.005052710730130087,-0.12048665313181442,-0.19555229716520023,-0.9399999999999991,-9.75,0.06730863222798707,-0.0598860816602752,0.03997950973757425,276.5,-1.1589687194525904,174.4375,0.039726011779081145,0.7452392599999988,-0.6649780300000001,-0.02912767354838707
18.0,-0.0013367989737753832,0.00661412989193442,-0.11884182291789415,-0.19793743890518062,-0.9399999999999991,-9.75,0.006567587844670174,-0.04533506334782213,0.030815974268068633,276.5,-1.1742424242424243,174.4375,0.03982839185728252,0.7452392599999988,-0.6649780300000001,-0.029054764516129004
19.0,0.0010909057240304225,0.006974558742493266,-0.12144820674430687,-0.19913000977517087,-0.9399999999999991,-9.75,0.011348310051367345,-0.05297150189723612,0.033754761327582705,276.5,-1.1818792766373412,174.4375,0.03987958189638321,0.7452392599999988,-0.6649780300000001,-0.02901830999999997
20.0,0.001427662050676013,0.007592851218753966,-0.1216918453076373,-0.19972629521016594,-0.9399999999999991,-9.75,0.02459827526028778,-0.007439441075695285,0.019550279002012273,276.5,-1.1856977028347995,174.4375,0.03990517691593355,0.7452392599999988,-0.6649780300000001,-0.029000082741935454
21.0,0.002272970810284243,0.007664949558546095,-0.12224377211618423,-0.19999999999999976,-0.9399999999999991,-9.75,0.028580906936106744,-0.005002711740193685,0.005849797370018844,276.5,-1.1875,174.4375,0.03991699000000003,0.7452392599999988,-0.6649780300000001,-0.028991699999999967
22.0,0.0029839927365204206,0.00802357937360345,-0.12151044910794546,-0.19999999999999976,-0.9399999999999991,-9.75,0.022797907035990814,-0.013208222927770352,0.015540978841412159,276.5,-1.1875,174.4375,0.03991699000000003,0.7452392599999988,-0.6649780300000001,-0.028991699999999967
23.0,0.003485255877167288,0.00812108193523697,-0.12218517159297129,-0.19999999999999976,-0.9399999999999991,-9.75,-0.01085369453207681,-0.006107602075344011,-0.011367690646698833,276.5,-1.1875,174.4375,0.03991699000000003,0.7452392599999988,-0.6649780300000001,-0.028991699999999967
24.0,0.00462278052552487,0.007798106242978657,-0.1207224143213551,-0.19999999999999976,-0.9399999999999991,-9.75,-0.017214605126858372,0.004632719831925417,-0.01009386717439197,276.5,-1.1875,174.4375,0.03991699000000003,0.7452392599999988,-0.6649780300000001,-0.028991699999999967
25.0,0.0048339679899622135,0.00746961672575539,-0.12125384806174405,-0.19999999999999976,-0.9399999999999991,-9.75,-0.03426963423352446,-0.002131023766796516,-0.008012084008111934,276.5,-1.1875,174.4375,0.03991699000000003,0.7452392599999988,-0.6649780300000001,-0.028991699999999967
26.0,0.0041423381625596365,0.008155191783020386,-0.12058293576107729,-0.19999999999999976,-0.9399999999999991,-9.75,-0.015307899651303598,-0.000973869654659255,0.004767219620373208,276.5,-1.1875,174.4375,0.03991699000000003,0.7452392599999988,-0.6649780300000001,-0.028991699999999967
27.0,0.00603528845336883,0.008800872298847323,-0.11845761703814892,-0.20174573055028466,-0.9399999999999991,-9.75,-0.025970715681554277,0.010316066725197543,0.4511969327933388,276.6100569259962,-1.194141366223909,174.4375,0.0399406170967742,0.7459114567362422,-0.6642219808159395,-0.02894490948766601
28.0,0.012261016806600088,0.011853566392635757,-0.1189508726850481,-0.20603415559772315,-0.9372629521016607,-9.75,-0.0034655084075911648,-0.008038447575817651,0.1724218093592757,276.94212523719165,-1.2230787476280836,174.4375,0.039992284760508284,0.7478454095900171,-0.6620459518400323,-0.02881079248576848
29.0,0.017393869019573523,0.012238179070544763,-0.11972327901501767,-0.2081783681214424,-0.9386314760508299,-9.75,-0.036607388476600285,0.03299097953789392,0.010400749500200049,277.1081593927894,-1.2375474383301706,174.4375,0.04001764125122186,0.7487789747950082,-0.6609918257587263,-0.028743733984819716
30.0,0.01917467775835332,0.010617419002306713,-0.12022375853115891,-0.20925047438330202,-0.9393157380254145,-9.75,-0.01703255725459696,0.028834819513187632,-8.56949016412702e-05,277.19117647058823,-1.2447817836812143,174.4375,0.04003031949657865,0.7492457573975035,-0.6604647627180733,-0.028710204734345334
31.0,0.02287192093169324,0.012948315441674083,-0.12114413733009557,-0.20978652751423182,-0.9396578690127069,-9.75,-0.03191656935727144,0.024342968069248905,-0.03753451442611784,277.2326850094877,-1.2483989563567364,174.4375,0.040013882162681355,0.7494791486987513,-0.6602012311977468,-0.02871622029769376
32.0,0.024809008196104987,0.015533273178434477,-0.12261410632378372,-0.2100000000000003,-0.9398289345063531,-9.75,0.044654673283705544,-0.0963432400932401,-0.02784325889164599,277.18945409429284,-1.25,174.4375,0.03999377882637786,0.7493111936157603,-0.6603863072599445,-0.02875461409429278
33.0,0.024774983081434707,0.015997330626362893,-0.12187890066922323,-0.2100000000000003,-0.9399999999999991,-9.75,-0.010709686818557784,-0.028101971952778405,0.010439929693961951,277.1410980148883,-1.2222782258064515,174.4375,0.03998490514143914,0.7490471543200986,-0.6606926938523576,-0.028783570918114114
34.0,0.022672851342206195,0.014467647943454403,-0.1220436686968945,-0.2100000000000003,-0.9399999999999991,-9.75,-0.02708251090307542,-0.01719924900368449,0.112803711745244,277.0987748138958,-1.2038810483870968,174.4375,0.039980483215880824,0.7488689250632747,-0.6608979880552112,-0.028798049330024784
35.0,0.021170285359801498,0.013839019851116633,-0.12291532258064515,-0.2100000000000003,-0.9399999999999991,-9.75,-0.0433332040942928,0.010869649503722085,0.04664430831265509,277.0776132133995,-1.1946824596774195,174.4375,0.039978272253101674,0.7487798104348629,-0.661000635156638,-0.028805288535980113
36.0,0.022668269230769245,0.015547301488833756,-0.12271572580645161,-0.2100000000000003,-0.9399999999999991,-9.75,-0.0032965648263027295,-0.01856486507444169,0.010372402295285356,277.06703241315137,-1.1900831653225805,174.4375,0.03997787853598009,0.7487352531206568,-0.6610519587073513,-0.02880819625806448
37.0,0.02163810483870969,0.016518067617866016,-0.12258615074441688,-0.2100000000000003,-0.9399999999999991,-9.75,0.0005074247828784108,-0.02303863601116625,0.041825469137717126,277.0636340725806,-1.1877835181451615,174.4375,0.03997802999999993,0.7487212133568539,-0.6610684575050405,-0.028808589999999967
38.0,0.022923387096774207,0.01363957816377172,-0.12272704714640195,-0.2100000000000003,-0.9399999999999991,-9.75,0.03454365694789081,-0.06102473635235732,0.021212003722084368,277.0625,-1.1875,174.4375,0.03997802999999993,0.7487182599999992,-0.6610717800000001,-0.028808589999999967
39.0,0.022580800248138973,0.0151597394540943,-0.12205459057071957,-0.2100000000000003,-0.9399999999999991,-9.75,0.0013521634615384602,-0.024401946339950367,0.025967354218362285,277.0625,-1.1875,174.4375,0.03997802999999993,0.7487182599999992,-0.6610717800000001,-0.028808589999999967
40.0,0.02379536290322582,0.01382056451612904,-0.12129032258064516,-0.2100000000000003,-0.9399999999999991,-9.75,-0.019058719758064516,0.007339969758064516,0.011277721774193549,277.0625,-1.1875,174.4375,0.03997802999999993,0.7487182599999992,-0.6610717800000001,-0.028808589999999967
41.0,0.02158770161290324,0.014213709677419358,-0.12205645161290324,-0.2100000000000003,-0.9399999999999991,-9.75,0.0342741935483871,0.0008820564516129029,0.012128276209677418,277.0625,-1.1875,174.4375,0.03997802999999993,0.7487182599999992,-0.6610717800000001,-0.028808589999999967
42.0,0.027662970430107542,0.016819476446492582,-0.12197100614439324,-0.2100000000000003,-0.9399999999999991,-9.75,0.044660858294930876,-0.05534704221070148,-0.008398537506400409,277.0625,-1.2028609831029187,174.4375,0.04000653162826419,0.7487182599999992,-0.6610717800000001,-0.02879459028673834
43.0,0.026182795698924746,0.013717197900665647,-0.1225530433947773,-0.2100000000000003,-0.9399999999999991,-9.75,0.08328683035714285,-0.10578277009728623,0.05272487439196109,277.0625,-1.2274385560675882,174.4375,0.040117304039938545,0.7486877449999992,-0.6610717800000001,-0.028708071272401436
44.0,0.02289226510496673,0.009786546338965698,-0.12149961597542247,-0.2100000000000003,-0.9399999999999991,-9.75,0.005296838997695855,-0.005973382296466975,-0.0469290034562212,277.0625,-1.2397273425499233,174.4375,0.040173674761904754,0.7486715031451606,-0.6610717800000001,-0.028663827410394277
45.0,0.021771233358934987,0.007352950588837689,-0.12041714669738866,-0.2100000000000003,-0.9399999999999991,-9.75,0.0032942108294930876,-0.0036167314708141322,-0.013824884792626729,277.0625,-1.2458717357910905,174.4375,0.04020186012288786,0.7486633822177413,-0.6610717800000001,-0.028641705479390697
46.0,0.0213770481310804,0.007149257552483361,-0.12217933947772658,-0.2100000000000003,-0.9399999999999991,-9.75,0.00026101670506912394,-0.006738431259600616,0.001971126152073733,277.0625,-1.2489439324116742,174.4375,0.04021595280337941,0.7486593217540316,-0.6610717800000001,-0.028630644513888907
47.0,0.020231534818228376,0.007133256528417821,-0.12299443164362521,-0.2100000000000003,-0.9399999999999991,-9.75,-0.04508838565668203,0.00796750992063492,-0.013215345782130057,277.0625,-1.25,174.4375,0.04022210846774193,0.7486572915221767,-0.6610717800000001,-0.02862555152217744
48.0,0.01614934371184372,0.005300964492496752,-0.12081157686399623,-0.2100000000000003,-0.9399999999999991,-9.75,-0.012570896845090395,0.011931471306471306,0.003026855257198001,277.0625,-1.25,174.4375,0.04022216999999999,0.7486572299999994,-0.6610717800000001,-0.028625490000000017
49.0,0.01445075992555832,0.006421603598014891,-0.12088197890818862,-0.2100000000000003,-0.9399999999999991,-9.75,0.02813275434243176,-0.025748294044665013,0.015882347239454093,277.0625,-1.25,174.4375,0.04022216999999999,0.7486572299999994,-0.6610717800000001,-0.028625490000000017
50.0,0.014592431761786607,0.0052715570719602985,-0.12172154156327547,-0.2100000000000003,-0.9399999999999991,-9.75,0.032924937965260546,0.004495580024813893,-0.004268765508684863,277.0625,-1.25,174.4375,0.04022216999999999,0.7486572299999994,-0.6610717800000001,-0.028625490000000017
51.0,0.014231241540717353,0.005022294909391685,-0.1216579818031431,-0.21000000000000033,-0.9399999999999991,-9.75,-0.03925600609068351,0.040039708695202646,-0.041029826608203625,277.0625,-1.25,174.4375,0.04022216999999999,0.7486572299999994,-0.6610717800000001,-0.028625490000000017
52.0,0.013838723776223784,0.005440033085194377,-0.12147231934731936,-0.21000000000000035,-0.9399999999999991,-9.75,-0.013354328802917512,0.021186860854199564,-0.009794204451462516,277.0625,-1.25,174.4375,0.04022216999999999,0.7486572299999994,-0.6610717800000001,-0.028625490000000017
53.0,0.013991096605007901,0.006648732987442665,-0.12083421215880893,-0.21000000000000035,-0.9399999999999991,-9.75,-0.013891992584028873,0.00993407634032634,0.0006113006617038874,277.0625,-1.25,174.4375,0.04022216999999999,0.7486572299999994,-0.6610717800000001,-0.028625490000000017
54.0,0.013511692608466809,0.00797368223174675,-0.12071479058575835,-0.21000000000000035,-0.9399999999999991,-9.75,-0.03779983457402812,0.020086096698999925,-0.0206002331002331,277.0625,-1.25,174.4375,0.04022216999999999,0.7486572299999994,-0.6610717800000001,-0.028625490000000017
55.0,0.011599407653813051,0.005460527275645235,-0.12116506908273882,-0.21000000000000035,-0.9399999999999991,-9.75,-0.05271023912694592,0.017685126420682512,0.005960392319925298,277.0625,-1.25,174.4375,0.04022216999999999,0.7486572299999994,-0.6610717800000001,-0.028625490000000017
56.0,0.014301083851056953,0.0032592728954846262,-0.12169417274503798,-0.21592030360531334,-0.9385578747628076,-9.75,-0.04643554909598978,-0.031232942798513894,0.332934446921851,277.177775142315,-1.2741935483870965,174.44651328273244,0.04030509356736245,0.7493057999430737,-0.6603472325996207,-0.02849160552182163
57.0,0.01647116753647667,0.0023163422150932417,-0.1220763141340048,-0.22844402277039869,-0.934117647058823,-9.75,-0.002842652358356571,-0.02445994647257073,0.03613670048927348,277.4461395261917,-1.3266129032258065,174.47426470588235,0.04054094220401361,0.7507995617359553,-0.6586714195744925,-0.02812706592317864
58.0,0.014094011570575627,0.0008794693086233488,-0.12242232858478007,-0.23470588235294138,-0.9318975332068308,-9.75,0.042605697791875535,-0.01365909047997892,0.08914168591233929,277.4801262147088,-1.3528225806451615,174.48814041745732,0.040691873521361624,0.7510199778034615,-0.658454010109827,-0.027937131423312958
59.0,0.015156531470644028,-0.0012500203828193857,-0.12104732075348631,-0.2378368121442127,-0.9307874762808346,-9.75,0.0357155270739626,-0.022197855813223,0.04424941125835374,277.49711955896726,-1.3659274193548387,174.4950782732448,0.0407720411155195,0.7511301858372146,-0.6583453053774941,-0.027840283614882277
60.0,0.014692110003716117,-0.0011423647675028342,-0.11932415934816173,-0.2394022770398484,-0.9302324478178365,-9.75,0.02036219519102778,-0.021618635089173763,-0.014539936701690782,277.4718918909206,-1.3724798387096775,174.4985472011385,0.04081212491259844,0.7509528430114717,-0.658539626325111,-0.027791859710666944
61.0,0.013642199559387818,-4.2748136152084295e-05,-0.12126872966545572,-0.2400000000000002,-0.9299999999999997,-9.75,-0.015529938285114021,0.049546074612275864,-0.09183463182620621,277.4287939882698,-1.375,174.5,0.04082957544965783,0.7506873469941354,-0.6588303039002934,-0.027771831648502346
62.0,0.013272336714801818,-0.0005222387947472202,-0.12138930881347831,-0.2400000000000002,-0.9299999999999997,-9.75,0.01491859729100942,0.021077740667292906,-0.04582473376406934,277.3967497556207,-1.375,174.5,0.040832226129032215,0.7504975287292284,-0.6590381695796677,-0.027771117534906103
63.0,0.008557427165997222,-0.00268054718512109,-0.11885269120223385,-0.2400000000000002,-0.9299999999999997,-9.75,-0.01541523995183119,0.06483620696427629,-0.057885959330350276,277.3838587487781,-1.375,174.5,0.040832519999999956,0.7504190716226791,-0.6591227118866081,-0.02777099999999999
64.0,0.00814775547033612,-0.0026420031581321905,-0.11974877810361684,-0.2400000000000002,-0.9299999999999997,-9.75,-0.017061903150612828,0.017996183923603276,-0.018491051958793893,277.3774132453568,-1.375,174.5,0.040832519999999956,0.7503803277542678,-0.6591644983552147,-0.02777099999999999
65.0,0.011353936386194455,-0.0037305812467102796,-0.11983284457478008,-0.2400000000000002,-0.9299999999999997,-9.75,-0.036924768779607486,0.07334621024137153,0.09159147304308594,277.46664222873903,-1.3754887585532747,174.5,0.040858769462365566,0.7509037463600273,-0.6585733612255058,-0.027740927663734097
66.0,0.014682607714865787,-0.0023588239717271977,-0.12002391157229869,-0.2400000000000002,-0.9299999999999997,-9.75,0.006183735619219491,0.0005818106624558214,-0.0561010226332807,277.48422249793214,-1.3752443792766373,174.5,0.04084564473118277,0.7510176925138727,-0.6584327737578767,-0.027755963831867042
67.0,0.016807805098127685,0.0006096698999924805,-0.11966456124520643,-0.23911290322580667,-0.9299999999999997,-9.75,0.032100862846830586,0.03720932964884578,-0.19677724828934506,277.38928866832094,-1.3751221896383188,174.5,0.040809546881720435,0.7505049084343558,-0.6590277281692606,-0.02779596610948189
68.0,0.01511211369275886,-2.2633280697796914e-05,-0.12158203624332659,-0.23439516129032284,-0.9299999999999997,-9.75,0.05553295830513572,0.02396573520565456,-0.05099431818181818,277.2556322373863,-1.3745570625610948,174.5,0.04076393561827957,0.7496480105075005,-0.6599867500523724,-0.02784697910312803
69.0,0.012104443943153626,0.000192157305060531,-0.12215206030528614,-0.23203629032258094,-0.9299999999999997,-9.75,0.004356119351079029,0.028577160406797503,0.008955384333408527,277.1877959574028,-1.344032563538612,174.5,0.04070371942204297,0.7492047799460582,-0.6604992531564596,-0.027903492777370482
70.0,0.011543424317617871,0.0004944168734491315,-0.12067524813895782,-0.23085685483871,-0.9299999999999997,-9.75,-0.013569129962779156,0.05412240229528536,-0.03442443393300248,277.1767272797766,-1.354460685483871,174.5,0.04067279102822575,0.7491475635727358,-0.6605740547478289,-0.02793268937500002
71.0,0.010235535074244757,-0.0015402585765488994,-0.12098806323604712,-0.2302671370967745,-0.9299999999999997,-9.75,0.001687608006912443,0.011746251760112646,-0.02726824516769073,277.1448462701613,-1.3324722782258065,174.5,0.04065814712701606,0.7489888604687497,-0.6607413154334681,-0.027946347913306482
72.0,0.009477158796227477,0.0003398798168244054,-0.1197548927002296,-0.23000000000000032,-0.9299999999999997,-9.75,0.0009550772539765123,0.005243593654510017,0.0015280010178715976,277.1321509576613,-1.321478074596774,174.5,0.040651748160282185,0.7489273338709672,-0.6608041357963714,-0.027952162051411322
73.0,0.007721970335133709,1.86902284326839e-05,-0.12039799966552699,-0.23000000000000032,-0.9299999999999997,-9.75,0.015649759649133673,0.02441869182853509,-0.019630304726599275,277.12849672379036,-1.3159967237903225,174.5,0.04064940999999993,0.7489153363810477,-0.6608148727066538,-0.02795410000000003
74.0,0.008376626426671955,-0.00032868168078886104,-0.11973992400029732,-0.23000000000000032,-0.9299999999999997,-9.75,0.006484011750945609,0.00910385684038617,-0.0004961446564838209,277.126701108871,-1.3142011088709675,174.5,0.04064940999999993,0.748909799087701,-0.6608192106300408,-0.02795410000000003
75.0,0.007696017706423535,-0.00017442148555572086,-0.12135721718448049,-0.23000000000000032,-0.9299999999999997,-9.75,0.006321952992088268,-0.004947929570718332,0.00035821647424144794,277.125,-1.3125,174.5,0.04064940999999993,0.7489013699999991,-0.6608276400000006,-0.02795410000000003
76.0,0.008194836727615085,-0.00019738037427943794,-0.12057488066333025,-0.23083246618106168,-0.9299999999999997,-9.75,-0.010654617379383249,-0.011847467915365938,0.034934364831607286,277.15517689906346,-1.3296696149843912,174.5,0.04069666411030171,0.7490725973881367,-0.6606411668262233,-0.027922090010405815
77.0,0.0071468212675288665,-0.00029896106899228653,-0.12153973209124096,-0.230416233090531,-0.9299999999999997,-9.75,0.012561320053515682,-0.01566861569463026,-0.0985611466230613,277.1457208100028,-1.3533428720083247,174.5,0.04076204465371715,0.7489954818814724,-0.6607479037920156,-0.02787509113423514
78.0,0.00846836132996383,-0.0005605932973258676,-0.12091843813487935,-0.23020811654526563,-0.9299999999999997,-9.75,0.03646581768329947,0.0122893026444015,-0.0736625208529475,277.1353604050014,-1.3651795005202914,174.5,0.04080023571395533,0.7489164133704969,-0.6608507757669755,-0.027851591696149806
79.0,0.008765918438134884,-0.0008344069504319246,-0.12071416183538972,-0.23010405827263297,-0.9299999999999997,-9.75,0.016281816229787097,0.03747594684769503,-0.07495886188328957,277.0979221379846,-1.3710978147762747,174.5,0.040819331244074414,0.748845887814281,-0.6609337111092948,-0.027839841977107135
80.0,0.0091832664387295,-0.0004172034752159622,-0.11949174553623046,-0.23005202913631662,-0.9299999999999997,-9.75,0.04083100028079216,-0.010703910856746442,-0.026198708975438946,277.07920300447614,-1.3740569719042663,174.5,0.04082887900913396,0.748810625036173,-0.6609751787804543,-0.027833967117585803
81.0,0.010185921576400248,0.0003700778785326134,-0.11991232471136215,-0.23000000000000032,-0.9299999999999997,-9.75,-0.01039576210296814,0.019022507763077484,-0.015196520964438501,277.0689004096262,-1.375,174.5,0.0408321762007168,0.7487876427912399,-0.6610017399027148,-0.027832029999999952
82.0,0.01104150149480535,0.0005933850734188924,-0.11911130828502059,-0.23000000000000032,-0.9299999999999997,-9.75,-0.02239098140990701,-0.00933795246766761,-0.004486061301471682,277.06451612903226,-1.375,174.5,0.040832519999999956,0.7487812369562961,-0.6610087712903236,-0.027832029999999952
83.0,0.010607878904249876,0.00047355030721966203,-0.11905889976958528,-0.23000000000000032,-0.9299999999999997,-9.75,-0.020859334997439832,-0.01299983198924731,-0.0009505608358934975,277.0625,-1.375,174.5,0.040832519999999956,0.7487793000000007,-0.6610107400000012,-0.027832029999999952
84.0,0.010077124935995909,-0.0006326804915514591,-0.11887672811059911,-0.23000000000000032,-0.9299999999999997,-9.75,-0.012382792498719918,-0.010500672043010752,-0.015422987071172555,277.0625,-1.375,174.5,0.040832519999999956,0.7487793000000007,-0.6610107400000012,-0.027832029999999952
85.0,0.007798584270683649,-0.0006493267182002874,-0.11896448598516761,-0.23000000000000032,-0.9299999999999997,-9.75,-0.008256044515881274,0.009725590179706985,-0.034078084223196733,277.0625,-1.375,174.5,0.040832519999999956,0.748640587658689,-0.6611489442872013,-0.027832029999999956
86.0,0.006505538935137011,-0.0009160612085625093,-0.12046022558346964,-0.23000000000000032,-0.9299999999999997,-9.75,-0.006224156410526403,0.01947173006169169,-0.02059126945414829,277.0625,-1.375,174.5,0.040832519999999956,0.7485524315712797,-0.6612373544016652,-0.027832029999999956
87.0,0.0076515709908659985,-0.0009621828700262623,-0.12123841732322485,-0.23000000000000032,-0.9299999999999997,-9.75,0.00816039323290884,0.009310337797102884,-0.015912244190079777,277.0625,-1.375,174.5,0.040832519999999956,0.7485083535275752,-0.661281559458897,-0.027832029999999952
88.0,0.007408032823778144,-0.0015684177980939166,-0.12080106288092765,-0.23000000000000032,-0.9299999999999997,-9.75,-0.0008506996060651112,0.010098097891168261,-0.016817076292882743,277.0625,-1.375,174.5,0.040832519999999956,0.7484863145057229,-0.661303661987513,-0.027832029999999956
89.0,0.008388996250598751,-0.002853261318401797,-0.12219488627917349,-0.23000000000000032,-0.9299999999999997,-9.75,0.017782815519548086,0.005647587252035742,0.026369687660010237,277.0625,-1.375,174.5,0.040832519999999956,0.7484752949947967,-0.6613147132518209,-0.027832029999999956
90.0,0.0079327915696282,-0.002248691012999025,-0.12044707893563253,-0.23000000000000032,-0.9299999999999997,-9.75,0.012565965512115355,0.008628294146309234,-0.0005703590836265131,277.0625,-1.375,174.5,0.040832519999999956,0.7484741199999997,-0.6613159200000001,-0.027832029999999956
91.0,0.007148167418198638,-0.0027408329616966463,-0.12182722610376097,-0.23000000000000032,-0.9299999999999997,-9.75,-0.004373699271592091,0.006522288394199164,0.0025149996696562774,277.0625,-1.375,174.5,0.040832519999999956,0.7484741199999997,-0.6613159200000001,-0.02783202999999996
92.0,0.008924991328477284,-0.0029367412417620545,-0.11980068505029484,-0.23000000000000032,-0.9299999999999997,-9.75,-0.007725784772806105,-0.014396760102323967,0.014440795178633368,277.0625,-1.375,174.5,0.040832519999999956,0.7484741199999997,-0.6613159200000001,-0.02783202999999996
93.0,0.008840747485258416,-0.0028497441900797787,-0.12139357873742629,-0.23000000000000032,-0.9299999999999997,-9.75,0.02283455818591745,-0.00475951428633368,0.014780881460284424,277.0625,-1.375,174.5,0.040832519999999956,0.7484741199999997,-0.6613159200000001,-0.02783202999999996
94.0,0.009092009120736032,-0.002882351603236611,-0.12072595713708967,-0.23000000000000032,-0.9299999999999997,-9.75,0.00820613915377311,0.011353830822856428,0.0010311648840290464,277.0625,-1.375,174.5,0.040832519999999956,0.7484741199999997,-0.6613159200000001,-0.02783202999999996
95.0,0.007006982708130763,-0.0020811341783092525,-0.12254820229383102,-0.23000000000000032,-0.9299999999999997,-9.75,0.010753043562318397,0.0028803493344250913,-0.002671202157361127,277.0625,-1.375,174.5,0.040832519999999956,0.7484741199999997,-0.6613159200000001,-0.02783202999999996
96.0,0.007801129288139067,-0.0014971597209191246,-0.12130763719486196,-0.23000000000000032,-0.9299999999999997,-9.75,0.0072990054758533636,-0.0034032172770850043,0.0028109593831562073,277.0625,-1.375,174.5,0.040832519999999956,0.7484741199999997,-0.6613159200000001,-0.02783202999999996
97.0,0.007743205411788345,-0.0017641803427613973,-0.12175266569783896,-0.23000000000000032,-0.9299999999999997,-9.75,-0.004380430532641344,0.01216405295734802,-0.006169456717255287,277.0625,-1.375,174.5,0.040832519999999956,0.7484741199999996,-0.6613159200000001,-0.027832029999999956
98.0,0.007663535712187222,-0.0014113421080207728,-0.12214031051768384,-0.23000000000000032,-0.9299999999999997,-9.75,-0.025036838740545603,-0.0011677278281822731,-0.009456749071179053,277.0625,-1.375,174.5,0.040832519999999956,0.7484741199999996,-0.6613159200000001,-0.027832029999999952
99.0,0.0059749607581442606,-0.0020508063229954703,-0.11885552958837281,-0.23000000000000032,-0.9299999999999997,-9.75,-0.01397188944153769,-0.0025496290673232384,-0.006099216367827445,277.0625,-1.375,174.5,0.040832519999999956,0.7484741199999996,-0.6613159200000001,-0.027832029999999952
100.0,0.006535867475846325,-0.0017303979585841034,-0.12097303014278163,-0.23000000000000032,-0.9299999999999997,-9.75,-0.007701345345118481,-0.013290293201715729,0.020249689422746006,277.0625,-1.375,174.5,0.040832519999999956,0.7484751045161288,-0.661314935483871,-0.027832029999999952
101.0,0.008609348536767895,-0.0018021879554137616,-0.11794292803970224,-0.23000000000000032,-0.9299999999999997,-9.75,0.0005662516247193668,0.00045147504824924207,-0.0034068641931545157,277.06994416873454,-1.375,174.5,0.040832519999999956,0.7485705739057075,-0.6612083191364768,-0.0278281531563275
102.0,0.00926111209578952,-0.0010266207806530385,-0.11965282208830597,-0.23000000000000032,-0.9299999999999997,-9.75,0.02187909256961676,0.024127328764425537,0.0029870834810350935,277.05828163771713,-1.375,174.5,0.0408247650421836,0.7485499722431765,-0.6612340087990074,-0.027836877166253066
103.0,0.010145385304659504,0.0002986554216392926,-0.11954723502304149,-0.23000000000000032,-0.9299999999999997,-9.75,0.02899731736677301,0.005339787900271771,-0.04149062463074559,276.99587468982634,-1.375,174.5,0.04079713800496279,0.7482915299925565,-0.6615269798833743,-0.02786595809925555
104.0,0.010866110703812323,-0.0007455659260094743,-0.11921713098729231,-0.23000000000000032,-0.9299999999999997,-9.75,0.022366798607978043,-0.005590998383337093,-0.0035907598785622948,276.9646712158809,-1.375,174.5,0.040783324486352385,0.7481623088672464,-0.6616734654255578,-0.0278804985657568
105.0,0.009073313782991206,-0.0019141288818708174,-0.12057478005865105,-0.23000000000000032,-0.9299999999999997,-9.75,-0.011772501691856532,-0.0019287164448454769,-0.0025199263102488895,276.9490694789082,-1.375,174.5,0.04077641772704718,0.7480976675384624,-0.6617467389627787,-0.027887768799007423
106.0,0.008431912173847662,-0.0025695165050003757,-0.1212270095495902,-0.23000000000000032,-0.9299999999999997,-9.75,-0.04561527182494925,0.02032389653357395,0.023107940446650124,276.95032239266106,-1.373533724340176,174.5,0.04077153255853828,0.7480867220645162,-0.6617618716986231,-0.027886751420858683
107.0,0.007677753798119713,-0.0018190347607776592,-0.12166965084345922,-0.23000000000000032,-0.9299999999999997,-9.75,-0.013363772722222408,0.02288300489431929,-0.06273100996259398,276.9744012707722,-1.3420087976539588,174.5,0.04073926475073317,0.7481286325999037,-0.661697281407624,-0.027922182531769313
108.0,0.006712551611444247,-0.0020291504355057556,-0.12099867232751199,-0.23000000000000032,-0.9299999999999997,-9.75,0.009881859033279351,0.03218648327278563,-0.05152162574225645,276.9882086999022,-1.3262463343108504,174.5,0.04072387302052788,0.74815076033221,-0.661656232316715,-0.027939125620723385
109.0,0.006133143150900665,-0.0021237696286550683,-0.11938036658178836,-0.23000000000000032,-0.9299999999999997,-9.75,0.03458269824759247,-0.017802703105140164,-0.009691976979000115,276.99511241446726,-1.3183651026392962,174.5,0.04071617715542525,0.748161824198363,-0.6616357077712605,-0.02794759716520042
110.0,0.00556843177591429,-0.0010130089590000661,-0.12073689255979891,-0.23000000000000032,-0.9299999999999997,-9.75,0.03100873178526893,0.0064902115264629055,-0.01784550702585056,276.99856427174973,-1.314424486803519,174.5,0.04071232922287392,0.7481673561314395,-0.6616254454985332,-0.027951832937438942
111.0,0.005969608572627636,-0.00022408227964884899,-0.11972529108811643,-0.23000000000000032,-0.9299999999999997,-9.75,-0.00010969175169520465,0.018461363185796047,-0.0024492103052101933,277.0,-1.3125,174.5,0.04071045000000002,0.7481693613721714,-0.6616210899999995,-0.027954100000000037
112.0,0.004996897520333473,-9.518991209211826e-05,-0.11823501519485546,-0.23000000000000032,-0.9299999999999997,-9.75,0.01860452567248285,-0.006370864755058587,0.02670913695280712,277.0,-1.3125,174.5,0.04071045000000002,0.7481689499999999,-0.6616210899999995,-0.027954100000000037
113.0,0.0049452689116089394,-0.0003985527769124019,-0.11780303888527008,-0.23000000000000032,-0.9299999999999997,-9.75,0.04295160228270413,-0.015382055566569429,-0.006194861791611205,277.0,-1.3125,174.5,0.04071045000000002,0.7481689499999999,-0.6616210899999995,-0.027954100000000037
114.0,0.00530742870089779,0.0002985074626865673,-0.1189370981902631,-0.23000000000000032,-0.9299999999999997,-9.75,0.0012833130363363483,0.007338780480897221,-0.008430924126993117,277.0,-1.3125,174.5,0.04071045000000002,0.7481689499999999,-0.6616210899999995,-0.027954100000000037
115.0,0.004996107954277261,0.0010876701536306735,-0.12052966579900223,-0.23000000000000032,-0.9299999999999997,-9.75,0.011965626842499596,-0.0046322102614407695,-0.00918557119525711,277.0,-1.3125,174.5,0.04071045000000002,0.7481689499999999,-0.6616210899999995,-0.027954100000000037
116.0,0.005167769913585429,0.0010758524095067187,-0.12059222818115736,-0.23000000000000032,-0.9299999999999997,-9.75,0.00843526888586222,0.02029764065647268,-0.01300335372473496,277.0,-1.3125,174.5,0.04071045000000002,0.7481689499999999,-0.6616210899999995,-0.027954100000000037
117.0,0.004597394260369707,-1.3130826804395e-06,-0.12096219780861092,-0.23000000000000032,-0.9299999999999997,-9.75,0.021920273996585984,3.1003341065928905e-05,0.008104638099823463,277.0,-1.3125,174.5,0.04071045000000002,0.7481689499999999,-0.6616210899999995,-0.027954100000000037
118.0,0.005377657168701947,0.0003195167855735982,-0.1199827840270787,-0.23046220510351498,-0.9299999999999997,-9.75,-0.0007003107629010383,0.006154163201587369,0.06679305087465896,277.01492537313436,-1.3221292729898892,174.5,0.04073160766971592,0.7482700377997111,-0.6615124791959557,-0.027931061771786246
119.0,0.007758640813527673,-0.000871303307509374,-0.11936578106534777,-0.23023110255175766,-0.9299999999999997,-9.75,0.022734567631052947,-0.007623174450329001,0.03794580980726864,277.0397207510833,-1.3495727010110738,174.5,0.04078403270582568,0.7485030087385648,-0.6612517652431398,-0.027879577014925355
120.0,0.007557228520155822,-0.002029004537430151,-0.11878846238018123,-0.23011555127587896,-0.9299999999999997,-9.75,0.03397236690448053,-0.011876103354196758,0.05775284136502239,277.07118002363546,-1.363294415021666,174.5,0.04081024522388056,0.7486557692422052,-0.6610856106518725,-0.02785383463649491
121.0,0.00736741512379452,-0.0013441589705431786,-0.1191499978115289,-0.23005777563793964,-0.9299999999999997,-9.75,0.027678688668096467,-0.014969142557009672,0.04770502327074306,277.10010614085,-1.370155272026962,174.5,0.040823351482908,0.7487588783307801,-0.6609753271001294,-0.02784096344727969
122.0,0.00838297795928995,0.00013881640747312376,-0.11947633589328344,-0.23002888781896996,-0.9299999999999997,-9.75,0.014756439997171824,-0.02750095956042032,0.02138593632334605,277.11456919945726,-1.3735857005296102,174.5,0.040829904612421725,0.7488104328750675,-0.6609201853242579,-0.027834527852672077
123.0,0.009174674787578017,-0.000575456801263253,-0.1191197834423641,-0.23000000000000032,-0.9299999999999997,-9.75,0.010190615835777125,-0.027826810286487706,-0.006632547559966916,277.12133431085044,-1.375,174.5,0.040832519999999956,0.7488330511534702,-0.6608960085239484,-0.027832029999999952
124.0,0.009352733288217164,-0.0007251673058124672,-0.11879742837807356,-0.23000000000000032,-0.9299999999999997,-9.75,0.01758919843597263,-0.006261279043537109,-0.005408771336190691,277.1241752199413,-1.375,174.5,0.040832519999999956,0.7488238642961882,-0.6609051679667635,-0.027832029999999952
125.0,0.008767501315888417,-0.001901797127603579,-0.12006083164147681,-0.23000000000000032,-0.9299999999999997,-9.75,0.013535792164824423,-0.012300266937363712,0.022391721182043762,277.125,-1.375,174.5,0.040832519999999956,0.7488014330694042,-0.6609275733040072,-0.027832029999999952
126.0,0.009430182720505305,-0.001179336792240018,-0.11956132040003009,-0.23000000000000032,-0.9299999999999997,-9.75,-0.00796018497631401,-0.002912812993458155,0.017563350627866757,277.125,-1.375,174.5,0.040832519999999956,0.7487893821798637,-0.6609396261681324,-0.027832029999999952
127.0,0.010203925107150917,-0.001090909090909091,-0.12121242198661554,-0.23262034739454118,-0.9299999999999997,-9.75,-0.011967065192871645,0.020519399954883822,0.05499755620723363,277.1408808933003,-1.375,174.5,0.040832519999999956,0.7489418355043236,-0.6607862042230245,-0.027815553414392034
128.0,0.012059478156252357,2.1806150838408794e-05,-0.12179908263779234,-0.23647146401985134,-0.9299999999999997,-9.75,-0.013881212873148356,0.01216021881344462,0.027002030227836683,277.16519851116624,-1.375,174.5,0.040832519999999956,0.7491746027521615,-0.6605539222728032,-0.027792292352357306
129.0,0.01205368824723664,-0.0009910519587938943,-0.1210803819836078,-0.23839702233250643,-0.9299999999999997,-9.75,-0.014195616211745244,0.0029184525152267087,0.002809421761034667,277.17735732009925,-1.375,174.5,0.040832519999999956,0.7492914487245652,-0.66043731887345,-0.02778066182133994
130.0,0.013324460485750814,-0.0017753214527408074,-0.1203639371381307,-0.23935980148883396,-0.9299999999999997,-9.75,-0.017043574704865026,0.01446161365516204,0.0020490262425746308,277.18343672456575,-1.375,174.5,0.040832519999999956,0.7493503937171211,-0.660378495081887,-0.027774846555831255
131.0,0.012991653507782547,-0.001662230242875404,-0.1201186555380104,-0.2398411910669977,-0.9299999999999997,-9.75,-0.005628242725016918,-0.00019362358072035502,0.0008073915331979853,277.186476426799,-1.375,174.5,0.040832519999999956,0.749379866213399,-0.6603490831861054,-0.027771938923076916
132.0,0.01093352883675465,-0.0013636363636363633,-0.11915444770283481,-0.2400000000000002,-0.9299999999999997,-9.75,-0.0020772238514174,0.008522727272727274,-0.01570136852394917,277.1875,-1.375,174.5,0.040832519999999956,0.7493896499999995,-0.6603393600000012,-0.02777099999999999
133.0,0.011120309797729157,-0.001095947063688999,-0.11938175802691933,-0.2400000000000002,-0.9299999999999997,-9.75,-0.024615572599443566,-0.015139296187683282,-0.012286638093089705,277.1875,-1.375,174.5,0.040832519999999956,0.7493896499999996,-0.6603393600000012,-0.02777099999999999
134.0,0.010210767726896764,-0.001310248890894052,-0.11817730656440337,-0.2400000000000002,-0.9299999999999997,-9.75,-0.011101398601398601,-0.0010263929618768318,-0.000348240469208211,277.1875,-1.375,174.5,0.040832519999999956,0.7493896499999996,-0.6603393600000012,-0.02777099999999999
135.0,0.010034513873223554,-0.002201669298443492,-0.11885532746823071,-0.2400000000000002,-0.9299999999999997,-9.75,-0.005741503120535379,0.008022689675915483,0.006231671554252199,277.1875,-1.375,174.5,0.040832519999999956,0.7493896499999996,-0.6603393600000012,-0.02777099999999999
136.0,0.009181667794571025,-0.0026644860515828254,-0.11903308519437553,-0.2400000000000002,-0.9299999999999997,-9.75,0.0025119369877434393,-0.008662775396646364,-0.005817166704263479,277.1875,-1.375,174.5,0.040832519999999956,0.7493896499999996,-0.6603393600000012,-0.02777099999999999
137.0,0.010640198511166259,-0.0030620347394540942,-0.12057568238213401,-0.2400000000000002,-0.9299999999999997,-9.75,-0.021588089330024814,-0.014050868486352359,-0.0009615384615384616,277.1875,-1.375,174.5,0.040832519999999956,0.7493896499999996,-0.6603393600000012,-0.02777099999999999
138.0,0.010218362282878417,-0.002630272952853598,-0.11989578163771714,-0.2400000000000002,-0.9299999999999997,-9.75,-0.017990074441687348,0.008964019851116625,-0.005303970223325062,277.1875,-1.375,174.5,0.040832519999999956,0.7493896499999996,-0.6603393600000012,-0.02777099999999999
139.0,0.00863328069779683,-0.004183773216031281,-0.12101165501165506,-0.2400000000000002,-0.9299999999999997,-9.75,-0.012936123016768178,0.004769155575607189,-0.00917644183773216,277.1875,-1.375,174.5,0.040832519999999956,0.7493896499999995,-0.6603393600000012,-0.02777099999999999
140.0,0.008125573351379804,-0.005139033010000753,-0.12186314760508313,-0.2400000000000002,-0.9299999999999997,-9.75,0.019353898789382658,-0.013775471839987969,0.008113391984359727,277.1875,-1.375,174.5,0.040832519999999956,0.7493896499999996,-0.6603393600000012,-0.02777099999999999
141.0,0.00876998270546658,-0.0054578539739830075,-0.11967350928641256,-0.2400000000000002,-0.9299999999999997,-9.75,0.018935634258214904,0.02378844274005564,-0.017004098052485147,277.1875,-1.375,174.5,0.040832519999999956,0.7493896499999996,-0.6603393600000012,-0.02777099999999999
142.0,0.008257914128881872,-0.0053331829460861735,-0.12058651026392965,-0.2400000000000002,-0.9299999999999997,-9.75,0.010181216632829537,-0.0019851116625310174,0.019799421009098428,277.1875,-1.375,174.5,0.040832519999999956,0.7493896499999995,-0.6603393600000012,-0.02777099999999999
143.0,0.006669899992480639,-0.005252199413489736,-0.11990863974734944,-0.2400000000000002,-0.9299999999999997,-9.75,-0.00210542146026017,0.017881513647642677,0.0075734077750206795,277.1875,-1.375,174.5,0.040832519999999956,0.7493896499999996,-0.6603393600000012,-0.02777099999999999
144.0,0.007286562899466127,-0.0047253176930596285,-0.12195578614933453,-0.2400000000000002,-0.9299999999999997,-9.75,-0.011194450710579743,0.01870065418452515,7.519362358072122e-05,277.1875,-1.375,174.5,0.040832519999999956,0.7493896499999995,-0.6603393600000012,-0.02777099999999999
145.0,0.008124671027896838,-0.004330400782013685,-0.12228558538235959,-0.2400000000000002,-0.9299999999999997,-9.75,-0.01235901195578615,0.018283329573652154,-0.01922418978870592,277.1875,-1.375,174.5,0.040832519999999956,0.7493896499999996,-0.6603393600000012,-0.02777099999999999
146.0,0.007977441912925785,-0.004575832769381156,-0.12282472366343335,-0.2400000000000002,-0.9299999999999997,-9.75,-0.020159410481991127,0.006240600797052411,-0.021652943830363185,277.1875,-1.375,174.5,0.040832519999999956,0.7493896499999995,-0.6603393600000012,-0.02777099999999999
147.0,0.00870531618918716,-0.003792916760658696,-0.12194375516956166,-0.2400000000000002,-0.9299999999999997,-9.75,-0.0011467027596059852,0.002074404090533123,-0.0395039100684262,277.1875,-1.375,174.5,0.040832519999999956,0.7493896499999996,-0.6603393600000012,-0.02777099999999999
148.0,0.00841296338070532,-0.0047080231596360635,-0.12090608316414772,-0.2400000000000002,-0.9299999999999997,-9.75,-0.022823614557485526,0.02340401533949921,-0.014298067523873977,277.1875,-1.375,174.5,0.040832519999999956,0.7493896499999995,-0.6603393600000012,-0.02777099999999999
149.0,0.009240694789081887,-0.004240619595458306,-0.12023310023310026,-0.2400000000000002,-0.9299999999999997,-9.75,-0.035528987141890365,0.03925577111060982,-0.03439732310700053,277.1875,-1.375,174.5,0.040832519999999956,0.7493896499999995,-0.6603393600000012,-0.02777099999999999
150.0,0.009081885856079408,-0.004040905331227913,-0.12078900669223253,-0.2400000000000002,-0.9299999999999997,-9.75,0.0002876156101962561,-0.021826829084893598,0.005226896759154824,277.1875,-1.375,174.5,0.040832519999999956,0.7493896499999996,-0.6603393600000012,-0.02777099999999999
151.0,0.010784833446123774,-0.003232573877735169,-0.12163350627866758,-0.2355645161290325,-0.9299999999999997,-9.75,-0.025134173622076844,0.005276712534777052,-0.006566048199112716,277.1340725806451,-1.375,174.5,0.040832519999999956,0.7490928404838704,-0.6606597935483878,-0.02779708540322578
152.0,0.010238491794943412,-0.003287089254831191,-0.12014398146656212,-0.23262096774193575,-0.9299999999999997,-9.75,-0.026159095161111288,-0.00448357645938291,0.01141034704542769,277.0962701612903,-1.375,174.5,0.040832519999999956,0.7488947213709669,-0.6608776000000005,-0.027815542056451575
153.0,0.011103868801449451,-0.0029824046920821114,-0.11920098539453382,-0.23114919354838737,-0.9299999999999997,-9.75,-0.011384401328957778,0.016395186354863773,0.011492497757618726,277.0773689516129,-1.375,174.5,0.040832519999999956,0.7487956618145153,-0.6609865032258067,-0.027824770383064475
154.0,0.010551934400724728,-0.0030976013234077756,-0.11960538028279966,-0.2304133064516132,-0.9299999999999997,-9.75,-0.005921071256252707,-0.020464571271022886,-0.00034631447181850475,277.0679183467742,-1.375,174.5,0.040832519999999956,0.7487461320362896,-0.66104095483871,-0.027829384546370926
155.0,0.009083659508054672,-0.0029383788254755995,-0.12171584150616412,-0.2300453629032261,-0.9299999999999997,-9.75,-0.033256751509019654,-0.00844103253377447,-0.01496844259571074,277.0631930443549,-1.375,174.5,0.040832519999999956,0.7487213671471766,-0.6610681806451615,-0.027831691628024145
156.0,0.010218667533183666,-0.002619933829611249,-0.12081759817243692,-0.23000000000000032,-0.9299999999999997,-9.75,-0.0376613026310607,-0.024575665150261924,-0.001229617157036512,277.0625,-1.375,174.5,0.040832519999999956,0.7487182599999992,-0.6610717800000001,-0.027832029999999952
157.0,0.01097466914805625,-0.0024292240018046474,-0.1212894954507858,-0.23000000000000032,-0.9299999999999997,-9.75,0.018731025359049556,-0.008642508365290624,0.0009081979848108886,277.0625,-1.375,174.5,0.040832519999999956,0.7487182599999991,-0.6610717800000001,-0.027832029999999952
158.0,0.011569220430107533,-0.0027580363185201896,-0.11948097601323412,-0.23000000000000032,-0.9299999999999997,-9.75,0.0510218402229491,-0.003933537061057223,-0.02603473475449282,277.0625,-1.375,174.5,0.040832519999999956,0.7487182599999991,-0.6610717800000001,-0.027832029999999952
159.0,0.0128960471652004,-0.0022653254004060455,-0.1177072524249944,-0.23000000000000032,-0.9299999999999997,-9.75,0.04020469407944206,-0.017227314436235805,0.009682647661478309,277.0625,-1.375,174.5,0.040832519999999956,0.7487182599999991,-0.6610717800000001,-0.027832029999999952
160.0,0.01217913365722707,-0.001703573268330129,-0.1194864499968015,-0.23000000000000032,-0.9299999999999997,-9.75,0.0234389747629998,-0.018740144865566147,-0.014939121222221848,277.0625,-1.375,174.5,0.040832519999999956,0.7487182599999991,-0.6610717800000001,-0.027832029999999952
161.0,0.011221302690248292,-0.001661941813602863,-0.11874178060745226,-0.23000000000000032,-0.9299999999999997,-9.75,-0.00011618537136110461,-0.0005648429968362553,-0.005248346582000891,277.0625,-1.375,174.5,0.040832519999999956,0.7487182599999991,-0.6610717800000001,-0.027832029999999952
162.0,0.011277077279966068,-0.0015646558544969709,-0.11972917950289161,-0.23000000000000032,-0.9299999999999997,-9.75,-0.01807012198201413,0.01694335394985371,-0.008944295553587802,277.0625,-1.375,174.5,0.040832519999999956,0.7487182599999991,-0.6610717800000001,-0.027832029999999952
163.0,0.009730350054375093,-0.0022413849992087833,-0.11942538379611083,-0.23000000000000032,-0.9299999999999997,-9.75,0.0035579911181740746,0.003477880448872265,-0.006131577057190923,277.0625,-1.375,174.5,0.040832519999999956,0.7487182599999991,-0.6610717800000001,-0.027832029999999952
164.0,0.009799192622495467,-0.0018617088255990515,-0.11954512795822379,-0.23000000000000032,-0.9299999999999997,-9.75,0.01624615754972038,0.020538591163290244,-0.010027406392355838,277.0625,-1.375,174.5,0.040832519999999956,0.7487182599999991,-0.6610717800000001,-0.027832029999999952
165.0,0.009107588607829344,-0.0019130402577682306,-0.11982793229880373,-0.22892152142513272,-0.9299999999999997,-9.75,0.0027517499351875857,0.034176974926854564,-0.060231565497574156,277.05575950890704,-1.3663336543090996,174.5,0.04078268096292724,0.7486599577563793,-0.6611296113336542,-0.027869645175734196
166.0,0.0055607098726983195,-0.002259462893069056,-0.1182248311790921,-0.22429947038998582,-0.9299999999999997,-9.75,0.008609683928653597,0.018298985559457394,0.019173602436722323,276.99461362542127,-1.3384087626384207,174.5,0.04061858886856037,0.7483425850072224,-0.6614787188926332,-0.028008349845931597
167.0,0.003598843140489747,-0.0015678633675744896,-0.11894631063047045,-0.2219884448724124,-0.9299999999999997,-9.75,0.035163652749112546,0.025459073906353633,-0.007550295555832389,276.9943728935965,-1.3244463168030811,174.5,0.040536542821376934,0.748269943736158,-0.6615667575060178,-0.028077702181030298
168.0,0.002134634744167725,-0.0014405975985176756,-0.11940984228418028,-0.22083293211362567,-0.9299999999999997,-9.75,0.009816204899257379,0.009463313928889276,-0.009562706992894764,276.9961783822821,-1.3174650938854118,174.5,0.04049551979778521,0.7482420863842079,-0.6616027835917183,-0.02811237834857965
169.0,0.0019074714404517007,-0.0010043623524605711,-0.11809442523453115,-0.2202551757342323,-0.9299999999999997,-9.75,-0.006631979399191726,0.019085292014998322,-0.009400395383784888,276.99708112662495,-1.3139744824265769,174.5,0.04047500828598935,0.7482281577082327,-0.6616207966345685,-0.028129716432354325
170.0,0.0023805459505989116,-0.0011746983557286879,-0.11904480529901809,-0.22000000000000025,-0.9299999999999997,-9.75,-0.004616762229906188,-0.0004810077180082001,-0.002954891962475015,276.99774313914304,-1.3125,174.5,0.040466309999999936,0.7482230153153583,-0.661627995926817,-0.028137209999999968
171.0,0.0012306502677229688,-0.0008539414365124524,-0.11942209772253104,-0.22000000000000025,-0.9299999999999997,-9.75,-0.019373440714316976,0.018490757356910463,-0.012649363154899985,276.9998796340876,-1.3125,174.5,0.040466309999999936,0.7482294510447756,-0.6616215895763115,-0.028137209999999968
172.0,0.0007404327336922427,-0.001741950073678528,-0.11830823886432937,-0.22000000000000025,-0.9299999999999997,-9.75,-0.02774115128171459,-7.88761471236174e-05,8.206766752746637e-05,277.0,-1.3125,174.5,0.040466309999999936,0.7482299799999995,-0.6616210899999995,-0.028137209999999968
173.0,0.0008247618213915759,-0.0017873973242292936,-0.11907836185640713,-0.22000000000000025,-0.9299999999999997,-9.75,0.003953837848878773,-0.013129003078449395,0.008533213696911337,277.0,-1.3125,174.5,0.040466309999999936,0.7482299799999996,-0.6616210899999995,-0.028137209999999968
174.0,-8.111933003603685e-05,-0.001808479596154127,-0.11997490553099606,-0.22000000000000025,-0.9299999999999997,-9.75,0.007619071066952626,-0.007512383099166922,-0.006656599699449964,277.0,-1.3125,174.5,0.040466309999999936,0.7482299799999995,-0.6616210899999995,-0.028137209999999968
175.0,6.463284749274142e-05,-0.0022688609737237567,-0.11960228184590244,-0.22000000000000025,-0.9299999999999997,-9.75,0.01685487518419632,-0.013576727797960346,0.005819509490669817,277.0,-1.3125,174.5,0.040466309999999936,0.7482299799999994,-0.6616210899999995,-0.028137209999999968
176.0,-0.0012604134751462626,-0.0016893173429042472,-0.11859627814009133,-0.22000000000000025,-0.9299999999999997,-9.75,0.007945973942603698,0.0032095296975532886,-0.01543852402211815,277.0,-1.3125,174.5,0.04046630999999994,0.7482299799999995,-0.6616210899999995,-0.028137209999999968
177.0,-0.000635094323105878,-0.0019321464524882919,-0.11918083701725973,-0.22000000000000025,-0.9299999999999997,-9.75,-0.009101304328795903,-0.013745308465006347,-0.0008460948556338549,277.0,-1.3125,174.5,0.04046630999999995,0.7482299799999996,-0.6616210899999995,-0.02813720999999997
178.0,0.00014421688085626463,-0.0006985343135439429,-0.11911643550238882,-0.22000000000000022,-0.9299999999999997,-9.75,-0.019988843005814598,-0.005963986287544906,0.010235413734676494,277.0,-1.3125,174.5,0.04046630999999995,0.7482299799999996,-0.6616210899999995,-0.02813720999999997
179.0,0.000642383615421651,-0.0012732329358171918,-0.11795809182993222,-0.22000000000000022,-0.9299999999999997,-9.75,-0.038944043739120776,0.022839504208177475,-0.012898524012999518,277.0,-1.3125,174.5,0.04046630999999995,0.7482299799999996,-0.6616210899999995,-0.02813720999999997
180.0,-0.00023103240845176334,-0.0012970970561696367,-0.11891288113767952,-0.22000000000000022,-0.9299999999999997,-9.75,-0.018411981163997296,0.034218606074704866,-0.021397887646627565,277.0,-1.3125,174.5,0.04046630999999995,0.7482299799999996,-0.6616210899999995,-0.028137209999999968
181.0,0.00023761185051507605,-0.0017257265583878485,-0.11855582656590721,-0.22000000000000022,-0.9299999999999997,-9.75,-0.02285972805756072,-0.017434566861230166,0.005524117179863147,277.0,-1.3125,174.5,0.04046630999999994,0.7482299799999996,-0.6616210899999995,-0.028137209999999968
182.0,0.0021520415068802166,-0.0005147755470336116,-0.11748432212948343,-0.22000000000000022,-0.9299999999999997,-9.75,0.012944582299421008,-0.037065756823821336,0.02160312805474096,277.0,-1.3125,174.5,0.040466309999999936,0.7482299799999996,-0.6616210899999995,-0.028137209999999968
183.0,0.001217535153019024,-0.0008122415219189413,-0.11703661929468381,-0.22000000000000022,-0.9299999999999997,-9.75,-0.0003938266035040227,-0.007306940371456499,-0.005179900744416873,277.0,-1.3125,174.5,0.040466309999999936,0.7482299799999996,-0.6616210899999995,-0.028137209999999968
184.0,0.0005143636655432515,-0.001377788476969989,-0.11864497162282431,-0.22000000000000025,-0.9299999999999997,-9.75,0.002146981368815745,-0.006385776396609328,-0.007793692826191622,277.0,-1.3125,174.5,0.040466309999999936,0.7482299799999995,-0.6616210899999995,-0.028137209999999968
185.0,0.00035248975066018873,-0.0014489137888271252,-0.11971593644679826,-0.22000000000000025,-0.9299999999999997,-9.75,-0.006792467282356546,-0.0014516858522636085,-0.00832622080214762,277.0,-1.3125,174.5,0.040466309999999936,0.7482299799999996,-0.6616210899999995,-0.028137209999999968
186.0,-0.0007069794272490471,-0.0010872661281905384,-0.11790218207406458,-0.22000000000000025,-0.9299999999999997,-9.75,0.01588999088698174,-0.004123184831538226,-0.016066261013901843,277.0,-1.3125,174.5,0.04046630999999994,0.7482299799999996,-0.6616210899999995,-0.028137209999999968
187.0,-0.001449286390066361,-0.0017444752326793733,-0.11773682680663902,-0.22000000000000022,-0.9299999999999997,-9.75,0.02754397844973194,0.019683228623406768,-0.015080417896980246,277.0,-1.3125,174.5,0.04046630999999995,0.7482299799999996,-0.6616210899999995,-0.02813720999999997
188.0,-0.0013647665125758528,-0.0026814337965036087,-0.11614302051663633,-0.22000000000000022,-0.9299999999999997,-9.75,0.012015983134182461,0.026363768233050856,-0.00804400622648095,277.0,-1.3125,174.5,0.04046630999999995,0.7482299799999996,-0.6616210899999995,-0.02813720999999997
189.0,-0.0013946161365516203,-0.002421084292052034,-0.11783088954056695,-0.22000000000000022,-0.9299999999999997,-9.75,0.0029851868561545977,0.016716012482141517,-0.00483401007594556,277.0,-1.3125,174.5,0.04046630999999995,0.7482299799999996,-0.6616210899999995,-0.02813720999999997
190.0,9.429280397022346e-05,-0.0016625310173697273,-0.11779156327543422,-0.22000000000000022,-0.9299999999999997,-9.75,0.024069478908188585,0.0018300248138957828,-0.016656327543424318,277.0,-1.3125,174.5,0.04046630999999995,0.7482299799999996,-0.6616210899999995,-0.02813720999999997
191.0,0.0003920595533498761,-0.0018511166253101737,-0.11808436724565752,-0.22000000000000022,-0.9299999999999997,-9.75,-0.001954094292803972,0.009987593052109181,-0.01938585607940447,277.0,-1.3125,174.5,0.04046630999999995,0.7482299799999996,-0.6616210899999995,-0.02813720999999997
192.0,-6.316264380780396e-06,-0.0025305662079855634,-0.11837807353936386,-0.22000000000000022,-0.9299999999999997,-9.75,-0.009921798631476051,-5.6395217685539616e-05,-0.00998007368975111,277.0,-1.3125,174.5,0.04046630999999995,0.7482299799999996,-0.6616210899999995,-0.028137209999999968
193.0,-0.0005307165952327242,-0.002537634408602151,-0.11818106624558239,-0.22000000000000022,-0.9299999999999997,-9.75,-0.007831415895932024,0.00042202421234679315,-0.002515226708775096,277.0,-1.3125,174.5,0.04046630999999994,0.7482299799999996,-0.6616210899999995,-0.028137209999999968
194.0,0.00022618241973080682,-0.0031109105947815627,-0.11839416497481015,-0.22000000000000022,-0.9299999999999997,-9.75,-0.007732724264982329,0.002546244078502143,-0.007091698623956689,277.0,-1.3125,174.5,0.040466309999999936,0.7482299799999996,-0.6616210899999995,-0.028137209999999968
195.0,0.0007138882622753591,-0.00232258064516129,-0.11876261373035565,-0.22000000000000022,-0.9299999999999997,-9.75,0.004233401007594555,-0.01318802165576359,-0.00944995864350703,277.0,-1.3125,174.5,0.040466309999999936,0.7482299799999996,-0.6616210899999995,-0.028137209999999968
196.0,-0.000904203323558162,-0.002380254154447703,-0.11800097751710653,-0.22000000000000022,-0.9299999999999997,-9.75,0.008889296187683284,-0.0010080645161290314,-0.0024132453567937435,277.0,-1.3125,174.5,0.040466309999999936,0.7482299799999996,-0.6616210899999995,-0.028137209999999968
197.0,-0.003103616813294233,-0.0028592375366568914,-0.11683284457478003,-0.22000000000000022,-0.9299999999999997,-9.75,0.00030547409579667617,0.011363636363636364,-0.007056451612903226,277.0,-1.3125,174.5,0.040466309999999936,0.7482299799999996,-0.6616210899999995,-0.028137209999999968
198.0,-0.003361004586811039,-0.003214377020828634,-0.11567147905857578,-0.22000000000000022,-0.9299999999999997,-9.75,0.00471088051733213,0.011606605759831566,0.0023507406571922703,277.0,-1.3125,174.5,0.04046630999999994,0.7482299799999996,-0.6616210899999995,-0.028137209999999968
199.0,-0.0028068275810211292,-0.0024219866155350024,-0.11658726220016541,-0.22000000000000022,-0.9299999999999997,-9.75,-0.01191442965636514,0.008704601849763141,-0.010552015189111964,277.0,-1.3125,174.5,0.04046630999999995,0.7482299799999996,-0.6616210899999995,-0.02813720999999997
200.0,-0.0028522445296638842,-0.002774644710128581,-0.11751424919166853,-0.22000000000000022,-0.9299999999999997,-9.75,0.00170830513572449,0.02466162869388676,-0.02443228814196556,277.0,-1.3125,174.5,0.04046630999999995,0.7482299799999996,-0.6616210899999995,-0.02813720999999997
201.0,-0.02179024738702158,-0.0015901571546732842,-0.11734949996240318,-0.2178225806451614,-0.9299999999999997,-9.75024193548387,-0.004384728175050756,0.11144188472817504,-0.017821593728851795,277.00604838709677,-1.294858870967742,174.5,0.04035113072580642,0.7482703420967739,-0.6615787595967739,-0.028220394435483853
202.0,0.018176034195587894,-0.008801412352561272,-0.1178240422855977,-0.22265852850198864,-0.9256871409633227,-9.752242045956692,-0.033429182671062915,-0.17487099111118665,-0.04584638116523335,277.4462411621741,-1.3098659136102517,174.51944321696863,0.040150230146376475,0.7508065713356162,-0.6586883637201723,-0.028030352902673437
203.0,0.016739559104174666,-0.014223818547780109,-0.11899886977803459,-0.23297903383624768,-0.9172260589609231,-9.756282313300925,0.022777166906226783,-0.31987966429008463,0.24601512916215468,277.2235814105801,-1.366482495975633,174.57423773751657,0.04022006354784262,0.7495317765710339,-0.6601749799845102,-0.02722017518405561
204.0,0.034442073170842184,-0.01263107523070647,-0.11745921415645186,-0.272478924717835,-0.9081291585127191,-9.75414260104141,-0.050751939120124635,-0.3497295621550419,0.7175059164939694,277.7073612397147,-1.5946669822198818,174.62715257121374,0.04127179064488909,0.7523291736345775,-0.6569593449585527,-0.025730267671469326
205.0,0.044382957102180313,-0.009297143822765896,-0.11719784135291181,-0.29785236558472405,-0.9035807082886171,-9.752071300520704,-0.016407518656127544,-0.22054401224062312,0.38239927161104004,278.09561610372833,-1.7439060717551023,174.66035047915526,0.04190861677405748,0.7545638503656755,-0.654375905221212,-0.02482310141637984
206.0,0.050437886321187425,-0.0091468998043681,-0.11823465736360389,-0.31060713037300725,-0.901306483176566,-9.751028089776483,-0.00907031478761318,-0.10979072531834021,0.19802932290549444,278.28955452363834,-1.8190769018049706,174.67694943312603,0.042230629190960225,0.7556799274157002,-0.6530855081776425,-0.024366918775226225
207.0,0.050369257473595296,-0.00890013586001907,-0.11698163954520052,-0.31679936721920365,-0.8959753233239182,-9.750447761194028,0.0073714075428318974,-0.033652953211249136,0.2926824304718911,278.50709738711674,-1.8559177041061972,174.6846413095811,0.042436760442842295,0.7569346956886631,-0.6516479155910381,-0.024102370442236558
208.0,0.05263803375471879,-0.011023032599748402,-0.11750771685401348,-0.31964853153586925,-0.8926742976066598,-9.750062590274435,0.028560895783704736,-0.015712805330662973,0.0641983580930884,278.6890181636045,-1.8728033220991815,174.68707871930667,0.04255686199791883,0.7580317636830411,-0.6503964711757036,-0.02397313662664821
209.0,0.05057446773367688,-0.014349966139768437,-0.11726227639859274,-0.3200000000000002,-0.8911758584807494,-9.75,0.02545298382967478,0.056443354310159725,0.030429818476124408,278.77879048775253,-1.875,174.6875,0.04257713695902087,0.7585064624531327,-0.6498444642622602,-0.02394642087524567
210.0,0.05082899757197362,-0.013906479692119656,-0.11859653469434947,-0.3200000000000002,-0.8904266389177944,-9.75,0.022324009381761722,0.009338404109475913,0.07797040946104421,278.8339516954892,-1.875,174.6875,0.04252880347951046,0.7588030813202192,-0.649498555424574,-0.02396563608278411
211.0,0.04978469847876714,-0.011154468724708063,-0.11955684389607388,-0.3200000000000002,-0.8900520291363168,-9.75,0.01682636721008209,-0.02565273854946071,0.09254063227788514,278.8656285615183,-1.875,174.6875,0.04250463673975526,0.759008008053863,-0.6492649834598545,-0.023972743328130396
212.0,0.05221545017590802,-0.008847265579835822,-0.11876385378986837,-0.3200000000000002,-0.8900000000000005,-9.75,0.003909411492658111,0.013789785772095867,0.023084832267974826,278.9054339477726,-1.875,174.6875,0.04249128316436257,0.7592572522085128,-0.6489772519952759,-0.023948658279569865
213.0,0.05293312191335084,-0.007239813025452986,-0.1203957517797268,-0.3200000000000002,-0.8900000000000005,-9.75,0.004210850139570222,0.020911789967461143,-0.027628090778454982,278.92348310291857,-1.875,174.6875,0.042483907711213575,0.7593696799752239,-0.6488471684169929,-0.023937219139784915
214.0,0.05378350924136564,-0.006041821515286657,-0.11909956559800472,-0.3200000000000002,-0.8900000000000005,-9.75,-0.005863084914853905,0.004023483309383413,-0.03277525890689262,278.93196364567336,-1.875,174.6875,0.04248047000000006,0.7594248469179751,-0.6487836891803347,-0.023931374551971293
215.0,0.05465900269230134,-0.00567497481129115,-0.11783195414829131,-0.3200000000000002,-0.8900000000000005,-9.75,-0.027306005648877654,-0.022955791751317244,0.05075318368762697,278.9413722478239,-1.875,174.6875,0.04248396992831546,0.7594762634203784,-0.6487195839836152,-0.0239275927598566
216.0,0.05234742249310406,-0.0034721405607609345,-0.11867719403083686,-0.3174578719306692,-0.892773230621088,-9.75,-0.017199259635621012,-0.03219969968304259,-0.41539836402201863,278.727509247159,-1.8581487722676937,174.6875,0.04246106036858717,0.7582131494599961,-0.6501796605014861,-0.024008532046220506
217.0,0.04706861239119303,-0.002274571841254557,-0.11913048047015308,-0.3135676456427539,-0.896547905633124,-9.75,0.0091715720552384,-0.03206629104859726,-0.28075134122016643,278.41768607519236,-1.8343163216177178,174.6875,0.04243926066816453,0.7563619232783854,-0.6523391742023561,-0.024093163765045743
218.0,0.042427035330261126,-0.0025748179226754092,-0.11792161504306423,-0.31162253249879623,-0.8984352431391422,-9.75,-0.0020626394716127504,-0.02301759252890692,-0.11488603927367769,278.2582381988865,-1.8224000962927298,174.6875,0.04242836081795322,0.755391026639193,-0.6534706148431135,-0.02413547962445836
219.0,0.039233644491709005,-0.0027116084177952263,-0.11756736941841658,-0.3106499759268174,-0.8993789118921511,-9.75,-0.04198237137234188,0.015930498311937887,-0.02361636242308486,278.17851426073355,-1.8164419836302357,174.6875,0.042422910892847554,0.7549055783195968,-0.6540363351634922,-0.024156637554164667
220.0,0.03961042183622829,0.001717672493611348,-0.11932131911781045,-0.310163697640828,-0.8998507462686558,-9.75,-0.0061262343292840995,-0.01038792544720566,-0.044210254944261326,278.1384762803924,-1.8134629272989888,174.6875,0.042420076557534867,0.7546620259851955,-0.6543203047886074,-0.024167216519017827
221.0,0.035208436724565764,0.002334522332506204,-0.11845820409429278,-0.30999999999999994,-0.899999999999999,-9.75,0.010147041718362282,-0.014093517369727047,-0.04467373604218362,278.1252835181451,-1.8125,174.6875,0.042419429999999966,0.7545804702217748,-0.6544157197631049,-0.02416992000000001
222.0,0.03176248449131515,-0.0009899968982630268,-0.11665601736972704,-0.30999999999999994,-0.899999999999999,-9.75,0.00805046138337469,-0.05143309941066998,-0.03314205955334987,278.125,-1.8125,174.6875,0.042419429999999966,0.7545776400000006,-0.6544189499999999,-0.02416992000000001
223.0,0.03328735623695302,-0.0020036950057111345,-0.11706760801922092,-0.30999999999999994,-0.899999999999999,-9.75,0.004229993796526055,0.011866605616605616,-0.08440337104651621,278.125,-1.8125,174.6875,0.042419429999999966,0.7545776400000006,-0.6544189499999999,-0.02416992000000001
224.0,0.035141689068100376,-0.0013643273169482847,-0.11890616999487968,-0.30999999999999994,-0.899999999999999,-9.75,0.011594742063492064,-0.0026001664106502804,-0.05092125896057348,278.125,-1.8125,174.6875,0.042419429999999966,0.7545776400000006,-0.6544189499999999,-0.02416992000000001
225.0,0.03723558307731696,-0.0015946620583717358,-0.11763560867895548,-0.30999999999999994,-0.899999999999999,-9.75,-0.05608758960573476,0.03616481454813108,-0.07213461661546339,278.125,-1.8125,174.6875,0.042419429999999966,0.7545776400000006,-0.6544189499999999,-0.02416992000000001
226.0,0.03398611692966533,-0.003032332251082251,-0.11635316296606621,-0.3099999999999999,-0.899999999999999,-9.75,-0.005970427561909412,-0.028539144687078154,-0.10091564041916865,278.0702590420332,-1.8125,174.6875,0.04239508958944277,0.7542912566568918,-0.6547554458748783,-0.024197128445747795
227.0,0.03137798402314533,-0.0034332334332334334,-0.11643092391479487,-0.3099999999999999,-0.899999999999999,-9.75,0.006333809559616014,0.01939033189033189,-0.029700899458963974,278.03311339198433,-1.8125,174.6875,0.04237576043988264,0.7540879244574781,-0.6549967205180847,-0.024215028739002917
228.0,0.029722530158014043,-0.004087328442167152,-0.11672416651448908,-0.30999999999999994,-0.899999999999999,-9.75,0.015263678973356395,-0.011130166876134618,-0.004689799447863966,278.0145405669599,-1.8125,174.6875,0.04236609586510259,0.7539862583577712,-0.6551173578396878,-0.02422397888563048
229.0,0.028028187762058746,-0.006801146881792045,-0.11788263439069888,-0.3099999999999999,-0.899999999999999,-9.75,0.003954513228706777,-0.006791343736908253,0.003760218276347309,278.0052541544477,-1.8125,174.6875,0.042361263577712555,0.7539354253079178,-0.6551776765004896,-0.024228453958944258
230.0,0.02775138168283331,-0.01337993458154749,-0.11764776486953907,-0.3099999999999999,-0.899999999999999,-9.75,-0.013968625460560945,0.024236373505526734,0.0038644822919016468,278.0006109481916,-1.8125,174.6875,0.04235884743401754,0.7539100087829911,-0.6552078358308904,-0.02423069149560115
231.0,0.02761224998120161,-0.016944121738476585,-0.1182764728551019,-0.3099999999999999,-0.899999999999999,-9.75,0.02652619557861493,-0.016229809337168204,-0.007736013986013986,278.0,-1.8125,174.6875,0.04235839999999995,0.75390625,-0.6552124000000009,-0.024230959999999975
232.0,0.03830118072927716,-0.01888667514278372,-0.11919530838784873,-0.30815117958594124,-0.899999999999999,-9.751155512758785,-0.007253040501866936,0.010135576795065389,-0.6342583166111693,277.9090033702455,-1.8004634087626383,174.6875,0.04229821688974478,0.7534097405729416,-0.6557705031102555,-0.02427562642272508
233.0,0.04259192239071017,-0.024003172414520456,-0.11922132161548865,-0.30447992032765897,-0.8971718957136539,-9.75368867109437,-0.08487065138217517,0.12587650988173507,0.8284429528300759,277.76934923262604,-1.7773168789283806,174.6905932390632,0.04213713806926479,0.7526404370010091,-0.6566255251918931,-0.024301623887456214
234.0,0.056478756894279794,-0.025493067843903164,-0.12117371066111675,-0.29794963758318416,-0.8956366391010662,-9.756931893150869,-0.03172933141654492,-0.1397809009032883,0.27809349149673046,278.3832921278338,-1.7382264118144208,174.69826320939333,0.04174733600237435,0.7561616281825323,-0.652560398540647,-0.02465376445985714
235.0,0.053834911945899205,-0.02497978454229898,-0.11848511835785366,-0.3088978957146691,-0.8978183195505325,-9.753465946575435,-0.031187246353433753,-0.12190657948390221,0.2779890534406729,278.706286262428,-1.8056361587608083,174.69288160469665,0.04208000558927649,0.7580605547537975,-0.6503567199452611,-0.024508758497918663
236.0,0.0574404276249535,-0.023680959268668107,-0.11775342465753424,-0.3184216525719745,-0.8989091597752659,-9.751732973287716,-0.019144172090169016,-0.15729206521379108,0.20238839092065225,278.8692721634721,-1.8413261438965334,174.69019080234833,0.042377196640792106,0.7590390978607703,-0.6492248335210173,-0.024305884023152896
237.0,0.05811393997076718,-0.02477363025838502,-0.11657398280023115,-0.3245911825690877,-0.8994545798876323,-9.750830376870148,0.009422117873288885,-0.09810642296280828,0.13675491543366045,278.9536087586739,-1.8595472799405632,174.68884540117415,0.04255869065549478,0.7595438853338523,-0.6486414495866999,-0.024172517798769527
238.0,0.06224956763666439,-0.023659662917727448,-0.11634521392585909,-0.32776178660049593,-0.899815668202764,-9.750317972350231,0.02923225967580806,-0.03863528944174105,-0.0123953331614622,278.99871942573554,-1.892164757285725,174.68807603686633,0.04280006262779161,0.7597906041541587,-0.6483317585405877,-0.024100949034965034
239.0,0.06788781111361754,-0.024584705616963697,-0.11582149033761935,-0.3294937965260542,-0.899999999999999,-9.75,-0.005069930069930069,-0.020425407925407923,0.009961275283855927,278.99990694789085,-1.9186198210391758,174.6875,0.04297289307196034,0.7597823591485083,-0.6483173079454088,-0.02402783825941799
240.0,0.07124415369576657,-0.02460500789533049,-0.11766012482141514,-0.32991563275434205,-0.899999999999999,-9.75,-0.0005498533724340171,-0.02648131438454019,-0.01127246409504474,279.0,-1.9291300097751711,174.6875,0.04304282171215884,0.7597739138025423,-0.6483154299999994,-0.02400131650439881
241.0,0.07276847883299493,-0.026950146627566,-0.11689209715016166,-0.3299999999999996,-0.899999999999999,-9.75,-0.01161177532145274,0.042404504098052485,-0.018027671253477706,279.00049627791566,-1.9343230694037146,174.6875,0.04307902902233251,0.7597702364397332,-0.6483139760248132,-0.023996005865102626
242.0,0.07593758929242798,-0.027591698623956704,-0.11724753740882773,-0.3345260545905705,-0.899999999999999,-9.75,-0.14732263704037896,-0.06704216482442288,0.1522764869539063,279.09057071960297,-1.9403935446274154,174.6875,0.04311409655334989,0.7602801876541092,-0.6477166485012406,-0.023904643962327977
243.0,0.058785896818636336,-0.025369578904485032,-0.11714417984519092,-0.3146992333617272,-0.899999999999999,-9.751848820414057,-0.004536406059034853,0.2245819599274101,0.3033498759305211,279.1637254175771,-1.8309076515684604,174.6687229176697,0.04236372322491761,0.7606747476939371,-0.6472769169010777,-0.024654395578682264
244.0,0.03626406653850081,-0.023924882692335767,-0.11801843927217062,-0.29404072127519393,-0.899999999999999,-9.756085700529606,0.010555599512027048,0.17557346360909193,-0.1546601248214151,279.3506799130896,-1.7116720564782675,174.671268839089,0.04154355884608542,0.7616988720190117,-0.6460936322970687,-0.025426040907620694
245.0,0.018634514658828573,-0.02148477385237136,-0.11514817745246247,-0.28105261870211296,-0.899999999999999,-9.758204140587381,0.01833611241110037,0.1130426251047941,-0.061332853973982984,279.3043722146093,-1.6310376411423595,174.64712635502838,0.04105710684239751,0.761362289880474,-0.6465114885678894,-0.025872004647358737
246.0,0.010222964525444063,-0.02116050107010628,-0.11489418798181436,-0.2745585674155724,-0.899999999999999,-9.759263360616266,0.007004594667088649,0.02816368227944419,-0.05302219621776073,279.28120285668433,-1.5907204334744054,174.63505511299806,0.04081371420779921,0.7611939533719992,-0.6467204621400243,-0.026094865388195502
247.0,0.0066251299054019335,-0.021163377085921635,-0.11589870689413301,-0.2711701025663468,-0.899999999999999,-9.759792970630713,0.005425374256621246,0.020828119055354852,-0.03801854227761485,279.2668111057615,-1.570453268846384,174.6290194919829,0.04069145747858939,0.7610937916835188,-0.6468435926928411,-0.02620909765687691
248.0,0.0052095317317091515,-0.021418231633957452,-0.11590072561846754,-0.27016617790811304,-0.899999999999999,-9.759999999999994,0.01313186141815174,0.002838529917662982,-0.16719475500977515,279.23756720430106,-1.5638135386119256,174.62658846529814,0.04065418311339191,0.7609310820430115,-0.647034589081134,-0.026253173924731178
249.0,0.0056880428039702245,-0.020191144540942944,-0.11590539702233249,-0.2699999999999997,-0.899999999999999,-9.759999999999994,0.006184088089330024,-0.01395054668114144,-0.06212536833126551,279.14264112903226,-1.5625,174.625,0.04064940999999993,0.7603651510483875,-0.6476967094354833,-0.026314030241935474
250.0,0.004776209677419355,-0.019631746277915644,-0.11807366625310173,-0.2699999999999997,-0.899999999999999,-9.759999999999994,-0.005754206730769232,-0.017176353132754344,0.027009828629032256,279.09954637096774,-1.5625,174.625,0.04064940999999993,0.760108705685484,-0.6479962227822571,-0.026342578991935477
251.0,0.0027990074441687353,-0.018845378411910682,-0.119837158808933,-0.2699999999999997,-0.899999999999999,-9.759999999999994,-0.0072648495657568245,-0.002294316066997519,0.022650434243176178,279.0779989919355,-1.5625,174.625,0.04064940999999993,0.7599804830040323,-0.6481459794556441,-0.026356853366935475
252.0,0.0021066997518610422,-0.018765120967741945,-0.11957118486352358,-0.2699999999999997,-0.899999999999999,-9.759999999999994,0.002400453629032258,-0.008715396246898264,0.006067772952853598,279.0672253024194,-1.5625,174.625,0.04064940999999993,0.7599163716633065,-0.6482208577923376,-0.026363990554435474
253.0,0.0012109181141439207,-0.017369727047146413,-0.11826302729528534,-0.2699999999999997,-0.899999999999999,-9.759999999999994,-0.01011166253101737,-0.020254342431761788,-0.01488833746898263,279.0625,-1.5625,174.625,0.04064940999999993,0.7598876999999999,-0.6482543899999988,-0.02636718999999999
254.0,0.0005806451612903228,-0.018382133995037235,-0.11760794044665013,-0.2699999999999997,-0.899999999999999,-9.759999999999994,-0.012996277915632754,-0.03303349875930521,0.02196029776674938,279.0625,-1.5625,174.625,0.04064940999999993,0.7598876999999999,-0.6482543899999988,-0.02636718999999999
255.0,0.0014193548387096773,-0.01730024813895783,-0.11761290322580646,-0.2699999999999997,-0.899999999999999,-9.759999999999994,0.0081575682382134,0.023480148883374692,-0.06330645161290323,279.05455955334986,-1.5625,174.625,0.04064940999999993,0.7598799450421838,-0.648262144957815,-0.02636718999999999
256.0,0.002997518610421836,-0.017806451612903236,-0.11783126550868486,-0.2699999999999997,-0.899999999999999,-9.759999999999994,0.019106699751861043,0.004125310173697271,-0.008591811414392064,279.0262717121588,-1.5625,174.625,0.04064940999999993,0.7598523180049634,-0.6482897719950362,-0.02636718999999999
257.0,-9.008196104970303e-05,-0.01845386871193324,-0.11650379727799083,-0.2679667644183771,-0.9013294232649058,-9.759999999999994,0.017676141063237838,0.05703624332656591,-0.11507350176705015,278.9901336566659,-1.5507697947214076,174.625,0.04060358915933523,0.7596657208304385,-0.6485083489154062,-0.026401077546432068
258.0,-0.0020375968117903602,-0.01603338596886985,-0.11623701030152642,-0.2638220918866079,-0.9058260019550328,-9.759999999999994,0.004216482442288894,-0.00919899992480638,-0.0439356342582149,278.9295426347846,-1.5243768328445748,174.625,0.04050049183773212,0.7592411749313477,-0.6490114133286704,-0.026478636999022497
259.0,-0.002272501691856531,-0.015524174749981209,-0.11582209188660801,-0.2617497556207232,-0.9080742913000962,-9.759999999999994,0.006266448605158283,3.947665237987591e-05,-0.022898338220918867,278.8992471238439,-1.5111803519061584,174.625,0.04044894317693057,0.7590289019818022,-0.6492629455353025,-0.026517416725317714
260.0,-0.0032849086397473493,-0.01602300924881571,-0.11591503120535378,-0.26071358748778095,-0.909198435972628,-9.759999999999994,0.023211331679073615,-0.008063576208737499,-0.007718625460560945,278.88434750733137,-1.50458211143695,174.625,0.040423168846529786,0.7589230078494612,-0.6493884692961869,-0.02653680658846532
261.0,-0.004969997744191294,-0.01565666591473044,-0.11774907887811115,-0.2601955034213098,-0.9097605083088938,-9.759999999999994,-0.013177212572373862,-0.012235882397172722,-0.023446781712910748,278.87765762463346,-1.501282991202346,174.625,0.0404102816813294,0.7588708029569879,-0.6494504890029318,-0.026546501520039123
262.0,-0.009396044815399657,-0.013150913602526512,-0.11832468606662154,-0.25522971652003906,-0.9099999999999984,-9.759999999999994,0.07184186780960974,0.09920952703210768,-0.13728851793367922,278.8383431085044,-1.4716520039100685,174.625,0.04034751656891496,0.7586878152688161,-0.6496660202737041,-0.02675362309872925
263.0,-0.008288593127302808,-0.012786374915407179,-0.1181946010978269,-0.2524535679374389,-0.9099999999999984,-9.759999999999994,-0.009085269569140533,0.03442176103466426,-0.011975524475524482,278.7921554252199,-1.4535679374389052,174.625,0.04031338941348975,0.7585169421505368,-0.6498540749755619,-0.026872472678396896
264.0,-0.008075419204451465,-0.01281878336717047,-0.11718550266937364,-0.2510654936461388,-0.9099999999999984,-9.759999999999994,-0.009131325663583725,0.003192909241296338,-0.003010094743965715,278.7690615835777,-1.4445259042033236,174.625,0.04029632583577715,0.758431505591397,-0.6499481023264908,-0.02693189746823072
265.0,-0.008663809308970604,-0.012868335965110164,-0.11904729678923229,-0.25037145650048875,-0.9099999999999984,-9.759999999999994,-0.011072261072261072,-0.012852470110534626,-0.0020396270396270413,278.7575146627566,-1.4400048875855327,174.625,0.04028779404692085,0.7583887873118272,-0.6499951160019553,-0.02696160986314763
266.0,-0.009547860741409132,-0.011972930295510945,-0.11648123919091663,-0.2500244379276637,-0.9099999999999984,-9.759999999999994,-0.012107583276938115,-0.0002974847732912242,0.011299721783592752,278.751741202346,-1.4377443792766373,174.625,0.0402835281524927,0.7583674281720423,-0.6500186228396874,-0.026976466060606087
267.0,-0.00876486953906309,-0.01160703812316716,-0.11643386720806076,-0.25,-0.9099999999999984,-9.759999999999994,-0.009505413940897812,0.018342544552221972,0.0062081735468832245,278.75,-1.4375,174.625,0.04028320000000003,0.7583618199999993,-0.6500244100000003,-0.026977540000000026
268.0,-0.01070005263553651,-0.011081434694337925,-0.11594646214001053,-0.25,-0.9099999999999984,-9.759999999999994,-0.0013563049853372432,-0.0052052785923753665,0.0003280321828708927,278.75,-1.4375,174.625,0.04028320000000003,0.7583618199999993,-0.6500244100000003,-0.026977540000000026
269.0,-0.010228438228438233,-0.01120821114369502,-0.11644717647943456,-0.25,-0.9099999999999984,-9.759999999999994,-0.01195296638845026,0.011727385517708099,-0.013328539739830064,278.75,-1.4375,174.625,0.04028320000000003,0.7583618199999993,-0.6500244100000003,-0.026977540000000026
270.0,-0.010050680502293411,-0.011415444770283487,-0.11609993232573881,-0.25,-0.9099999999999984,-9.759999999999994,-0.00872575005639522,0.026361004586811038,-0.010559064591322657,278.75,-1.4375,174.625,0.04028320000000003,0.7583618199999993,-0.6500244100000003,-0.026977540000000026
271.0,-0.009861643732611478,-0.012038047973531852,-0.11560433115271826,-0.25,-0.9099999999999984,-9.759999999999994,0.0033103992781412135,-0.03216407248665313,0.03355985412437025,278.75,-1.4375,174.625,0.04028320000000003,0.7583618199999993,-0.6500244100000003,-0.026977540000000026
272.0,-0.009960598541243707,-0.013337882547559975,-0.11753665689149562,-0.25,-0.9099999999999984,-9.759999999999994,0.026383797653958943,-0.012732160312805472,-0.0017607056921573085,278.75,-1.4375,174.625,0.04028320000000003,0.7583618199999993,-0.6500244100000003,-0.026977540000000026
273.0,-0.010800812091134676,-0.01314484171742237,-0.11790187232122717,-0.25,-0.9099999999999984,-9.759999999999994,-6.661685089104537e-05,0.02391345213925859,-0.017467126287690805,278.75,-1.4375,174.625,0.04028320000000003,0.7583618199999993,-0.6500244100000003,-0.026977540000000026
274.0,-0.01270809835325965,-0.012026515151515158,-0.11868294608617189,-0.25,-0.9099999999999984,-9.759999999999994,0.004789892567110309,0.01598898413414542,0.015010233382209186,278.75,-1.4375,174.625,0.04028320000000003,0.7583618199999993,-0.6500244100000003,-0.026977540000000026
275.0,-0.014797353184449967,-0.010595369012707728,-0.11784342807729903,-0.25,-0.9099999999999984,-9.759999999999994,0.006885415491766298,0.01469964846980976,0.030598958333333332,278.75,-1.4375,174.625,0.04028320000000003,0.7583618199999993,-0.6500244100000003,-0.026977540000000026
276.0,-0.013435897435897442,-0.01335227507707347,-0.119080522971652,-0.2492059553349876,-0.9099999999999984,-9.759999999999994,0.012639357869952628,0.01819039495450786,0.06767230795078577,278.7777915632754,-1.4375,174.625,0.04023473580148884,0.7585028509081885,-0.6498678700496279,-0.027001286858560805
277.0,-0.01870554177005791,-0.015096849387171974,-0.1189945108654786,-0.24205955334987606,-0.9099999999999984,-9.759999999999994,-0.001400011279043537,0.07249276261373036,0.021019437551695618,278.82841191066996,-1.4092121588089328,174.625,0.039950735166253096,0.7587507465707193,-0.6495928357270474,-0.0272070196228288
278.0,-0.02206782464846982,-0.014457026844123626,-0.11882276862922025,-0.23664561245206428,-0.9099999999999984,-9.759999999999994,0.014375140988044214,-0.016982479885705684,-0.15612640048123919,278.8468794646214,-1.3910980148883374,174.625,0.039746104474622124,0.7588560270976764,-0.649476421964208,-0.027367207357846462
279.0,-0.030558726220016548,-0.01398781863297993,-0.12063098729227761,-0.23300022558087102,-0.9099999999999984,-9.759999999999994,0.040314121362508455,-0.04794533423565681,-0.004699366493721324,278.73392360327847,-1.3820409429280396,174.625,0.039636629011504575,0.7581678912907737,-0.650254452111136,-0.027487393033761923
280.0,-0.03287655086848636,-0.012244341679825556,-0.11742640424092035,-0.23117753214527437,-0.9099999999999984,-9.759999999999994,0.01952331942251297,-0.001869266486201969,0.0009026759530791836,278.67744567260695,-1.3775124069478908,174.625,0.039581891279945804,0.7578238233873225,-0.6506434671846,-0.02754748587171965
281.0,-0.03543827543424318,-0.012960880517332136,-0.11879136589217233,-0.2302909993232577,-0.9099999999999984,-9.759999999999994,0.004930704376268892,-0.01080591115873374,-0.009288116117753212,278.64833822091884,-1.3752481389578164,174.625,0.03955603692036989,0.7576473822197158,-0.650842866594781,-0.027576790201368488
282.0,-0.036936259305210925,-0.014516420407549448,-0.11804208493119783,-0.23005865102639328,-0.9099999999999984,-9.759999999999994,0.0016744092600947443,-0.007892099499962403,-0.00674548485788405,278.6326368523949,-1.375,174.625,0.03955122750733131,0.757553618504399,-0.6509487151857276,-0.02758538426197455
283.0,-0.03596812965260547,-0.01243905086848636,-0.11694626240694792,-0.23000000000000032,-0.9099999999999985,-9.759999999999994,0.0079394773573201,-0.015416602047146401,-0.02032655474565757,278.625,-1.375,174.625,0.03955077999999994,0.7575073200000002,-0.6510009799999994,-0.027587889999999962
284.0,-0.03599565756823822,-0.011647952853598022,-0.11827403846153847,-0.23000000000000032,-0.9099999999999985,-9.759999999999994,-0.002110150434243176,-0.004463593362282878,-0.014998836848635235,278.625,-1.375,174.625,0.03955077999999994,0.7575073200000002,-0.6510009799999994,-0.027587889999999962
285.0,-0.034778225806451624,-0.01234879032258065,-0.11858366935483872,-0.23000000000000032,-0.9099999999999985,-9.759999999999994,-0.005071824596774193,9.450604838709669e-05,0.015561995967741936,278.625,-1.375,174.625,0.03955077999999994,0.7575073200000002,-0.6510009799999994,-0.027587889999999962
286.0,-0.033305443548387104,-0.011272720223325067,-0.11817765198511165,-0.23000000000000032,-0.9099999999999985,-9.759999999999994,8.723635235732049e-05,-0.0036237011476426798,0.007536736197270472,278.625,-1.375,174.625,0.03955077999999994,0.7575073200000002,-0.6510009799999994,-0.027587889999999962
287.0,-0.03450806451612904,-0.01102194478908189,-0.11776070099255583,-0.23000000000000032,-0.9099999999999985,-9.759999999999994,-0.008997460452853597,0.001732126240694789,-0.0001851349255583127,278.625,-1.375,174.625,0.03955077999999994,0.7575073200000002,-0.6510009799999994,-0.027587889999999962
288.0,-0.034308483742959556,-0.011568440072472336,-0.11804469701445508,-0.23000000000000032,-0.9099999999999985,-9.759999999999994,-0.0011507659567135376,0.0166365724329434,-0.011176276820178029,278.625,-1.375,174.625,0.03955077999999994,0.7575073200000002,-0.6510009799999994,-0.027587889999999962
289.0,-0.03528176203277011,-0.012059421649139396,-0.11717255012013077,-0.23000000000000032,-0.9099999999999985,-9.759999999999994,-0.007474324510614833,0.0011988305713104093,0.009107552114104533,278.625,-1.375,174.625,0.03955077999999994,0.7575073200000002,-0.6510009799999994,-0.027587889999999962
290.0,-0.03653453020993345,-0.0117882793729568,-0.11755804925361377,-0.23000000000000032,-0.9099999999999985,-9.759999999999994,-0.005627283223049352,0.014617812463074559,-0.006755447733270314,278.625,-1.375,174.625,0.03955077999999994,0.7575073200000002,-0.6510009799999994,-0.027587889999999962
291.0,-0.03495543714797748,-0.010725326420890944,-0.11766681067588323,-0.23000000000000032,-0.9099999999999985,-9.759999999999994,-0.0018671194956477212,0.00436077908986175,0.009950636840757806,278.625,-1.375,174.625,0.03955077999999994,0.7575073200000002,-0.6510009799999994,-0.027587889999999962
292.0,-0.03561027905785971,-0.010912058371735797,-0.11887624807987711,-0.23000000000000032,-0.9099999999999985,-9.759999999999994,-0.004178267409114183,0.019711261520737326,-0.01808415738607271,278.625,-1.375,174.625,0.03955077999999994,0.7575073200000002,-0.6510009799999994,-0.027587889999999962
293.0,-0.037408314132104464,-0.012388952892985156,-0.11651697708653355,-0.23000000000000032,-0.9099999999999985,-9.759999999999994,-0.0027131736431131592,-0.008033514144905274,0.04150515633000512,278.625,-1.375,174.625,0.03955077999999994,0.7575073200000002,-0.6510009799999994,-0.027587889999999962
294.0,-0.03925619239631337,-0.012301107270865343,-0.11888992895545315,-0.23000000000000032,-0.9099999999999985,-9.759999999999994,0.002960189452124936,-0.009428603430619558,0.010567176299283155,278.625,-1.375,174.625,0.03955077999999994,0.7575073200000002,-0.6510009799999994,-0.027587889999999962
295.0,-0.04099784450720975,-0.012041064821696982,-0.1195609731926069,-0.23000000000000032,-0.9099999999999986,-9.759999999999994,-0.0015786494206596962,0.0010881664168442273,-0.014677003844375069,278.625,-1.375,174.625,0.03955077999999994,0.7575073200000001,-0.6510009799999994,-0.027587889999999962
296.0,-0.04199917826998993,-0.012008755657136256,-0.11957055316056359,-0.23000000000000032,-0.9099999999999986,-9.759999999999994,-0.020790604792255092,0.002176187663107213,-0.021579413340518307,278.625,-1.375,174.625,0.03955077999999994,0.7575073200000001,-0.6510009799999994,-0.027587889999999962
297.0,-0.04297474522240391,-0.01140296979006657,-0.11970202996217567,-0.23000000000000032,-0.9099999999999986,-9.759999999999994,-0.013406793518656162,-0.005186396445501545,-0.00017962439918735307,278.625,-1.375,174.625,0.03955077999999994,0.7575073200000001,-0.6510009799999994,-0.027587889999999962
298.0,-0.044749351700444306,-0.010640040962621614,-0.11736253571841503,-0.23000000000000032,-0.9099999999999986,-9.759999999999994,0.006840179706985118,-0.024421692020547378,0.009268206068414185,278.625,-1.375,174.625,0.03955077999999994,0.75750732,-0.6510009799999994,-0.027587889999999962
299.0,-0.047853591662124426,-0.01011768495119172,-0.11766438729498044,-0.23000000000000032,-0.9099999999999986,-9.759999999999994,0.01109645210841881,-0.007352212477082404,-0.01899528021406273,278.625,-1.375,174.625,0.03955077999999994,0.75750732,-0.6510009799999994,-0.027587889999999962
300.0,-0.04721503724625471,-0.010446459541152572,-0.11658193350180865,-0.23000000000000032,-0.9099999999999986,-9.759999999999994,0.016051607948069965,-0.01583791685248501,0.004664040434071651,278.625,-1.375,174.625,0.03955077999999994,0.75750732,-0.6510009799999994,-0.027587889999999962
301.0,-0.04589490114464099,-0.01069198751300729,-0.11655046826222686,-0.23000000000000032,-0.9099999999999986,-9.759999999999994,0.010210718002081166,-0.016291623309053066,-0.03313605619146722,278.625,-1.375,174.625,0.03955077999999994,0.75750732,-0.6510009799999994,-0.027587889999999962
302.0,-0.04485382290273028,-0.011643790363873616,-0.11819591034471369,-0.23000000000000032,-0.9099999999999986,-9.759999999999994,0.016979667343871296,-0.008478994268536412,-0.03633419635630874,278.625,-1.375,174.625,0.03955077999999994,0.7575073200000001,-0.6510009799999994,-0.027587889999999962
303.0,-0.04374064714335265,-0.012736567398378019,-0.11768016120773667,-0.23000000000000032,-0.9099999999999986,-9.759999999999994,0.030439625555390384,-0.007182395157161025,-0.02475203574319079,278.625,-1.375,174.625,0.03955077999999994,0.7575073200000001,-0.6510009799999994,-0.027587889999999962
304.0,-0.043863039492592036,-0.012788679120625018,-0.11654039277868625,-0.23000000000000032,-0.9099999999999986,-9.759999999999994,0.0030092248484548164,0.014992959549411163,-0.01891217812133525,278.625,-1.372398543184183,174.625,0.03955077999999994,0.7575047797294484,-0.6510065690114459,-0.027587889999999962
305.0,-0.0457598731480105,-0.013347538113407005,-0.11875006193944801,-0.23000000000000032,-0.9099999999999986,-9.759999999999994,0.002203495862444874,0.04012850370810828,-0.03701656260839403,278.625,-1.3414412070759625,174.625,0.03955077999999994,0.7574745505098852,-0.6510667783766908,-0.027587889999999962
306.0,-0.045307095783162374,-0.013754934509356994,-0.1187845002725336,-0.23000000000000032,-0.9099999999999986,-9.759999999999994,0.00911748674495813,0.0349413330195068,-0.03149930627818245,278.625,-1.3259625390218521,174.625,0.03955077999999994,0.7574594359001036,-0.6510968830593133,-0.027587889999999962
307.0,-0.044886010769205356,-0.012901532794873072,-0.11865748311117719,-0.23000000000000032,-0.9099999999999986,-9.759999999999994,-0.0045138372726822255,0.02926342124605652,-0.029478531787324708,278.625,-1.3182232049947968,174.625,0.03955077999999994,0.7574518785952128,-0.6511119354006245,-0.027587889999999962
308.0,-0.043447167715507995,-0.013084481277769525,-0.11945621293956361,-0.23000000000000032,-0.9099999999999985,-9.759999999999994,-0.009004447252366087,0.038939072745817024,-0.01958447921312125,278.625,-1.3143535379812694,174.625,0.03955077999999994,0.7574480999427673,-0.6511194615712801,-0.027587889999999962
309.0,-0.04321252560163852,-0.011907642089093708,-0.11947324628776243,-0.23000000000000032,-0.9099999999999985,-9.759999999999994,0.006112391193036354,0.025028601830517153,-0.02748575908858167,278.625,-1.3125,174.625,0.03955077999999994,0.7574462899999994,-0.6511230500000003,-0.027587889999999962
310.0,-0.042047891065028174,-0.012263344854070667,-0.11932059651817714,-0.23000000000000032,-0.9099999999999985,-9.759999999999994,-0.005544354838709677,-0.01571150553635433,0.06018985215053764,278.62701612903226,-1.316532258064516,174.625,0.03955077999999994,0.7574654863709673,-0.6510989312096775,-0.02758493693548384
311.0,-0.03892969150025603,-0.011630664362519208,-0.11895465309779825,-0.23000000000000032,-0.9099999999999985,-9.759999999999994,0.024193548387096774,-0.03754640296979007,0.03406418010752688,278.6582661290323,-1.346774193548387,174.625,0.03955077999999994,0.7577079036693551,-0.65079597125,-0.02755491411290322
312.0,-0.03971574180747568,-0.012717533922171023,-0.11788746479774705,-0.23000000000000032,-0.9099999999999985,-9.759999999999994,0.005312339989759344,0.004044258832565286,-0.009233590949820788,278.6738911290323,-1.3618951612903225,174.625,0.03955077999999994,0.757829112318549,-0.6506444912701612,-0.027539902701612915
313.0,-0.03998639912954429,-0.012354230670762936,-0.11861863159242189,-0.23000000000000032,-0.9099999999999985,-9.759999999999994,-0.02890885016641065,0.04511688748079877,-0.03822944668458781,278.6817036290323,-1.3694556451612905,174.625,0.03955077999999994,0.757889716643146,-0.6505687512802418,-0.02753239699596776
314.0,-0.03986391129032259,-0.011809475806451617,-0.1194002016129032,-0.23000000000000032,-0.9099999999999985,-9.759999999999994,-0.01578251008064516,0.020854334677419355,-0.010490171370967742,278.6856098790323,-1.3732358870967742,174.625,0.03955077999999994,0.7579200188054445,-0.6505308812852822,-0.027528644143145185
315.0,-0.0418200217121588,-0.010703086228287846,-0.11931567928039699,-0.23000000000000032,-0.9099999999999985,-9.759999999999994,0.015701574131513643,-0.011551062344913153,-0.0065364260235732,278.6875,-1.375,174.625,0.03955077999999994,0.757934570000001,-0.6505126999999999,-0.027526860000000025
316.0,-0.04256110421836228,-0.010810328784119111,-0.11817183622828782,-0.23000000000000032,-0.9099999999999985,-9.759999999999994,0.0045188430521091805,-0.006847084367245659,0.006547088244416873,278.7073511166253,-1.375,174.625,0.03955077999999994,0.7580140519652614,-0.6504341842282877,-0.027526860000000025
317.0,-0.040158808933002485,-0.010185871588089333,-0.1184216811414392,-0.23000000000000032,-0.9099999999999985,-9.759999999999994,0.002479935638957816,0.0320801992866005,-0.0008544316066997522,278.7296836228288,-1.375,174.625,0.03955077999999994,0.7581003187245665,-0.650347429210918,-0.027526860000000025
318.0,-0.04118602667493797,-0.009980769230769234,-0.11890330334987592,-0.23000000000000032,-0.9099999999999985,-9.759999999999994,-0.006204443238213401,0.025091598169975186,0.005094602977667494,278.7408498759305,-1.375,174.625,0.03955077999999994,0.758143452104219,-0.6503040517022332,-0.027526860000000025
319.0,-0.041299345815474856,-0.010283028799157837,-0.11897992330250398,-0.23000000000000032,-0.9099999999999984,-9.759999999999994,-0.0006269268366042567,-0.01526618542747575,0.033087074216106474,278.7464330024814,-1.375,174.625,0.03955077999999994,0.7581650187940453,-0.6502823629478908,-0.027526860000000025
320.0,-0.042019399954883824,-0.010543499511241453,-0.11767606586961427,-0.23000000000000032,-0.9099999999999984,-9.759999999999994,-0.004020039100684263,0.01839048048725468,0.002120460184976315,278.74922456575683,-1.375,174.625,0.03955077999999994,0.7581758021389584,-0.6502715185707195,-0.027526860000000025
321.0,-0.04103947665237988,-0.010098052485149264,-0.11872637040378978,-0.23000000000000032,-0.9099999999999984,-9.759999999999994,0.011467027596059855,0.03208605910218813,-0.025552673133318295,278.75,-1.375,174.625,0.03955077999999994,0.7581787100000006,-0.65026855,-0.027526860000000025
322.0,-0.04103090457929167,-0.011006842619745851,-0.1196237311076021,-0.23000000000000032,-0.9099999999999984,-9.759999999999994,-0.0017106549364613874,0.017392285134220618,-0.032472366343334086,278.75,-1.375,174.625,0.03955077999999994,0.7581787100000006,-0.65026855,-0.027526860000000025
323.0,-0.040158132190390244,-0.010263967215580124,-0.1208701782088879,-0.23000000000000032,-0.9099999999999984,-9.759999999999994,0.016545416948642755,-0.012294862395668847,-0.009823341980600047,278.75,-1.375,174.625,0.03955077999999994,0.7581787100000006,-0.65026855,-0.027526860000000025
324.0,-0.038945409429280396,-0.009169354838709683,-0.12021153846153848,-0.23000000000000032,-0.9099999999999985,-9.759999999999994,-0.006195719602977668,0.008122673697270473,-0.010836693548387098,278.75,-1.375,174.625,0.03955077999999994,0.7581787100000006,-0.65026855,-0.027526860000000025
325.0,-0.037522332506203473,-0.00909584367245658,-0.11881296526054591,-0.23000000000000032,-0.9099999999999985,-9.759999999999994,0.008905862282878412,0.028084289702233253,-0.02283459987593052,278.75,-1.375,174.625,0.03955077999999994,0.7581787100000006,-0.65026855,-0.027526860000000025
326.0,-0.038516749379652604,-0.009956110421836233,-0.119088864764268,-0.23000000000000032,-0.9099999999999985,-9.759999999999994,-0.01562306141439206,0.03651422921836228,-0.04386146867245658,278.75,-1.375,174.625,0.03955077999999994,0.7581787100000006,-0.65026855,-0.027526860000000025
327.0,-0.037711228287841195,-0.009061181761786604,-0.11881118176178662,-0.23000000000000032,-0.9099999999999985,-9.759999999999994,-0.006066803660049629,0.00205053892679901,-0.023830548232009925,278.75,-1.375,174.625,0.03955077999999994,0.7581787100000006,-0.65026855,-0.027526860000000025
328.0,-0.03838182382133995,-0.009296215880893305,-0.11937282878411912,-0.23000000000000032,-0.9099999999999985,-9.759999999999994,-0.01818587158808933,-0.0038732940446650124,-0.03328939205955335,278.75,-1.375,174.625,0.03955077999999994,0.7581787100000006,-0.65026855,-0.027526860000000025
329.0,-0.0389837158808933,-0.009113368486352361,-0.11824224565756826,-0.23000000000000032,-0.9099999999999985,-9.759999999999994,-0.009147216191066997,0.013269618486352358,-0.01346541563275434,278.75,-1.375,174.625,0.03955077999999994,0.7581787100000006,-0.65026855,-0.027526860000000025
330.0,-0.03753528225806451,-0.008845766129032262,-0.11892137096774194,-0.23000000000000032,-0.9099999999999985,-9.759999999999994,0.001102570564516129,0.001827116935483871,-0.015246975806451612,278.75,-1.375,174.625,0.03955077999999994,0.7581787100000006,-0.65026855,-0.027526860000000025
331.0,-0.03683971774193548,-0.008442540322580648,-0.12003528225806452,-0.23000000000000032,-0.9099999999999985,-9.759999999999994,0.017798639112903226,0.008757560483870967,0.03726688508064516,278.75,-1.375,174.625,0.03955077999999994,0.7582121813709679,-0.6502340953225808,-0.027526860000000025
332.0,-0.03738553590010406,-0.008999252081165456,-0.12037330905306973,-0.23000000000000032,-0.9099999999999986,-9.759999999999994,-0.0020740520941727354,0.0085248520421436,-0.016667615114464098,278.75,-1.375,174.625,0.03955077999999994,0.7583529579435488,-0.6500938155645162,-0.027526860000000025
333.0,-0.037315159783129354,-0.009261410794807,-0.12051435549939712,-0.23000000000000032,-0.9099999999999986,-9.759999999999994,0.009660408588730324,0.005971785420073336,-0.008184297988619658,278.75,-1.375,174.625,0.03955077999999994,0.7584233462298393,-0.6500236756854839,-0.027526860000000025
334.0,-0.038009738429711115,-0.008992944580711234,-0.12153141930115789,-0.23000000000000032,-0.9099999999999986,-9.759999999999994,-0.00027437239854318386,0.020418758413441686,-0.019035605375518225,278.75,-1.375,174.625,0.03955077999999994,0.7584585403729844,-0.6499886057459678,-0.027526860000000025
335.0,-0.0405425276249938,-0.009109527525890695,-0.12069134489123431,-0.23000000000000032,-0.9099999999999985,-9.759999999999994,0.0017219327843433592,0.02672043591435013,-0.021011038254835405,278.75,-1.375,174.625,0.03955077999999994,0.758476137444557,-0.6499710707762096,-0.027526860000000025
336.0,-0.04016252504993739,-0.008569669897265814,-0.12159720106803915,-0.23000000000000032,-0.9099999999999986,-9.759999999999994,0.012504059910812609,0.043235232417116895,-0.0779784480506065,278.75,-1.375,174.625,0.03955077999999994,0.7584704618455851,-0.64996338,-0.027526860000000025
337.0,-0.039116122046300654,-0.009625625791504916,-0.12195364736024228,-0.23000000000000032,-0.9099999999999986,-9.759999999999994,-0.00017031655864156205,0.0006921479463316005,-0.04933001486817526,278.75,-1.375,174.625,0.03955077999999994,0.7584456714066636,-0.64996338,-0.027526860000000025
338.0,-0.03985132366292702,-0.008738287351924107,-0.12104982964282533,-0.23000000000000032,-0.9099999999999986,-9.759999999999994,-0.014973336929205985,0.005500984532602895,-0.014763470509918029,278.75,-1.375,174.625,0.03955077999999994,0.7584332761872028,-0.64996338,-0.027526860000000025
339.0,-0.04136133565007177,-0.010471831022145762,-0.11965404618259395,-0.23000000000000032,-0.9099999999999986,-9.759999999999994,0.010883539486770412,0.0006295823345174264,-0.01576265873083566,278.75,-1.375,174.625,0.03955077999999994,0.7584270785774725,-0.64996338,-0.027526860000000025
340.0,-0.04325619265862524,-0.010986043519265408,-0.11917418130942296,-0.23000000000000032,-0.9099999999999986,-9.759999999999994,0.003841667336831187,-0.008389765924395153,-0.011609567972688698,278.75,-1.375,174.625,0.03955077999999994,0.7584239797726074,-0.64996338,-0.027526860000000025
341.0,-0.04088416497365509,-0.010441504385312925,-0.11896470277323556,-0.23000000000000032,-0.9099999999999986,-9.759999999999994,-0.011986831673356128,0.009951604644632739,-0.013104322547610788,278.75,-1.375,174.625,0.03955077999999994,0.7584228500000003,-0.64996338,-0.027526860000000025
342.0,-0.04106557918596267,-0.009279621880993407,-0.11936131967443273,-0.23000000000000032,-0.9099999999999986,-9.759999999999994,-0.024819593742206797,0.019375505500358367,-0.007780923150948397,278.75,-1.375,174.625,0.03955077999999994,0.7584228500000003,-0.64996338,-0.027526860000000025
343.0,-0.03919303933283565,-0.009423890024783905,-0.12167597721494791,-0.23000000000000032,-0.9099999999999986,-9.759999999999994,-0.013515416017825563,0.008484578972863886,0.011929647685712065,278.75,-1.375,174.625,0.03955077999999994,0.7584228500000003,-0.64996338,-0.027526860000000025
344.0,-0.037012612360866406,-0.008858873641630677,-0.12168325560778778,-0.23000000000000032,-0.9099999999999986,-9.759999999999994,-0.0047666128368862885,-0.0008292608992443527,0.007265294169731146,278.75,-1.375,174.625,0.03955077999999994,0.7584228500000003,-0.64996338,-0.027526860000000025
345.0,-0.04042229977176499,-0.009239902109948683,-0.12044587602416709,-0.23000000000000032,-0.9099999999999986,-9.759999999999994,0.0002661534695703339,-0.004320944969880505,0.018849104809127666,278.75,-1.375,174.625,0.03955077999999994,0.7584228500000003,-0.64996338,-0.027526860000000025
346.0,-0.04375734845549417,-0.010605655430376951,-0.11925804529120745,-0.23000000000000032,-0.9099999999999986,-9.759999999999994,-0.0009802848429364523,0.01784932427108439,0.03634292034140211,278.75,-1.375,174.625,0.03955077999999994,0.7584228500000003,-0.64996338,-0.027526860000000025
347.0,-0.0448094742579654,-0.009594585666385878,-0.11979551723568373,-0.22664106502816206,-0.9064772145417295,-9.759999999999994,-0.052122561650397234,0.07915551756602746,0.006444283401879657,278.7540962621608,-1.3335253456221197,174.625,0.039302764761904745,0.758427850634921,-0.6499603794060422,-0.02764586714797747
348.0,-0.047443800274185294,-0.008985844771484734,-0.11958954792461557,-0.22315924219150052,-0.9030773169482835,-9.759999999999994,-0.051102109244669076,0.05906752225690832,-0.011106775349751416,278.7520481310804,-1.2897465437788018,174.625,0.03904874915514594,0.7584253503174607,-0.6499618797030211,-0.02777537518689195
349.0,-0.0510106866194275,-0.008535421105660442,-0.12042457426952745,-0.22141833077316972,-0.9013773681515607,-9.759999999999994,-0.025631059742662242,0.008700427795120824,0.03076893695390053,278.7510240655402,-1.2678571428571428,174.625,0.038921741351766535,0.7584241001587305,-0.6499626298515107,-0.027840129206349186
350.0,-0.055110087045570896,-0.010665642601126474,-0.1193241167434716,-0.22054787506400433,-0.9005273937531992,-9.759999999999994,-0.006752432155657962,0.021889400921658985,0.008768561187916028,278.7505120327701,-1.2569124423963132,174.625,0.038858237450076834,0.7584234750793655,-0.6499630049257552,-0.027872506216077807
351.0,-0.049902713773681495,-0.008663594470046086,-0.11813620071684588,-0.22011264720942164,-0.9001024065540184,-9.759999999999994,0.007936507936507934,0.03897849462365591,-0.053283410138248846,278.75025601638504,-1.2514400921658986,174.625,0.03882648549923198,0.7584231625396829,-0.6499631924628777,-0.027888694720942117
352.0,-0.04420378904249872,-0.007306707629288276,-0.11816180235535072,-0.21926267281106013,-0.9013108038914478,-9.759999999999994,0.017889144905273935,0.03878648233486943,-0.2633448540706605,278.7505120327701,-1.25,174.625,0.038834859170506934,0.7583673471223763,-0.6500468850896057,-0.02788056738863286
353.0,-0.047762416794674856,-0.006385048643113161,-0.118678955453149,-0.21447004608294956,-0.9058166922683037,-9.759999999999994,-0.0035842293906810027,0.020321300563236045,-0.20343701996927804,278.5705325140809,-1.25,174.625,0.03879510506912445,0.7572925297132626,-0.6512977160163851,-0.027949822565284166
354.0,-0.04784946236559139,-0.007497439836149514,-0.11794802867383512,-0.2120737327188943,-0.9080696364567318,-9.759999999999994,-0.0174171146953405,0.01081669226830517,-0.11394329237071173,278.4667178699437,-1.25,174.625,0.03877522801843321,0.7566606163082448,-0.6520166383307733,-0.027984450153609817
355.0,-0.04862263184843829,-0.008221326164874554,-0.11771185355862776,-0.209988479262673,-0.9091961085509457,-9.759999999999994,-0.0023481502816180243,0.039138504864311315,-0.08954173067076293,278.41481054787505,-1.2389112903225805,174.625,0.03871311449308758,0.7563392447670256,-0.6523874204557096,-0.028044094431643622
356.0,-0.05693292370711725,-0.009489567332309271,-0.11775761648745517,-0.2030331541218638,-0.9097593445980527,-9.759999999999994,-0.02559163786482335,0.026353686635944697,0.02459357398873528,278.405753968254,-1.179939516129032,174.625,0.038410213559907855,0.7562714768766006,-0.6524889847439841,-0.028303102482078863
357.0,-0.05904773720902752,-0.011714494958446576,-0.11795411644806805,-0.19565872523533812,-0.9099999999999985,-9.759999999999994,-0.043949074279215405,0.009527132813423135,-0.4115602475481508,278.26818356374804,-1.140528070719603,174.625,0.038211998873183266,0.7555106351141442,-0.6533846102572969,-0.028489099121341913
358.0,-0.06679217377604474,-0.012567436931348227,-0.11808868136791523,-0.18734549164992703,-0.9099999999999985,-9.759999999999994,-0.051256411179546255,0.007275727185001378,-0.016632018295324763,278.00216333845367,-1.0984898418114144,174.625,0.03801213298497873,0.7540080071320847,-0.655124325172171,-0.028692646585760553
359.0,-0.057552879691992576,-0.014006151778329206,-0.11773730749537199,-0.18795314284729597,-0.9099999999999985,-9.759999999999994,-0.04151709555565402,-0.10703211159360351,0.2371918033523376,278.0957776990035,-1.1037734568858562,174.625,0.037976172090504245,0.7545299185238583,-0.6545302346927852,-0.0287052594070242
360.0,-0.058148725826145164,-0.014162117452440042,-0.11930599866083737,-0.18868171255268024,-0.9099999999999985,-9.759999999999994,-0.002601028004253811,-0.07989729804245932,0.12259738469415887,278.17087272046945,-1.1127171215880893,174.625,0.03799035328819565,0.7549388600885416,-0.6540617550177634,-0.02867389623072985
361.0,-0.07734254992319509,-0.01588223246287763,-0.1181801567608019,-0.17668486352357327,-0.9051563275434231,-9.759999999999994,-0.04372464453109614,0.16924061601480955,-0.05644619717200364,278.17414529914527,-1.0394540942928039,174.625,0.0374602290421836,0.7550115122094606,-0.6539954001565245,-0.029025684126275167
362.0,-0.09343802434125012,-0.01915451573516091,-0.11705533892630667,-0.14127047146401986,-0.9024168734491305,-9.759999999999994,-0.10030525030525031,0.2728026901413998,0.22991896096734804,278.16058381582576,-0.8428349875930521,174.62549627791563,0.036090162640198487,0.7549799824099414,-0.6540506015596519,-0.030151669177281504
363.0,-0.09050549450549449,-0.016369372562920956,-0.11693371144984047,-0.1192711804324707,-0.9016370081531361,-9.759999999999994,0.04109801488833746,0.036321339950372206,-0.14802375044310526,278.53213842609,-0.7084278624601206,174.6515154200638,0.03511951171641261,0.7571347263176178,-0.6515590325345623,-0.030964258358738034
364.0,-0.11203257022226687,-0.017414233335273303,-0.1165831847497712,-0.11921227256133372,-0.9150626061468617,-9.759999999999994,0.06631837709714455,-0.053970686270878865,0.3733099832281344,278.3760649076489,-0.6987970022274308,174.5756674355976,0.035488927468294795,0.7562170939579275,-0.6525911895658998,-0.031391878198701616
365.0,-0.12005869431483296,-0.014343931465741776,-0.11577674163422838,-0.12512422034713805,-0.9176925933960122,-9.759999999999994,0.04969191657323578,0.10821420194313792,0.4495140411666652,278.8257401762096,-0.7295915607422588,174.56709813617613,0.035763168748810165,0.7587667369838507,-0.6496049613665276,-0.031489756787522846
366.0,-0.12558517842292516,-0.0110206009686029,-0.11761789935309436,-0.12698642779143499,-0.9191589517848553,-9.759999999999994,0.029669159279173723,0.05401404886238782,0.15889163596794798,279.08731177544973,-0.736228782852519,174.56379100357194,0.03587152135951676,0.760194064784729,-0.6479243394723457,-0.031572067780858186
367.0,-0.12693775050178516,-0.008701367481820061,-0.11588959483783748,-0.1288406084366604,-0.9199020565375897,-9.759999999999994,0.03697322728226676,0.03675423286791848,0.091457294410773,279.2187024137794,-0.7445566991185671,174.562121928585,0.035960274213257155,0.7608451335784683,-0.6471444149570165,-0.03160092394005687
368.0,-0.1266191765624842,-0.007863799657251754,-0.11688382613214099,-0.12990647933353755,-0.9203345802007346,-9.759999999999994,-0.004683361544970836,0.04234578889053492,-0.1303547452086511,279.25490686091314,-0.7498705154579011,174.55998576932615,0.03600931452740137,0.7610206085460578,-0.6469317150557858,-0.03161034989151017
369.0,-0.12860328110743374,-0.00787267979973806,-0.11803989091874259,-0.1251626763542989,-0.9252009925558318,-9.759999999999994,-0.015311107830742517,0.010535556939249168,-0.2893137471830448,278.9315729538075,-0.7208518441516756,174.52993270170688,0.0359220915415052,0.7592141112590661,-0.6490546229684315,-0.0317319413299631
370.0,-0.13000285869041886,-0.003911864375393505,-0.11695422623236176,-0.12237361579200776,-0.9277617866004964,-9.759999999999994,-0.029033806039591128,-0.0004213240944779817,-0.17123640964686493,278.73605468315986,-0.7028165623495426,174.5139888337469,0.035870480624125026,0.7581132641828074,-0.6503469975032767,-0.03180203730476651
371.0,-0.13039845167771566,-0.003256180326654569,-0.11674014041146627,-0.12102551757342328,-0.9290421836228286,-9.759999999999994,0.012173543630328507,-0.015300612419447428,-0.09188371350829598,278.6371805673864,-0.6941502166586423,174.50598635235733,0.035846107086256046,0.7575582007167136,-0.6509988829972952,-0.0318356765754602
372.0,-0.13118988185622754,-0.0023112477315654976,-0.11766927150846267,-0.12035146846413106,-0.9296823821339948,-9.759999999999994,-0.009415854968334506,-0.01707158994111329,-0.043578478574867595,278.58774350949966,-0.6898170438131921,174.50198511166252,0.03583392031732156,0.7572827135841629,-0.651322826498647,-0.0318519510296656
373.0,-0.12938402281396988,-0.0019260953298026,-0.11790163327284178,-0.12001444390948493,-0.9299999999999997,-9.759999999999994,-0.009616426243472464,0.00190154994259472,-0.021075839783711713,278.56358329321137,-0.687650457390467,174.5,0.03582796323062107,0.7571475749831482,-0.6514816783485784,-0.03185999738083778
374.0,-0.12849131513647644,-0.0014658808933002481,-0.11904466501240696,-0.1200000000000001,-0.9299999999999997,-9.759999999999994,-0.007921060794044664,-0.010553660049627791,-0.006955645161290323,278.5625,-0.6875,174.5,0.03582763999999998,0.7571411099999994,-0.6514892599999988,-0.03186035000000004
375.0,-0.12898759305210916,-0.002077853598014888,-0.12062158808933003,-0.1200000000000001,-0.9299999999999997,-9.759999999999994,-0.004797999379652605,-0.03302186724565757,-0.004889112903225806,278.5625,-0.6875,174.5,0.03582763999999998,0.7571411099999994,-0.6514892599999988,-0.03186035000000004
376.0,-0.12964019851116626,-0.0015500930521091813,-0.12076240694789087,-0.1200000000000001,-0.9299999999999997,-9.759999999999994,0.015125814205955334,-0.015549395161290322,-0.016572968362282878,278.5625,-0.6875,174.5,0.03582763999999998,0.7571411099999994,-0.6514892599999988,-0.03186035000000004
377.0,-0.1293138957816377,-0.0017030862282878408,-0.12064423076923081,-0.1200000000000001,-0.9299999999999997,-9.759999999999994,0.009517001395781637,0.004415128722084367,0.04273708901985111,278.5625,-0.6875,174.5,0.03582763999999998,0.7571411099999994,-0.6514892599999988,-0.03186035000000004
378.0,-0.13065012406947887,-0.001538461538461538,-0.11749379652605463,-0.1200000000000001,-0.9299999999999997,-9.759999999999994,0.0024503722084367246,0.02022332506203474,0.03393300248138958,278.5625,-0.6875,174.5,0.03582763999999998,0.7571411099999994,-0.6514892599999988,-0.03186035000000004
379.0,-0.12979776674937965,-0.0023622828784119103,-0.11737344913151368,-0.1200000000000001,-0.9299999999999997,-9.759999999999994,0.004357940446650124,0.009475806451612903,0.006978908188585606,278.5625,-0.6875,174.5,0.03582763999999998,0.7571411099999994,-0.6514892599999988,-0.03186035000000004
380.0,-0.1282127791563275,-0.0010583126550868485,-0.11413833746898264,-0.1200000000000001,-0.9299999999999997,-9.759999999999994,0.03448356079404467,-0.003970223325062035,-0.01761786600496278,278.5625,-0.6875,174.5,0.03582763999999998,0.7571411099999994,-0.6514892599999988,-0.03186035000000004
381.0,-0.12941904466501236,-0.0013058312655086848,-0.11499224565756823,-0.1200000000000001,-0.9299999999999997,-9.759999999999994,0.02460840570719603,-0.002000620347394541,-0.020269851116625312,278.5625,-0.6875,174.5,0.03582763999999998,0.7571411099999994,-0.6514892599999988,-0.03186035000000004
382.0,-0.12931478445389732,-0.0005412137146008115,-0.1168332767143251,-0.1200000000000001,-0.9299999999999997,-9.759999999999994,0.020450201120564025,0.025765218204734333,-0.019924844420812163,278.5625,-0.6875,174.5,0.03582763999999998,0.7571411099999994,-0.6514892599999988,-0.03186035000000004
383.0,-0.13156309942297845,-0.002506338867225964,-0.11826403289810547,-0.1200000000000001,-0.9299999999999997,-9.759999999999994,0.012318773016857694,-0.010876696108550948,0.018883731635747764,278.5625,-0.6875,174.5,0.03582763999999998,0.7571411099999994,-0.6514892599999988,-0.03186035000000004
384.0,-0.13113217731294605,-0.0018687391526556458,-0.1189251193366698,-0.1200000000000001,-0.9299999999999997,-9.759999999999994,0.0055445890968783785,-0.019454712843557473,-0.007933020368390425,278.5625,-0.6875,174.5,0.03582763999999998,0.7571411099999994,-0.6514892599999988,-0.03186035000000004
385.0,-0.13143826447572546,-0.002329618872282764,-0.11722785664734153,-0.1200000000000001,-0.9299999999999997,-9.759999999999994,-0.0023320321284681323,-0.02018077544059594,0.014616179107919482,278.5625,-0.6875,174.5,0.03582763999999998,0.7571411099999994,-0.6514892599999988,-0.03186035000000004
386.0,-0.13129193300629305,-0.002555188048164115,-0.11742974518111096,-0.1200000000000001,-0.9299999999999997,-9.759999999999994,-0.023786683638075415,0.02893146451695489,-0.013131356535850553,278.5625,-0.6875,174.5,0.03582763999999998,0.7571411099999994,-0.6514892599999988,-0.03186035000000004
387.0,-0.13024253423186827,-0.0027785933138430538,-0.11598821550385678,-0.1200000000000001,-0.9299999999999997,-9.759999999999994,-0.007466735935616008,0.020901757067291013,-0.016715489146144062,278.5625,-0.6875,174.5,0.03582763999999998,0.7571411099999994,-0.6514892599999988,-0.03186035000000004
388.0,-0.13090689641260256,-0.0017417887246105803,-0.11639405321729064,-0.1200000000000001,-0.9299999999999997,-9.759999999999994,0.0004341938381147883,0.008002500525977606,-0.014030689608767431,278.5625,-0.6875,174.5,0.03582763999999998,0.7571411099999994,-0.6514892599999988,-0.03186035000000004
389.0,-0.1300199857952199,-0.0019500298257057779,-0.1173587178114566,-0.1200000000000001,-0.9299999999999997,-9.759999999999994,-0.009285417111750679,0.0023249631815674696,-0.010164280339430884,278.5625,-0.6875,174.5,0.03582763999999998,0.7571411099999994,-0.6514892599999988,-0.03186035000000004
390.0,-0.1294767233585234,-0.0030467750464850483,-0.11951510550826494,-0.1200000000000001,-0.9299999999999997,-9.759999999999994,-0.015619935688575766,-0.010664373688609882,0.014453011719349722,278.5625,-0.6875,174.5,0.03582763999999998,0.7571411099999994,-0.6514892599999988,-0.03186035000000004
391.0,-0.1304816533324235,-0.0025791098753006596,-0.11632751061906141,-0.1200000000000001,-0.9299999999999997,-9.759999999999994,-0.007110826325037102,0.0056112570580508685,0.006290407874311254,278.5625,-0.6875,174.5,0.03582763999999998,0.7571411099999994,-0.6514892599999988,-0.03186035000000004
392.0,-0.13016922263352723,-0.002173453199365415,-0.11765732416710735,-0.1200000000000001,-0.9299999999999997,-9.759999999999994,0.01639344262295082,0.008923849814912744,-0.0890732416710735,278.5566829719725,-0.6875,174.5,0.03582763999999998,0.7571158052934949,-0.6515197288736108,-0.03186138293495508
393.0,-0.13217345319936546,-0.0019196192490745635,-0.1185404547858276,-0.1200000000000001,-0.9299999999999997,-9.759999999999994,0.0022474881015335816,-0.06894500264410364,-0.029052088841882595,278.495075356954,-0.6875,174.5,0.035797684886303555,0.7567235827657324,-0.6519718615441557,-0.03189237098360656
394.0,-0.13328693454274937,-0.001712751750038093,-0.11693472201059435,-0.1200000000000001,-0.9299999999999997,-9.759999999999994,0.012902889691580995,-0.04862181699217524,-0.019877833448359306,278.4642715494448,-0.6875,174.5,0.03578115792702276,0.7565228238022212,-0.6522030923849806,-0.03190786500793231
395.0,-0.13352078086206742,-0.0011287185508519393,-0.11768206222158485,-0.1200000000000001,-0.9299999999999997,-9.759999999999994,-7.618603734012037e-05,-0.024459639326336165,0.0026536269035305517,278.44886964569014,-0.6875,174.5,0.035772894447382374,0.7564224443204658,-0.6523187078053931,-0.03191561202009518
396.0,-0.13500541070249503,-0.0007020289387434383,-0.11748707376899797,-0.1200000000000001,-0.9299999999999997,-9.759999999999994,-0.009177877964906619,-0.010459371928283542,-0.012064469819872307,278.4411686938128,-0.6875,174.5,0.03576876270756218,0.7563722545795881,-0.6523765155155994,-0.031919485526176614
397.0,-0.1348362547618683,-0.0011543955102956201,-0.11784633281087348,-0.1200000000000001,-0.9299999999999997,-9.759999999999994,-0.005737204962221652,0.0018560853464807013,-0.0036605379071555796,278.4375,-0.6875,174.5,0.03576669683765208,0.7563479504812274,-0.6524044672184022,-0.03192138999999998
398.0,-0.13404425112498491,-0.0015660925198225854,-0.11428012039803323,-0.1200000000000001,-0.9299999999999997,-9.759999999999994,0.0031302076722471853,0.004811569907507933,-0.0038959749292520364,278.4375,-0.6875,174.5,0.035766600000000044,0.7563476600000005,-0.6524047899999992,-0.03192138999999998
399.0,-0.13470647037750977,-0.0017907007158981705,-0.11540741941170114,-0.1200000000000001,-0.9299999999999997,-9.759999999999994,0.013571892609588146,-0.012741381075041367,-0.011454548426900484,278.4375,-0.6875,174.5,0.035766600000000044,0.7563476600000005,-0.6524047899999992,-0.03192138999999998
