time,linaccel_x,linaccel_y,linaccel_z,gravity_x,gravity_y,gravity_z,gyro_x,gyro_y,gyro_z,euler_x,euler_y,euler_z,quaternion_w,quaternion_y,quaternion_x,quaternion_z
0.0,-0.012500000000000006,-0.26203124999999994,-0.13828125,0.08000000000000004,-9.76999999999999,-0.8100000000000006,0.001953125,0.009765625,-0.0341796875,16.25,0.4375,94.75,0.6702270500000006,0.09802246000000009,-0.7293701199999992,-0.09600830000000005
1.0,-0.011979166666666673,-0.2590104166666666,-0.14411458333333338,0.08000000000000004,-9.769999999999989,-0.8100000000000005,0.024739583333333332,0.015625,0.008138020833333334,16.25,0.43749999999999994,94.75,0.6702270500000005,0.09802246000000008,-0.7293701199999991,-0.09600830000000005
2.0,-0.011205357142857147,-0.25895089285714273,-0.14247767857142862,0.08000000000000004,-9.76999999999999,-0.8100000000000006,0.022321428571428572,0.004464285714285713,0.011300223214285714,16.25,0.4375,94.75,0.6702270500000005,0.09802246000000009,-0.7293701199999992,-0.09600830000000005
3.0,-0.01189583333333334,-0.2590104166666666,-0.14190625000000004,0.08000000000000004,-9.769999999999989,-0.8100000000000006,0.0015625000000000014,-0.0171875,0.014127604166666667,16.25,0.4375,94.75,0.6702270500000006,0.09802246000000009,-0.7293701199999992,-0.09600830000000005
4.0,-0.013732587976539597,-0.258973759775171,-0.139514754398827,0.08000000000000004,-9.76999999999999,-0.8100000000000005,0.0002672898338220921,-0.0034289467253176926,0.016122350012218963,16.25,0.4375,94.75,0.6702270500000007,0.09802246000000009,-0.7293701199999992,-0.09600830000000005
5.0,-0.01338255102872039,-0.2590444915747334,-0.13765504265000233,0.08000000000000004,-9.76999999999999,-0.8100000000000005,-0.002970053719801703,0.022705589521365727,0.013220755219243124,16.25,0.4375,94.75,0.6702270500000007,0.09802246000000009,-0.7293701199999992,-0.09600830000000005
6.0,-0.012775216271184019,-0.26059482643252796,-0.13926994533244536,0.08000000000000004,-9.76999999999999,-0.805791563275434,0.06989248360846143,0.020979083920112142,0.013085738186544639,16.25,0.4375,94.72220843672457,0.6703351260694794,0.09802246000000009,-0.7292867588089322,-0.09603641172208435
7.0,-0.011139314090927,-0.2604738632782987,-0.13691505951485794,0.08000000000000004,-9.76999999999999,-0.8098014888337468,-0.0710917253949008,-0.002350679814137476,-0.01601015122310485,16.25,0.4375,94.7425558312655,0.6702083916575681,0.09804281676426811,-0.7293851411017369,-0.09603156487344915
8.0,-0.010211716598813377,-0.25961681687488136,-0.12946214359117586,0.08000000000000004,-9.76999999999999,-0.8189528535980143,-0.04024087471668116,-0.011014388836969483,-0.023161180217631833,16.25,0.4375,94.80235732009925,0.6699017298014889,0.09808788856575684,-0.7296616323771714,-0.09599473295285357
9.0,-0.011711430146914024,-0.26022874079325686,-0.13154925361376976,0.08000000000000004,-9.76999999999999,-0.8181861042183622,0.03735451376580409,0.006436842727165307,-0.006326435661113081,16.25,0.4375,94.79835607940446,0.6699196786104223,0.09807732428287846,-0.7296482811079411,-0.09599019639578164
10.0,-0.013506823821339957,-0.2600477667493796,-0.13504714640198512,0.08000000000000004,-9.76999999999999,-0.8140930521091814,0.0381281017369727,0.00542803970223325,0.0041369416873449135,16.25,0.4375,94.77417803970224,0.670041864950373,0.09804989214143928,-0.7295135620031017,-0.09599924819789085
11.0,-0.01454125310173698,-0.2601529156327542,-0.13605459057071964,0.08000000000000004,-9.76999999999999,-0.8121780397022338,0.002198356079404466,0.006436104218362283,-0.00117284429280397,16.25,0.4375,94.76295750620346,0.6700995807431771,0.09803617607071968,-0.7294444460387712,-0.09600289560763031
12.0,-0.014342586848635241,-0.2595950682382133,-0.13787344913151367,0.08000000000000004,-9.76999999999999,-0.8110294665012412,0.026238756203473945,-0.00481544665012407,-0.004355032568238213,16.25,0.4375,94.7562771401985,0.6701340877785369,0.09802868188647651,-0.7294055110913455,-0.09600531002217746
13.0,-0.012816454714640204,-0.2579910825062034,-0.13937593052109182,0.08000000000000004,-9.76999999999999,-0.8111053039702238,0.02568141284119107,0.0033770161290322576,0.00622819091191067,16.25,0.4375,94.75138608870967,0.6701812374550252,0.09802966059336238,-0.7293823312975338,-0.09600759249495971
14.0,-0.011516594292803974,-0.2587410049627791,-0.13753070719602975,0.08000000000000004,-9.76999999999999,-0.8104367245657573,-0.005587973014888337,0.008366935483870967,-0.011172068858560794,16.25,0.4375,94.75,0.6702401704714641,0.09802536810918124,-0.7293405834789081,-0.09600830000000005
15.0,-0.012817850496277917,-0.25992881513647637,-0.14450728908188587,0.08000000000000004,-9.76999999999999,-0.8140297766749383,-0.03466433390198511,-0.008812810173697271,-0.004329830955334987,16.25,0.4375,94.75,0.670145905200993,0.09804766361290335,-0.7294405121985106,-0.09600830000000005
16.0,-0.010526674937965263,-0.2590065136476426,-0.15540074441687346,0.08000000000000004,-9.76999999999999,-0.8171761786600499,0.08039508374689826,0.008370812655086848,-0.006536910669975186,16.25,0.4375,94.75,0.6700614542134002,0.09806656632258079,-0.7294998193250616,-0.09600830000000005
17.0,-0.009881203473945412,-0.25848588709677406,-0.16438275434243177,0.08000000000000004,-9.76999999999999,-0.8187493796526057,0.037033770161290315,-0.00299511476426799,-0.0006474875930521091,16.25,0.4375,94.75,0.6700192287196038,0.0980760176774195,-0.7295294728883371,-0.09600830000000005
18.0,-0.009194944168734495,-0.25857420905707185,-0.1652509305210918,0.08000000000000004,-9.76999999999999,-0.8195086848635238,0.040306587313895775,-0.00217218517369727,-0.006116237593052109,16.25,0.4375,94.75,0.6699974193101745,0.09808056159801504,-0.7295441937071958,-0.09600830000000005
19.0,-0.009592431761786605,-0.25794478908188573,-0.16420967741935488,0.08000000000000004,-9.76999999999999,-0.8199156327543426,0.02910980148883375,0.01258917493796526,-0.025445874689826304,16.25,0.4375,94.75,0.6699852423970233,0.09808301531513663,-0.7295526445955333,-0.09600830000000005
20.0,-0.010589433416046325,-0.25903322618241964,-0.16013732235506434,0.08000000000000004,-9.76999999999999,-0.8207038123167156,-0.07097831603879991,-0.0025885992367847208,-0.028409737104293557,16.25,0.4375,94.76075268817203,0.669949499794722,0.09808731810361693,-0.7295966548387094,-0.09599970879765396
21.0,-0.009254502442002446,-0.26085719365759674,-0.1502327085996441,0.08000000000000004,-9.76999999999999,-0.8255131964809379,-0.04313715518352615,0.005982966126615319,-0.004848700526623914,16.25,0.4375,94.81989247311827,0.669651185542522,0.09811690840664714,-0.7298584574193543,-0.09594100052785919
22.0,-0.00955777231281264,-0.2605402593598158,-0.1427689597588791,0.08000000000000004,-9.76999999999999,-0.8279178885630489,-0.05226026493667622,-0.0052126112294963115,-0.027315789469267295,16.25,0.4375,94.84946236559139,0.6695020284164221,0.09813170355816223,-0.7299893587096768,-0.0959116463929618
23.0,-0.010039781007522947,-0.2610868557965331,-0.14208787628142472,0.08000000000000004,-9.76999999999999,-0.8291202346041046,0.01039766684927975,0.02123078534368857,-0.012492077814658461,16.25,0.4375,94.86424731182797,0.6694274498533721,0.09813910113391978,-0.7300548093548382,-0.09589696932551312
24.0,-0.01139085824569696,-0.2611501276501276,-0.13761962052284638,0.08000000000000004,-9.76999999999999,-0.8297214076246323,0.011487605136798683,0.000604536592439817,-0.011076994242316823,16.25,0.4375,94.87163978494624,0.6693901605718471,0.09814279992179856,-0.7300875346774187,-0.09588963079178876
25.0,-0.011815500807436298,-0.26294845208554873,-0.13412924888731342,0.08000000000000004,-9.76999999999999,-0.8299999999999988,-0.03302740606168025,8.043591712946548e-05,-0.006073804108078302,16.25,0.4375,94.875,0.6693725599999996,0.09814452999999992,-0.7301025399999994,-0.0958862299999999
26.0,-0.01141745933278192,-0.2627831393516876,-0.13156779510811772,0.08000000000000004,-9.76999999999999,-0.8299999999999988,-0.013392026320453743,0.01716992964472803,0.013548528644294774,16.25,0.4375,94.875,0.6693725599999996,0.09814452999999992,-0.7301025399999994,-0.0958862299999999
27.0,-0.011981682519988978,-0.2628183686832879,-0.12996503899326484,0.08000000000000004,-9.76999999999999,-0.8299999999999988,-0.0022605292892591286,0.007856056633778407,-0.006346083072393555,16.25,0.4375,94.875,0.6693725599999996,0.09814452999999992,-0.7301025399999994,-0.0958862299999999
28.0,-0.013031528171649147,-0.26335057628303576,-0.12872146155815511,0.08000000000000004,-9.76999999999999,-0.8299999999999988,-0.017654399112312417,0.019056627316455944,-0.0011559278255346798,16.25,0.4375,94.875,0.6693725599999996,0.09814452999999992,-0.7301025399999994,-0.0958862299999999
29.0,-0.012981606207412667,-0.2652308480050414,-0.1266748591909882,0.08000000000000004,-9.76999999999999,-0.8299999999999988,-0.02094263263618102,0.014294084052148569,-0.0018935365709559257,16.25,0.4375,94.875,0.6693725599999996,0.09814452999999992,-0.7301025399999994,-0.0958862299999999
30.0,-0.012566623340816895,-0.26436748198038507,-0.12331190673126158,0.08000000000000004,-9.76999999999999,-0.8299999999999988,-0.023071015006498878,0.024532770097286223,-0.004388711646776163,16.25,0.4375,94.875,0.6693725599999996,0.09814452999999992,-0.7301025399999994,-0.0958862299999999
31.0,-0.012961971720036243,-0.26367381543187984,-0.12231104021426602,0.08000000000000004,-9.76999999999999,-0.8299999999999988,-0.020197107999527356,0.004667129465516561,-0.00574584465713498,16.25,0.4375,94.875,0.6693725599999996,0.09814452999999992,-0.7301025399999994,-0.0958862299999999
32.0,-0.014263864271928797,-0.2644535330261135,-0.12158107841978813,0.08000000000000004,-9.76999999999999,-0.8299999999999988,0.04221224004490133,0.02252587242506597,-0.011511259797550119,16.25,0.4375,94.875,0.6693725599999996,0.09814452999999992,-0.7301025399999994,-0.0958862299999999
33.0,-0.013814826302729536,-0.2630387717121587,-0.12002729528535983,0.08000000000000004,-9.76999999999999,-0.8299999999999988,0.006201535359801485,0.004315291563275433,0.020979373449131516,16.25,0.4375,94.875,0.6693725599999996,0.09814452999999992,-0.7301025399999994,-0.0958862299999999
34.0,-0.015086073200992565,-0.26277869106699747,-0.1235632754342432,0.08000000000000004,-9.76999999999999,-0.8299999999999988,-0.05247460452853598,-0.009574674317617866,0.020616857940446653,16.25,0.4375,94.875,0.6693725599999996,0.09814452999999992,-0.7301025399999994,-0.0958862299999999
35.0,-0.01339539392059554,-0.26125162841191063,-0.12669602977667496,0.08000000000000004,-9.76999999999999,-0.8299999999999988,-0.019754671991315136,0.0007182459677419354,0.0028565058933002485,16.25,0.4375,94.875,0.6693725599999996,0.09814452999999992,-0.7301025399999994,-0.0958862299999999
36.0,-0.013232862903225813,-0.26351589640198503,-0.12880172146401986,0.08000000000000004,-9.76999999999999,-0.8299999999999988,-0.013083514267990076,0.01149775124069479,0.010455761476426798,16.25,0.4375,94.875,0.6693725599999996,0.09814452999999992,-0.7301025399999994,-0.0958862299999999
37.0,-0.014108870967741945,-0.262965105459057,-0.12647999379652605,0.08000000000000004,-9.76999999999999,-0.8299999999999988,0.033654815446650124,-0.012018261476426798,0.012063818238213399,16.25,0.4375,94.875,0.6693725599999996,0.09814452999999992,-0.7301025399999994,-0.0958862299999999
38.0,-0.014499844913151372,-0.2628262251861041,-0.1266469447890819,0.08000000000000004,-9.76999999999999,-0.8299999999999988,0.014788015663771711,0.0032650628101736964,0.008218633684863523,16.25,0.4375,94.875,0.6693725599999996,0.09814452999999992,-0.7301025399999994,-0.0958862299999999
39.0,-0.015355372114444703,-0.2630906999586434,-0.1277457445108655,0.08000000000000004,-9.76999999999999,-0.8299999999999988,0.041889192796450855,0.008837424336416272,-0.0035370816179787954,16.25,0.4375,94.875,0.6693806740957964,0.09814452999999992,-0.7300987212707717,-0.09589052607038115
40.0,-0.015553190089480421,-0.2609833540115798,-0.1309772069328521,0.08000000000000004,-9.76999999999999,-0.8273387096774187,0.039404777849838334,-0.00585094508985638,0.01711691786036544,16.25,0.4375,94.8578629032258,0.6695375721285428,0.09812779596774196,-0.7299869271676444,-0.09591988255131959
41.0,-0.017162451124144683,-0.2606418010752688,-0.13410771016617792,0.08000000000000004,-9.76999999999999,-0.8235080645161288,0.06618191746089933,-0.01586747006353861,0.039529302602639295,16.25,0.4375,94.83417338709677,0.6697070815481418,0.09810466362903235,-0.7298557219709194,-0.0959345607917888
42.0,-0.017311994792841574,-0.2616304538875103,-0.1338171150086473,0.08000000000000004,-9.76999999999999,-0.8215927419354838,0.016895287592112188,-0.014346091576434319,0.05380306437514099,16.25,0.4375,94.82232862903226,0.6697918362579414,0.09809309745967754,-0.7297901193725569,-0.0959418999120234
43.0,-0.020406656515527494,-0.26164583333333324,-0.1359342243777728,0.08000000000000004,-9.76999999999999,-0.8206350806451614,0.04128074126814046,-0.018374678077299044,0.004474519935709454,16.25,0.4375,94.81640625,0.6698342136128412,0.09808731437500015,-0.7297573180733757,-0.0959455694721407
44.0,-0.022038616625310186,-0.2626239919354837,-0.13959956575682383,0.08000000000000004,-9.76999999999999,-0.8201562500000001,0.09421380660669976,-0.012425364454094295,0.006498623604218363,16.25,0.4375,94.81344506048387,0.6698551487247975,0.09808442283266144,-0.7297410367590735,-0.09594726999999995
45.0,-0.01923503411910671,-0.2628618951612902,-0.14231490384615386,0.08000000000000004,-9.76999999999999,-0.8193548387096776,0.16497169665012407,-0.03865975883995037,0.021315718052109182,16.25,0.4375,94.80745967741936,0.6698834822580638,0.09807906967741949,-0.7297117187096784,-0.09595317612903223
46.0,-0.01776336566659148,-0.2607195747800585,-0.14495900067674264,0.08000000000000004,-9.76999999999999,-0.8145161290322585,0.05220000093992029,-0.06439064967290774,-0.03235193905556809,16.25,0.4375,94.77772177419354,0.670029673387097,0.09804978032258074,-0.7295665120967754,-0.09598172241935485
47.0,-0.016220333430010857,-0.2596622018214759,-0.150617355314936,0.08000000000000004,-9.76999999999999,-0.812096774193549,0.05370299783102202,-0.00791266305379209,-0.021854363714242746,16.25,0.4375,94.76285282258064,0.6701027689516135,0.09803513564516139,-0.7294939087903237,-0.09599599556451616
48.0,-0.01527890120632057,-0.25821571629535334,-0.15535086128029685,0.08000000000000004,-9.76999999999999,-0.8108870967741941,0.02433909196762019,-0.009074197531858823,0.0006888231056577845,16.25,0.4375,94.75541834677418,0.6701393167338718,0.0980278133064517,-0.729457607137098,-0.0960031321370968
49.0,-0.014922716732192547,-0.2572757008896121,-0.15650103547885813,0.08000000000000004,-9.76999999999999,-0.8102822580645167,0.021935170983810096,-0.015027270136897152,0.0037466292947643753,16.25,0.4375,94.75170110887095,0.6701575906250009,0.09802415213709686,-0.729439456310485,-0.09600670042338713
50.0,-0.014938676914483374,-0.25697706415448346,-0.15978781612652587,0.08000000000000004,-9.76999999999999,-0.8100000000000005,0.02238706633867924,0.013167438520261102,0.0048187531554467035,16.25,0.4375,94.75,0.670166020000001,0.09802246000000009,-0.7294311500000011,-0.09600830000000005
51.0,-0.014034192957580061,-0.25716065028161794,-0.16081382685414947,0.08000000000000004,-9.76999999999999,-0.8100000000000005,0.0036579571861829925,0.015448342540076411,-0.0066989210386387815,16.25,0.4375,94.75,0.6701660200000009,0.09802246000000009,-0.7294311500000011,-0.09600830000000005
52.0,-0.014198356079404473,-0.2569879032258064,-0.16031730769230776,0.08000000000000004,-9.76999999999999,-0.8100000000000005,0.015093827543424317,0.002939865074441687,0.008387290632754342,16.25,0.4375,94.75,0.6701660200000009,0.09802246000000009,-0.7294311500000011,-0.09600830000000005
53.0,-0.014444091191067005,-0.25693067617866,-0.16250728908188591,0.08000000000000004,-9.76999999999999,-0.8100000000000005,0.006585375310173698,0.008192947425558313,-0.005220126395781637,16.25,0.4375,94.75,0.6701660200000009,0.09802246000000009,-0.7294311500000011,-0.09600830000000005
54.0,-0.013676178660049634,-0.25714981389578156,-0.16831513647642682,0.08000000000000004,-9.76999999999999,-0.8100000000000005,-0.015734530086848636,0.024084502946650124,0.013408712003722085,16.25,0.4375,94.75,0.6701660200000009,0.09802246000000009,-0.7294311500000011,-0.09600830000000005
55.0,-0.015251240694789088,-0.2565607940446649,-0.1691197270471464,0.08000000000000004,-9.76999999999999,-0.8100000000000005,-0.04109413771712159,0.003983793424317618,0.042326108870967744,16.25,0.4375,94.75,0.6701660200000009,0.09802246000000009,-0.7294311500000011,-0.09600830000000005
56.0,-0.0160673076923077,-0.2568933002481389,-0.17017524813895785,0.08000000000000004,-9.76999999999999,-0.8100000000000005,-0.03715687034739454,-0.0027072348014888334,0.04382124302109181,16.25,0.4375,94.75,0.6701660200000009,0.09802246000000009,-0.7294311500000011,-0.09600830000000005
57.0,-0.01607624857221632,-0.2575958756745046,-0.1726297867678916,0.08000000000000004,-9.76999999999999,-0.8100000000000005,-0.03745264312300603,0.0038927183647445747,0.013867856773602742,16.25,0.4375,94.75,0.6701660200000009,0.09802246000000009,-0.7294311500000011,-0.09600830000000005
58.0,-0.016090574188356452,-0.25830093148339106,-0.1712466962920592,0.08000000000000004,-9.76999999999999,-0.8100000000000005,0.0013442811388879906,0.01933690399542214,0.015526341937632259,16.25,0.4375,94.75,0.670166020000001,0.09802246000000009,-0.7294311500000012,-0.09600830000000005
59.0,-0.01235224273933952,-0.259193308483631,-0.16548473927506185,0.08000000000000004,-9.76999999999999,-0.8100000000000005,-0.060237007616039874,0.013590453005775585,-0.010381990321506449,16.25,0.4375,94.75,0.670166020000001,0.09802246000000009,-0.7294311500000012,-0.09600830000000005
60.0,-0.011631456357262815,-0.2585321381127832,-0.16653765499733242,0.08000000000000004,-9.76999999999999,-0.8100000000000005,0.043485714554262936,0.0019875341951954848,0.04711979888391179,16.25,0.4375,94.72177419354838,0.6702541244354843,0.09802246000000009,-0.7293420610483881,-0.09603685096774192
61.0,-0.014517961429251759,-0.2577226447387737,-0.16809513022819478,0.08000000000000004,-9.76999999999999,-0.8100000000000005,0.13244384983296273,0.022969573549210646,-0.016343946711890253,16.25,0.4375,94.70362903225805,0.6703283250018616,0.09802246000000009,-0.7292683527400743,-0.09605407999999996
62.0,-0.012717525753816081,-0.2577778216407248,-0.16659118636739606,0.08000000000000004,-9.76999999999999,-0.805712158808933,0.06729423969847356,-0.017955620488382583,0.0471548906402737,16.25,0.4375,94.6856234491315,0.6704744705654471,0.09800889104714641,-0.7291248765710294,-0.09607529425806452
63.0,-0.013035204714640203,-0.2592285980148883,-0.17136499689826304,0.08000000000000004,-9.76999999999999,-0.7975334987593048,0.036549123759305205,-0.040273631358560796,0.030374243951612902,16.25,0.4375,94.65329559553349,0.6706982685085299,0.09798417616873442,-0.728899990059708,-0.096104801
64.0,-0.013876473325062042,-0.2588078473945408,-0.1731799782878412,0.08000000000000004,-9.76999999999999,-0.7934441687344908,0.029772797766749376,-0.019774542493796527,0.029347278225806447,16.25,0.4375,94.6371316687345,0.6708101674800714,0.09797181872952843,-0.7287875468040474,-0.09611955437096775
65.0,-0.015176178660049635,-0.25785111662531013,-0.17067493796526054,0.08000000000000004,-9.76999999999999,-0.7913995037220838,0.02651403535980149,-0.010226039081885855,0.011515198511166252,16.25,0.4375,94.6299317617866,0.670847853786601,0.09796564000992544,-0.7287656111811416,-0.09612603883870968
66.0,-0.015327543424317625,-0.25770471464019845,-0.17224813895781638,0.08000000000000004,-9.76999999999999,-0.7903771712158802,-0.014999806141439209,-0.024653962468982632,-0.03917106079404467,16.25,0.4375,94.62645781637715,0.6708604232704718,0.09796255065012394,-0.7287763953151374,-0.09612918877419355
67.0,-0.014472704714640208,-0.25753722084367237,-0.18072704714640198,0.08000000000000004,-9.76999999999999,-0.7899999999999994,0.02573520859181141,-0.005456633839950372,-0.05058739143920596,16.25,0.4375,94.625,0.6708957730421834,0.0979570678362282,-0.7287516801935487,-0.09613036999999999
68.0,-0.016678604661467568,-0.259422124246721,-0.17784840260545903,0.07572350230414741,-9.76999999999999,-0.7973732718894004,0.019669789635767456,-0.8543020676400213,-0.10431605315047855,16.02695852534562,0.4236751152073732,94.66831797235022,0.6708399509819212,0.09682067468769935,-0.7291279812811061,-0.09473168074654378
69.0,0.02160935838355191,-0.26084225451967386,-0.15077277561148528,0.06341013824884786,-9.7649861751152,-0.8476589861751147,-0.3462247429989365,-1.508272775611485,-0.08207639135058489,14.580414746543777,0.35685483870967744,94.95864055299539,0.6700595923941863,0.0887086443069833,-0.7318479938709678,-0.08598852163133641
70.0,0.02543991492378589,-0.2641233605104572,-0.1369124423963134,0.05590358029067702,-9.759473236440972,-0.8999014533853242,-0.10109003899326478,-0.7615650478553703,0.02153934774902517,13.544239631336405,0.3004032258064516,95.26328429634881,0.6689121531896494,0.08300140420063802,-0.7342842804665007,-0.07973519823254166
71.0,0.02845444877702942,-0.2638755760368663,-0.12379989365473235,0.05093566111308043,-9.759575327897902,-0.914628146047501,-0.0810195852534562,-0.2536810971286777,-0.0276065668202765,13.089660138248846,0.2721774193548387,95.34736795462601,0.6686714616804326,0.08041012169709319,-0.7351342583995035,-0.07696073032594819
72.0,0.02977305490208717,-0.2658900400674594,-0.10843991223829934,0.04998395958879824,-9.75704572846508,-0.9377881688204267,-0.18817644049498888,-0.12116155014340496,-0.050033921052066214,12.895636520737327,0.25806451612903225,95.48325142599336,0.6679307393090486,0.07932052972237164,-0.736083237192082,-0.07568785655593599
73.0,0.030354623870752915,-0.2659416524335878,-0.09364055165264842,0.04964174937965255,-9.753200283587379,-0.9565668954701207,-0.09281540032548097,0.027599391535883484,0.018140386159539383,12.830904931761786,0.27774282169443454,95.56890105861879,0.6673687422167367,0.07892256391878945,-0.7367009593812238,-0.07516023289778367
74.0,0.028603579216482457,-0.26842013497255424,-0.08504147398300624,0.04978861662531012,-9.751434243176178,-0.964500037596811,-0.052427285416196706,0.028935064431536203,0.0034394327111060986,12.847206498138958,0.29540942928039704,95.60333013760433,0.6671112576567559,0.07897919575893383,-0.7369239153104279,-0.07516669194889186
75.0,0.029094593578464563,-0.26707979453342345,-0.07801329282276862,0.04990423387096769,-9.750645161290322,-0.9676197458455514,-0.06678436231107603,-0.02058209557579517,-0.0012424424533799532,12.865135507133994,0.3049627791563275,95.61556085043988,0.667006194895376,0.07905911245763061,-0.7370017287519883,-0.07522872596948318
76.0,0.03792504339979797,-0.2699921676033176,-0.06785814682045396,0.04850397381954181,-9.75016129032258,-0.9865903778316117,-0.18716082669667874,-1.4387419795170935,-0.07371069243110792,12.330273402380694,0.29244165138274536,95.74349074546305,0.6665752824629184,0.07580690245467289,-0.7380099631681432,-0.07208666410467937
77.0,0.026967851176726475,-0.2696816714501276,-0.05033817101464054,0.06014018841220127,-9.75,-0.9926678706603391,-0.04922808538465479,0.9512367112015624,0.13354982123446546,11.955832127615446,0.35562206298699794,95.79619765349318,0.666509817368057,0.07256689138628342,-0.7385880905381952,-0.06994567316359585
78.0,-0.0029503175878154257,-0.2721311583057089,-0.03131300610285377,0.08556140934257712,-9.75,-0.9916565159753311,-0.09761342234493285,0.5947870900920963,0.1394486078877042,12.959553780929312,0.4955374582925064,95.80538790863244,0.6658486066815471,0.07726019301075956,-0.7381333115494946,-0.07581771517236868
79.0,-0.009784789687207964,-0.2732788235697279,-0.023768669614702323,0.09874844660677248,-9.75,-0.991150838632827,-0.07606274017370712,0.30145027775386457,0.09325412908343025,13.465663987238848,0.5653090517268984,95.77971008334848,0.6656023273730319,0.07962997069892817,-0.7378174417424896,-0.07878173968295857
80.0,-0.013626769843603986,-0.27329554546972734,-0.015635536730428088,0.10534196523887018,-9.75,-0.990897999961575,-0.07256630339950865,0.1518277094414484,0.05559156903923374,13.718719090393618,0.6001948484440943,95.76687117070648,0.6654791877187743,0.08081485954301247,-0.7376595068389871,-0.08026375193825352
81.0,-0.016293551786260588,-0.27319378632856306,-0.009717937387402703,0.10868547537305834,-9.75,-0.9902386212991608,-0.050305924742513344,0.13134751351167612,0.04004427410856929,13.862179203915836,0.6181783031374282,95.75671164893436,0.6654291172394717,0.08150992803705087,-0.7375506067972404,-0.08110357284149708
82.0,-0.01921091811414393,-0.2737518610421835,-0.014223325062034746,0.10997022332506215,-9.75,-0.9872208436724558,0.011817617866004965,0.019416873449131514,0.010763027295285358,13.937220843672456,0.625,95.75189205955334,0.6654838446253103,0.08189218584615382,-0.7374099757320098,-0.08155765944913151
83.0,-0.0174937965260546,-0.2730967741935483,-0.023088089330024826,0.11000000000000011,-9.75,-0.9834491315136465,-0.007940446650124068,0.004916253101736973,-0.0004575062034739455,13.9375,0.625,95.75,0.665604704759305,0.08186992052605457,-0.7372886041339946,-0.08158270764764262
84.0,-0.018667418602902483,-0.27359034513873215,-0.022434036393713823,0.11000000000000011,-9.75,-0.9815632754342418,0.0213361906910294,0.02972004474020603,-0.014154142228739003,13.9375,0.625,95.75,0.6656624996377166,0.08185804574689823,-0.7372306899702227,-0.08159433817865996
85.0,-0.020727648695390642,-0.2746389954131888,-0.017241080156402744,0.11000000000000011,-9.75,-0.9806203473945396,0.06310436874953004,0.026101469095420708,-0.010288778761561021,13.9375,0.625,95.75,0.6656913970769225,0.08185210835732007,-0.7372017328883367,-0.08160015344416863
86.0,-0.02221580749000105,-0.2738264495361268,-0.01041549064734549,0.11000000000000011,-9.75,-0.9801488833746884,-0.009845172748398558,0.008101248549837261,0.0017138957033110249,13.9375,0.625,95.75,0.6657058457965255,0.08184913966253099,-0.7371872543473937,-0.08160306107692297
87.0,-0.023126250989154228,-0.2741140669366474,-0.006070592154261511,0.11000000000000011,-9.75,-0.9799999999999986,-0.018824477493832335,0.041498928658706885,-0.004395326755457804,13.9375,0.625,95.75,0.6657104499999994,0.08184813999999997,-0.7371826199999992,-0.08160399999999988
88.0,-0.02256202578783225,-0.2748319601545406,-0.003467160080063306,0.11000000000000011,-9.75,-0.9799999999999986,-0.02357096308709212,0.014427105152911604,0.003288937764744216,13.9375,0.625,95.75,0.6657104499999994,0.08184813999999997,-0.7371826199999992,-0.08160399999999987
89.0,-0.023785900479448882,-0.2739629008983846,-0.0035615370292789643,0.11000000000000011,-9.75,-0.9799999999999986,-0.0019644893636829117,0.011902579946934787,-0.011552012056044315,13.9375,0.625,95.75,0.6657104499999994,0.08184813999999997,-0.7371826199999992,-0.08160399999999988
90.0,-0.02458845366103432,-0.274080668435507,-0.001900514360191779,0.11000000000000011,-9.75,-0.9799999999999986,-0.0304452212214309,0.0031562019969278046,-0.01692581052460085,13.9375,0.625,95.75,0.6657104499999994,0.08184813999999997,-0.7371826199999992,-0.08160399999999988
91.0,-0.024334677419354855,-0.27465298142717487,-0.000488147605083088,0.11000000000000011,-9.75,-0.9806451612903215,-0.0683460105083089,0.006762432795698925,-0.020279661534701857,13.9375,0.625,95.75302419354838,0.6656858389516125,0.08185306258064515,-0.7372077229838705,-0.08159957040322574
92.0,-0.025310056207233644,-0.2748362658846528,0.005032074780058654,0.11000000000000011,-9.75,-0.9854838709677416,0.014122449291300097,0.002205141129032258,-0.0016629246089931576,13.9375,0.625,95.75395588954055,0.6655382459029815,0.08188210580645161,-0.7373550652944771,-0.0815702858467742
93.0,-0.02500783658545757,-0.27526812166328274,0.009691764888337473,0.11000000000000011,-9.75,-0.9879032258064517,0.042258889883637865,-0.008128151670238365,-0.00893991970730882,13.9375,0.625,95.75197794477027,0.6654668356934266,0.08189662741935484,-0.7374263497440131,-0.08155564356854844
94.0,-0.02735247950973759,-0.2768847328746521,0.015471111549740589,0.11000000000000011,-9.75,-0.9891129032258068,-0.0060830466576434344,0.011891695334235656,-0.01381985370140612,13.9375,0.625,95.75098897238513,0.6654311305886491,0.08190388822580646,-0.7374619919687811,-0.08154832242943555
95.0,-0.027640334799609007,-0.2772647590984283,0.019179574122114455,0.11000000000000011,-9.75,-0.9897177419354843,-0.010607646721558015,0.02835472239454094,-0.004573519978005865,13.9375,0.625,95.75049448619257,0.6654132780362603,0.08190751862903226,-0.7374798130811651,-0.0815446618598791
96.0,-0.02693082186630575,-0.2772018196856905,0.02021738476577187,0.11000000000000011,-9.75,-0.9900000000000004,0.015752124219866152,0.02890818858560794,-0.007879821791112114,13.9375,0.625,95.7501527370479,0.665405120855328,0.08190918,-0.7374879391691112,-0.08154297000000008
97.0,-0.026962478381833237,-0.27789954131889605,0.0218315662831792,0.11000000000000011,-9.75,-0.9900000000000004,0.005890480487254679,0.017875404165726746,-0.01690728626212497,13.9375,0.625,95.75,0.6654052700000006,0.08190918,-0.7374877900000008,-0.08154297000000008
98.0,-0.028487442664862035,-0.27684183021279785,0.023998909692458093,0.11000000000000011,-9.75,-0.9900000000000005,-0.010741174148432214,0.011248496127528386,-0.02080631062485901,13.9375,0.625,95.75,0.6654052700000006,0.08190918,-0.7374877900000008,-0.08154297000000008
99.0,-0.028390837656966705,-0.27680556808782597,0.02394715768102866,0.11000000000000011,-9.75,-0.9900000000000005,-0.0006204648845777871,-0.0031886795999699225,-0.003743820024061959,13.9375,0.625,95.75,0.6654052700000006,0.08190918,-0.7374877900000008,-0.08154297000000008
100.0,-0.02680591585833523,-0.27789507669749586,0.024988692758854063,0.11000000000000011,-9.75,-0.9900000000000004,-0.0274170637829912,-0.0008259549590194748,-0.024905596755395144,13.9375,0.625,95.75,0.6654052700000006,0.08190918,-0.7374877900000008,-0.08154297000000008
101.0,-0.028067970336115515,-0.27796242668621685,0.026613453079178902,0.11000000000000011,-9.75,-0.9900000000000004,-0.026720318491991878,-0.0028633496879464622,-0.023184808303255883,13.9375,0.625,95.75,0.6654052700000006,0.08190918,-0.7374877900000008,-0.08154297000000008
102.0,-0.02876524315738027,-0.27773517980675216,0.030880679468381095,0.11000000000000011,-9.75,-0.9900000000000004,-0.035181113829047296,-0.0005460349462365591,-0.024098513633543876,13.9375,0.625,95.75,0.6654052700000006,0.08190918,-0.7374877900000008,-0.08154297000000008
103.0,-0.02829032258064518,-0.27690239867659205,0.03590427851718174,0.11000000000000011,-9.75,-0.9900000000000004,-0.013286713286713287,-0.01011119257086999,-0.02582947966012482,13.9375,0.625,95.75,0.6654052700000006,0.08190918,-0.7374877900000008,-0.08154297000000008
104.0,-0.029569065343258913,-0.27715264305586873,0.03702255808707422,0.11000000000000011,-9.75,-0.9900000000000004,-0.0003139333784495076,-0.03308378449507482,-0.0190686329799233,13.9375,0.625,95.75,0.6654052700000006,0.08190918,-0.7374877900000008,-0.08154297000000008
105.0,-0.030098503646890765,-0.2767671253477703,0.0357211820437627,0.11000000000000011,-9.75,-0.9900000000000004,0.008142529513497256,-0.023039326265132717,-0.014275509436799758,13.9375,0.625,95.75,0.6654052700000006,0.08190918,-0.7374877900000008,-0.08154297000000008
106.0,-0.029664636438830008,-0.27785998947289253,0.028366794495826762,0.11000000000000011,-9.75,-0.9900000000000004,0.03969471388826227,-0.02237574253703286,0.005610384239416498,13.9375,0.625,95.75,0.6654052700000006,0.08190918,-0.7374877900000008,-0.08154297000000008
107.0,-0.030076847883299514,-0.2769364613880742,0.030592300172945345,0.11000000000000011,-9.75,-0.9900000000000004,0.015642153545379348,-0.0019324761260245127,-0.012431855778629972,13.9375,0.625,95.75,0.6654052700000006,0.08190918,-0.7374877900000008,-0.08154297000000008
108.0,-0.02934683058876609,-0.2783704789833822,0.03262752838559291,0.11000000000000011,-9.75,-0.9891129032258067,0.05911017745695164,0.004883590871494098,0.004307654710880517,13.9375,0.625,95.75453629032258,0.6654224979838714,0.08190573427419354,-0.7374735158870969,-0.08154690758064523
109.0,-0.030834028874351473,-0.2747699451086547,0.024073370178208896,0.11000000000000011,-9.75140762463343,-0.9667216520039104,0.17011593916835852,0.00479206613279194,0.02580034213098729,13.9375,0.625,95.64131995356793,0.66624057568304,0.08180865377443794,-0.7367250835984847,-0.0816451703445748
110.0,-0.03282892510715093,-0.27365172193397985,0.00906646176404241,0.11000000000000011,-9.755865102639293,-0.9473930840664712,0.16496646834348447,0.01973474274381532,0.007526411760282728,13.9375,0.625,95.53436965420332,0.6669314002608744,0.08173290914528344,-0.7360983748637584,-0.08172007791422285
111.0,-0.0304740159034514,-0.27295241183547625,-0.007243444055944061,0.11000000000000011,-9.758093841642225,-0.9377288000977515,0.1285285195315437,0.011697396185803444,-0.003076124144672532,13.9375,0.625,95.48089450452102,0.6673024099691466,0.0816950368307062,-0.7357704799504898,-0.08175753169904687
112.0,-0.028352843728851808,-0.2702054336792239,-0.012988779701481322,0.11000000000000011,-9.75920821114369,-0.9328966581133917,0.0834785803913828,0.0031147049355214683,-0.0025155791788856307,13.9375,0.625,95.45415692967987,0.6674879148232826,0.08167610067341757,-0.7355895685236324,-0.08177625859145889
113.0,-0.027908780735393653,-0.27034969264606346,-0.01576606323783744,0.11000000000000011,-9.759765395894423,-0.9305083088954054,0.027531880921497855,-0.014744940879013459,0.0024594483137829913,13.9375,0.625,95.4406463831867,0.6675801288758548,0.08166674027370471,-0.7354995588762319,-0.08178549898826973
114.0,-0.028839532107677285,-0.26999644945108636,-0.018623500827129873,0.11000000000000011,-9.759999999999994,-0.9299999999999997,-0.00285185035059027,-0.0015531889145800433,0.01320430871212121,13.9375,0.625,95.4375,0.6676009401612899,0.08166503999999991,-0.7354777195285367,-0.08178710999999994
115.0,-0.02886773441612153,-0.27074942664862006,-0.02202026468155502,0.11000000000000011,-9.759999999999994,-0.9299999999999997,0.007980334517632904,0.004146928340476728,-0.0011650312053537865,13.9375,0.625,95.4375,0.6676025399999995,0.08166503999999991,-0.7354746902481397,-0.08178710999999994
116.0,-0.03010880517332132,-0.2700930756071883,-0.022991521918941285,0.11000000000000011,-9.759999999999994,-0.9299999999999997,0.024190229293555906,0.01916403488984134,-0.001388967215580119,13.9375,0.625,95.4375,0.6676025399999996,0.08166503999999991,-0.7354736300000007,-0.08178710999999994
117.0,-0.028524964283028816,-0.2704008125610946,-0.02011291262500941,0.11000000000000011,-9.759999999999994,-0.9299999999999997,0.011499440159974433,0.017102554703361153,0.005306672494172494,13.9375,0.625,95.4375,0.6676025399999996,0.08166503999999991,-0.7354736300000007,-0.08178710999999994
118.0,-0.029772012933303275,-0.2717518328445746,-0.02339131701631703,0.11000000000000011,-9.759999999999994,-0.9299999999999997,-0.01291808829611249,-0.0031636542221219633,-0.01604549684186781,13.9375,0.625,95.4375,0.6676025399999995,0.08166503999999991,-0.7354736300000007,-0.08178710999999994
119.0,-0.03052368599142794,-0.2696897370103014,-0.02335826471915183,0.11000000000000011,-9.759999999999994,-0.9299999999999997,0.0003744113749154067,-0.0017651115685389882,-0.0158640334799609,13.9375,0.625,95.4375,0.6676025399999995,0.08166503999999991,-0.7354736300000007,-0.08178710999999994
120.0,-0.03084124746221522,-0.2704652158996915,-0.022247370572975423,0.11000000000000011,-9.759999999999994,-0.9299999999999997,-0.023370486620234606,0.006507332553199489,-0.0026435552015189124,13.9375,0.625,95.4375,0.6676025399999996,0.08166503999999991,-0.7354736300000007,-0.08178710999999994
121.0,-0.03127391157229868,-0.27063719076622283,-0.021060681254229652,0.11000000000000011,-9.759999999999994,-0.9299999999999997,-0.021295539138281076,0.006192077411835476,0.005161337318595383,13.9375,0.625,95.4375,0.6676025399999996,0.08166503999999991,-0.7354736300000007,-0.08178710999999994
122.0,-0.03123399315738027,-0.27077787803594233,-0.016664937213324314,0.11000000000000011,-9.759999999999994,-0.9299999999999997,-0.027754318933754418,-0.004467969866155349,0.0028833229942100912,13.9375,0.625,95.4375,0.6676025399999995,0.08166503999999991,-0.7354736300000007,-0.08178710999999994
123.0,-0.03139637848710431,-0.27129291676065853,-0.012512707722385146,0.11000000000000011,-9.759999999999994,-0.9299999999999997,-0.021221931630197758,0.005592026421159486,-0.00492582853973983,13.9375,0.625,95.4375,0.6676025399999995,0.08166503999999991,-0.7354736300000007,-0.08178710999999994
124.0,-0.03329868552146779,-0.272112959621024,-0.009375460560944435,0.11000000000000011,-9.759999999999994,-0.9299999999999997,-0.013293968296488459,-0.0066332671864425905,0.0007473834968794646,13.9375,0.625,95.4375,0.6676025399999996,0.08166503999999991,-0.7354736300000007,-0.08178710999999994
125.0,-0.03327393037070458,-0.27385156778705144,-0.009115271824949247,0.11000000000000011,-9.759999999999994,-0.9299999999999997,0.028779419505225952,-0.00844048424693586,-0.0012500939920294758,13.9375,0.625,95.4375,0.6676025399999995,0.08166503999999991,-0.7354736300000007,-0.08178710999999994
126.0,-0.033787089254831204,-0.27288111888111866,-0.008993119783442366,0.11000000000000011,-9.759999999999994,-0.9299999999999997,0.001059995112414466,-0.01541751259493195,0.009253985262049777,13.9375,0.625,95.4375,0.6676025399999995,0.08166503999999991,-0.7354736300000007,-0.08178710999999994
127.0,-0.034417381006090694,-0.2723787502819759,-0.009060436874953006,0.11000000000000011,-9.759999999999994,-0.9299999999999997,0.013471525114670275,-0.010457318219414993,0.016026110985788405,13.9375,0.625,95.4375,0.6676025399999996,0.08166503999999991,-0.7354736300000007,-0.08178710999999994
128.0,-0.03496303293480714,-0.27052436273404,-0.009388779231521168,0.11000000000000011,-9.759999999999994,-0.9299999999999997,0.034279186874953,-0.012905458117151665,0.0002897304308594629,13.9375,0.625,95.4375,0.6676025399999996,0.08166503999999991,-0.7354736300000007,-0.08178710999999994
129.0,-0.033729053876231305,-0.27193794646213987,-0.012014338484096554,0.11000000000000011,-9.759999999999994,-0.9299999999999997,-0.008198307908489359,-0.023753371964057447,0.0034731229791713663,13.9375,0.625,95.4375,0.6676025399999995,0.08166503999999991,-0.7354736300000007,-0.08178710999999994
130.0,-0.03326482019324763,-0.27031648056244817,-0.01174519465749305,0.11000000000000011,-9.759999999999994,-0.9299999999999997,0.00640915494116099,-0.022308626353485225,0.003798511636213249,13.9375,0.625,95.4375,0.6676025399999995,0.08166503999999991,-0.7354736300000007,-0.08178710999999994
131.0,-0.03351939995488384,-0.2701279983457401,-0.01487346792991955,0.11000000000000011,-9.759999999999994,-0.9299999999999997,-0.00076897229114971,-0.012762825212421986,0.004028028423189714,13.9375,0.625,95.4375,0.6676025399999995,0.08166503999999991,-0.7354736300000007,-0.08178710999999994
132.0,-0.033030171441461774,-0.2693989867659221,-0.01721340890292504,0.11000000000000011,-9.759999999999994,-0.9299999999999997,0.018086357526881723,0.006614865309421761,-0.007771965937288519,13.9375,0.625,95.4375,0.6676025399999995,0.08166503999999991,-0.7354736300000007,-0.08178710999999994
133.0,-0.0336515621475299,-0.2706721980976011,-0.016549632491164756,0.11000000000000011,-9.759999999999994,-0.9299999999999997,-0.024067863420181967,-0.011844552456951651,-0.004134121926460637,13.9375,0.625,95.4375,0.6676025399999996,0.08166503999999991,-0.7354736300000007,-0.08178710999999994
134.0,-0.03472220185728252,-0.269885313275434,-0.01209228372434018,0.11000000000000011,-9.759999999999994,-0.9299999999999997,-0.044986597324046924,-0.022742149903188208,0.014699472234754495,13.9375,0.625,95.4375,0.6676025399999996,0.08166503999999991,-0.7354736300000007,-0.08178710999999994
135.0,-0.033427400556432826,-0.27107196029776653,-0.00887953981502369,0.11000000000000011,-9.759999999999994,-0.9299999999999997,-0.04270668847281751,-0.016995638769832316,-0.004623937890066921,13.9375,0.625,95.4375,0.6676025399999996,0.08166503999999991,-0.7354736300000007,-0.08178710999999994
136.0,-0.03337303556658397,-0.27077058425445505,-0.007829310474471766,0.11000000000000011,-9.759999999999994,-0.9299999999999997,-0.008019399954883826,-0.010391758778855552,-0.019983645386871193,13.9375,0.625,95.4375,0.6676025399999995,0.08166503999999991,-0.7354736300000007,-0.08178710999999994
137.0,-0.032450785773366436,-0.2691148206632076,-0.007394804120610573,0.11000000000000011,-9.759999999999994,-0.9299999999999997,-0.030808707421610643,-0.004591040679750357,0.0013915519963907073,13.9375,0.625,95.4375,0.6676025399999995,0.08166503999999991,-0.7354736300000007,-0.08178710999999994
138.0,-0.03258519437551697,-0.27071870065418435,-0.008605590645913229,0.11000000000000011,-9.759999999999994,-0.9299999999999997,-0.033254849988720955,0.0011629163846905784,0.009148009248815703,13.9375,0.625,95.4375,0.6676025399999996,0.08166503999999991,-0.7354736300000007,-0.08178710999999994
139.0,-0.03366232423490489,-0.2704511617414841,-0.01259311790360178,0.11000000000000011,-9.759999999999994,-0.9299999999999997,-0.0021733307015565084,0.007079597150161666,-0.00041979190164674,13.9375,0.625,95.4375,0.6676025399999996,0.08166503999999991,-0.7354736300000007,-0.08178710999999994
140.0,-0.034416770057899095,-0.26979381908414146,-0.011601769869915034,0.11000000000000011,-9.759999999999994,-0.9299999999999997,-0.01287326584705617,-0.0032219880254154448,-0.014726024983081435,13.9375,0.625,95.4375,0.6676025399999996,0.08166503999999991,-0.7354736300000007,-0.08178710999999994
141.0,-0.03384937363430985,-0.2709680567386391,-0.012465034859820008,0.11000000000000013,-9.759999999999994,-0.9299999999999997,-0.016959759592237326,-0.0025128264925373136,-0.014998041160512574,13.9375,0.625,95.4375,0.6676025399999995,0.08166503999999991,-0.7354736300000007,-0.08178710999999994
142.0,-0.032383356171993644,-0.2713308025628678,-0.012323747268619685,0.11000000000000013,-9.759999999999994,-0.9299999999999997,-0.010180988667086404,0.007280633124699084,-0.010365704047998222,13.9375,0.625,95.4375,0.6676025399999995,0.08166503999999991,-0.7354736300000007,-0.08178710999999994
143.0,-0.033052720269619654,-0.2706281804377613,-0.011558895966816047,0.11000000000000013,-9.759999999999994,-0.9299999999999997,0.0039355602570275185,-0.0058820159438539325,0.011923227380467388,13.9375,0.625,95.4375,0.6676025399999996,0.08166503999999991,-0.7354736300000007,-0.08178710999999994
144.0,-0.03348267263950943,-0.2712500252515898,-0.008488072692032732,0.11000000000000011,-9.759999999999994,-0.9299999999999997,0.016700560788713775,-0.010458490489409483,0.02027518989897119,13.9375,0.625,95.4375,0.6676025399999995,0.08166503999999991,-0.7354736300000007,-0.08178710999999994
145.0,-0.033247539793700126,-0.27151086870519925,-0.0075690983807558225,0.11000000000000011,-9.759999999999994,-0.9299999999999997,0.003278940443984679,-0.01047118072857571,-0.0037892040579585746,13.9375,0.625,95.4375,0.6676025399999995,0.08166503999999991,-0.7354736300000007,-0.08178710999999994
146.0,-0.035038550830889546,-0.2706410867358446,-0.008088834216858413,0.11000000000000011,-9.759999999999994,-0.9299999999999997,-0.007621182161252725,-0.0011732408216783216,-0.016759792207120837,13.9375,0.625,95.4375,0.6676025399999996,0.08166503999999991,-0.7354736300000007,-0.08178710999999994
147.0,-0.03488628844274007,-0.27235985788405126,-0.00853522821264757,0.11000000000000011,-9.759999999999994,-0.9299999999999997,-0.02259039683434845,-0.00035810963230318085,-0.026167146026016996,13.9375,0.625,95.4375,0.6676025399999996,0.08166503999999991,-0.7354736300000007,-0.08178710999999994
148.0,-0.033634812767877297,-0.2716491371531692,-0.011210241371531697,0.11000000000000011,-9.759999999999994,-0.9299999999999997,0.0026151519851116602,-0.05022652079103692,-0.006783757237386269,13.934078690127077,0.625,95.4375,0.667607312629521,0.08164690181818172,-0.7354736300000007,-0.08177374522971646
149.0,-0.03465709357846456,-0.27200492048274283,-0.011883224302579144,0.11000000000000011,-9.759999999999994,-0.9299999999999997,-0.005214295952703211,0.025015038724716145,0.0017095387811113618,13.903531280547408,0.625,95.4375,0.6676364256695992,0.08156146252199403,-0.7354736300000007,-0.0816859192277614
150.0,-0.031340502575381624,-0.2691765334799608,-0.01936126776449358,0.11000000000000011,-9.759999999999994,-0.9299999999999997,-0.04740233934412362,-0.006872227235130462,0.02671996602188134,13.908296676441838,0.625,95.4375,0.6676509821896384,0.08153544981427172,-0.7354736300000007,-0.08165871316715534
151.0,-0.0318323558162268,-0.2690349556357619,-0.028199554477780293,0.11000000000000011,-9.759999999999994,-0.9299999999999997,0.037640283103992776,-0.01993929289796225,0.03864640903451387,13.922898338220918,0.625,95.4375,0.6676582604496579,0.08150573652003903,-0.7354736300000007,-0.08162840319648083
152.0,-0.03157906340970859,-0.26789638206775285,-0.032304629734065234,0.11000000000000011,-9.759999999999994,-0.9299999999999997,0.0009762918533079805,0.0038397296587820776,0.007080697919911632,13.930199169110459,0.625,95.4375,0.6676618995796677,0.0814908798729227,-0.7354736300000007,-0.08161324821114359
153.0,-0.03121963923173602,-0.2688553269087542,-0.032743223957941714,0.11000000000000011,-9.759999999999994,-0.9299999999999997,-0.0014210671720752371,-0.006282114642749723,0.007725344072370283,13.933956500488758,0.625,95.4375,0.66766357,0.08148401836754635,-0.7354736300000007,-0.08160608836754632
154.0,-0.03298063227095486,-0.2685164119035085,-0.03348269293430585,0.11000000000000011,-9.759999999999994,-0.9299999999999997,-0.022357749777104616,-0.0007301837946999236,-0.000280812377586571,13.936736314760509,0.625,95.4375,0.66766357,0.08148297418377312,-0.7354736300000007,-0.08160504418377311
155.0,-0.03418093197125456,-0.2690724777015097,-0.036963731608892894,0.11000000000000011,-9.759999999999994,-0.9299999999999997,-0.012293855338210176,0.025447469197469194,-0.018575767870122706,13.9375,0.625,95.4375,0.66766357,0.0814819299999999,-0.7354736300000007,-0.0816039999999999
156.0,-0.03435349328091265,-0.2693947996447994,-0.0343354638193348,0.11000000000000011,-9.759999999999994,-0.9299999999999997,-0.001106605088459927,0.008272742042903332,0.0038324634594795893,13.9375,0.625,95.4375,0.66766357,0.0814819299999999,-0.7354736300000007,-0.0816039999999999
157.0,-0.03525047935935034,-0.2691108072035489,-0.03485728250244381,0.11000000000000011,-9.759999999999994,-0.9299999999999997,0.01888129511617415,-0.005724937025340253,0.00827159231897135,13.9375,0.625,95.4375,0.66766357,0.0814819299999999,-0.7354736300000007,-0.0816039999999999
158.0,-0.03483390198511168,-0.2690020161290321,-0.03365756823821341,0.11000000000000011,-9.759999999999994,-0.9299999999999997,-0.005401868796526054,0.011835065136476426,0.013427613213399504,13.9375,0.625,95.4375,0.66766357,0.0814819299999999,-0.7354736300000007,-0.0816039999999999
159.0,-0.03346906017369729,-0.2699315291563274,-0.03265880893300249,0.11000000000000011,-9.759999999999994,-0.9299999999999997,0.025703221929280397,0.02192249534739454,0.025991101892059554,13.9375,0.625,95.4375,0.66766357,0.0814819299999999,-0.7354736300000007,-0.0816039999999999
160.0,-0.03411290322580646,-0.26997332506203453,-0.030135856079404486,0.11000000000000011,-9.759999999999994,-0.9299999999999997,0.041218207196029776,-0.00024813895781637847,0.011065446650124069,13.9375,0.625,95.4375,0.66766357,0.0814819299999999,-0.7354736300000007,-0.0816039999999999
161.0,-0.03547828784119107,-0.2699916253101735,-0.03138802729528537,0.11000000000000011,-9.759999999999994,-0.9299999999999997,0.01741431451612903,-0.0039392059553349885,0.023460763027295287,13.9375,0.625,95.4375,0.66766357,0.0814819299999999,-0.7354736300000007,-0.0816039999999999
162.0,-0.03462748138957818,-0.26977745037220824,-0.031162996277915644,0.11000000000000011,-9.759999999999994,-0.9299999999999997,-0.012229567307692306,-0.009615384615384616,0.010055443548387097,13.9375,0.625,95.4375,0.66766357,0.0814819299999999,-0.7354736300000007,-0.0816039999999999
163.0,-0.03417974565756825,-0.26885770781637697,-0.030622441066997533,0.11000000000000011,-9.759999999999994,-0.9299999999999997,0.015015799472704714,-0.01735421836228288,-0.0033314593672456577,13.9375,0.625,95.4375,0.66766357,0.0814819299999999,-0.7354736300000007,-0.0816039999999999
164.0,-0.03369681930972254,-0.2677740243627339,-0.031378317918640514,0.11000000000000011,-9.759999999999994,-0.9299999999999997,0.0335233147229115,0.009880442138506655,0.007999661628693887,13.9375,0.625,95.4375,0.66766357,0.0814819299999999,-0.7354736300000007,-0.0816039999999999
165.0,-0.03343898037446425,-0.26848998984886063,-0.03127724828934508,0.11000000000000011,-9.759999999999994,-0.9299999999999997,0.0054558260959470615,-0.0031708211143695025,0.008047597563726597,13.9375,0.625,95.4375,0.66766357,0.0814819299999999,-0.7354736300000007,-0.0816039999999999
166.0,-0.034594180013534856,-0.2696482207308819,-0.03075773084442441,0.11000000000000011,-9.759999999999994,-0.9299999999999997,-0.021876615488006616,-0.005997631400857207,-0.006630667719377397,13.9375,0.625,95.4375,0.66766357,0.0814819299999999,-0.7354736300000007,-0.0816039999999999
167.0,-0.03636408752537785,-0.27046679026618525,-0.030599709094668793,0.11000000000000011,-9.759999999999994,-0.9299999999999997,0.0065709974669148075,-0.004735788405143244,0.0026865271824949247,13.9375,0.625,95.4375,0.66766357,0.0814819299999999,-0.7354736300000007,-0.0816039999999999
168.0,-0.03669476088427702,-0.26971032596435807,-0.02823281825701182,0.11000000000000011,-9.759999999999994,-0.9299999999999997,-0.057409920388751035,0.005950576641100835,0.004572947214076246,13.9375,0.625,95.4375,0.66766357,0.0814819299999999,-0.7354736300000007,-0.0816039999999999
169.0,-0.035554125310173705,-0.2698258374689824,-0.03254993796526055,0.11000000000000011,-9.759999999999994,-0.9299999999999997,0.0006969215260545919,0.02153283964019851,-0.008618951612903224,13.9375,0.625,95.4375,0.66766357,0.0814819299999999,-0.7354736300000007,-0.0816039999999999
170.0,-0.03590113213399504,-0.2691312810173696,-0.03268687965260547,0.11000000000000011,-9.759999999999994,-0.9299999999999997,0.015562480614143922,0.002097064981389578,0.0025143455334987594,13.9375,0.625,95.4375,0.66766357,0.0814819299999999,-0.7354736300000007,-0.0816039999999999
171.0,-0.03508064516129033,-0.27034708436724547,-0.03252946650124071,0.11000000000000011,-9.759999999999994,-0.9299999999999997,0.0050790942928039704,-0.009231544665012408,8.335918114143939e-05,13.9375,0.625,95.4375,0.66766357,0.0814819299999999,-0.7354736300000007,-0.0816039999999999
172.0,-0.035072580645161305,-0.26983111042183605,-0.032789547146402004,0.11000000000000011,-9.759999999999994,-0.9299999999999997,-0.002020006203473945,-0.0005214795285359806,-0.01224119882133995,13.9375,0.625,95.4375,0.66766357,0.0814819299999999,-0.7354736300000007,-0.0816039999999999
173.0,-0.03476333746898264,-0.27146518300248124,-0.03315283808933004,0.11000000000000011,-9.759999999999994,-0.9299999999999997,-0.027359258684863524,-0.0005088787220843675,-0.02284671603598015,13.9375,0.625,95.4375,0.66766357,0.0814819299999999,-0.7354736300000007,-0.0816039999999999
174.0,-0.03465714527408077,-0.26971849387171953,-0.03475250958718701,0.11000000000000011,-9.759999999999994,-0.9299999999999997,-0.024399860891796375,0.014298537484021354,-0.0120701039551846,13.9375,0.625,95.4375,0.66766357,0.0814819299999999,-0.7354736300000007,-0.0816039999999999
175.0,-0.03368092995713965,-0.26940018986389935,-0.033460622039251084,0.11000000000000011,-9.759999999999994,-0.9299999999999997,0.024129163846905784,0.025069554101812164,-0.013812657436649372,13.9375,0.625,95.4375,0.66766357,0.0814819299999999,-0.7354736300000007,-0.0816039999999999
176.0,-0.03394840542521996,-0.26862689393939376,-0.03104792888563051,0.11000000000000011,-9.759999999999994,-0.9299999999999997,-0.006980083088954056,-0.009316959921798634,-0.00887593169599218,13.9375,0.625,95.4375,0.66766357,0.0814819299999999,-0.7354736300000007,-0.0816039999999999
177.0,-0.034749598184074,-0.2692441231483569,-0.032620001973832635,0.11000000000000011,-9.759999999999994,-0.9299999999999997,0.002095023591999399,0.0011708469621776064,-0.003067385823182194,13.9375,0.625,95.4375,0.66766357,0.0814819299999999,-0.7354736300000007,-0.0816039999999999
178.0,-0.03309575907963006,-0.2695741785096622,-0.03236874013083692,0.11000000000000011,-9.759999999999994,-0.9299999999999997,0.014832794054064215,0.008029592215580118,0.0009712020170689526,13.9375,0.625,95.4375,0.66766357,0.0814819299999999,-0.7354736300000007,-0.0816039999999999
179.0,-0.032903846153846165,-0.2707717121588088,-0.037275279156327557,0.11000000000000011,-9.759999999999994,-0.9299999999999997,0.0379948239764268,0.009496646246898263,0.01490820797146402,13.9375,0.625,95.4375,0.6676878042431764,0.0814819299999999,-0.7354493997270468,-0.0816039999999999
180.0,-0.033596198492367856,-0.270791983889766,-0.037199620272200924,0.11000000000000011,-9.759999999999994,-0.9299999999999997,0.01735882984622904,-0.006066891777577261,0.03457208953680728,13.9375,0.625,95.4375,0.6677071916377174,0.0814819299999999,-0.735430015508684,-0.0816039999999999
181.0,-0.033635762087374996,-0.26852304684562733,-0.03568448755545531,0.11000000000000011,-9.759999999999994,-0.9299999999999997,0.020692345289119483,0.006096323031806903,0.01685277088502895,13.9375,0.625,95.4375,0.667716885334988,0.0814819299999999,-0.7354203233995027,-0.0816039999999999
182.0,-0.03331664034889842,-0.2696610271448979,-0.037221896383186716,0.11000000000000011,-9.759999999999994,-0.9299999999999997,-0.00024625911722686057,-0.003093277690051883,0.0108767576509512,13.9375,0.625,95.4375,0.6677217321836232,0.0814819299999999,-0.735415477344912,-0.0816039999999999
183.0,-0.03397954733438605,-0.26920490262425734,-0.03983231821941499,0.11000000000000011,-9.759999999999994,-0.9299999999999997,-0.015677870516580195,-0.005200578990901572,0.015151515151515152,13.9375,0.625,95.4375,0.6677241556079407,0.0814819299999999,-0.7354130543176166,-0.08160399999999988
184.0,-0.033743740130836905,-0.2687124595834272,-0.042855553049101436,0.11000000000000011,-9.759999999999994,-0.9299999999999997,0.02787192646063614,0.0050337431385818485,0.012013591247462214,13.9375,0.625,95.4375,0.6677246100000004,0.0814819299999999,-0.7354125999999988,-0.08160399999999987
185.0,-0.03458260019550343,-0.2693440108278816,-0.04187367471238438,0.11000000000000011,-9.759999999999994,-0.9299999999999997,0.008492179863147604,0.01127434393563426,0.027499248063764192,13.9375,0.625,95.4375,0.6677246100000004,0.0814819299999999,-0.7354125999999988,-0.08160399999999988
186.0,-0.03326400481239192,-0.26933453643131045,-0.04285991427926911,0.11000000000000011,-9.759999999999994,-0.9299999999999997,0.02870328596135048,-0.007529701481314384,0.023194413113767954,13.9375,0.625,95.4375,0.6677246100000004,0.0814819299999999,-0.7354125999999988,-0.0816039999999999
187.0,-0.034475825250018806,-0.26918565305662057,-0.039575456801263245,0.11000000000000011,-9.759999999999994,-0.9299999999999997,-0.031265978645010906,-0.020196537333634107,-0.0016768178058500643,13.9375,0.625,95.4375,0.6677246100000004,0.0814819299999999,-0.7354125999999988,-0.08160399999999988
188.0,-0.032482216708023176,-0.2687389277389276,-0.0405475599669148,0.11000000000000011,-9.759999999999994,-0.9299999999999997,0.0076692796450860985,0.012837431385818485,0.0033226182419730807,13.9375,0.625,95.4375,0.6677246100000004,0.0814819299999999,-0.7354125999999988,-0.08160399999999988
189.0,-0.03118490112038501,-0.27003158132190375,-0.040498533724340174,0.11000000000000011,-9.759999999999994,-0.9299999999999997,0.013110948191593355,0.0007152793443116036,0.010937852470110535,13.9375,0.625,95.4375,0.6677246100000004,0.0814819299999999,-0.7354125999999988,-0.0816039999999999
190.0,-0.03261703887510341,-0.2692337769757124,-0.04015865854575532,0.11000000000000011,-9.759999999999994,-0.9299999999999997,-0.00744792841567035,0.0040040604556733595,0.021388826227535906,13.9375,0.625,95.4375,0.6677246100000004,0.0814819299999999,-0.7354125999999988,-0.08160399999999988
191.0,-0.03362230242875405,-0.2688472817505074,-0.03978765320700804,0.11000000000000011,-9.759999999999994,-0.9299999999999997,-0.005476915557560718,0.00191649748101361,0.02115243627340401,13.9375,0.625,95.4375,0.6677246100000004,0.0814819299999999,-0.7354125999999988,-0.08160399999999987
192.0,-0.03389815023685992,-0.27016411008346475,-0.04148473569441312,0.11000000000000011,-9.759999999999994,-0.9299999999999997,0.011298076923076923,0.00046949018723212274,-0.004132359575907964,13.9375,0.625,95.4375,0.6677246100000004,0.0814819299999999,-0.7354125999999988,-0.08160399999999988
193.0,-0.03342497556207235,-0.27010935032709205,-0.042203379953379944,0.11000000000000011,-9.759999999999994,-0.9299999999999997,-0.014614703173170915,-0.005366239942852846,-0.0012282408451763293,13.9375,0.625,95.4375,0.6677246100000004,0.0814819299999999,-0.7354125999999988,-0.08160399999999988
194.0,-0.03366752199413491,-0.27034762952101643,-0.042342986314760495,0.11000000000000011,-9.759999999999994,-0.9299999999999997,-0.0007904142228739005,-0.005445075757575758,-0.01312774926686217,13.9375,0.625,95.4375,0.6677246100000004,0.0814819299999999,-0.7354125999999988,-0.08160399999999987
195.0,-0.03399110365441012,-0.270912892886683,-0.04172976821565531,0.11000000000000011,-9.759999999999994,-0.9299999999999997,-0.01732199671967817,-0.0008596158545755321,0.009293990619595457,13.9375,0.625,95.4375,0.6677246100000004,0.0814819299999999,-0.7354125999999988,-0.08160399999999988
196.0,-0.03501901223776225,-0.269448626306489,-0.0415074512181367,0.11000000000000011,-9.759999999999994,-0.9299999999999997,-0.010119284697157682,-0.007858702956989247,0.0038146958887886303,13.9375,0.625,95.4375,0.6677246100000004,0.0814819299999999,-0.7354125999999988,-0.0816039999999999
197.0,-0.03450597789307468,-0.2692252049026241,-0.04427904353710804,0.11000000000000011,-9.759999999999994,-0.9299999999999997,0.00397586284683059,-0.012334574028122415,-0.01697496052334762,13.9375,0.625,95.4375,0.6677246100000004,0.0814819299999999,-0.7354125999999988,-0.0816039999999999
198.0,-0.032597563726596,-0.27023821339950355,-0.04537754718399879,0.11000000000000011,-9.759999999999994,-0.9299999999999997,-0.001799947364463492,-0.006992067072712234,0.00370093616061358,13.9375,0.625,95.4375,0.6677246100000004,0.0814819299999999,-0.7354125999999988,-0.08160399999999988
199.0,-0.0322699451086548,-0.2684418377321601,-0.04550823370178208,0.11000000000000011,-9.759999999999994,-0.9299999999999997,-0.0328755921497857,-0.007870892548311904,-0.0012416347093766444,13.9375,0.625,95.4375,0.6677246100000004,0.0814819299999999,-0.7354125999999988,-0.0816039999999999
200.0,-0.03302052785923755,-0.26880757951725676,-0.047663433340852684,0.11000000000000011,-9.759999999999994,-0.9299999999999997,-0.012962440785021428,-0.021104030378223927,-0.007975223701030152,13.9375,0.625,95.4375,0.6677246100000004,0.0814819299999999,-0.7354125999999988,-0.08160399999999988
201.0,-0.0315698924731183,-0.26998345740281204,-0.047565531242950584,0.11000000000000011,-9.759999999999994,-0.9299999999999997,0.013115647793067148,-0.015695729002180615,0.004336792240018046,13.9375,0.625,95.4375,0.6677246100000004,0.0814819299999999,-0.7354125999999988,-0.08160399999999987
202.0,-0.03184946236559141,-0.26952274607113297,-0.0500420708323934,0.11000000000000011,-9.759999999999994,-0.9299999999999997,0.02541638469057824,-0.008088249116474922,0.005797428378073539,13.9375,0.625,95.4375,0.6677246100000004,0.0814819299999999,-0.7354125999999988,-0.08160399999999988
203.0,-0.031468343484472534,-0.26910658696142553,-0.05079432664110082,0.11000000000000011,-9.759999999999994,-0.9299999999999997,0.006394042785171818,-0.010961467967516354,-0.01733424505601925,13.9375,0.625,95.4375,0.6677246100000004,0.0814819299999999,-0.7354125999999988,-0.0816039999999999
204.0,-0.032500545153770974,-0.26890159034513855,-0.04882689487931423,0.11000000000000011,-9.759999999999994,-0.9299999999999997,0.025206195014662758,0.0010127053725844052,0.003171643544627416,13.9375,0.625,95.4375,0.6677246100000004,0.0814819299999999,-0.7354125999999988,-0.08160399999999988
205.0,-0.032753205128205135,-0.2693066113993531,-0.05082840345138731,0.11000000000000011,-9.759999999999994,-0.9299999999999997,-0.0041063355327468215,-0.003846653178810437,-0.0016216562335513948,13.9375,0.625,95.4375,0.6677246100000004,0.0814819299999999,-0.7354125999999988,-0.08160399999999987
206.0,-0.03185558594631177,-0.2694749088277312,-0.052554964189036754,0.11000000000000011,-9.759999999999994,-0.9299999999999997,0.00036007759042033273,0.0017729099697345663,0.016066615675990676,13.9375,0.625,95.4375,0.6677246100000004,0.0814819299999999,-0.7354125999999988,-0.08160399999999988
207.0,-0.03402056545604933,-0.26826674937965245,-0.04967565230468455,0.11000000000000011,-9.759999999999994,-0.9253079178885635,0.04503604594330401,-0.03086709996992255,-0.005257679148808182,13.9375,0.625,95.40866324535679,0.6677818861681326,0.0814819299999999,-0.7353558010166173,-0.08163311781036159
208.0,-0.03426075268817205,-0.26688538611925694,-0.050597507331378286,0.11000000000000011,-9.759999999999994,-0.9224926686217017,-0.011493462854349948,-0.019126496823069404,0.0033678519061583565,13.9375,0.625,95.39082355816227,0.6678162519550336,0.0814819299999999,-0.7353211966373411,-0.08165006342130979
209.0,-0.03457416911045945,-0.2655614613880742,-0.05389846041055718,0.11000000000000011,-9.759999999999994,-0.9210850439882708,-0.0003551136363636343,-0.012786000122189639,0.011398002199413488,13.9375,0.625,95.381903714565,0.6678334348484841,0.0814819299999999,-0.7353038944477028,-0.08165853622678389
210.0,-0.03442784701857284,-0.26504857038123153,-0.05487689393939393,0.11000000000000011,-9.759999999999994,-0.9203812316715554,0.02086960838220919,-0.03752081042277615,-0.006901805351906157,13.9375,0.625,95.37744379276637,0.6678420262952094,0.0814819299999999,-0.7352952433528839,-0.08166277262952093
211.0,-0.03603066959921799,-0.2651832844574779,-0.05683040078201368,0.11000000000000011,-9.759999999999994,-0.9200293255131977,0.008385263929618768,-0.012516801075268818,0.013608870967741934,13.9375,0.625,95.37521383186706,0.667846322018572,0.0814819299999999,-0.7352909178054743,-0.08166489083088946
212.0,-0.034853066959921804,-0.2657025904203323,-0.05685117302052785,0.11000000000000011,-9.759999999999994,-0.9200000000000013,-0.013356854838709676,0.00783922898338221,-0.010424303519061583,13.9375,0.625,95.375,0.6678466799999991,0.0814819299999999,-0.7352905300000001,-0.08166503999999991
213.0,-0.03556191959921799,-0.2654197214076245,-0.058015029325513195,0.11000000000000011,-9.759999999999994,-0.9200000000000013,0.010031005620723362,0.0035530455767350927,0.004395008553274683,13.9375,0.625,95.375,0.6678466799999991,0.0814819299999999,-0.7352905300000001,-0.08166503999999991
214.0,-0.036196631325663586,-0.2654978569817278,-0.05969315362057297,0.11000000000000011,-9.759999999999994,-0.9200000000000013,-0.019491127152417475,0.018248200052635534,0.0003936503684487556,13.9375,0.625,95.375,0.6678466799999991,0.0814819299999999,-0.7352905300000001,-0.08166503999999991
215.0,-0.035923340100759454,-0.26509741333934866,-0.05835097563726596,0.11000000000000011,-9.759999999999994,-0.9200000000000013,-0.03580250394766524,0.008635341473043085,0.0025489757218587865,13.9375,0.625,95.375,0.6678466799999991,0.0814819299999999,-0.7352905300000001,-0.08166503999999991
216.0,-0.0353034626663659,-0.2650810775246258,-0.060626762350552664,0.11000000000000011,-9.759999999999994,-0.9200000000000013,-0.005433209263854424,-0.00034738866644108603,-0.001756755089668396,13.9375,0.625,95.375,0.6678466799999991,0.0814819299999999,-0.7352905300000001,-0.08166503999999991
217.0,-0.034233476201218145,-0.2648639747349424,-0.059821415143995776,0.11000000000000011,-9.759999999999994,-0.9200000000000013,-0.03642567110309045,-0.0020494962027220094,-0.004237160688773592,13.9375,0.625,95.375,0.6678466799999991,0.0814819299999999,-0.7352905300000001,-0.08166503999999991
218.0,-0.03392224979321755,-0.26552507707346407,-0.0630245883149109,0.11000000000000011,-9.759999999999994,-0.9200000000000013,-0.010761147454695839,-0.0024983081434694337,-0.0004389427776524549,13.9375,0.625,95.375,0.6678466799999991,0.0814819299999999,-0.7352905300000001,-0.08166503999999991
219.0,-0.03383705541770059,-0.2660876005714714,-0.06458921723437852,0.11000000000000011,-9.759999999999994,-0.9200000000000013,-0.007102037747199036,-0.000768384840965486,-0.018038950297014814,13.9375,0.625,95.375,0.6678466799999991,0.0814819299999999,-0.7352905300000001,-0.08166503999999991
220.0,-0.03331393337844952,-0.26633070155650795,-0.06351650500037595,0.11000000000000011,-9.759999999999994,-0.9200000000000013,-0.017419542822768627,0.0030829385668095345,-0.017878223926611023,13.9375,0.625,95.375,0.6678466799999991,0.0814819299999999,-0.7352905300000001,-0.08166503999999991
221.0,-0.03380336867433642,-0.26586262124971793,-0.06473095721482816,0.11000000000000011,-9.759999999999994,-0.9200000000000013,-0.01803049101436198,-0.01320729002180615,-0.025735017670501542,13.9375,0.625,95.375,0.6678466799999991,0.0814819299999999,-0.7352905300000001,-0.08166503999999991
222.0,-0.034196405744792845,-0.2656708023159635,-0.06425941800135349,0.11000000000000011,-9.759999999999994,-0.9200000000000013,0.02773328821715918,-0.015844236408752536,-0.015189111963305512,13.9375,0.625,95.375,0.6678466799999991,0.0814819299999999,-0.7352905300000001,-0.08166503999999991
223.0,-0.035453041582073845,-0.2667857733664184,-0.06489149560117301,0.11000000000000011,-9.759999999999994,-0.9200000000000013,0.003196668922475372,-0.0039053688247236637,-0.0021975336491465523,13.9375,0.625,95.375,0.6678466799999991,0.0814819299999999,-0.7352905300000001,-0.08166503999999991
224.0,-0.03536423791262501,-0.2672564102564101,-0.06671621926460636,0.11000000000000011,-9.759999999999994,-0.9200000000000013,0.000683322054289795,-0.00893159260094744,-0.016421347469734567,13.9375,0.625,95.375,0.6678466799999991,0.0814819299999999,-0.7352905300000001,-0.08166503999999991
225.0,-0.0357324610872998,-0.2654288292352807,-0.06729167606586961,0.11000000000000011,-9.759999999999994,-0.9200000000000013,0.007251485074065719,-0.010528047221595609,-0.00743946913301752,13.9375,0.625,95.375,0.6678466799999991,0.0814819299999999,-0.7352905300000001,-0.08166503999999991
226.0,-0.035533799533799544,-0.266537634408602,-0.06605398902173094,0.11000000000000011,-9.759999999999994,-0.9200000000000013,-0.0019602037747199043,0.0010663395744040906,0.008049007444168735,13.9375,0.625,95.375,0.6678466799999991,0.0814819299999999,-0.7352905300000001,-0.08166503999999991
227.0,-0.035677456951650505,-0.26640664711632445,-0.06353285961350477,0.11000000000000011,-9.759999999999994,-0.9200000000000013,-0.03082492104669524,0.0018314346943379203,0.006117001278291601,13.9375,0.625,95.375,0.6678466799999991,0.0814819299999999,-0.7352905300000001,-0.08166503999999991
228.0,-0.03578188209639824,-0.267377847958493,-0.06722939694713886,0.11000000000000011,-9.759999999999994,-0.9200000000000013,0.016682527821640723,-0.010449798857056922,-0.017151195578614935,13.9375,0.625,95.375,0.6678466799999991,0.0814819299999999,-0.7352905300000001,-0.08166503999999991
229.0,-0.03139894916911047,-0.26645830513572444,-0.07716346153846154,0.11000000000000011,-9.759999999999994,-0.9200000000000013,-0.08204805107526882,-0.02113681009850365,-0.015410698172794945,13.9375,0.625,95.375,0.6678466799999991,0.0814819299999999,-0.7352905300000001,-0.08166503999999991
230.0,-0.029393022971652017,-0.2663954056695991,-0.10555443548387097,0.11000000000000011,-9.759999999999994,-0.9190322580645168,0.08629452284946235,-0.009878268572825024,-0.0006644061583577715,13.953629032258064,0.625,95.36895161290323,0.667887041290322,0.08160449306451609,-0.7352280174193553,-0.08180187661290318
231.0,-0.010293006388772527,-0.264328969417679,-0.1360077721337802,0.10646082949308765,-9.761843317972343,-0.8775622119815676,0.6613028961126239,0.215154078951962,0.11498470447563189,13.853859447004607,0.6111751152073732,95.13004032258064,0.6695540185437783,0.0810157794953917,-0.7338106295806455,-0.08149314280414745
232.0,-0.01245878718056138,-0.26132635106828656,-0.14215214355536937,0.09761290322580651,-9.766082949308746,-0.8246059907834105,0.3117335873132244,0.28680821027091186,0.09014824221477447,14.364343317972349,0.5660138248847926,94.81934043778801,0.671175507391705,0.08465647502419353,-0.7315250346474655,-0.08476799507027649
233.0,0.0025471287488602456,-0.2630335107650098,-0.13968814123890028,0.08369259962049339,-9.763572783952283,-0.837540187042559,0.28200872770295804,-0.19068482735836267,0.07938155742502279,14.17748712388181,0.4987327188940093,94.90172429859041,0.6708165752897806,0.08444510004530355,-0.7320193764793306,-0.08363669726948361
234.0,-0.0019071595718210283,-0.2621966768893402,-0.13600764424691397,0.08090022373899011,-9.761786391976138,-0.8445669158611933,0.30319446722026555,0.1531153980685317,0.09817698587318895,14.260189758378074,0.4790546117339569,94.94481376219844,0.6704915603940476,0.08519545886473172,-0.7321922226859825,-0.0840769220579484
235.0,-0.001619173768540787,-0.26210919452407444,-0.13924653304157117,0.07996624090175314,-9.760893195988068,-0.8461846676080165,0.2523268687683214,0.06363872221974973,0.06822281753336866,14.296355735268442,0.45525311231859134,94.9665475060992,0.6703334331002495,0.08558314121997443,-0.7322627311514593,-0.08432694555975896
236.0,-0.001977789649247352,-0.26149929772286673,-0.13658640016133855,0.07960984856147565,-9.760388994307394,-0.8482743614537782,0.12449292747171828,-0.007826376217314076,0.021424196785117512,14.313342038141133,0.4437843902606782,94.9847858498238,0.6702029070593414,0.0857856630224296,-0.732341301995085,-0.0844525968328749
237.0,-0.0026778349167895735,-0.2619017225941522,-0.13715495123274302,0.07965285054801896,-9.760033206831114,-0.8503261208190555,0.04472054207687297,-0.032196598246905885,0.011201729728964287,14.304323668840151,0.43924530572941745,94.99988140417457,0.6701130190319746,0.08576395353886457,-0.7324298655735797,-0.08440825937035452
238.0,-0.0028463063377001745,-0.26173280310605773,-0.13451107632938397,0.07997111218103037,-9.759999999999994,-0.8501203659123745,-0.013381995076220524,0.06620046532367488,0.025076186151354662,14.313630050738862,0.4383726528647087,95.0,0.6701046274097253,0.0858165901328099,-0.7324229867597505,-0.08447261326202737
239.0,-0.0007541779457102032,-0.2648919561621174,-0.13906987837431384,0.08103225806451614,-9.759999999999994,-0.8534143920595539,-0.061298928725844054,0.2417288482686668,0.0345388986013986,14.394665012406946,0.4533808933002481,95.01389578163773,0.6699571631066996,0.08623925328039703,-0.7324616120148888,-0.08489984447642684
240.0,-0.0035408956341628976,-0.2581222790631298,-0.1426987458484647,0.07731758291685595,-9.766542480690585,-0.7963141928494043,0.6407715243485028,1.223039571794488,0.10707805902355254,15.140357966658511,0.4363536679131863,94.66573934924685,0.6715724523075525,0.09098344324656625,-0.7298000111028555,-0.08952035225233289
241.0,-0.003434548292114589,-0.27198459567385386,-0.1183834883130967,0.08940558774654112,-9.771826255811481,-0.7451014181215645,0.35165065011338087,3.266542717638848,0.2787452166803578,17.24211612429258,0.515583484420579,94.36092977183951,0.6716159099672979,0.10311821389239491,-0.7262397816296426,-0.10207906520703254
242.0,-0.005696060962326581,-0.2663310221239769,-0.09631193028324306,0.09345454702895074,-9.771822431318546,-0.74399297180038,-0.016221009386974822,1.100085811031322,0.05797893175357299,19.450987351533854,0.5382528221541885,94.35087161803756,0.6695629272650889,0.11682001330664624,-0.724075470078496,-0.11497572773675609
243.0,0.00024092357553270188,-0.2642334485008936,-0.09419946465286298,0.09188856383705599,-9.771072505981849,-0.7557061633195454,0.029050419060178273,0.4588436142155633,0.12512216382400057,20.18281894458413,0.5201344755932233,94.41737129288975,0.6685648025866011,0.1217000052114854,-0.7236999713882215,-0.11916761908831947
244.0,-0.0001351213387845178,-0.2641340939774939,-0.09616424845546376,0.09107331417659248,-9.7706975433135,-0.761456059327267,0.03642347255738442,0.17998011976286848,0.04990599506336505,20.4907581075278,0.5105790243971079,94.45018688713967,0.6681245001890816,0.1238485970077277,-0.7235650694459721,-0.12096439925383709
245.0,3.239389671405651e-05,-0.2627569082406254,-0.09606653690728315,0.09079790197698315,-9.770305609457745,-0.7661687384323754,0.011519629543991201,0.031738347373133836,0.020142465605634926,20.602844410419966,0.5065815385502123,94.47769169436492,0.667869493236294,0.12468090203407728,-0.7236027386212146,-0.1216261731162415
246.0,-0.0004146470640159276,-0.262667671972721,-0.09746322868342505,0.09022440392706865,-9.77004675081813,-0.7692332865825161,0.04155991419753692,-0.16989087934038843,0.005058528428093645,20.597806982054877,0.5018408134642356,94.49552945301542,0.667775223505022,0.12475408213060465,-0.7236966577043327,-0.12158758360297266
247.0,-0.00015929769155575578,-0.26163495375592144,-0.09966238063012255,0.08999999999999991,-9.76999999999999,-0.7700000000000009,0.018978988081810665,0.08032135874877812,0.0045825813970975255,20.557848569441312,0.5,94.5,0.6678150749876672,0.12450265136705754,-0.7237564139926317,-0.12131287296133164
248.0,-0.0002531581321903902,-0.26109606925332723,-0.09829648845777877,0.08999999999999991,-9.76999999999999,-0.770000000000001,-0.01656744633055117,0.048805596285435,0.016373646514775547,20.55782213418302,0.5,94.5,0.6678341142704705,0.12446286851588453,-0.7237580036678705,-0.12128087557157491
249.0,-3.848973607038119e-05,-0.26185200484998866,-0.10044601097826902,0.08999999999999991,-9.76999999999999,-0.770000000000001,0.030898969142416723,-0.0029932936686968906,-0.001017581209113468,20.55954071969697,0.5,94.5,0.6678419420161281,0.12445167029020027,-0.7237571082135883,-0.12127380930687928
250.0,0.00037176197458455517,-0.2607522299608992,-0.09729105571847504,0.08999999999999991,-9.76999999999999,-0.770000000000001,0.029173730755131966,0.015865560850439886,0.008839656647116324,20.561020359848484,0.5,94.5,0.6678452955241927,0.12444920627413233,-0.7237559941067945,-0.12127336578247191
251.0,0.0003574046920821115,-0.2621218230694036,-0.09459921798631472,0.08999999999999991,-9.76999999999999,-0.7700000000000011,0.013437041788856303,-0.04506124755620723,-0.008839656647116325,20.561980694037146,0.5,94.5,0.6678466799999991,0.1244491586461387,-0.7237552678396879,-0.12127468223851419
252.0,0.0005781684713136325,-0.26240101229415735,-0.09085074065719226,0.08999999999999991,-9.76999999999999,-0.770000000000001,0.016392180568087826,-0.0028562121682081353,0.010980060765847056,20.5625,0.5,94.5,0.6678466799999991,0.12445067999999988,-0.7237548800000008,-0.12127686000000003
253.0,-0.00026430323708549525,-0.26277882030603794,-0.09079182645311677,0.08999999999999991,-9.76999999999999,-0.7700000000000009,0.018900607540980524,-0.020469951335626742,0.01339217528103617,20.5625,0.5,94.5,0.6678466799999991,0.12445067999999987,-0.7237548800000008,-0.12127686000000003
254.0,9.993232573877724e-05,-0.26267599067599057,-0.09011609895480863,0.08999999999999991,-9.76999999999999,-0.770000000000001,0.03655397022332506,0.0014155199639070588,0.00015273704789833895,20.5625,0.5,94.5,0.6678466799999991,0.12445067999999988,-0.7237548800000008,-0.12127686000000001
255.0,-0.0015503421309872923,-0.2637250169185652,-0.07863478457026843,0.08999999999999991,-9.76999999999999,-0.769761786600497,-0.0446969696969697,-0.010233382209188662,-0.0205612264080006,20.5625,0.5,94.49900744416873,0.6677831910471463,0.1244666738064515,-0.7238077068387097,-0.12126086619354845
256.0,0.00034897360703812304,-0.2652740431611398,-0.0643638243476953,0.08999999999999991,-9.76999999999999,-0.7750421836228295,-0.05410251710654937,-0.040154569892473124,-0.016924674787578014,20.5625,0.5,94.5317617866005,0.6674684116526057,0.12452168077419337,-0.724096312774193,-0.12120585922580654
257.0,0.0004002932551319648,-0.2668032746823068,-0.05681466651627941,0.08999999999999991,-9.76999999999999,-0.7776823821339958,-0.022383144409354086,-0.009422818444995866,-0.012417052033987519,20.5625,0.5,94.54813895781638,0.6673110219553353,0.12454918425806433,-0.7242406157419347,-0.12117835574193558
258.0,0.0005351342206180915,-0.2657341435446272,-0.05179443003233325,0.08999999999999991,-9.76999999999999,-0.7790024813895788,-0.0005836317580269184,0.00034442204301075256,0.0029571067373486744,20.5625,0.5,94.55632754342432,0.6672323271067002,0.1245629359999998,-0.7243127672258055,-0.12116460400000009
259.0,0.0012591951492835988,-0.26482344612983255,-0.046924632794364846,0.08999999999999991,-9.76999999999999,-0.7796625310173704,-0.005340021662130793,-0.01837400819458897,-0.007152567938045304,20.5625,0.5,94.56042183622827,0.6671929796823826,0.12456981187096755,-0.7243488429677409,-0.12115772812903236
260.0,0.0013144610982150002,-0.2655928645041221,-0.047854375950532296,0.08999999999999991,-9.76999999999999,-0.7800000000000007,-0.0022047502851596894,-0.004394820474465701,-0.005918095383414711,20.5625,0.5,94.5625,0.6671752900000005,0.1245727499999998,-0.724365229999999,-0.1211547900000001
261.0,0.000706559607806601,-0.26615712930388546,-0.044504718051945155,0.08999999999999991,-9.76999999999999,-0.7800000000000007,-0.008042372581104434,-0.014796925622610955,-0.009084382336075416,20.5625,0.5,94.5625,0.6671752900000004,0.1245727499999998,-0.7243652299999991,-0.1211547900000001
262.0,0.000587771119039777,-0.2659309219720418,-0.0436965277604639,0.08999999999999991,-9.76999999999999,-0.7800000000000007,-0.010728692494026162,-0.018843872240585875,0.005142982529232764,20.5625,0.5,94.5625,0.6671752900000005,0.12457274999999979,-0.724365229999999,-0.1211547900000001
263.0,0.0005221734007109556,-0.26702005155674047,-0.04449590656013268,0.08999999999999991,-9.76999999999999,-0.7800000000000007,-0.0066980931452761076,-0.0006285118026750722,0.014683774143028294,20.5625,0.5,94.5625,0.6671752900000005,0.12457274999999979,-0.724365229999999,-0.1211547900000001
264.0,6.857889598503038e-05,-0.26635081662124216,-0.04090039864947321,0.08999999999999991,-9.76999999999999,-0.7800000000000007,-0.016827844699589145,0.0012628772932514343,0.018707001535614044,20.5625,0.5,94.5625,0.6671752900000005,0.12457274999999979,-0.724365229999999,-0.1211547900000001
265.0,9.384279786844567e-05,-0.2675203214619858,-0.04276037302200707,0.08999999999999991,-9.76999999999999,-0.7800000000000007,0.016942777402066466,-0.044173151924093886,0.01788327744274499,20.5625,0.5,94.5625,0.6671752900000005,0.12457274999999979,-0.724365229999999,-0.1211547900000001
266.0,0.0004539035113631886,-0.2651264068592696,-0.04053713714600811,0.08999999999999991,-9.76999999999999,-0.7800000000000007,-0.011762037385777305,0.0377388922121785,0.003507586023967075,20.5625,0.5,94.5625,0.6671752900000005,0.12457274999999979,-0.724365229999999,-0.1211547900000001
267.0,-0.00026447969593130886,-0.26593769939737666,-0.03812139115364922,0.08999999999999991,-9.76999999999999,-0.7800000000000007,-0.006180287846114459,0.016191774735121508,-0.0010656374315648497,20.5625,0.5,94.5625,0.6671752900000005,0.12457274999999979,-0.724365229999999,-0.1211547900000001
268.0,-0.00013968401670014577,-0.2652591722793335,-0.035344814683524364,0.08999999999999991,-9.76999999999999,-0.7800000000000007,-0.028260739456555987,0.031002214910985072,0.007648012549726259,20.5625,0.5,94.5625,0.6671752900000005,0.12457274999999977,-0.724365229999999,-0.1211547900000001
269.0,0.000426749773523967,-0.2672085991965023,-0.03746695419276065,0.08999999999999991,-9.76999999999999,-0.7800000000000007,-0.04749925533695695,-0.005011705364527944,0.00552561517783292,20.5625,0.5,94.5625,0.6671752900000005,0.12457274999999977,-0.724365229999999,-0.1211547900000001
270.0,-0.0008213645673323092,-0.26656211597542223,-0.03587739769191382,0.08999999999999991,-9.76999999999999,-0.7800000000000007,-0.004193176055575253,0.018244767665130564,-0.015366845016542598,20.5625,0.5,94.5625,0.6671752900000005,0.12457274999999979,-0.724365229999999,-0.1211547900000001
271.0,-0.00034023648481244724,-0.26498315401863115,-0.03371872296104868,0.08999999999999991,-9.76999999999999,-0.7824973985431845,-0.011342082965270076,0.01767209230423005,-0.003345080338243385,20.5625,0.5,94.57810874089489,0.6671351521436008,0.12458799412070745,-0.7243906352861595,-0.12113954587929243
272.0,-0.0008001585649868685,-0.2668186939447994,-0.02845714373858886,0.08999999999999991,-9.76999999999999,-0.7864099895941725,-0.027328677571344714,0.010946681232760186,-0.004617978677186208,20.5625,0.5,94.60256243496357,0.667060717845994,0.12461187657648272,-0.7244409365140476,-0.12111566342351718
273.0,0.0004870174917001142,-0.26696277439175453,-0.029503269449939598,0.08999999999999991,-9.76999999999999,-0.7883662851196664,0.0047643406498115125,0.007268955535734931,-0.0020727242176253624,20.5625,0.5,94.61478928199791,0.6670235006971905,0.12462381780437035,-0.7244660871279915,-0.12110372219562957
274.0,0.00022814776274713842,-0.2663999739854317,-0.03427544424877932,0.08999999999999991,-9.76999999999999,-0.7893444328824135,0.005958399203553989,-0.013870642559833505,-0.0091648823341071,20.5625,0.5,94.62090270551508,0.6670048921227887,0.12462978841831415,-0.7244786624349635,-0.12109775158168574
275.0,0.00014633194588969828,-0.2665440730142211,-0.03181750470739806,0.08999999999999991,-9.76999999999999,-0.789833506763787,0.001319277982177956,0.005260659262837983,-0.008632423442842277,20.5625,0.5,94.62395941727368,0.666995587835588,0.12463277372528607,-0.7244849500884495,-0.12109476627471384
276.0,0.00048019073220686135,-0.26551131272401424,-0.028012752816180247,0.08999999999999991,-9.76999999999999,-0.7899999999999994,-0.021048847126216078,0.014593934011776753,0.010914698540706603,20.5625,0.5,94.625,0.66699219,0.12463378999999991,-0.7244873,-0.12109375
277.0,-0.00038490463389656923,-0.2651170474910393,-0.02919034818228368,0.08999999999999991,-9.76999999999999,-0.7899999999999994,-0.014887452796979006,0.007233962973630312,0.017648629512288787,20.5625,0.5,94.625,0.66699219,0.12463378999999991,-0.7244873,-0.12109375
278.0,-0.0012032770097286226,-0.2671967805939579,-0.0256526817716334,0.08999999999999991,-9.76999999999999,-0.7899999999999994,-0.009531109991039425,-0.009262592805939579,0.002664170506912442,20.5625,0.5,94.625,0.66699219,0.12463378999999991,-0.7244873,-0.12109375
279.0,-0.0006016385048643113,-0.2682606886840756,-0.024776945724526385,0.08999999999999991,-9.76999999999999,-0.7899999999999994,-0.012404793906810036,-0.01968926011264721,0.007128456221198157,20.5625,0.5,94.625,0.66699219,0.12463378999999991,-0.7244873,-0.12109375
280.0,0.00033441647957776994,-0.26664316485485823,-0.02453759255976999,0.08999999999999991,-9.76999999999999,-0.7899999999999994,-0.001207615748946394,-0.0062744323329000755,0.00817473856788373,20.5625,0.5,94.625,0.66699219,0.12463378999999991,-0.7244873,-0.12109375
281.0,-0.0005115655243126627,-0.26757872198113464,-0.025360483180104684,0.08999999999999991,-9.76999999999999,-0.7899999999999994,-0.023849166545170056,-0.004561823470349745,0.015574039914733202,20.5625,0.5,94.625,0.6669921899999999,0.12463378999999991,-0.7244873,-0.12109375
282.0,0.0005017057171063414,-0.26895445155636344,-0.025711515591588446,0.08999999999999991,-9.76999999999999,-0.7899999999999994,0.004617975451173293,0.01205600582754914,0.008433061304012786,20.5625,0.5,94.625,0.66699219,0.12463378999999991,-0.7244873,-0.12109375
283.0,-0.00028294130427325014,-0.2684416395006599,-0.02612380695094016,0.08999999999999991,-9.76999999999999,-0.7899999999999994,0.002356990797783267,-0.006172777936199828,-0.0016398441559813178,20.5625,0.5,94.625,0.66699219,0.12463378999999991,-0.7244873,-0.12109375
284.0,-0.00022211581342694776,-0.2689914850729105,-0.025088113152889443,0.08999999999999991,-9.76999999999999,-0.7899999999999994,-0.02630701367368901,-0.013182785137454751,-0.019642376715087433,20.5625,0.5,94.625,0.66699219,0.12463378999999991,-0.7244873,-0.12109375
285.0,-0.0006303887319756207,-0.2686594342037889,-0.02688416703830337,0.08999999999999991,-9.76999999999999,-0.7899999999999994,0.011145100383198719,-0.02648653384784368,-0.02036659378458286,20.5625,0.5,94.625,0.6669921899999999,0.12463378999999991,-0.7244873,-0.12109375
286.0,-0.0021206854409898113,-0.2687204959380427,-0.02437548622466678,0.08999999999999991,-9.76999999999999,-0.7930967741935475,-0.025937595489982326,0.015573370392975624,-0.02941581710360977,20.5625,0.5,94.64385856079403,0.6668758750818855,0.12465220500744417,-0.7246045873052114,-0.12107484729032252
287.0,-0.0048153941207075964,-0.2676901940086448,-0.005730576622908834,0.0887295285359801,-9.768332506203466,-0.8062382133995036,-0.1564088702173217,0.050514835182702306,0.019999543494356835,20.5625,0.5,94.72326302729527,0.6663771737816376,0.12473944089826308,-0.7250776049925558,-0.1209863980992555
288.0,-0.0036189345795550267,-0.27018866299254557,0.009685554942513844,0.08420347394540942,-9.76400496277915,-0.8330192603095825,-0.24615118370057074,0.010290209690045474,-0.008244395879549693,20.5625,0.5,94.88457698215763,0.6653575976511877,0.12492413122998144,-0.7260200351281261,-0.12080105829949978
289.0,-0.003792058791018206,-0.27105474557815856,0.02262046047373832,0.08543424317617863,-9.763349875930514,-0.8436684390877938,0.031140589523784096,0.4858728983468838,-0.060611370939154495,20.77490694789082,0.5094292803970224,94.93791504194729,0.6647350092796882,0.1262159364164796,-0.7261502669883805,-0.12200247964354642
290.0,0.016220442589365804,-0.26997443497488927,0.02107554951989301,0.07165169678118337,-9.766674937965252,-0.8297010982354005,-0.05198170689424666,-2.9722566998350732,-0.14174788183193454,19.383832960542414,0.4220249536923776,94.854606089806,0.6665770526521112,0.11840346268120662,-0.7268881188871936,-0.11399916688901537
291.0,0.022996916153663085,-0.2689893493855329,0.01910706144781565,0.0634519274455667,-9.76339426134973,-0.859331239712884,-0.41798596930355225,-0.6419574311044096,0.0033182968780424427,17.70556084646839,0.3692360116031175,95.02635592296542,0.6670340594930078,0.10853345208924904,-0.7294607387359815,-0.10407439127140455
292.0,0.004328555872773739,-0.27615019943368013,0.005190372060938914,0.058928853811821454,-9.759842218983138,-0.8994247791032665,-0.20405210010937352,-0.999747325974041,-0.0781740875849169,17.15632643841446,0.34211326196854164,95.25886016116158,0.6660660077212521,0.10556184992099293,-0.731365373452066,-0.10064323363307492
293.0,0.015367710782175957,-0.27812062610879,-0.005338650430716235,0.060413468514138854,-9.757826672838926,-0.9257535970584789,-0.5222101592289783,-1.0538583353973592,-0.0843268087026301,16.041273901769173,0.35139791195668785,95.41314702107368,0.666030012674157,0.09848837818140521,-0.7332777056161461,-0.09406118944582573
294.0,0.011557304522601626,-0.2760156480419881,-0.002656918267467299,0.06152187073349623,-9.753704899694897,-0.9634326297947476,-0.13041339226957593,-0.6124130386664215,-0.06023102221732001,15.287805065028508,0.3608881619336789,95.63121681078496,0.665261605302339,0.09373934889963564,-0.7352241935748225,-0.08951371413730495
295.0,0.005777516413958696,-0.27850986854620974,0.00604205426926499,0.06077910892422202,-9.751529869202287,-0.993733579776974,-0.15434941535332503,-0.21881726444906716,-0.03871955472519794,14.933046671541968,0.36851200463789807,95.82390719003584,0.66438823168002,0.09149709386144889,-0.7365885010241218,-0.08728421620768019
296.0,0.011746468745608326,-0.2808346436318088,0.01324097464831352,0.06067972107565846,-9.75059682919451,-1.0071013169352163,-0.02108016618602393,-0.37510451672750716,-0.0028827859001022763,14.683344726319378,0.36731178768109785,95.9020475651943,0.6640876800686508,0.09000632675244725,-0.7372294888997681,-0.08577414902618205
297.0,0.010626992948194618,-0.27632262761067883,0.013341513451729379,0.0587458961530679,-9.750191678354371,-1.001172793922286,-0.07755242618161218,-0.18970796555978334,0.004989693752620004,14.394403032040143,0.3397724735369436,95.86875864794527,0.6645392321395656,0.08844525465001574,-0.737207640173684,-0.08415236034490384
298.0,0.010063379597051962,-0.27657556201622147,0.011909329747046407,0.05933320988111555,-9.75,-1.0014068738194881,-0.057739513698566725,-0.0998594670104811,0.017326094403910967,14.276195789044849,0.32528887818969665,95.84485150723584,0.6646485286551026,0.08784210317353519,-0.7372629538128828,-0.08349125743051637
299.0,0.010573353129991605,-0.2767221042291144,0.008934173398297078,0.05961201436983819,-9.75,-1.0007605088700418,-0.02321809191692124,-0.05449128797574403,0.023331261401907458,14.223007944150217,0.31788637457871927,95.8285206667693,0.6647267373771786,0.08757724025674275,-0.7372599960652508,-0.08319870637530774
300.0,0.012446454790802258,-0.2773025843726217,0.0081792842797937,0.05980600718491912,-9.75,-1.0000979963705048,-0.021358919950396103,-0.024315956487872013,0.013555751668695664,14.197189455946075,0.31418512277323063,95.81784841302175,0.6647790254300203,0.08744893581889554,-0.7372456394892792,-0.08305945072293608
301.0,0.010273979777881968,-0.2781983342417784,0.006547705127569853,0.059895781637717166,-9.75,-0.9997866004962779,-0.00436813067698864,-0.01594496687986542,-0.009681923861489417,14.1875,0.3125,95.81287220843673,0.6648013719205947,0.08740215827295279,-0.7372375920099267,-0.08300796146401973
302.0,0.009511679715243715,-0.2785805566990529,0.005245316583636044,0.06000000000000005,-9.75,-1.0,0.00948622002130717,-0.013291962348121297,-0.006981160441910961,14.1875,0.3125,95.8125,0.6647949199999992,0.08740233999999994,-0.7372436500000011,-0.08300780999999988
303.0,0.010165466073699688,-0.2795037566275207,0.004596387071998415,0.06000000000000005,-9.75,-1.0,0.02520841979047949,-0.00031572988413194024,0.006331340689675107,14.1875,0.3125,95.8125,0.6647949199999992,0.08740233999999994,-0.7372436500000011,-0.08300780999999988
304.0,0.010631640424987205,-0.27738455261136696,0.0033335733486943167,0.06000000000000005,-9.75,-1.0,0.0435452868983615,-0.0044827868983614945,0.0007105454749103944,14.1875,0.3125,95.8125,0.6647949199999992,0.08740233999999994,-0.7372436500000011,-0.08300780999999988
305.0,0.01041162511323802,-0.2763429044074203,0.0019403211036275554,0.06000000000000005,-9.75,-1.0,0.044498924854267596,0.004627742329355233,-0.008624982768127929,14.1875,0.3125,95.8125,0.6647949199999992,0.08740233999999994,-0.7372436500000011,-0.08300780999999988
306.0,0.010647647285654576,-0.2779345131686441,0.0018820743981709123,0.06000000000000005,-9.75,-1.0,0.03761818796105184,0.004747059146772986,0.007109658988398581,14.1875,0.3125,95.8125,0.6647949199999992,0.08740233999999994,-0.737243650000001,-0.08300780999999988
307.0,0.010264580466648632,-0.2785903955421384,0.0018258464422616348,0.06000000000000005,-9.75,-1.0,0.05176044517469465,0.007029042910855475,0.003121555610824601,14.1875,0.3125,95.8125,0.6647949199999992,0.08740233999999994,-0.7372436500000011,-0.08300780999999988
308.0,0.008849017950052034,-0.27706675238133344,0.003863728688065317,0.06000000000000005,-9.75,-1.0,0.021301960347794763,-0.0031131027125190108,0.019106762286880654,14.1875,0.3125,95.8125,0.6647949199999992,0.08740233999999994,-0.7372436500000011,-0.08300780999999988
309.0,0.008907388137356923,-0.2776100216121027,0.0029787881213479547,0.06000000000000005,-9.75,-1.0,0.01955995357400144,0.00951132634275194,0.00545405427039142,14.1875,0.3125,95.8125,0.6647949199999992,0.08740233999999994,-0.737243650000001,-0.08300780999999988
310.0,0.009448731289522136,-0.2771052589450091,0.003009245177299288,0.06000000000000005,-9.75,-1.0,0.02470708596814216,0.010082896421996317,0.01812715120467462,14.1875,0.3125,95.8125,0.6647949199999992,0.08740233999999994,-0.7372436500000011,-0.08300780999999988
311.0,0.008824261586488438,-0.27638301448811314,0.003247598655246939,0.06000000000000005,-9.75,-1.0,0.034547221444008645,-0.014176814015848875,0.020818908588809734,14.1875,0.3125,95.8125,0.6647949199999992,0.08740233999999994,-0.7372436500000011,-0.08300780999999988
312.0,0.00933268693960682,-0.27607385786834265,0.001594022652685504,0.06000000000000005,-9.75,-1.0,0.009066070054786237,0.01018112901161158,0.028858142702770696,14.1875,0.3125,95.8125,0.6647949199999992,0.08740233999999994,-0.7372436500000011,-0.08300780999999988
313.0,0.009787970946269597,-0.2760582767619707,0.0012761952248814888,0.06000000000000005,-9.75,-1.0,0.003633038966106736,0.0058042101791288825,0.007214332685033778,14.1875,0.3125,95.8125,0.6647949199999992,0.08740233999999994,-0.7372436500000011,-0.08300780999999988
314.0,0.009909594214029701,-0.27691340245775714,0.001833157322068612,0.06000000000000005,-9.75,-1.0,0.012772317428315411,0.003072696652585765,0.005273337493599591,14.1875,0.3125,95.8125,0.6647949199999992,0.08740233999999994,-0.7372436500000011,-0.08300780999999988
315.0,0.010035442268305175,-0.2775444028417817,0.00022353430619559628,0.06000000000000005,-9.75,-1.0,-0.002670670922939068,0.010939700140809012,-0.0008600550435227854,14.1875,0.3125,95.8125,0.6647949199999992,0.08740233999999994,-0.7372436500000011,-0.08300780999999988
316.0,0.008161162314388124,-0.27711981566820265,0.0023502304147465436,0.06000000000000005,-9.75,-1.0,-0.01842917946748592,0.009140584997439836,0.009432603686635945,14.1875,0.3125,95.8125,0.6647949199999992,0.08740233999999994,-0.7372436500000011,-0.08300780999999988
317.0,0.008518625192012293,-0.27757808499743974,0.0014976958525345619,0.06000000000000005,-9.75,-1.0,8.20052483358931e-05,0.011586741551459293,0.004140264976958526,14.1875,0.3125,95.8125,0.6647949199999992,0.08740233999999994,-0.7372436500000011,-0.08300780999999988
318.0,0.007126696108550951,-0.2789349718381975,0.00515488991295443,0.06000000000000005,-9.75,-1.0,0.03335513472862263,0.00270517313108039,0.014566932283666153,14.1875,0.3125,95.8125,0.6647949199999992,0.08740233999999994,-0.7372436500000011,-0.08300780999999988
319.0,0.00790794610855095,-0.27745519713261635,0.006717229902713775,0.06000000000000005,-9.75,-1.0,0.019909774225550434,0.002360651081669227,0.005187331989247311,14.1875,0.3125,95.8125,0.6647949199999992,0.08740233999999994,-0.7372436500000011,-0.08300780999999988
320.0,0.007177259344598057,-0.27827396953405,0.00652393753200205,0.06000000000000005,-9.75,-1.0,-0.024051539298515102,0.01096170154889913,-0.011928763440860215,14.1875,0.3125,95.8125,0.6647949199999992,0.08740233999999994,-0.7372436500000011,-0.08300780999999988
321.0,0.007482060787374266,-0.2772760759914439,0.00543794286705317,0.06000000000000005,-9.75,-1.0,-0.021399272779264324,0.009026884172199923,-0.006804693564904283,14.1875,0.3125,95.8125,0.6647949199999992,0.08740233999999994,-0.737243650000001,-0.08300780999999988
322.0,0.008113510232396811,-0.2770578968666896,0.004321794014171746,0.06000000000000005,-9.75,-1.0,-0.015519444857374096,0.014357822126422542,0.004662169346580116,14.1875,0.3125,95.8125,0.6647949199999992,0.08740233999999994,-0.7372436500000011,-0.08300780999999988
323.0,0.008304066944155395,-0.2778709863237697,0.002268423888806303,0.06000000000000005,-9.75,-1.0,-0.019040444394892886,0.015979474299258375,0.0019470600957170936,14.1875,0.3125,95.8125,0.6647949199999992,0.08740233999999994,-0.7372436500000011,-0.08300780999999988
324.0,0.009418290512528288,-0.277852543853129,0.0007578678583816461,0.06000000000000005,-9.75,-1.0,0.019553638529640094,0.013078062802470971,0.014862418936747435,14.1875,0.3125,95.8125,0.6647949199999992,0.08740233999999994,-0.7372436500000011,-0.08300780999999988
325.0,0.008208009183555492,-0.27607400938176163,0.0011818253142394661,0.06000000000000005,-9.75,-1.0,0.007775691192623425,0.004175880159556018,0.010448152552731117,14.1875,0.3125,95.8125,0.6647949199999992,0.08740233999999994,-0.7372436500000011,-0.08300780999999988
326.0,0.00830795880613779,-0.27709787878037084,0.0015196327403663506,0.06000000000000005,-9.75,-1.0,-0.006729350033240836,-0.0032287872875476934,-0.021294524139867533,14.1875,0.3125,95.8125,0.6647949199999992,0.08740233999999994,-0.737243650000001,-0.08300780999999988
327.0,0.009174140693391477,-0.27787353616437893,0.0019997357250218853,0.06000000000000005,-9.75,-1.0,0.004841600184992485,-0.007977800901838363,0.004221689542969458,14.1875,0.3125,95.8125,0.6647949199999992,0.08740233999999994,-0.7372436500000011,-0.08300780999999988
328.0,0.008030986241183953,-0.27904049601109937,0.002324133260657714,0.06000000000000005,-9.75,-1.0,-0.011307046231603984,0.010827531671704407,0.007834049766281815,14.1875,0.3125,95.8125,0.6647949199999992,0.08740233999999994,-0.737243650000001,-0.08300780999999988
329.0,0.008201361016137294,-0.27866899352526286,0.0018955535734932194,0.06000000000000005,-9.75,-1.0,0.007043289480204153,0.007773916885519382,-0.010123873734370613,14.1875,0.3125,95.8125,0.6647949199999992,0.08740233999999994,-0.7372436500000011,-0.08300780999999988
330.0,0.008342872008324665,-0.2777305541103016,0.0025325182101977105,0.06000000000000005,-9.75,-1.0,0.022266844432882415,0.0004227367325702392,0.01350725156087409,14.1875,0.3125,95.8125,0.6647949199999992,0.08740233999999994,-0.7372436500000011,-0.08300780999999988
331.0,0.008050497167302582,-0.27733991491584475,0.0030373969740515004,0.06000000000000005,-9.75,-1.0,0.03758853469847877,0.0008859921873709592,0.019871626622813537,14.1875,0.3125,95.8125,0.6647949199999992,0.08740233999999994,-0.7372436500000011,-0.08300780999999988
332.0,0.008369846637926765,-0.276644507829146,0.003198806013907469,0.06000000000000005,-9.75,-1.0,0.02468664446137456,0.012920794672794542,0.01407157800034686,14.1875,0.3125,95.8125,0.6647949199999992,0.08740233999999994,-0.7372436500000011,-0.08300780999999988
333.0,0.008497023809523812,-0.27799195148489486,0.0008204525089605732,0.06000000000000005,-9.75,-1.0,0.09573162682411675,0.011109210989503328,0.02375402025729647,14.1875,0.3125,95.8125,0.6647949199999992,0.08740233999999994,-0.7372436500000011,-0.08300780999999988
334.0,0.007499519969278036,-0.2771688588069635,0.0041778673835125455,0.06000000000000005,-9.75,-1.0,0.03836795554915515,0.001443592389912954,-0.0018106158794162826,14.1875,0.3125,95.8125,0.6647949199999992,0.08740233999999994,-0.7372436500000011,-0.08300780999999988
335.0,0.006808755760368664,-0.27683499743983603,0.003021633384536611,0.06000000000000005,-9.75,-1.0,-0.019801267281105987,0.0023681515616999485,-0.018385176651305686,14.1875,0.3125,95.8125,0.6647949199999992,0.08740233999999994,-0.7372436500000011,-0.08300780999999988
336.0,0.008117639528929852,-0.27725646441372237,0.0037932027649769592,0.06000000000000005,-9.75,-1.0,-0.016765072964669735,0.01729710701484895,-0.020161290322580645,14.1875,0.3125,95.8125,0.6647949199999992,0.08740233999999994,-0.7372436500000011,-0.08300780999999988
337.0,0.008030913978494626,-0.2763535266257039,0.002810579877112135,0.06000000000000005,-9.75,-1.0,-0.00605438748079877,0.013808883768561188,-0.008712557603686636,14.1875,0.3125,95.8125,0.6647949199999992,0.08740233999999994,-0.7372436500000011,-0.08300780999999988
338.0,0.008546947004608296,-0.2754834709421401,0.00019945276497695865,0.06000000000000005,-9.75,-1.0,0.014349918394777266,0.008792562724014337,0.007404473886328723,14.1875,0.3125,95.8125,0.6647949199999992,0.08740233999999994,-0.7372436500000011,-0.08300780999999988
339.0,0.007232142857142859,-0.27828357014848937,0.0010296658986175117,0.06000000000000005,-9.75,-1.0,-0.011190716205837175,0.007042450716845878,0.008175523233486942,14.1875,0.3125,95.8125,0.6647949199999992,0.08740233999999994,-0.7372436500000011,-0.08300780999999988
340.0,0.008011542416133992,-0.2776996695530448,0.0014830704003765917,0.06000000000000005,-9.75,-1.0,-0.006476446750656558,0.005034096375716433,-0.0011074095838907892,14.1875,0.3125,95.8125,0.6647949199999992,0.08740233999999994,-0.737243650000001,-0.08300780999999988
341.0,0.007967464756454094,-0.27856505655071584,0.001716837619543135,0.06000000000000005,-9.75,-1.0,-0.011113727407586343,-0.007059564715367589,0.00028109863547396037,14.1875,0.3125,95.8125,0.6647949199999992,0.08740233999999994,-0.7372436500000011,-0.08300780999999988
342.0,0.006758429958872209,-0.27911367746890625,0.0022797897775135023,0.06000000000000005,-9.75,-1.0,-0.004123521969922203,0.005369537198767817,-0.012003477900004954,14.1875,0.3125,95.8125,0.6647949199999992,0.08740233999999994,-0.7372436500000011,-0.08300780999999988
343.0,0.0072655437044745075,-0.2767380983350675,0.0015815231529656606,0.06000000000000005,-9.75,-1.0,-0.0006696718912591049,0.012197377406347555,-0.004873666753381894,14.1875,0.3125,95.8125,0.6647949199999992,0.08740233999999994,-0.7372436500000011,-0.08300780999999988
344.0,0.014020876690946933,-0.27859586368366274,0.006403160770031219,0.06137096774193551,-9.75,-1.0000806451612905,-0.06930850026014568,0.06448767559833507,-0.09984106724765869,14.18195564516129,0.329133064516129,95.81754032258064,0.6647929514516124,0.0871690293548387,-0.7372771213709683,-0.08295465112903219
345.0,0.004993126832844581,-0.2769987170087975,0.011537909335288376,0.07100806451612907,-9.747497556207236,-1.0236571358748778,-0.34592841214565007,0.17442379948680353,-0.023837480144183777,14.386096346529815,0.3946190738025416,95.9792430351906,0.663708071717986,0.0876870988709677,-0.7380737113550835,-0.08397259040811339
346.0,0.005563119676022906,-0.280393719743518,0.027528307266210496,0.07582661290322584,-9.74358748778104,-1.0582801808406657,-0.21828310648245122,0.0485809273611693,-0.0641618336300796,14.54486268939394,0.45033373044965785,96.18619409824046,0.6623298752138318,0.0883637749193548,-0.7391392742259288,-0.0847502827847019
347.0,0.005640142787320209,-0.28454645824605496,0.03395432580412419,0.07823588709677423,-9.741632453567941,-1.0755917033235596,-0.10458051133454359,0.046024354649606664,-0.03989541694304799,14.624245860826,0.478191058773216,96.2896696297654,0.6616407769617547,0.08870211294354835,-0.7396720556613514,-0.08513912897299614
348.0,0.005076197324181196,-0.2854607291230274,0.04023007078047401,0.07944052419354843,-9.740654936461393,-1.0842474645650064,-0.04391653513377304,0.04703052603758249,-0.01652101608628826,14.663937446542032,0.4921197229349951,96.34140739552785,0.6612962278357162,0.08887128195564513,-0.7399384463790628,-0.08533355206714327
349.0,0.005323636936540163,-0.28526248661732523,0.04525352425352425,0.08000000000000004,-9.740166177908119,-1.0885728250244395,-0.03872984094758289,0.015543752842139939,-0.010340891187665381,14.683956500488758,0.4985642717497556,96.36711876832845,0.6611240147898341,0.08896315741935482,-0.7400705957575757,-0.0854324248289346
350.0,0.004817243688211429,-0.28544649257552474,0.047123340816889195,0.08000000000000004,-9.740000000000006,-1.0900000000000016,-0.030804925361376974,-0.00725744909212651,0.019221660955531922,14.6875,0.5,96.375,0.6610717800000001,0.08898925999999997,-0.7401123,-0.08544922000000008
351.0,0.004163614163614163,-0.2858901689708141,0.0503806668242152,0.08000000000000004,-9.740000000000006,-1.0900000000000016,-0.013474339280790892,-0.010981195104178974,0.013259063964709125,14.6875,0.5,96.375,0.6610717800000001,0.08898925999999997,-0.7401123,-0.08544922000000008
352.0,0.003955847020363149,-0.28641410650281607,0.054296836228287834,0.08000000000000004,-9.740000000000006,-1.0900000000000016,0.003871509315057701,0.003549981044940722,0.0012531878963330583,14.6875,0.5,96.375,0.6610717800000001,0.08898925999999997,-0.7401123,-0.08544922000000008
353.0,0.004197388632872504,-0.28597766257040436,0.05575060803891448,0.08000000000000004,-9.740000000000006,-1.0900000000000016,0.012936827956989246,0.013303851446492574,-0.012794818868407576,14.6875,0.5,96.375,0.6610717800000001,0.08898925999999997,-0.7401123,-0.08544922000000008
354.0,0.0032917306707629284,-0.28710301459293375,0.05700356822836661,0.08000000000000004,-9.740000000000006,-1.0900000000000016,0.01966125832053251,0.007347970270097285,0.001827116935483872,14.6875,0.5,96.375,0.6610717800000001,0.08898925999999997,-0.7401123,-0.08544922000000008
355.0,0.002951308883768561,-0.2867722734254991,0.06047003008192524,0.08000000000000004,-9.740000000000006,-1.0900000000000016,-0.02075782850102407,0.029206369207629285,0.015246975806451613,14.6875,0.5,96.375,0.6610717800000001,0.08898925999999997,-0.7401123,-0.08544922000000008
356.0,0.003415609566754207,-0.2854497423318962,0.060343381976446495,0.08000000000000004,-9.740000000000006,-1.0900000000000016,-0.022361366611334095,0.016431825830401533,0.003918444328824142,14.6875,0.5,96.375,0.6610717800000001,0.08898925999999997,-0.7401123,-0.08544922000000008
357.0,0.003017328592900913,-0.28575738524684924,0.059403641833077316,0.08000000000000004,-9.740000000000006,-1.0900000000000016,0.005620391963150156,0.004383667651503888,-0.00643331495796376,14.6875,0.5,96.375,0.6610717800000001,0.08898925999999997,-0.7401123,-0.08544922000000008
358.0,0.0027273022892819977,-0.2865794094693027,0.056446572580645143,0.08000000000000004,-9.740000000000006,-1.0900000000000016,-0.007622471709157128,0.003823938280437044,0.010304207856399582,14.6875,0.5,96.375,0.6610717800000001,0.08898925999999997,-0.7401123,-0.08544922000000008
359.0,0.003699160617247246,-0.2847971612118658,0.05547059011776753,0.08000000000000004,-9.740000000000006,-1.0900000000000016,-0.010349404297358901,0.010088742453710586,0.0013158584084865302,14.6875,0.5,96.375,0.6610717800000001,0.08898925999999997,-0.7401123,-0.08544922000000008
360.0,0.0037214097831293463,-0.28495914577242615,0.055848425912161596,0.08000000000000004,-9.740000000000006,-1.0900000000000016,-0.005238722375006193,-0.0061490064396379435,0.0017462730517978956,14.6875,0.5,96.375,0.6610717800000001,0.08898925999999997,-0.7401123,-0.08544922000000008
361.0,0.0033305279925011973,-0.28426677371867926,0.06002098714962918,0.08000000000000004,-9.740000000000006,-1.0881451612903232,-0.02089459531861652,-0.005139409567373602,0.005019208326107064,14.6875,0.5,96.3649193548387,0.6611274003225808,0.0889813838709677,-0.7400576641935481,-0.08545807919354842
362.0,0.0030740341575409206,-0.2838092941174041,0.06898730809094361,0.08000000000000004,-9.740000000000006,-1.0971370967741936,-0.12741428354640502,0.024254261950184167,0.010337855171118049,14.6875,0.5,96.4203629032258,0.6607919537903232,0.08901189951612903,-0.7403429085483872,-0.0854275599193548
363.0,0.002479797416712089,-0.2833427790991525,0.07696769238392545,0.08000000000000004,-9.740000000000006,-1.1038911290322577,-0.09462612058784665,0.007967864782055729,-0.015209876657912557,14.6875,0.5,96.46219758064515,0.6605538436693558,0.08903207911290326,-0.740542628790323,-0.0854068854435483
364.0,0.0026979120212080668,-0.28516857336934076,0.07945798853707281,0.08000000000000004,-9.740000000000006,-1.10726814516129,-0.04863314477933039,0.027921464393075995,0.0010756172265992767,14.6875,0.5,96.48311491935485,0.660434788608872,0.08904216891129035,-0.7406424889112908,-0.08539654820564507
365.0,0.0028772118338650596,-0.2864712633916262,0.07915595336563075,0.08000000000000004,-9.740000000000006,-1.108956653225806,-0.018328719191874433,0.017759859707944387,0.01736248042951672,14.6875,0.5,96.49357358870967,0.6603752610786302,0.08904721381048392,-0.7406924189717747,-0.08539137958669343
366.0,0.003138901832645329,-0.28625779285606273,0.07866958048094232,0.08000000000000004,-9.740000000000006,-1.1098588709677415,-0.03147439227673847,0.0037400202545965428,0.0023117357922817737,14.6875,0.5,96.49911794354838,0.6603437591784287,0.08904998238911295,-0.7407190913709683,-0.08538851842741924
367.0,0.004185378335677503,-0.2843637754602894,0.07768408459530987,0.08000000000000004,-9.740000000000006,-1.1099999999999994,-0.01058661650127246,0.013131980893427302,-0.0162174939990204,14.6875,0.5,96.5,0.6603393600000012,0.08905029000000006,-0.7407226600000005,-0.0853881799999999
368.0,0.002626483330665173,-0.28519776074601766,0.07313287691107018,0.08000000000000004,-9.740000000000006,-1.1099999999999994,0.015340012281877851,0.005181901865044424,-0.011516965125470263,14.6875,0.5,96.5,0.6603393600000012,0.08905029000000006,-0.7407226600000005,-0.0853881799999999
369.0,0.0031496391947744705,-0.2843722738701925,0.07220675943607782,0.08000000000000004,-9.740000000000006,-1.1099999999999994,-0.029149100281872134,-0.026326899809925305,0.000630176311432815,14.6875,0.5,96.5,0.6603393600000012,0.08905029000000006,-0.7407226600000005,-0.0853881799999999
370.0,0.002672145210841881,-0.28525715194159507,0.07359347385329432,0.08000000000000004,-9.740000000000006,-1.1099999999999994,-0.00810422834803363,-0.034265354272996054,-0.005844567600713542,14.6875,0.5,96.5,0.6603393600000012,0.08905029000000006,-0.7407226600000005,-0.0853881799999999
371.0,0.002234295610303675,-0.28570850072866194,0.07492745012603882,0.08000000000000004,-9.740000000000006,-1.1099999999999994,0.0006335097753948559,-0.019947753579305998,0.009679773351648352,14.6875,0.5,96.5,0.6603393600000012,0.08905029000000006,-0.7407226600000005,-0.0853881799999999
372.0,0.002404950224506676,-0.28539457294497605,0.07525858393398716,0.08000000000000004,-9.740000000000006,-1.1099999999999994,0.0012775663796329114,-0.02547286872513687,0.007391549982275789,14.6875,0.5,96.5,0.6603393600000012,0.08905029000000006,-0.7407226600000005,-0.0853881799999999
373.0,0.0016763854425144746,-0.2862881562881562,0.077641852770885,0.08000000000000004,-9.740000000000006,-1.1099999999999994,-0.003559735515380676,-0.017297476269250465,0.015598536767891606,14.6875,0.5,96.5,0.6603393600000012,0.08905029000000006,-0.7407226600000005,-0.0853881799999999
374.0,0.0019083412107605653,-0.28776261373035555,0.07766629248887312,0.08000000000000004,-9.740000000000006,-1.1099999999999994,-0.025325374670132732,0.0013038988341407681,-0.009041809445035251,14.6875,0.5,96.5,0.6603393600000012,0.08905029000000006,-0.7407226600000005,-0.0853881799999999
375.0,0.001573730257197999,-0.28599344204182897,0.07727400645949031,0.08000000000000004,-9.740000000000006,-1.1099999999999994,0.00453841353538934,0.00028392586356295983,-0.0022967623774075383,14.6875,0.5,96.5,0.6603393600000012,0.08905029000000006,-0.7407226600000005,-0.0853881799999999
376.0,0.0019040418586789554,-0.2858467741935483,0.07607494879672297,0.08000000000000004,-9.740000000000006,-1.1099999999999994,0.008801563300051201,-0.0013010832693292373,0.010240655401945725,14.6875,0.5,96.5,0.6603393600000012,0.08905029000000006,-0.7407226600000005,-0.0853881799999999
377.0,0.0014826548899129542,-0.28652937788018423,0.07843573988735275,0.08000000000000004,-9.740000000000006,-1.1099999999999994,-0.0033112119175627234,0.0003340213773681515,0.007617487519201229,14.6875,0.5,96.5,0.6603393600000012,0.08905029000000006,-0.7407226600000005,-0.0853881799999999
378.0,0.0022346513253771313,-0.2861668512938673,0.07898477687187361,0.08000000000000004,-9.740000000000006,-1.1099999999999994,0.004411736197270472,-0.003162925504155343,0.016840223928177557,14.6875,0.5,96.5,0.6603393600000012,0.08905029000000006,-0.7407226600000005,-0.0853881799999999
379.0,0.0026949466304305014,-0.2855985466146755,0.08154884004884003,0.08000000000000004,-9.740000000000006,-1.1099999999999994,-0.0025666873449131516,-0.009425464768206705,0.009947959746346845,14.6875,0.5,96.5,0.6603393600000012,0.08905029000000006,-0.7407226600000005,-0.0853881799999999
380.0,0.0026589378941095903,-0.2848945609541341,0.07974341726604993,0.08000000000000004,-9.740000000000006,-1.1099999999999994,-0.010152040301298886,-0.01768801441505656,-0.007056725575846282,14.6875,0.5,96.5,0.6603393600000012,0.08905029000000005,-0.7407226600000005,-0.0853881799999999
381.0,0.0009760087871430221,-0.2856901021715016,0.0810652964072579,0.08000000000000004,-9.740000000000006,-1.1099999999999994,-0.0057803113791342195,-0.012766227460393693,-0.008362887582125354,14.6875,0.5,96.5,0.6603393600000012,0.08905029000000006,-0.7407226600000005,-0.0853881799999999
382.0,0.00038943808532778366,-0.28668145661570466,0.08366756883854957,0.08000000000000004,-9.740000000000006,-1.1099999999999994,0.006422440316577282,-0.013959598625230128,-0.021398545685583924,14.6875,0.5,96.5,0.6603393600000012,0.08905029000000006,-0.7407226600000005,-0.0853881799999999
383.0,0.0009668250728344383,-0.2850487908546244,0.0842170606412607,0.08000000000000004,-9.740000000000006,-1.1099999999999994,0.005073247020315503,-0.007895304058764971,-0.03467151475858227,14.6875,0.5,96.5,0.6603393600000012,0.08905029000000006,-0.7407226600000005,-0.0853881799999999
384.0,0.000596859797041899,-0.28498091264441405,0.0872887418541685,0.08000000000000004,-9.740000000000006,-1.1099999999999994,0.0016858190586728564,-0.016000173390749613,-0.0035423746027934376,14.6875,0.5,96.5,0.6603393600000012,0.08905029000000006,-0.7407226600000005,-0.0853881799999999
385.0,0.0013858388475323957,-0.28645507650951185,0.08875883502698019,0.08000000000000004,-9.740000000000006,-1.1099999999999994,-0.006961460918114144,-0.0025532864872582607,-0.0013972278841230448,14.6875,0.5,96.5,0.6603393600000012,0.08905029000000006,-0.7407226600000005,-0.0853881799999999
386.0,0.0011943964413722477,-0.28738343253968235,0.0893421178955453,0.08000000000000004,-9.740000000000006,-1.1099999999999994,-0.0387954829109063,0.003967753936251921,-0.0036312323988735274,14.6875,0.5,96.5,0.6603393600000012,0.08905029000000006,-0.7407226600000005,-0.0853881799999999
387.0,0.0019924475166410646,-0.28602598566308224,0.0866209037378392,0.08000000000000004,-9.740000000000006,-1.1099999999999994,0.017697132616487456,-0.0044362839221710176,0.011008704557091652,14.6875,0.5,96.5,0.6603393600000012,0.08905029000000006,-0.7407226600000005,-0.0853881799999999
388.0,0.002399902516838,-0.28478297195635893,0.08800047510732993,0.08000000000000004,-9.740000000000006,-1.1099999999999994,-0.01057027649769585,-0.0046675294911182,0.018647347276379535,14.6875,0.5,96.5,0.6603393600000012,0.08905029000000006,-0.7407226600000005,-0.0853881799999999
389.0,0.0025267768204162585,-0.28622471194980287,0.08766573150011622,0.08000000000000004,-9.740000000000006,-1.1099999999999994,-0.05207935888542028,0.02406482799018244,0.0323047573307719,14.6875,0.5,96.5,0.6603393600000012,0.08905029000000005,-0.7407226600000005,-0.0853881799999999
390.0,0.0011487016856423723,-0.28449503277390886,0.08002149012971072,0.08000000000000004,-9.740000000000006,-1.098962779156327,0.11714037638855537,0.07539847711543861,0.047417887350249474,14.688988833746897,0.5,96.43101736972704,0.6607207744317625,0.08902315002977666,-0.7403930986699752,-0.08542889043176169
391.0,0.002171893085524719,-0.2834853556086646,0.07783844603771761,0.08000000000000004,-9.740000000000006,-1.0853684863523565,-0.0023217088871355235,0.054172292833192935,0.026829143367905078,14.720502481389577,0.5,96.34857320099255,0.6611738868126555,0.08909529485359803,-0.7399726295769233,-0.08560296344168725
392.0,-8.660850076042592e-05,-0.2824723245017209,0.0626455415032418,0.08000000000000004,-9.740887096774198,-1.0674423076923065,0.08033236112222844,0.061064321019771065,0.032183772912831185,14.736259305210918,0.5,96.2589640198511,0.6617922514708443,0.08906787113647646,-0.7394109501110426,-0.08571854809181137
393.0,-0.0018621628111742576,-0.281501670935724,0.05915775834467302,0.08000000000000004,-9.740443548387102,-1.0577534119106686,0.14157747088369488,0.029097607160009607,0.035865459657408144,14.744137717121585,0.5,96.18643765508685,0.6621363793644547,0.08905908056823825,-0.7391217418297151,-0.08577388017493794
394.0,-0.0035943124975383045,-0.2804647165110874,0.06388829562015046,0.08000000000000004,-9.740221774193554,-1.0529089640198497,-0.001992696763362084,0.02909683142798062,0.024369528880617587,14.748076923076923,0.5,96.14967044044664,0.6623089354886793,0.08905468528411915,-0.7389771376890513,-0.08580154621650123
395.0,-0.003246287762416795,-0.28284650217613916,0.0647195820532514,0.08000000000000004,-9.74011088709678,-1.050831653225805,-0.0049588173643113145,-0.013646373367895544,0.03439320116487455,14.75,0.5,96.13344254032258,0.6623832943497989,0.08905333576612909,-0.7389151344102827,-0.0858141070362903
396.0,-0.006916762672811062,-0.2823635112647208,0.0711119911674347,0.08000000000000004,-9.740874695980548,-1.0488984094982068,0.03990855414746544,-0.005294838869687659,0.03348714317716334,14.75,0.5,96.1206827236943,0.662462277100775,0.08904148226574501,-0.7388436203409819,-0.08582308385728682
397.0,-0.005519873271889401,-0.2806726830517151,0.07033674155145928,0.08000000000000004,-9.74557091653866,-1.035636200716846,0.011826756912442395,-0.027896285362263185,0.03126600102406554,14.75,0.5,96.06248349894392,0.6629307564636938,0.08898303605222732,-0.73840761687916,-0.08588218391705066
398.0,-0.005043202764976959,-0.2810520673323091,0.0612696812596006,0.08000000000000004,-9.747946748591911,-1.0273342293906818,0.022420434907834103,0.0037402393753200192,0.03214005696364567,14.75,0.5,96.02920986943164,0.6632082040962621,0.08895365915514589,-0.7381455774718377,-0.08591181082949308
399.0,-0.004733582949308755,-0.2788107238863286,0.053276929723502287,0.08000000000000004,-9.749134664618536,-1.0231832437275998,0.02172289026497696,-0.029331877240143366,0.01635804691500256,14.75,0.5,96.01258880568356,0.663346912532002,0.0889389707066052,-0.7380145577681767,-0.08592662428571428
400.0,-0.005869815668202766,-0.2763383256528416,0.05162586405529952,0.08000000000000004,-9.74972862263185,-1.0211077508960587,0.023950532834101382,-0.008302531362007167,0.020559315796210956,14.75,0.5,96.00427827380952,0.6634162667498718,0.08893162648233482,-0.737949047916346,-0.08593403101382488
401.0,-0.005271057347670251,-0.27741263440860203,0.05399905593958011,0.08000000000000004,-9.75,-1.0201058467741948,0.006174895193292371,0.037115375384024575,0.024888592869943677,14.75,0.5,95.9831779233871,0.6635074619758061,0.08891050161290327,-0.7378607104737906,-0.08595472903225808
402.0,-0.005634520609318997,-0.27807627688172026,0.06354942716333843,0.08000000000000004,-9.75,-1.0200000000000014,0.001244579653097798,0.00772099414362519,0.027092733934971837,14.75,0.5,95.95917338709677,0.6635756935887092,0.08888786145161298,-0.7377919825000003,-0.08597761903225809
403.0,-0.0045990143369175635,-0.2811122311827956,0.061253040194572436,0.08177419354838711,-9.75,-1.0213709677419365,-0.03477022529441884,0.18173663114439326,-0.0026141673067076286,14.796370967741936,0.5,95.95992943548387,0.6635217952620966,0.08915119927419364,-0.7377806610887101,-0.0862750420967742
404.0,-0.010349264705882353,-0.27848464184060717,0.04111746916508538,0.09212049335863377,-9.750607210626185,-0.9945754269449724,0.19867765654648956,0.968963101873814,0.06746249407020873,15.537891366223908,0.5502846299810247,95.81155864563567,0.6639414345665322,0.0931275608704934,-0.736350114680977,-0.09075096524193546
405.0,-0.008504605471220745,-0.2715154300356506,0.011611780159277782,0.09309836984647227,-9.758123742165482,-0.9244724642056239,0.3447748543607325,0.1612388861336323,0.08366385181271922,15.969458879592892,0.545670174228049,95.39453787609253,0.6662436811200205,0.09558709278128774,-0.7335895543101855,-0.09365709479105569
406.0,-0.007191547462657521,-0.27276302674239095,-0.03164002338189956,0.09115464398030809,-9.762319935598864,-0.8706779194477252,0.45094109692292206,0.28280180581495507,-0.011742341308280585,16.114568149473865,0.5268053104390865,95.0789459115264,0.6681479952073037,0.09647366553440936,-0.7316030845912744,-0.09479927849199185
407.0,-0.014043786404139814,-0.2607703382559881,-0.054748079087263125,0.09943907314222769,-9.77238116595611,-0.7368965634104985,0.5103261792218297,0.19982769222199367,0.052642474219131596,16.635049051695457,0.5843703971550271,94.29992802488763,0.6726542073778454,0.09849109917734294,-0.7266614964569276,-0.09857683005705584
408.0,-0.018254252073037658,-0.2638680320312198,-0.08533774922105092,0.09998667366788799,-9.774980905558694,-0.717195761543959,0.22903216723188258,0.08022508603035168,0.02529742158537225,16.691075433105794,0.5764593921259007,94.1823323340164,0.6733688966753135,0.09879259128726017,-0.7259374739089075,-0.09897390837530205
