time,linaccel_x,linaccel_y,linaccel_z,gravity_x,gravity_y,gravity_z,gyro_x,gyro_y,gyro_z,euler_x,euler_y,euler_z,quaternion_w,quaternion_y,quaternion_x,quaternion_z
0.0,-0.009999999999999998,0.04875000000000002,-0.025750000000000002,2.321,1.1855,9.447249999999997,-0.2234375,-0.546875,0.371875,133.7828125,13.6859375,-7.140625,0.38867187500000006,-0.10327300975000005,-0.08604278600000001,-0.91151275625
1.0,-0.04008130081300815,0.05316056910569107,-0.018989837398373986,2.3634227642276433,1.1834593495934964,9.436075203252035,-0.3600482723577235,-0.3865599593495935,-0.05490345528455284,133.81378302845528,13.944092987804876,-7.140370934959349,0.38834536093495925,-0.10403418829065042,-0.08817581614634147,-0.9113646584247966
2.0,-0.05968641114982581,0.04410714285714287,-0.014549651567944251,2.398400696864112,1.1590435540069688,9.430931184668992,-0.4722506533101045,-0.18047691637630658,-0.08363458188153308,133.88099412020904,14.152869120209058,-6.994827961672474,0.38773912081881523,-0.10349883010365854,-0.09040406671080138,-0.9114635546559232
3.0,-0.05738211382113823,0.04074593495934961,-0.009521544715447153,2.3986032520325202,1.1313260162601633,9.433816666666669,-0.15046493902439026,-0.12324695121951221,0.05202743902439025,133.93633384146344,14.153452743902438,-6.826854674796747,0.38727669982926827,-0.10215806699146343,-0.091015101700813,-0.9117508270995935
4.0,-0.07241070023603462,0.036877065302911106,-0.007574940991345399,2.4145499606608976,1.1139964594807243,9.432233870967746,-0.3099023898505114,-0.300764653815893,-0.04418027143981117,133.94419379425648,14.250864230920534,-6.7275103265145555,0.38719348998190395,-0.10169395486683713,-0.09212581733910308,-0.9117263947901255
5.0,-0.06959244689221086,0.0279748229740362,-0.008017309205350119,2.427904012588513,1.093748229740362,9.430838709677424,-0.24650865460267507,-0.1310778914240755,-0.0676042486231314,133.9755999213218,14.329691188040911,-6.603422501966955,0.3869269799103067,-0.10093358385680565,-0.0931937397340677,-0.9118172495845784
6.0,-0.08190715971675848,0.03425570416994494,-0.004014948859166012,2.4424579071597172,1.0816089693154995,9.42783084185681,0.001396538158929983,-0.7614034225019669,-0.031087726199842645,133.98571498819825,14.426568646734854,-6.5389653815893,0.38683627679543653,-0.10072478274193547,-0.0941706766538159,-0.9117764799937051
7.0,-0.06968922108575926,0.04155822187254132,-0.00827812745869394,2.467928402832416,1.0736313926042484,9.422898111723056,-0.2927468528717545,0.23423239575137683,0.020830055074744294,133.97380261605036,14.576035110149489,-6.49552025963808,0.3868621081923682,-0.10086529447639656,-0.09549314647797011,-0.9116095629834771
8.0,-0.06001612903225807,0.05100806451612905,-0.010379032258064518,2.4853387096774195,1.0673467741935483,9.418862903225808,-0.1186491935483871,-0.5067036290322581,-0.04475806451612903,134.0234375,14.677469758064516,-6.460181451612902,0.38643040891129027,-0.10087432899193546,-0.09651410502419355,-0.9116800609999998
9.0,-0.07506451612903227,0.07444059795436667,-0.010258064516129033,2.589730920535011,1.0848426435877256,9.388290322580644,-0.03381933516915814,-0.9523468233674273,-0.15396464398111723,134.1588414634146,15.311972610149489,-6.5896464398111725,0.38504840061978757,-0.10377190197836347,-0.10133659424173878,-0.9114010741390637
10.0,-0.07003225806451613,0.07659049866996367,-0.009530721966205837,2.7141070117267994,1.1209336105803447,9.348192780337941,-0.029296860364917014,-0.8420924305009179,-0.29003315724401485,134.49877557041697,16.070652443707615,-6.835145800550747,0.3819735016222977,-0.10777412153334456,-0.10694778911222884,-0.9115741583101233
11.0,-0.05563594470046084,0.06147420478813086,-0.009549923195084485,2.6372764321306805,1.1497348544453176,9.366688556067585,-0.11279791174927878,0.8596865516466226,-0.09120273453598593,134.66658968613015,15.599307116631074,-6.990229150275374,0.3808084925544284,-0.1074006488780394,-0.1028104876870668,-0.9125808142848619
12.0,-0.03630184331797236,0.05498710239406544,-0.014637864823348692,2.5076180547750178,1.1519642014162068,9.401243471582179,-0.07436770587463938,0.7235428725975048,0.20492786660297477,134.56537649629087,14.816387429283278,-6.977120623524783,0.38196507707963356,-0.10490375053982617,-0.09641630887579147,-0.9130756210577535
13.0,-0.0432657450076805,0.0520905174028699,-0.01424884792626728,2.4319276909819787,1.159889550784908,9.421016897081412,0.01795127571091379,0.20388333146004273,0.13328790603574237,134.41289058109476,14.361383518789104,-7.011533382038889,0.3834035263335956,-0.10386356720040464,-0.09248095886358698,-0.9130166857420101
14.0,-0.03025806451612904,0.04919969278033795,-0.019251920122887865,2.399801843317972,1.1414608294930875,9.432781874039936,-0.38943932411674353,-0.021140552995391693,0.08464861751152072,134.42230222734256,14.163930491551458,-6.8935963901689705,0.3834120228725038,-0.10229886887557603,-0.09129052707219663,-0.9133227088786477
15.0,-0.05446774193548388,0.057811059907834104,-0.014258064516129031,2.4236113671274957,1.1007542242703534,9.431489247311827,-0.19827188940092166,-0.03301651305683563,-0.21872119815668206,134.53756240399386,14.311755952380953,-6.6490159370199695,0.38247603780337946,-0.10076682988172042,-0.0933500790453149,-0.9136826195468507
16.0,-0.05776843317972351,0.06983794162826422,-0.015108294930875576,2.403077572964669,1.1049700460829497,9.436221582181258,0.024783986175115208,0.05060483870967741,0.09863671274961594,134.50010320660522,14.184771025345622,-6.6724918394777255,0.38281542505222743,-0.10058673886328726,-0.09224707479301075,-0.9136803367396312
17.0,-0.07617444082274925,0.0693845490989472,-0.011897381139710016,2.410019707017346,1.1196559514443076,9.432774343411639,-0.321133528155558,-0.4730674665617624,-0.17490961372747366,134.53471488516726,14.22997709902214,-6.767053969502829,0.38253507840140866,-0.10142971007995205,-0.09233614696092315,-0.9136983283668649
18.0,-0.03727692855269567,0.05365746880971114,-0.01869212468622382,2.4805451463039976,1.0921704319808179,9.416749091454047,-0.16467922239706265,-0.19243705743509049,0.009980892435652464,134.68418158274324,14.649506856243676,-6.612441927990709,0.3811836832315575,-0.10142526547560976,-0.0963680545757746,-0.9138389062099583
19.0,-0.04438178599527931,0.06659185680566482,-0.017522226593233672,2.4850710070810385,1.1011372934697095,9.414370574350905,-0.12419477773406765,-0.6581653225806452,-0.006456530291109366,134.73724798387096,14.67679976396538,-6.667461644374509,0.38075030807572774,-0.10189542247619983,-0.09644768993981115,-0.9139543430920534
20.0,-0.05324830467198682,0.06810257202802442,-0.018197173204450932,2.533254205537446,1.1089073564122744,9.40085925030909,-0.11035847757671124,-0.1306355606758833,0.03662868569929939,134.7405025921659,14.96654408321157,-6.724725445843168,0.380571556523463,-0.10324920992262372,-0.0986144526434847,-0.9136491242514797
21.0,-0.059067700723090186,0.07455531827207672,-0.019683264021580306,2.530949683413885,1.1037560975609764,9.402764302573903,-0.13476593233674272,0.06200076804915512,-0.11081872166647933,134.7690668202765,14.950358735154172,-6.689630868082874,0.3803761044754411,-0.10292371844921508,-0.09863200083383912,-0.9137730944926754
22.0,-0.06393008879397549,0.07808092615488366,-0.01817534000224795,2.551977970102282,1.0868147315574546,9.399677269491589,-0.1322023341201154,-0.2886005582406055,0.12262700910419243,134.84392164025326,15.079915046270278,-6.591243302986024,0.3797419334499269,-0.10248512490442471,-0.10005221948289685,-0.9139324889645197
23.0,-0.054576411524483906,0.07553497433591848,-0.0174075156419767,2.5300538383724858,1.108673185718032,9.403616687272862,-0.09674937244764152,-0.06255573039601364,-0.0016676969765089325,134.73061940354427,14.947250711850437,-6.719594151586676,0.38066794919920566,-0.10315799358143195,-0.09847604572848526,-0.9136408440699485
24.0,-0.059959330860589716,0.0793017121876288,-0.014604623281255856,2.6174698774867933,1.1092028399085834,9.377807556854371,-0.12456961147952492,-0.23230068187778652,-0.1594196077329437,134.87595584654002,15.484640304784385,-6.743869656438499,0.379284100075606,-0.10488893185365854,-0.10286259374543853,-0.9135114408508671
25.0,-0.04671948409576262,0.061944138473642815,-0.016192386946910945,2.5829118148439547,1.1068771870668017,9.38795514405605,-0.14495838953205198,0.10899519032632723,0.09947922520699859,134.89022657450076,15.272383539863625,-6.722208562811435,0.379261206267431,-0.10404050111462665,-0.10123259234263421,-0.9138136112832134
26.0,-0.028091116855869014,0.061616462477988854,-0.01808006444119741,2.62548874152336,1.103454722565659,9.375943201828335,-0.10467245513468959,-0.48798752388445543,0.05357025776478962,134.9216589861751,15.52861568506238,-6.708430510284366,0.37887496406766324,-0.10472317253849611,-0.10337956888464278,-0.9136498176997865
27.0,-0.038472593758195645,0.057111610655277076,-0.01754924881046046,2.6519686411149825,1.1048901877037205,9.368655164662247,-0.2903066576748717,-0.13514199542917088,-0.062438181409463875,135.00909178187402,15.683984301824584,-6.721885186017759,0.37808717914443074,-0.10522979761102993,-0.10468773552987896,-0.913774760144056
28.0,-0.037719104394163414,0.05359952504877763,-0.015780709717767155,2.609052086125257,1.0849123040610058,9.382885126937053,-0.15163743612799474,-0.03707796923768601,-0.0003974258104864001,135.04949338296115,15.427585321182882,-6.590629908381678,0.3779436784236865,-0.10336479456115719,-0.10305738450013976,-0.914236776785664
29.0,-0.03974861592642867,0.05901062011683569,-0.013891141640944946,2.6739123530547606,1.0821052472311323,9.363798975742327,-0.2129007400938951,0.09716715228123568,-0.002490215658980415,135.21323508644514,15.81814454886839,-6.588592884954018,0.3764143432456749,-0.1044066731137808,-0.10638277382914149,-0.9143288108617542
30.0,-0.042287368545433066,0.05625747370908662,-0.01491645988420182,2.5671937847099127,1.0748449131513649,9.395096183386507,-0.11914214817440624,0.2639356611130805,0.05844706368899917,135.1453370554177,15.1757569715231,-6.529736056953799,0.37732908314604763,-0.10197638269851116,-0.10129061964155738,-0.9148141898030251
31.0,-0.04818899917287013,0.05461414392059555,-0.014877584780810587,2.5083779983457393,1.0666482630272953,9.412431348221673,-0.15445874689826303,0.06008322994210091,0.009868693134822169,135.11141180727876,14.82082299421009,-6.460941377171215,0.37773602791480554,-0.10038423816108355,-0.09860505227315963,-0.9151326072448305
32.0,-0.05111672617966875,0.04608224898626159,-0.01194823377514172,2.4993522564506034,1.0566776917024754,9.415632471907848,-0.2790033211281244,-0.22480324144122332,-0.016834929593092456,135.10617182614135,14.763452901511023,-6.403620521394419,0.3777798266367891,-0.09975769568665901,-0.09834431800449875,-0.9152247504457829
33.0,-0.0614748229740362,0.042867427222659335,-0.009746656176239182,2.5012187254130596,1.0396465381589302,9.417147915027538,-0.25055935287175457,0.267209628245476,0.027774636113296614,135.13896784028321,14.774302960267505,-6.300662618017309,0.3775745917832414,-0.09891948557120378,-0.09878595138355623,-0.9153601541616838
34.0,-0.06489063729346971,0.03935306845003936,-0.00893784421715185,2.417036782061368,1.059174075531078,9.436944925255705,0.12746729937057433,0.1600413060582219,0.15927542289535795,134.9297157749803,14.26777143981117,-6.40287667191188,0.3794519690287175,-0.09836091329366642,-0.09414471461113295,-0.9151242498872936
35.0,-0.07056628638867035,0.04101121164437453,-0.00730763178599528,2.3940788749016515,1.0856394571203776,9.440254720692367,-0.05433590676632573,-0.05999950826121163,0.017918961447678988,134.80240829071596,14.130659913453972,-6.553404061762391,0.38044462920790717,-0.09926546350570416,-0.0924436525434697,-0.9147882450605823
36.0,-0.0800027537372148,0.038403619197482315,-0.005426042486231315,2.438807238394964,1.0991337529504324,9.426981117230529,-0.16578973249409915,-0.2349380409126672,-0.049444335169158145,134.8197678992919,14.400988394964596,-6.6384392210857595,0.3802015696601102,-0.10076040888867033,-0.09436943126081826,-0.9145268965456335
37.0,-0.07009972462627853,0.03067309205350119,-0.007095397324940991,2.4412682926829268,1.0971239181746657,9.42731431943352,-0.1377237411487018,-0.24571449645948074,-0.20334628245476,134.86577498033043,14.416711742722265,-6.623433811959087,0.37982746357513775,-0.10065955914535799,-0.0945852136673879,-0.9146770211760424
38.0,-0.06575767112509834,0.03961664044059797,-0.00820633359559402,2.4817572777340677,1.1070891030684495,9.415758654602676,-0.048074842643587724,-0.24254155192761606,-0.08316286388670337,135.04188876868608,14.660491247049567,-6.686045682533438,0.37828649361447686,-0.1017946913278914,-0.09649235021597166,-0.9149924760761212
39.0,-0.0713600183582481,0.04354737551983816,-0.007779626091191786,2.5066424637518265,1.1049932842531192,9.409723989359708,-0.18003300503915176,-0.2504674445505976,-0.024612345921846305,135.17259328987296,14.807520969146903,-6.6758461419579636,0.3772096527811247,-0.10207064562343111,-0.09783844762718706,-0.9152667171261942
40.0,-0.06530500917912405,0.05037046195346747,-0.007147877561724924,2.4293534899404294,1.1251619647072046,9.427136188228243,0.021752650706230572,0.19908583417631415,-0.07415093102543928,135.11794987074296,14.339067944250871,-6.791199280656401,0.3778297091486269,-0.10153529450526394,-0.09365053616439999,-0.915495080171968
41.0,-0.06271230002622606,0.04472811059907835,-0.009962609119178747,2.4516657300213556,1.12827492413173,9.420436701509875,-0.15485931587426474,-0.09961129219587124,0.09944597429845267,135.1413215128695,14.480563673148252,-6.817157468809711,0.3775714533068075,-0.10214105327623543,-0.09472638844254617,-0.915432552480162
42.0,-0.06135615001311304,0.041728335393953014,-0.007162264433704243,2.477230189951668,1.090497808249972,9.418293881832831,-0.02631832827544866,-0.06651984751414333,0.07387719643325466,135.09860135438913,14.63557097898168,-6.59647212543554,0.37791268551414336,-0.10091249779390057,-0.09661991930073807,-0.9152311252731258
43.0,-0.05536021505376344,0.044343317972350235,-0.012721966205837171,2.4374262672811056,1.0863755760368665,9.429459293394777,-0.4362807219662058,-0.1226334485407066,0.004872311827956992,135.0877448156682,14.395190092165898,-6.565466589861751,0.37810456066973885,-0.09991128796697388,-0.09475984594777265,-0.9154567214815668
44.0,-0.06093607395751376,0.04872836349331236,-0.010270259638080252,2.5142464594807237,1.0506040519276159,9.412379228953576,-0.041202793076317856,-1.0738308910306844,-0.03285429779701023,135.1258101396538,14.866475708103856,-6.368850806451613,0.37762176694571203,-0.09979057621420143,-0.09923059427498032,-0.9151778982020065
45.0,-0.060597954366640436,0.07304760031471283,-0.011576317859952792,2.7335737608182535,1.0698046813532653,9.346683516915814,-0.10659052911093626,-0.694048731313926,-0.1450420436664044,135.34531495869393,16.19528545436664,-6.53104224036192,0.37521882991719113,-0.10496646971164439,-0.10967123737490164,-0.9143320330747444
46.0,-0.0599141845565921,0.06501919186242555,-0.010870724214154583,2.6780316960773294,1.0594601363755576,9.365255160915662,-0.06487480564609793,0.4497246262785209,0.46320886487954743,135.26924086068337,15.851028143849986,-6.4547528310104525,0.3760271113044097,-0.10338444093032295,-0.10709111749275038,-0.9145187381594919
47.0,-0.06914670675508597,0.06651107114757784,-0.012412348731782246,2.6401090817129376,1.047741869918699,9.378207242141542,-0.309348422689296,0.3120635818253344,0.04455744679854634,135.04016171181297,15.61710841201154,-6.3714773940654155,0.37797143588253534,-0.10223289214385935,-0.10526523729141846,-0.914080723374199
48.0,-0.05919973024615037,0.06925592896481961,-0.006922932823798282,2.5509980892435653,1.0397744558090742,9.403446854745045,-0.1391082199992507,0.38394964594807235,-0.06013731220261512,134.9833651792739,15.073187123000263,-6.306051197032708,0.37866151270690496,-0.10007222345322392,-0.10103755757558729,-0.9145151287501403
49.0,-0.061126222322131045,0.06600089917949872,-0.008496871604660745,2.478366865235473,1.040752688172043,9.423194709827282,-0.1237191375369975,0.23160896931549962,-0.10609147278108726,135.0393320782286,14.63245803829006,-6.295556086321231,0.37839714127870816,-0.09857769319396048,-0.09756915272563786,-0.9151701260233787
50.0,-0.06443014499269414,0.07209565021917501,-0.010108388595406689,2.442826233561875,1.0320742197744561,9.433692555543066,-0.19314890787156722,-0.08766227380015737,0.05103569555280807,135.10033086995617,14.425744164699712,-6.240524896032371,0.3780358842451762,-0.09742168445850657,-0.09608382579869619,-0.9156160273649545
51.0,-0.06248465774980329,0.07758929976396539,-0.01095357985837923,2.4168670338316285,1.005784421715185,9.443285601888276,-0.11943351691581433,-0.1733674272226593,0.0868705743509048,135.0454563335956,14.265627458693942,-6.080055074744296,0.37857506618095976,-0.0957130268544453,-0.09528247664358773,-0.9156586533092053
52.0,-0.0605680566483084,0.07229346970889063,-0.009772619984264359,2.3954169944925257,0.9759795436664044,9.452482297403622,-0.48659520062942563,0.13561172305271438,0.0073269079464988104,135.04178304484657,14.137421321793862,-5.8942023996852875,0.37868660552557043,-0.09383191956490952,-0.09483108953737214,-0.9158542396254916
53.0,-0.07916679779701022,0.07951416207710463,-0.0036935483870967744,2.363321400472069,0.9529992132179388,9.46293430369788,0.013080251770259649,0.20916109362706528,0.2159470889063729,135.00990116050355,13.942609166011014,-5.747101199842644,0.37906150571479147,-0.09210249456451614,-0.09368312739575137,-0.915992716830055
54.0,-0.06877694728560188,0.08948170731707317,-0.010245672698662469,2.272081628638867,0.9500322580645162,9.48492899291896,-0.17053501180173092,0.5960734657749803,0.03327842250196694,134.83972634736426,13.397224134539732,-5.716366296223446,0.3806318995804484,-0.09024494997305271,-0.08921902665224232,-0.9159592952128245
55.0,-0.07723367427222659,0.09546125098347757,-0.00833221872541306,2.239355625491739,0.9505607789142407,9.49281490952006,-0.06298805074744296,0.47999114870180964,0.030823416601101494,134.85254966561763,13.197011457513767,-5.716458497246262,0.3806164980310779,-0.08960122879523996,-0.08764516957887492,-0.9161823682897327
56.0,-0.06634284028324153,0.10066050354051927,-0.014928599527930762,2.2495920535011797,0.9643709677419354,9.488641620771045,-0.023682140047206923,-1.1430382081038553,-0.009849527930763179,134.90272177419354,13.261729199449253,-5.800279061762391,0.3801763686538159,-0.09043745124567269,-0.08796017567800943,-0.9162428603503149
57.0,-0.06872246262785209,0.1087932730133753,-0.016764555468135323,2.309240952006294,0.9901835169158146,9.470048780487803,-0.006100019669551532,-1.2465283241542093,-0.01698957513768686,134.94534938040914,13.622951907946499,-5.966705595987412,0.37963548482159715,-0.09285500432769472,-0.09040018490184894,-0.9159531638170731
58.0,-0.06082724513881084,0.11371211269716386,-0.021813345322393318,2.4046970889063726,1.0149702146791053,9.444185680566484,-0.093245382338616,-0.3836616275148927,-0.031944288336892585,135.07289910456709,14.199179967030084,-6.130029785320895,0.37833681693979243,-0.09585906204825598,-0.09459850124873553,-0.9157663501408713
59.0,-0.04740496796673036,0.10933520662395563,-0.02199400547000862,2.532605822187254,1.0409367202427784,9.407627065302911,-0.021686617211794237,-1.5241331347645273,-0.24178843055711663,135.23672492600502,14.977092933947773,-6.308494436326852,0.3766740174313439,-0.09956937412955677,-0.10045185288321906,-0.9154231199775955
60.0,-0.04297471057659886,0.10276752463377167,-0.020835712412423664,2.714284815106215,1.0779939305383839,9.352118017309206,-0.13099968154059421,-0.7242764414971339,-0.3236381177175827,135.632573713986,16.077624948484505,-6.568487973474204,0.37299217540331947,-0.10462856856753212,-0.10888505738181409,-0.9153859838951706
61.0,-0.0656226818028549,0.08775276310366789,-0.018204638267580828,2.7016561762391813,1.1032180510284368,9.354326514555467,-0.10039854257989583,0.5005388052152411,0.25824880109400167,135.71783091678844,15.994423213817392,-6.719152523322467,0.37234415748136074,-0.10550686435693679,-0.10780848586714623,-0.9157114463929039
62.0,-0.05760284365516466,0.07399046495073246,-0.01774512007792889,2.6039437450826117,1.1181039114308193,9.380231707317073,-0.08771894084148214,1.0122924159829156,0.024113582293657024,135.53296640253268,15.398691740661647,-6.788790463077442,0.3740364411324979,-0.1044090791296879,-0.10258477444812858,-0.9157476598880334
63.0,-0.06078186467348544,0.07022010228166799,-0.012608182533438237,2.5023278914240756,1.121406963021243,9.407543076317861,-0.17897816679779702,0.15547674075531082,-0.00865829071597168,135.56548731313927,14.784119295830056,-6.790475019669552,0.37401775676534227,-0.1025071736528324,-0.09764343912863886,-0.9165138462004326
64.0,-0.06559081712936944,0.07126999737739315,-0.011724982203739086,2.4989360271252483,1.1045373908808216,9.4109295642726,-0.17150713255404443,-0.695239500206062,-0.11317251133340826,135.62533918268332,14.765348338391217,-6.686548953767187,0.37357432805337,-0.1015712297828294,-0.09786607777975721,-0.9167916864982576
65.0,-0.06496130718219623,0.06934992132179385,-0.014153862725263196,2.6637481079764718,1.1064084803866474,9.363528174290959,-0.18109469249934435,-0.5325357798508861,-0.19235650593833128,135.89881403141507,15.767448063017497,-6.733690487898542,0.3709178188734499,-0.10474185014711887,-0.10611444154676668,-0.9165503935546628
66.0,-0.05587276610093289,0.0712509834775767,-0.017523135139185495,2.6223438612266303,1.1253546139148025,9.37371510996216,-0.09811827956989248,0.4956961147952493,-0.4035395826308493,136.3109966842756,15.51351110861339,-6.84033007380765,0.36774117259713013,-0.10444653534037691,-0.10404781172155408,-0.9181127314911395
67.0,-0.048287287849837025,0.0688198269079465,-0.017772582518451915,2.515850136750216,1.1503987861076768,9.400154958600279,-0.15191122475740887,0.07226780562736501,-0.1025073994979581,136.50006462852645,14.869216215203625,-6.972820426360945,0.3664656650814132,-0.10338363662455508,-0.09859404687729947,-0.9193534439414786
68.0,-0.21849061481398227,0.12168371361132968,-0.03015694428833689,2.075804690719718,1.2127131617399125,9.479333970252146,2.62700957251508,7.038985987786146,7.325491972949683,133.09936354951105,12.23095448840433,-7.283494202165524,0.39422716570357047,-0.09877842427215167,-0.07336004952834288,-0.909161750700086
69.0,-0.038192312015286056,0.08765906110674011,-0.015543141883031726,1.6742210857592448,1.3588903750327825,9.533262223221314,0.1507263684387996,-2.4518395713911056,-1.6465330073807647,132.30249475478627,9.867488572927204,-8.100958890637294,0.4010733340023228,-0.09790278103776552,-0.051019986268779724,-0.9078717908846052
70.0,-0.10971518489378443,0.10478874901652241,-0.009139260424862308,2.033951612903226,1.4264468922108575,9.459178599527931,0.07137834382376085,-1.7591291306058223,-0.3404627261998424,134.37829956726986,12.006163945712037,-8.568956530291109,0.38387113293902436,-0.10775716967702595,-0.06868234756884344,-0.9133539597938631
71.0,-0.11188906372934695,0.0974077498033045,-0.013267505900865458,2.280074154209285,1.4570999213217937,9.405602675059011,-0.10920166207710463,-1.103369640047207,-0.30781004130605816,135.1634465971676,13.462316827301336,-8.800710562549174,0.3771863171186074,-0.11403629482828481,-0.08042921428717545,-0.9148709523839496
72.0,-0.10492993893072572,0.0840101345022667,-0.01469980517777528,2.3996858866284523,1.4774178562062112,9.378418849050243,-0.04136518395713909,-0.9701167996703008,-0.1976106178112472,135.34010703514295,14.175024821100745,-8.947179878048779,0.3755394722753176,-0.11751941953030981,-0.08583580313283504,-0.9149428397349857
73.0,-0.08273434865685064,0.06652456820651156,-0.011965316024127984,2.475561162938819,1.5007710464201416,9.3594342193998,-0.14802654686973135,-0.4923490127758421,-0.31855517777528003,135.19268403909558,14.626328163051216,-9.102667858547825,0.3765258715284272,-0.1204778735514499,-0.08880360142105015,-0.9141031037195404
74.0,-0.10032685174778017,0.0668388970064816,-0.013059270915289797,2.5310870330823128,1.5032242328874905,9.346463077441832,-0.2545324266606721,-0.4321624096137274,-0.06341065340376906,135.2401172211607,14.95701488797722,-9.126409534112621,0.3760740432117943,-0.12174861669911202,-0.09140994620649283,-0.9139839878879961
75.0,-0.09626885467011351,0.06307719830654529,-0.01315040650406504,2.5366764827095283,1.499259638080252,9.345434528492753,-0.037351775879509955,0.40186234358023304,0.12329073938780863,135.21162037297216,14.988612676089318,-9.103871564853321,0.37631136625971295,-0.12167814524176687,-0.09170946614415906,-0.913869167201276
76.0,-0.09429021018320782,0.07075594769772584,-0.018252032520325204,2.3782800194822227,1.6372155782848155,9.360760930650784,1.2730358547825111,0.9868569929938931,0.4659173504177438,134.78565012551047,14.033992731632384,-9.91005746318984,0.37985788002206733,-0.12538816882387321,-0.08086924068704805,-0.9128103258460156
77.0,-0.07643550260387397,0.06306895582780714,-0.019816885841669477,2.233060526020007,1.7425289610730212,9.37747864448691,-0.13090660241279828,0.6128689211719306,-0.16624131261473904,134.51098579577385,13.158786318421939,-10.515893700123637,0.3821717122845528,-0.12762446843510922,-0.07155039927612303,-0.9123195888409203
78.0,-0.06263571990558614,0.0529636113296617,-0.020443548387096777,2.193687450826121,1.7028286782061368,9.395886113296616,-0.5188692466561762,-0.6797096282454761,-0.209341807631786,134.7770345692368,12.926623967348544,-10.26682976003147,0.3802393796506688,-0.12477085606864671,-0.07076721534382376,-0.9136311338623133
79.0,-0.06481248360870703,0.05121164437450827,-0.022903225806451617,2.251957588700311,1.657858079502454,9.391640253268887,-0.38399179498707425,-0.12465344123487324,-0.17160278745644597,134.9548443295493,13.27123609081713,-9.997506181859054,0.378782748568806,-0.12364183424150461,-0.07461615641077515,-0.9141070281915253
80.0,-0.06623078940466823,0.045392604248623146,-0.025694728560188833,2.2658167172455137,1.6187535873515415,9.395149001536094,-0.443992356974261,-0.0811111423326215,-0.1209508823198831,135.14560666516803,13.3558530965494,-9.757983027986961,0.3773171026612716,-0.12188598863609457,-0.07626403769712638,-0.9148306604167696
81.0,-0.07094069161889774,0.041825034655876524,-0.02537686860739575,2.2412802817429096,1.5775773107039823,9.408048630624554,-0.26759675546064216,-0.008853639803679147,0.008447604061294064,135.27356271777003,13.210275935708665,-9.508873777677868,0.37638586263407137,-0.11936431783215318,-0.07601994741081262,-0.9155765383369673
82.0,-0.06753879584878797,0.0531729421902514,-0.023055861526357198,2.2666204713199205,1.5533598591285451,9.406848076130526,-0.2533744988947585,-0.5771008954329174,-0.13164854257989583,135.44682266494323,13.362971366752838,-9.365623946274024,0.3750027870880821,-0.11861179480199321,-0.07788592692491852,-0.9160887345846914
83.0,-0.060583717357910905,0.052728878648233495,-0.020999999999999998,2.2893448540706602,1.551993855606759,9.401678955453146,-0.08989535330261136,-0.21116551459293398,-0.0522129416282642,135.58650633640553,13.499006336405529,-9.36196716589862,0.37383496969431645,-0.11889018378494624,-0.0791447558778802,-0.9164296718202762
84.0,-0.059512288786482334,0.06155798771121353,-0.02170967741935484,2.3143882488479255,1.5537788018433178,9.395130568356368,-0.1464885752688172,-0.17565284178187407,-0.015075364823348694,135.71367367511522,13.648523905529954,-9.381631624423964,0.37275246744086016,-0.119402194421659,-0.08044494038056836,-0.9166888315023041
85.0,-0.056135176651305685,0.0608394777265745,-0.02188709677419355,2.3374562211981567,1.5475829493087558,9.390129800307212,-0.2614247311827957,-0.1620199692780338,-0.013056835637480798,135.8966301843318,13.789760944700461,-9.352030529953916,0.3712373987688171,-0.11941149529953918,-0.08188265558141322,-0.9171740365092167
86.0,-0.04874272226593234,0.05407808811959089,-0.022499409913453977,2.343101494885917,1.535425452399686,9.390721675845784,-0.2666576514555468,-0.28496508654602676,-0.08303009441384734,135.98128442171517,13.824956972856018,-9.282055222265932,0.37056051239319426,-0.11891293338709677,-0.08247068384874115,-0.9174618743951611
87.0,-0.04979071597167584,0.04561565696302126,-0.023044059795436667,2.333905586152636,1.5270232100708112,9.39450196695515,-0.20787519669551535,-0.048883752950432735,0.03731559795436664,136.05309180763177,13.770870623524782,-9.229258457907159,0.3700014091522423,-0.11827132136290322,-0.08229374108162865,-0.9177869805483871
88.0,-0.058776750590086545,0.05054504327301338,-0.02355232100708104,2.3470442564909515,1.5072275767112508,9.39402635719905,-0.1919760523210071,0.08739304681353265,0.10018071400472069,136.06356707317073,13.85320859559402,-9.108530438630998,0.36994693600236034,-0.11758004397206921,-0.08331007856156569,-0.9178090163609361
89.0,-0.06921498819826907,0.05834107002360346,-0.021864870180959877,2.3516713217938627,1.4952065302911093,9.395134146341455,-0.1781704858379229,-0.19866738788355626,-0.052606215578284814,136.0782553107789,13.876705104248622,-9.033927517702596,0.3698246162511802,-0.11707072023603463,-0.08376038787352477,-0.9178837151280488
90.0,-0.06355507474429584,0.05969472856018882,-0.020250983477576714,2.3583154996066082,1.4886597167584579,9.394962234461044,-0.1990902832415421,-0.19540224232887488,-0.08094020456333595,136.1817687844217,13.913881785995278,-8.997155291109362,0.36899052479897715,-0.11680604200511409,-0.08430614952950431,-0.9182040170357987
91.0,-0.05664771833202204,0.05048859166011016,-0.020955546813532653,2.3649445318646727,1.4735509441384742,9.395970495672692,-0.207014653815893,-0.24008408733280878,0.06490952006294257,136.30260252753737,13.948581333595595,-8.906991296223445,0.3680310745946106,-0.11611858110483875,-0.08499221479622343,-0.9186077992692762
92.0,-0.05760477314450565,0.05707378891761269,-0.017103349443632686,2.406563279757221,1.46704870555618,9.38621220636169,-0.2746166779064104,-0.4519040828369113,-0.10196824304072531,136.35155928028172,14.20094437263497,-8.873024497958113,0.36753239569611473,-0.11658485462288787,-0.08720654256477839,-0.9185403146190849
93.0,-0.053397193810647794,0.05634570641789369,-0.023775907609306514,2.4191825053388776,1.4699720317710088,9.382508148814203,0.021203659473230663,0.19851688069012025,0.0007467990146491424,136.4776826692518,14.28027647427972,-8.895599581787868,0.3664827173484507,-0.11688442483701438,-0.08788941539332548,-0.9188558555392827
94.0,-0.06335988722790455,0.04903978869281782,-0.019948437675620996,2.347079155895245,1.4539940804016331,9.402802461503875,-0.3214042186504814,0.2520558193773182,-0.0480388988797722,136.56489980236785,13.8482531564947,-8.782099186055223,0.36597835184358024,-0.11462497518866847,-0.08478943422488855,-0.9196234816406093
95.0,-0.04358877524259114,0.052237832977408125,-0.021253231426323484,2.3116691019444753,1.4451543966130904,9.413197257502532,-0.22158920609943428,-0.3107086658424188,-0.04984311191038177,136.58008832565284,13.63539723127646,-8.721558296804165,0.3659632635830804,-0.11352642065894872,-0.08326581290532391,-0.919907868106103
96.0,-0.043705481248360864,0.06312757109137912,-0.023824884792626733,2.4110162976284144,1.442504814356899,9.38742396313364,-0.14923874152335995,-1.2047396594357649,-0.09669083211569442,136.72050246337716,14.23820412311266,-8.728049014649132,0.3646265543399273,-0.11523495727990708,-0.08830246154235508,-0.9197341138713049
97.0,-0.05058929976396538,0.05093705743509049,-0.02098387096774194,2.412148701809599,1.436246262785208,9.388403225806451,-0.07000147521636507,0.45066876475216366,0.06949252557041699,136.75877753737217,14.240391424075531,-8.689029307631785,0.3643276090094414,-0.11491130653933909,-0.08846542609913452,-0.9198878015393391
98.0,-0.03855664830841856,0.058636113296616846,-0.023810582218725417,2.3966951219512196,1.432035798583792,9.39298760818253,-0.17777217741935486,-0.10658929976396536,-0.015337332808811957,136.7578260228167,14.151711250983478,-8.657889948859168,0.3643903815645162,-0.11441461623741148,-0.08780932667269864,-0.9199979661677813
99.0,-0.04131864673485444,0.06927773406766327,-0.024417387883556255,2.383936270653029,1.430090479937057,9.396780094413847,-0.10987903225806452,0.010717446892210852,-0.05605576317859953,136.83964889850512,14.068899980330448,-8.646233280881198,0.36374788048387097,-0.11399914321951221,-0.087284071675059,-0.9203583969830841
100.0,-0.04266561762391817,0.06055546813532652,-0.026701219512195118,2.321409520062943,1.4052458693941774,9.416151652242327,-0.3684229937057435,0.33224208300550745,-0.005924223052714398,136.936740263572,13.691806402439024,-8.478309402045634,0.3631507791955153,-0.111475897447679,-0.08481675555428794,-0.9211254859895753
101.0,-0.03132336742722265,0.06120102281667979,-0.024634539732494097,2.2708754917387886,1.3869893784421712,9.431461841070021,-0.21909298780487804,0.11408708693941776,0.017276012981904013,136.95903815892996,13.387454514162076,-8.35786536191975,0.3631178802551141,-0.10958876599016523,-0.08272535635936269,-0.9215578502409518
102.0,-0.024798780487804872,0.06364083398898504,-0.02918823760818253,2.2704337136113297,1.36654307631786,9.434618017309205,-0.18210193745082612,-0.09570343233674272,-0.03846380802517702,137.0281581923682,13.384881490952004,-8.232864132572777,0.36259214210739577,-0.10855624030959873,-0.08316233419984265,-0.9218546901245082
103.0,-0.03260503540519276,0.06024898842306395,-0.024976799295642726,2.2844966187104268,1.3578535274062422,9.43284126671912,-0.21500570182833165,-0.014855604417219292,-0.03000859372072983,137.1163964444944,13.469315265445282,-8.182211876194224,0.3618926630118392,-0.10835291961370874,-0.0840841339451594,-0.9220715989718161
104.0,-0.04060896931549961,0.05995110711475779,-0.027831141583305234,2.2836636319358585,1.3434993443482828,9.434594020456334,-0.1847457944625529,-0.23295703607957738,-0.08602244202165524,137.22815789966654,13.465000374658125,-8.09375210745195,0.36102445639301634,-0.10753890681491889,-0.08441493640403132,-0.9224780701673598
105.0,-0.04399134539732494,0.06862150162976283,-0.02545136937544491,2.2612590386272524,1.3432626540781545,9.440601494885914,-0.09138450226668164,-0.04239315218613014,0.015195899366827775,137.25085609381438,13.329780871829456,-8.087655951444306,0.3608751966142894,-0.10709633524931625,-0.08333871439084337,-0.922685105040407
106.0,-0.04101612903225807,0.06466244239631336,-0.02061789554531491,2.2869316436251923,1.3446155913978508,9.433911290322579,-0.17762576804915514,-0.10967021889400921,0.02154857910906298,137.29999039938556,13.485258256528418,-8.109101382488479,0.36041555611674336,-0.10766342092127498,-0.08458742040706606,-0.9226826543006912
107.0,-0.04548387096774194,0.060182027649769584,-0.022675883256528424,2.3457480798771124,1.3499086021505384,9.418306451612903,-0.16073828725038403,-0.39059619815668206,-0.034639016897081404,137.3510032642089,13.840865015360983,-8.153341013824885,0.3598602812680491,-0.10900933706144394,-0.08740747660675882,-0.9224754937511521
108.0,-0.04790322580645162,0.05887824547600316,-0.0238402832415421,2.3521860739575136,1.3379683320220304,9.418866050354051,-0.12750172108575925,-0.017418617230527178,-0.03345790715971675,137.43836177222659,13.875441335562549,-8.076654701022816,0.35911412405409127,-0.10844293723328088,-0.0880079589480724,-0.9227789869126672
109.0,-0.034624901652242336,0.05402202989771834,-0.024520259638080254,2.3391671911880403,1.345151652242329,9.421075334382378,-0.15965406176239183,-0.5768661487018095,-0.12854420731707317,137.5797674075531,13.802182090873327,-8.115028766719117,0.35800723547147917,-0.10844577623564122,-0.08742897003599528,-0.9232614791182138
110.0,-0.03068245850661272,0.05195225918849051,-0.02626301000337192,2.342679217713836,1.35983446667416,9.418148074257244,0.03181731435689934,-0.011484149619721995,-0.08761719774455808,137.71186671068898,13.8233896725488,-8.207383574987823,0.356910240414119,-0.1091308248566839,-0.08744901857809748,-0.9236031834483159
111.0,-0.02124944737926642,0.05854467798134202,-0.025408002697538498,2.3648035105466256,1.3644320182833165,9.411821540968864,-0.2456780843730096,-0.45911549070847846,-0.12106714341913002,137.8458815120265,13.952305435352741,-8.236701100089917,0.3557810177475741,-0.1096660189212375,-0.08857544041078455,-0.9238673145041121
112.0,-0.037151474279719765,0.05115432168146567,-0.024889288524221648,2.38415608257465,1.3417773781424447,9.410130381027312,-0.4006149076467723,0.1886052414671612,-0.11650696864111498,138.03030515904237,14.067794387621296,-8.10418539957289,0.35429766167846843,-0.10878069925930088,-0.09009102792401935,-0.9243946749923193
113.0,-0.043827507399497964,0.054609418905248966,-0.024254243003259533,2.3580300475815816,1.3156723240043455,9.420482185006183,-0.16566445618373232,-0.11977586077704094,-0.053803248285939076,138.11345116331347,13.914355494361395,-7.946590142744745,0.3537201043640179,-0.10698116414971337,-0.08936750532314264,-0.9248968129170883
114.0,-0.05071705818440673,0.0701190288861414,-0.023717994829717884,2.3635815068749766,1.3108731407590573,9.419924019332363,-0.047500796148514476,-0.22578584541605784,0.06456670787906035,138.13561523547264,13.947967479674798,-7.920079099696527,0.3535269313716235,-0.10683762352804316,-0.08972031206361697,-0.9249581064129107
115.0,-0.051110449215091225,0.07488670338316286,-0.02663549511071148,2.391615638230115,1.308249934434828,9.413055711663109,-0.3062628788730284,-0.13614561088007193,-0.054141377243265516,138.21174482971787,14.117944953355064,-7.905311247236896,0.3528469473371174,-0.10716435917339179,-0.09122006998418944,-0.9250328454683601
116.0,-0.05181984708184551,0.05995162299017531,-0.024969053238919486,2.384940809780306,1.2699376223042624,9.42072081341161,-0.4210882809820654,-0.00915088059069176,0.02164873711392201,138.35796793358753,14.074435004740867,-7.667207201073252,0.3517369931530796,-0.10504252969747219,-0.09173491484084811,-0.9256452227991689
117.0,-0.056153039197885786,0.07558635437471001,-0.019445974298452663,2.365447588210373,1.2486422965966628,9.428033105368279,-0.06227506102604449,-0.11166631362343399,0.09729663448929773,138.32351583146723,13.95684771480159,-7.531528462849765,0.3521034957456979,-0.10366619027753232,-0.09112554425519984,-0.9257221351525349
118.0,-0.06803639371381306,0.073889164598842,-0.018502688172043015,2.3701321339950363,1.2521480562448302,9.425911910669978,-0.3208798593879239,0.014392059553349879,-0.007926230355665843,138.23957557899087,13.987048955748552,-7.558575010339123,0.35271760508291977,-0.10400684993341605,-0.09122468030934658,-0.925440869281224
119.0,-0.06730045492142267,0.06848490488006617,-0.013521505376344087,2.3470055831265504,1.2244691894127377,9.43535111662531,-0.18886734904880065,-0.04512251861042184,0.09570926385442514,138.22392085401157,13.847985163358146,-7.384907464846981,0.35293892360194373,-0.10225844385380478,-0.09059281348531845,-0.9256121918502891
120.0,-0.048567320300994574,0.06822012749904174,-0.01723695253081563,2.3556006475821585,1.2093637253121912,9.435572293167102,-0.16124499435130826,-0.40527049415965627,0.13397530462587504,138.1838680047005,13.899912747886782,-7.2982648555548835,0.3532486470974903,-0.10172536650607233,-0.09125030040542477,-0.9254853700596843
121.0,-0.05165479937057435,0.06144630212431157,-0.013655192761605036,2.3386197875688435,1.1889966561762388,9.442138867033831,-0.13414511211644375,-0.03408610346184107,0.16152758654602675,138.13049641030682,13.796803697875688,-7.170115804484658,0.35376621949822984,-0.1004720219553501,-0.09073007981254917,-0.925476894123328
122.0,-0.05195239968528718,0.0635981510621558,-0.009694531864673485,2.3471848937844215,1.173236231313926,9.441803304484658,-0.13433566089693155,-0.18264285011801729,0.125698269079465,138.07031372934696,13.847595397324941,-7.078379474822974,0.3542442350595988,-0.09988592023170731,-0.09138992826514553,-0.9252961346140836
123.0,-0.047487214791502766,0.07709343036978757,-0.015890637293469713,2.450306254917388,1.1728625098347756,9.41472383949646,-0.2745107199055861,-0.3065302911093627,0.01897988788355625,138.17583103855233,14.470460021636505,-7.0957280192761605,0.35314453178422506,-0.1017422126880409,-0.09653667618253342,-0.9249639276632574
124.0,-0.04925570416994493,0.06938945712037765,-0.018380802517702598,2.3779716758457905,1.1615239968528712,9.434781274586939,-0.09446302124311565,-0.09016030684500392,0.0861280487804878,138.05555664830842,14.034952793076318,-7.0118509047993705,0.3542933266380802,-0.09991388781982691,-0.09309302451062154,-0.9250831388961449
125.0,-0.031619984264358775,0.06507710464201417,-0.018267505900865462,2.3143107789142405,1.1511199842643585,9.45218292682927,-0.1569679386309992,0.19673239575137685,0.10578038945712037,137.93507081038553,13.652768489378442,-6.936841070023603,0.3554425136140834,-0.09829639863690008,-0.09006679707671125,-0.9251209871081826
126.0,-0.045122344610542875,0.08043548387096774,-0.01386782061369001,2.3769712824547597,1.1571933516915813,9.435639063729347,0.0323293666404406,-1.377105871361133,-0.1154319925255704,137.9572138080252,14.032767014162076,-6.987696695515342,0.3550811711673879,-0.09980303817132177,-0.09306944441955153,-0.9247911080253736
127.0,-0.05636877599190738,0.08584254992319507,-0.01752838035292796,2.520693398523847,1.1721183732344236,9.395280169345472,-0.15468065078116217,0.048665046270278234,0.03757130212431157,138.0896716121539,14.89746309617474,-7.110591819339852,0.35366577377128994,-0.10314782286542282,-0.09987631367425348,-0.9242307712114197
128.0,-0.04940783410138248,0.07811482334869432,-0.018474654377880186,2.5151240399385557,1.1740733486943165,9.397692012288784,-0.11654665898617511,-0.5657786098310292,0.03795362903225806,138.06052227342548,14.863095238095237,-7.116133832565284,0.3538925668014593,-0.10314807129109065,-0.09956502121006144,-0.9242012931658987
129.0,-0.05651843317972349,0.0838678955453149,-0.017680875576036866,2.6327515360983096,1.1758149001536098,9.365063748079876,-0.07651929723502303,-1.610611079109063,-0.15287298387096773,138.19487807219662,15.577464957757297,-7.150204013056836,0.35251725775153614,-0.10537753521006146,-0.1054353752703533,-0.9238158525587556
130.0,-0.05960752688172041,0.09010522273425497,-0.017516897081413213,2.8909539170506906,1.1911697388632871,9.283608294930874,-0.2044954877112135,-1.9346078149001535,-0.1683395737327189,138.46662106374808,17.159595814132103,-7.3098622311827945,0.3495946595737327,-0.11081512495775733,-0.11814812163056836,-0.9226783580691245
131.0,-0.0598279569892473,0.09538709677419355,-0.023105990783410142,3.121455453149001,1.2069877112135174,9.204953149001536,-0.19474366359447004,0.772955069124424,0.04618855606758833,138.75509312596006,18.572729454685103,-7.47073732718894,0.34655417633870955,-0.11570899138863289,-0.129502041093702,-0.9216524095353302
132.0,-0.05375628489003785,0.08009735491364131,-0.01826846127908284,2.7057610711475775,1.1930163538271326,9.32921836012139,-0.10141287091154322,2.19208558128208,0.24823688228241728,138.41733935362106,16.037010427203928,-7.2875819564647255,0.35041752260277803,-0.10738039852129933,-0.10896458942690421,-0.9236287387594602
133.0,-0.04494954291708816,0.07037479862125809,-0.01662459255928965,2.531078509609981,1.2004200573226933,9.38160770484433,-0.09647686720242778,0.36331511558203144,-0.0054682524071784505,138.3284172918774,14.971977504121238,-7.2881667158405445,0.35164514592107826,-0.1044986477549455,-0.10014952712179201,-0.9246262178227866
134.0,-0.04394308943089431,0.0781184668989547,-0.0251195159417032,2.4884989322243447,1.2107847214416845,9.396747592821548,-0.05769383874714323,-0.256173663407141,-0.20788725600389646,138.42483772619983,14.704603143381664,-7.339392257689857,0.3509964346045483,-0.10413491642950808,-0.09791884687291597,-0.9252767511172306
135.0,-0.044021580307968974,0.079946423888202,-0.022602000674384625,2.5562365591397844,1.22281742909595,9.379400734329922,-0.22102487729946424,-0.1504556779438762,-0.13890098722415795,138.72811411149826,15.110984273725226,-7.421274961597542,0.34837760629875236,-0.10571336851972575,-0.10129396444606797,-0.9257776651854559
136.0,-0.05440260762054625,0.06680266756584617,-0.01600914165823686,2.3822816679779697,1.218623880708853,9.425815818066017,-0.14549379940804016,1.0425564797122626,0.10917069424150462,138.58143428496498,14.051065902364094,-7.358105260200068,0.35000510566370685,-0.10230332472556292,-0.09266271828106853,-0.9264645670746698
137.0,-0.05386534787006857,0.04593870593083812,-0.011686710876325354,2.268481510621558,1.2007084785133564,9.456027499906337,-0.2502646023004009,0.7859320557491289,0.21110580345434787,138.50494314562962,13.3715695365479,-7.230808137574463,0.3508800131032933,-0.09937277288599153,-0.08740388978569555,-0.9269711093319845
138.0,-0.04195627739687535,0.053960698362744,-0.020579783447604062,2.222576711250983,1.198355812820801,9.46801768386348,0.00222804503390657,0.04901933235922218,0.10879837773032107,138.33525579783446,13.098304437825483,-7.204457963358435,0.3523566499190739,-0.09853359979075345,-0.08509364938143944,-0.9267359561018695
139.0,-0.03550118017309206,0.055529504327301346,-0.017885129819040127,2.22588512981904,1.1984720692368214,9.467790715971685,-0.24212234461054286,-0.1959972462627852,-0.017250196695515342,138.27787175452397,13.117820613690007,-7.210552714398112,0.3528268925586153,-0.0986694421542093,-0.08520665326829267,-0.9265465090747442
140.0,-0.03986939417781274,0.054309992132179394,-0.01571675845790716,2.2566923682140048,1.1811408339889848,9.462712824547605,-0.2705350118017309,-0.22039732494099135,-0.10018686073957514,138.3345594020456,13.303865066876476,-7.114122738001574,0.3523231289976397,-0.09838045995908734,-0.0870648687757671,-0.9266047301400475
141.0,-0.038478645927898486,0.06530646169985274,-0.014314127781476328,2.300437309608828,1.1780266900683896,9.452462042809017,0.008179003005910956,-0.71419511186427,-0.008651198329601172,138.39157374064433,13.569646981984707,-7.103426032399282,0.3517678961041578,-0.09900067643045049,-0.08931978957489561,-0.926531948207973
142.0,-0.042897859549315104,0.06758320724646452,-0.015551241703484034,2.333843359761141,1.1678732978272715,9.445632280255804,-0.3153538501886259,0.14171735358792797,-0.05218161804757006,138.45034037150236,13.767573294296838,-7.0435894914160055,0.35119934710321976,-0.09908455027187354,-0.09113426207226291,-0.9265657266075271
143.0,-0.04986435070306039,0.0669859387923904,-0.012468775847808106,2.3615275020678244,1.1603827543424319,9.43961393713813,-0.16564309346567407,-0.2128205128205128,-0.026066222084367242,138.48859465467328,13.936048645574855,-7.0059656741108345,0.35085018190880896,-0.09922306258912324,-0.0926775804019851,-0.9265277712069893
144.0,-0.0573595947063689,0.06107361455748553,-0.016690033085194376,2.2914048800661706,1.1447196029776672,9.45823035566584,-0.20988807899090156,0.2106260339123242,0.008766284119106696,138.44462494830435,13.511900330851944,-6.898597756410256,0.35141688749069483,-0.09716163402440031,-0.08947270349131511,-0.9268400970913977
145.0,-0.058030603804797354,0.06527874276261372,-0.015994210090984284,2.2997266335814723,1.1367791563275431,9.4575264681555,-0.12024141852770884,-0.4037091604631928,-0.005621898263027296,138.46810380479735,13.562300971877585,-6.851188999172869,0.3512231821364765,-0.0969403743912324,-0.09004277239081884,-0.926885806360215
146.0,-0.06667230527143983,0.05949173878835563,-0.015469315499606607,2.317580841856806,1.14611487018096,9.452116640440597,-0.08580964791502753,-0.25099945908733284,-0.04047624901652243,138.49982789142408,13.670039584972463,-6.911403422501966,0.35088744720967735,-0.09767541718371359,-0.0907841932413454,-0.9268655634738394
147.0,-0.0626345397324941,0.05741522423288749,-0.013145948072383947,2.321488001573564,1.1577267899291896,9.449925255704173,-0.04242599331235247,-0.3712406569630212,-0.01970889063729347,138.53045830055072,13.691042977970103,-6.980903324154209,0.35058966686290316,-0.09831455376927616,-0.09077719872147916,-0.9269099099183715
148.0,-0.06318823760818255,0.051639063729346985,-0.006153619197482297,2.362312549173879,1.1656658143194334,9.439107789142406,-0.2331837627852085,0.016345397324940975,0.09498426435877261,138.5811061664044,13.93801140833989,-7.03440327498033,0.35010237574999997,-0.09942194342899291,-0.09265855575590086,-0.9267901528503151
149.0,-0.07379169944925257,0.05150904799370576,-0.004548583792289535,2.3000312745869396,1.154135326514555,9.456126475216362,-0.22206063139260424,0.03236624704956727,0.021887293469708885,138.55837062352478,13.568350462234461,-6.955029258457907,0.35044700533870965,-0.09771443270239968,-0.08983169165617624,-0.9271169112356413
150.0,-0.067698269079465,0.06335129819040125,-0.01247993705743509,2.2880196695515345,1.1316160503540518,9.46198662470496,-0.19023898505114084,0.19430812352478366,0.19925009834775767,138.4801681746656,13.49206333595594,-6.818467250196695,0.3511579557096774,-0.09647103659716758,-0.08955262758615265,-0.9270095209323368
151.0,-0.06202342549923195,0.07405491551459294,-0.016568356374807986,2.290977726574501,1.1302642089093697,9.46133256528418,-0.00920218894009217,-0.3155025921658986,0.08155481950844853,138.38593029953915,13.509197388632872,-6.809780625960061,0.3518629762726573,-0.09650258474270354,-0.08967262907987711,-0.9267294328379417
152.0,-0.061654377880184325,0.07877035330261137,-0.019658218125960067,2.3084562211981567,1.132206605222734,9.456689708141322,-0.10798531105990783,-0.3709989439324116,0.022369431643625193,138.3690428187404,13.614741743471582,-6.824231950844854,0.3519685571221196,-0.09693541642281106,-0.09047211198118281,-0.9265673596225038
153.0,-0.06492494661121727,0.06922526319733242,-0.01701262597879435,2.3370674103630433,1.1282697070173464,9.450292729759095,-0.2055078256715747,-0.24738418380727584,-0.09201281564946985,138.451337646585,13.787138279288898,-6.804539510040837,0.35122248857050126,-0.09721629872133863,-0.09201567124127985,-0.9266694659696902
154.0,-0.061821344273350565,0.07029811546963396,-0.01735308718294556,2.3208361245363607,1.1257114664118992,9.454158461653744,-0.1581974612228841,0.07202363390281366,0.04429097120752313,138.55580995232475,13.690418938031545,-6.7817304405042895,0.35039230510379893,-0.09670486109857254,-0.09137989405612379,-0.9270957240816196
155.0,-0.055983252781836565,0.07471357386384925,-0.016349930688246975,2.367563223558503,1.131408152560788,9.441990521149451,-0.05482957738563561,-0.9005053201453673,-0.003887780525270692,138.56895840358172,13.979534065789966,-6.830608163800532,0.3501459466567382,-0.09789072877509272,-0.09361620396354575,-0.9268346490972612
156.0,-0.0526221947472931,0.07510179461241617,-0.014425349368701058,2.467664868307669,1.1392240455584277,9.414733355812821,-0.1437886366190851,-0.6768079596118541,-0.08602127121501629,138.67159037690607,14.580344029822786,-6.8918113783672394,0.3490937996701509,-0.10003829193439737,-0.09845009758008316,-0.9264938680824251
157.0,-0.0466144767899292,0.06886349331235248,-0.01562588512981904,2.5252202989771826,1.1383985051140835,9.399303697875686,-0.21058959480723838,0.09106510621557828,-0.04888621164437451,138.7977527537372,14.924523013375294,-6.901627655389456,0.3479628639280094,-0.10096805083202204,-0.10135540526239183,-0.9265115471986626
158.0,-0.05485483870967742,0.05360483870967743,-0.011717741935483871,2.4175967741935485,1.1239435483870972,9.429532258064516,-0.3301915322580645,0.4400201612903226,0.054485887096774197,138.77651209677418,14.275705645161288,-6.796068548387096,0.3484197303306451,-0.09824371308870969,-0.0963078156532258,-0.9271558706048388
159.0,-0.05869433516915813,0.04970535011801732,-0.01237844217151849,2.448388276947285,1.1040356018882773,9.424019276160502,-0.21754401062155784,-0.4069101593233674,-0.052659077498033044,138.80174690204564,14.45853289732494,-6.677632031864674,0.34816181637096777,-0.0978484419346971,-0.09819030265125886,-0.9271074492222662
160.0,-0.0548552321007081,0.051707513768686084,-0.013552124311565697,2.391387686860739,1.088142800944139,9.43976770259638,-0.21509761014948858,0.8022656864673485,0.13881663060582217,138.7665740558615,14.107618263178598,-6.570696056254917,0.3486216183790323,-0.09601291799960662,-0.09559301245869396,-0.9273906407804878
161.0,-0.054113099921321794,0.056890047206923686,-0.012247836349331236,2.296222069236822,1.0791278520849727,9.46469433516916,-0.1902857002360346,0.4965209480723839,0.14382867820613687,138.56620033438236,13.537201268686072,-6.503921616837136,0.3504269655725807,-0.09397562835464202,-0.09096005160837922,-0.927384668769276
162.0,-0.04252025963808026,0.057876475216365075,-0.016172305271439813,2.2649053894571205,1.068571990558615,9.474379425649097,-0.15280414044059795,-0.19075162273800156,0.1422772423288749,138.49832194138475,13.348111723052714,-6.434874114870182,0.35108416868548387,-0.09293035460877262,-0.08955454564693155,-0.9273900012354445
163.0,-0.05133674272226593,0.0617285601888277,-0.015053894571203779,2.262521243115657,1.0694150275373717,9.475459874114875,-0.04744541699449252,-0.215713512981904,-0.01832710464201416,138.4774119787569,13.337160700236034,-6.435279799370575,0.35129970698387103,-0.09292942037293468,-0.08943413709362705,-0.9273285309201416
164.0,-0.04358602150537634,0.06253639371381306,-0.014857940446650127,2.264166873449132,1.0857375930521092,9.472613937138131,-0.06917261166253101,-0.2877959574028122,-0.058863213399503726,138.51329482009925,13.346942204301076,-6.536061569478908,0.35096583926530184,-0.0937426493490488,-0.08928243823986765,-0.9273959109555416
165.0,-0.041228494623655916,0.0702601323407775,-0.013642679900744418,2.2776197270471474,1.0852841191066993,9.469359387923905,-0.09983328163771711,-0.10748164805624481,-0.07166950992555832,138.58444478908189,13.427150537634407,-6.5329249379652605,0.35033820766087664,-0.09396462418258891,-0.08996533479735316,-0.9275422547882548
166.0,-0.05485215053763441,0.0747671629445823,-0.009482630272952855,2.213967121588089,1.0640533498759304,9.486574855252272,-0.19883297146401985,0.5201251033912324,0.06192230148883375,138.53370424937964,13.040440188172044,-6.395444323821339,0.3509392297336641,-0.09174404317597187,-0.08720516392287014,-0.9277919369183208
167.0,-0.05309715821812596,0.09173150773957225,-0.016338857379179964,2.272014858797117,1.0679172279333569,9.472457166489423,-0.19732235170743234,-0.8326217801016187,-0.14404244948599784,138.5953071458112,13.395264496927803,-6.42733885737918,0.3502828109981685,-0.09298588856283233,-0.09005972213328606,-0.9276363037677242
168.0,-0.06015745007680491,0.08972462483752806,-0.012463783528299658,2.3099792035921074,1.0556440978376462,9.464293099373744,-0.09450290972468392,-0.4347080674701642,0.02747474299893657,138.6546596212927,13.62285906298003,-6.358931525463783,0.3497276462006971,-0.09304829689028711,-0.09217779617954625,-0.9276335576701524
169.0,-0.06800817691356636,0.08010399572889738,-0.010528024427709715,2.278748604398487,1.0373881083511298,9.474099181372,-0.3187915050953505,0.1193237537934135,0.0625727070922783,138.6786809575325,13.43486416301375,-6.242400762429283,0.34960572813777113,-0.09154683635068939,-0.09099078322070173,-0.9279505395768703
170.0,-0.060688097111385855,0.08299171068899629,-0.010475459892847774,2.2907541212393694,1.0150652186130156,9.474006416020384,-0.16984212843280505,-0.4939640819939305,0.07493185905361358,138.69773138651607,13.504945604323554,-6.111895453991982,0.3494602371675284,-0.09067819208181599,-0.09198815539841144,-0.9279930472617829
171.0,-0.06615050016859618,0.08951601663482073,-0.012761923494810989,2.3501472219100075,1.0125043835000562,9.459337885429544,-0.21727993518414446,-0.2650011942227717,-0.08340100595706418,138.76774170132254,13.861898205387583,-6.104914460866959,0.3487701689950545,-0.09160832243203704,-0.09497973786049604,-0.9278614720946012
172.0,-0.06516050354051929,0.07683634933123525,-0.0057503933910306865,2.3332771439811175,0.9963259244689219,9.465490755310778,-0.2184229937057435,0.11496484067663257,0.029022423288749016,138.83144669551533,13.758632474429582,-6.00073392014162,0.34829306163808027,-0.09044135103245476,-0.09449233461073955,-0.9282084485188827
173.0,-0.05680251770259639,0.07540991345397323,-0.008021243115656964,2.3613532651455547,0.9917844217151843,9.458769472856014,-0.23052714398111723,-0.1550550747442958,0.04767899291896145,138.89843135326515,13.928407749803304,-5.979081431943351,0.34771932598662475,-0.09069612932651455,-0.09600188985444533,-0.9282444823265146
174.0,-0.05526986624704956,0.0787435090479937,-0.011673878835562552,2.4382612116443747,1.008382376081825,9.437354838709673,-0.011531274586939408,-1.1012293469708891,-0.16410306845003933,138.9894890833989,14.396417682926828,-6.0934697088906375,0.3467634241144768,-0.09288441500550748,-0.09955288960464201,-0.9280012177997639
175.0,-0.06492446892210857,0.08972974036191975,-0.014353855232100707,2.618217938631,1.024403619197482,9.384255704169945,-0.24219364673485444,0.028383162863886646,-0.10226199842643588,139.33687180369787,15.493842201022815,-6.2237854051927615,0.3434771841658144,-0.09666859451691584,-0.10845512055369788,-0.9277486312838316
176.0,-0.07709891767031815,0.09004084205854465,-0.011173929270310072,2.58954796848837,1.0380955234118097,9.391774874417475,0.00477554015614598,-0.5656264499989914,-0.079709628245476,139.3482390707902,15.318202247120176,-6.302950653382154,0.34346283983838694,-0.09683610967367712,-0.106778659844777,-0.9279797139561219
177.0,-0.08565026528677197,0.06435106619056266,-0.005595029151284067,2.5358586616635392,1.0448703423510664,9.406222114628093,-0.3795678750832173,0.7516625814521172,0.009716758457907163,139.3678695353951,14.988007373560087,-6.3327001250781745,0.34345641587080633,-0.09611961339329017,-0.10401981349900138,-0.9283822428974158
178.0,-0.08126022312332304,0.045169238838790385,0.00020641933466481084,2.4450253182432564,1.001321874558696,9.435559523089031,-0.3819652908067542,0.19297822227601924,0.055340283241542096,139.39107481490447,14.438520799289877,-6.053156710847505,0.3435229685239161,-0.09230907043228631,-0.10033094515862737,-0.9291555542079527
179.0,-0.07626897859549314,0.04087966269240857,-0.0006851459581593334,2.391499283826585,0.9678725816538564,9.453359619923749,-0.23024798765357377,-0.038778394762855856,0.11414240755310778,139.36378583388813,14.11822774818939,-5.838581699247514,0.34388337242560885,-0.08971240126807076,-0.09830760289717363,-0.9295098964588149
180.0,-0.08507154673283704,0.05508105872622003,-0.0013614557485525228,2.2982224979321746,0.9667907361455749,9.476621588089332,-0.06982009925558312,0.36466863110008263,-0.01814516129032258,139.2874741521919,13.549485628618692,-5.816984594706369,0.3447058635157155,-0.08799147915095121,-0.09366391700248139,-0.9298550800334987
181.0,-0.06755645161290322,0.0650483870967742,-0.007387096774193549,2.2624677419354833,0.9837419354838708,9.483846774193552,0.09354838709677418,0.02706653225806449,0.03225806451612903,139.28578629032256,13.337449596774192,-5.917792338709678,0.3447990165725806,-0.08817990210483873,-0.09163281838709678,-0.9300127101532257
182.0,-0.05833241542092839,0.07859047993705742,-0.012883162863886705,2.297891227380015,1.0143613296616838,9.472280487804877,0.07376942368214004,-0.5595212922895358,0.024744295830055073,139.30920043273014,13.55869762981904,-6.104338365460268,0.3445091568361526,-0.09029128250039341,-0.0928682159911487,-0.929797951275767
183.0,-0.06432749803304483,0.0738194335169158,-0.01014319433516916,2.2783125491738785,1.0252653422501967,9.476003147128246,-0.15134613493312354,0.5495488296616837,0.1446302124311566,139.2368582808812,13.437488935877262,-6.167819384343037,0.3451061164704956,-0.09050613262922896,-0.09163893518509048,-0.9296735192911094
184.0,-0.06934520062942565,0.07539358772619985,-0.009684500393391034,2.25452321007081,1.0146770259638078,9.482687057435093,-0.22857125295043276,-0.4635572383949646,-0.006011506687647522,139.17684647915027,13.291652734067664,-6.100971184107002,0.34563365007395747,-0.08961961982671127,-0.09061690954012587,-0.929663749806845
185.0,-0.08220082612116444,0.08598308418568057,-0.011898701809598742,2.288568056648308,1.0177901258851298,9.474266915814322,-0.12676042486231315,-0.17094192564909522,-0.07563680173092052,139.19850388473643,13.495171125098349,-6.127703333988984,0.34538393455310773,-0.09038953579642015,-0.09223166740715971,-0.9295261626292288
186.0,-0.07020928402832416,0.08422541306058222,-0.012187254130605823,2.2635582218725414,1.0267942564909518,9.47945200629426,0.007486723052714389,0.1497860936270653,-0.004401062155782849,139.24625295043273,13.342142014162079,-6.176276062155782,0.3450319669539733,-0.09029760673288748,-0.09089452235680565,-0.9298000772541304
187.0,-0.07132258064516131,0.09562096774193549,-0.009419354838709678,2.303491935483871,1.0451854838709678,9.467927419354842,-0.031401209677419356,-0.738054435483871,-0.09203629032258064,139.3790322580645,13.587096774193549,-6.292288306451612,0.34385764875,-0.09184486583064516,-0.09266352483064516,-0.9299041759032258
188.0,-0.061124689826302744,0.09687489660876758,-0.013463606286186931,2.4298070719602975,1.0706174524400331,9.432420802315965,0.01601400951199338,-1.2268507030603804,-0.09734801488833747,139.536619882134,14.348535721670801,-6.471011683209264,0.3422693119491315,-0.09528271675392885,-0.09854982450537636,-0.9295176177057485
189.0,-0.06846153846153846,0.09637696443341603,-0.017425351530190238,2.5706091811414393,1.0849538875103395,9.39271443341605,-0.13717948717948716,-0.575673335401158,-0.12533731389578162,139.74212546526053,15.201409997932176,-6.585153019023986,0.34024835647456586,-0.09837584725599668,-0.10535534263172044,-0.9291808993569064
190.0,-0.07103952499113789,0.09076087084958051,-0.012177537516247193,2.6051897672220257,1.0937793631100083,9.382746041592815,-0.26332140641616447,-0.08506089005080944,-0.019618301725156564,139.86904540352123,15.409250745893893,-6.645864719957461,0.3391490524252629,-0.09932765897131632,-0.10698758977304147,-0.9293133957644744
191.0,-0.06869914880556108,0.0696085038748296,-0.008908398970554754,2.5312579441932312,1.0795628719562629,9.405238186020641,-0.23628612118605236,0.4294373706708974,0.03159341109650905,139.8538603296127,14.953739628454422,-6.549144496092028,0.339456728280098,-0.09729060065629153,-0.10353026765609194,-0.9298084487615644
192.0,-0.06076115976863421,0.06292128576904345,-0.006607228596213648,2.5122405968015724,1.0542491779136154,9.41341511976091,-0.30352673978264066,-0.22748418150168737,0.010726263966822582,139.903422592029,14.842298118711868,-6.387635903632166,0.33910117941807816,-0.0956502300716548,-0.10310093157558727,-0.9301617744976194
193.0,-0.05342028211756772,0.051828715671949355,-0.012574912891986062,2.5387828294181563,1.0346390637293472,9.408522282791953,-0.19691949065227982,-0.17806177644149712,-0.04558289779326364,139.99077767318573,15.000915395170656,-6.2706531461916,0.3383664913492376,-0.09509969117809372,-0.10482352522865383,-0.9302980326226724
194.0,-0.043552882994267725,0.06928129331984566,-0.022206811284702706,2.4886091566445625,1.0321542092840283,9.421337754299202,-0.06635289048743022,-0.3773877430594582,0.03532347045820689,139.90551988497998,14.704263141133715,-6.248582621482897,0.3391618738278446,-0.09414927693582106,-0.10235210554981078,-0.9303635052669813
195.0,-0.05748151062155782,0.07403619197482297,-0.01911723052714398,2.547179386309992,1.0338190401258853,9.406028324154208,-0.27627360346184104,0.3218332022029897,-0.08602970102281668,140.01611919748228,15.052832415420928,-6.26801730920535,0.3381318459331235,-0.09519648997482297,-0.10525241367505903,-0.930313723154996
196.0,-0.06857789142407553,0.0749291896144768,-0.013077104642014161,2.518194728560189,1.0316129032258061,9.41415106215578,-0.05752114476789928,-0.15566974822974036,0.049205841856805654,140.06174272226593,14.881943351691582,-6.243764752163651,0.33783047328678206,-0.09451693006058223,-0.10395261917348544,-0.930642882812746
197.0,-0.07484677419354839,0.06930645161290322,-0.009693548387096773,2.4483790322580647,1.0257741935483868,9.432903225806456,-0.2503528225806452,0.5722782258064516,0.021622983870967737,140.02298387096772,14.458669354838708,-6.202016129032257,0.3383739836693548,-0.09300655182258064,-0.10057018612096774,-0.9309680084032258
198.0,-0.0460967741935484,0.09009677419354839,-0.00893548387096774,2.636629032258064,1.0306693548387096,9.376395161290326,-0.16169354838709676,-2.272328629032258,-0.3585181451612903,140.21849798387098,15.609072580645162,-6.2684475806451605,0.3362754575564516,-0.09646714701612902,-0.11001178372580644,-0.9301612115725806
199.0,-0.060935483870967755,0.0828709677419355,-0.01028225806451613,2.711629032258064,1.0251451612903222,9.358137096774195,-0.057510080645161284,-0.1263608870967743,0.05045362903225806,140.36693548387098,16.056048387096773,-6.246471774193548,0.33490280643548387,-0.09740763040322581,-0.11386270827419354,-0.9301636237177417
200.0,-0.056153225806451615,0.07461290322580645,-0.01082258064516129,2.7099032258064515,1.033774193548387,9.358967741935487,-0.18145161290322578,0.6150201612903224,0.07681451612903226,140.38069556451615,16.03921370967742,-6.2974294354838705,0.3348250853064516,-0.09780170032258063,-0.11359405563709676,-0.9302269730322581
201.0,-0.058647324940991355,0.07398819826907947,-0.012473839496459482,2.6791656176239185,1.034144964594807,9.368672501966959,-0.25207513768686074,0.3011998426435877,-0.013296616837136115,140.45783954563336,15.853270062942563,-6.292975511408339,0.3342610671302125,-0.09718217780566482,-0.11215146383733281,-0.930689833759441
202.0,-0.058203004902257466,0.06548189896911376,-0.007856543404143719,2.6282767707639856,1.0203190703867338,9.384576428816397,-0.13547331119247916,-0.8518892225988016,-0.06444659212410983,140.5046312337348,15.546902297807096,-6.1984573586818374,0.3340270237119218,-0.09555449497210453,-0.10991275304511389,-0.9312180839275906
203.0,-0.049839405676935185,0.06750304625875042,-0.014758916863362177,2.674900482156186,1.0191434061611089,9.371989827311424,-0.27139088946720735,0.15812796934576046,0.09065976845407413,140.5829103749319,15.828138648903547,-6.197136945469951,0.33328019325515446,-0.09623352540943937,-0.11230257299433113,-0.931138871040408
204.0,-0.0557180899352418,0.060138619903568766,-0.01608510359297141,2.6657083055942223,1.0034426708224895,9.376079591075069,-0.2533869769916682,-0.07721121694002298,-0.009483623837479069,140.63913663907886,15.771503800258227,-6.0997781501543304,0.3328653817687063,-0.09525793009181646,-0.11215352792458493,-0.9314110611653652
205.0,-0.06147194819342737,0.06615398737113921,-0.014695777602937318,2.6090960882809817,1.001814077346729,9.392414795537533,-0.012000948173253465,0.05905064152998851,-0.027221650628416957,140.6036661017975,15.43166923883879,-6.083003994432003,0.3333137103198369,-0.09421109467897273,-0.10936746966793764,-0.9316894086149408
206.0,-0.06393424317617866,0.0706025641025641,-0.017446236559139783,2.6644929693961945,1.0026749379652604,9.376791976840362,-0.08893713813068652,0.3050170595533499,0.17501033912324232,140.61116625310171,15.762008891645989,-6.098169975186105,0.3331035727460711,-0.09521788002398676,-0.11207323830603805,-0.9313288284805623
207.0,-0.0514175845790716,0.07554346970889064,-0.018740165224232885,2.658138473642801,1.0038693941778132,9.378795633359562,-0.05496656176239183,-0.6704428107789142,-0.10029996066089694,140.59831333595594,15.725479445318648,-6.10638768686074,0.33318873608182537,-0.09520067430015736,-0.11175637009362709,-0.9313441925440596
208.0,-0.057954760031471285,0.08656608969315498,-0.014833792289535798,2.7482224626278517,1.0140234067663259,9.35110346184107,-0.08237239378442171,-0.5171014457120378,-0.15524070613690008,140.72894497442957,16.274382867820613,-6.185451907946499,0.3319063908151062,-0.0971832549645948,-0.11613391260326517,-0.9310489930381589
209.0,-0.07745023603461841,0.0918929976396538,-0.015950629425649093,2.8564282061368997,1.0201593233674273,9.317227970102282,-0.16892456726986624,-1.1688852281667979,-0.13592889457120377,140.9009588906373,16.938435533044846,-6.245997246262785,0.33020959279602674,-0.09927088694649883,-0.12155920451475216,-0.9307263678536585
210.0,-0.06597265932336742,0.08582376081825333,-0.013929976396538157,2.850005114083398,1.0144614476789933,9.319346774193548,-0.22242943548387098,0.9846048878835563,0.11050354051927613,140.99844856412273,16.897253638867035,-6.207548190401258,0.3294469512307239,-0.09875172157631787,-0.12138819424016523,-0.9310691938145161
211.0,-0.05948662470495672,0.07934185680566483,-0.014447285601888276,2.7159319433516913,1.0057734067663255,9.359660896931548,-0.1304976396538159,-0.3235297010228166,0.0006245082612116315,140.89920830055075,16.0807262981904,-6.130182926829268,0.33057951088945725,-0.0960594553811959,-0.11483945208890636,-0.9317713491868608
212.0,-0.056202793076317856,0.07167486231313926,-0.016328284815106214,2.6663326121164443,0.9919653815892996,9.376129425649097,-0.29716266719118806,0.7995893981117231,0.04414093233674272,140.9030905782848,15.776269915420928,-6.035021636506688,0.33071953448249414,-0.09448377729563337,-0.11257608220180959,-0.9321757748420534
213.0,-0.06152478363493312,0.06988985051140834,-0.014305271439811171,2.591702596380803,0.9931439811172307,9.397282454760031,-0.056343430369787575,-0.12243312352478364,-0.04410896931549961,140.89101101494884,15.329238788355624,-6.026986624704956,0.3309891478662471,-0.09319897424862314,-0.10891575196380801,-0.9326571595782844
214.0,-0.053889850511408335,0.056687647521636506,-0.010150275373721478,2.5770314712824547,0.9944044059795434,9.401481510621554,-0.08622147915027537,0.09166502753737213,-0.03120082612116444,140.92878638867035,15.240027537372146,-6.031515538945712,0.3307044007348544,-0.09293960099921322,-0.10818576494335169,-0.9328835467049567
215.0,-0.05224390243902438,0.07275767112509834,-0.010798977183320218,2.6055023603461844,0.9997081038552322,9.393529897718327,-0.08060582218725414,-0.05603117623918175,0.05437401652242329,141.00009343036976,15.411959087332809,-6.065792191188041,0.3300723290771047,-0.09364378172305271,-0.10953633423800158,-0.9328832660904799
216.0,-0.04319590873328087,0.07881549960660897,-0.012768489378442171,2.5753625098347754,0.9968005507474431,9.402333005507472,-0.3218725413060582,0.2681783536585366,-0.0866111821400472,141.02191433910303,15.225501573564122,-6.045720643194334,0.3300033725999213,-0.0929542358064516,-0.10809410328265145,-0.9331447118957514
217.0,-0.05146715184893784,0.06920928402832414,-0.010999409913453972,2.5160180959874117,0.9864022423288745,9.419418961447679,-0.1827891424075531,0.1221897128245476,-0.009084874114870183,141.10074006687648,14.869791256884344,-5.970241197875689,0.3294975297423288,-0.09132154992309205,-0.10542965238788353,-0.9337872629665618
218.0,-0.046592446892210856,0.06871754523996854,-0.012915027537372148,2.5129929189614475,0.9919874114870179,9.420040125885127,-0.03695908733280881,-0.4595200629425648,-0.04027832415420929,141.08781963021244,14.847924862313139,-6.0096921715184894,0.32958872454051924,-0.09160646540912668,-0.10515364827458692,-0.9337652007010228
219.0,-0.047324547600314716,0.07252950432730135,-0.013530684500393391,2.5411699449252554,1.0013359559402044,9.411499213217933,-0.07161191974822974,-0.22892407553107783,0.006168863099921325,141.11521193941778,15.017097757671126,-6.0717963217938635,0.3293025010035405,-0.09252372401455546,-0.10641590674154207,-0.93363253443391
220.0,-0.06813434303697877,0.07677222659323368,-0.009032061369000787,2.603742328874901,1.0058756884343036,9.393755114083396,-0.19014801337529502,-0.24426632572777335,-0.06782430173092052,141.1451600609756,15.39206579464988,-6.110863739181747,0.32890626325786776,-0.0937908171315893,-0.10944118896872539,-0.9332819672610149
221.0,-0.06228088119590873,0.06476514555468137,-0.010471675845790715,2.5503469708890636,1.0054862313139261,9.40792997639654,-0.14109215184893784,0.6024636113296616,0.13340135719905585,141.11958103855233,15.072696203776554,-6.100164732494099,0.3292455187619985,-0.09286445493273014,-0.10676711754484655,-0.9335642369893782
222.0,-0.06935343662369625,0.0748265397728419,-0.00521475619843047,2.5715810183784225,1.0133188787346932,9.401678075006556,-0.15565786454235508,-0.6389286272670419,-0.14201532838064113,141.13395985898444,15.20829843879239,-6.149355601535234,0.32903943978740235,-0.09359239409298654,-0.10776916866640944,-0.9334404518924782
223.0,-0.07915252476346102,0.08082859246706608,-0.004046894228247493,2.6038792188666298,1.012119116786702,9.393024521374244,-0.14736018227117756,-0.44864778137545647,-0.13595222064193346,141.31345170368576,15.401251033912324,-6.144057841090197,0.3275719155993464,-0.09393967800213844,-0.10951522525659181,-0.9337284603373681
224.0,-0.07983354011579818,0.06887613730355666,-0.002186311000827129,2.6269474772539283,1.0178943341604636,9.385755376344084,-0.08728158602150538,-1.021245605872622,-0.08894876964433414,141.40128722084367,15.541956162117451,-6.186043476013234,0.3267623346997519,-0.09456595668320927,-0.11065991865425973,-0.9338180063370555
225.0,-0.07601521616332789,0.07441790736145573,-0.005800177530311283,2.76083585507071,1.026279877544433,9.345424403356937,-0.2677304615788093,0.09694690103693837,-0.22171855771752502,141.6463372079828,16.351519977203495,-6.265293202404728,0.32438591208905765,-0.09707685818110112,-0.11732050078366013,-0.9335414265571982
226.0,-0.07449629808953176,0.06781330065161693,-0.00698663479190623,2.7149110431923176,1.020742318787952,9.360150537634407,-0.1203497901914503,-0.18843953630293125,0.016204180031874765,141.76778713762633,16.072194882386167,-6.216994555569004,0.3235048613421292,-0.09587811992335937,-0.11525259472159011,-0.9342475734519864
227.0,-0.06321518489378442,0.06515440597954365,-0.009405782848151063,2.704718528717545,1.0144586939417781,9.364267505900859,-0.1511137883556255,0.11688999803304483,-0.030256687647521624,141.8205141129032,16.006170092446894,-6.177831186073957,0.32313263894649874,-0.09533345778874902,-0.11486888678422502,-0.934490098768096
228.0,-0.07035365853658536,0.079022423288749,-0.01270712037765539,2.6689594807238395,1.0253133359559403,9.373052124311565,0.032775619590873314,0.12044158143194333,-0.0185692859952793,141.8675083595594,15.795223987018096,-6.2409323367427225,0.3228121087372148,-0.0952265475877262,-0.11299137891050355,-0.9348435494964592
229.0,-0.059184893784421724,0.08090637293469709,-0.019502753737214794,2.744552321007081,1.0557655389457121,9.34557041699449,0.05799567269866246,0.39076514555468134,-0.13446105428796223,142.2929779701023,16.252979937057436,-6.439417781274587,0.3190771893847364,-0.09754601198741149,-0.11661088840283242,-0.9353730754256488
230.0,-0.07280723839496459,0.09387254130605821,-0.019924468922108578,2.6611864673485446,1.0934004720692367,9.365892997639653,0.15550747442958301,-0.3508949645948073,0.08031077891424077,142.16553894571203,15.74717741935484,-6.65537962234461,0.32028713531392605,-0.09809835350275374,-0.11176063422974035,-0.9355182159244687
231.0,-0.05859008654602675,0.10827537372147913,-0.03937686860739575,2.4592439024390242,1.1883957513768684,9.40590873328088,1.0556107395751375,2.1126917781274583,0.0384441384736428,141.67608674272225,14.518577891424076,-7.191138867033832,0.3246385912446892,-0.09961362411093627,-0.09968839398977183,-0.9351040124138472
232.0,-0.088492525570417,0.10523524783634933,-0.02818961447678993,2.363870574350905,1.2961058221872541,9.417423288749017,0.015388965381589181,-1.1704194531864676,-0.5749704956726986,142.08514211250983,13.950575334382375,-7.824621361132965,0.32140803088198266,-0.10294963287372147,-0.09369930112942566,-0.9365202153021241
233.0,-0.10299134539732493,0.10467112509834775,-0.025714004720692366,2.4654002753737214,1.3172889457120376,9.389518882769472,-0.16981830251770264,-0.12168199252557055,-0.08892604248623129,142.3828788847364,14.558612804878049,-7.97845938237608,0.3187401702427223,-0.10546653959185678,-0.09855266557258065,-0.9366800662804879
234.0,-0.11214928252969164,0.10336321231875911,-0.013551702821175677,2.6196818965194257,1.3118785358360494,9.34800060881945,-0.4256721600914166,-1.8453540050953507,-0.44990176932299275,142.71503895273685,15.49955169813795,-7.98298929180248,0.3156866025326515,-0.10759153305456895,-0.10666049113594471,-0.9365730246659736
235.0,-0.110328771870668,0.09440937956614587,-0.008970973361807348,2.708736502941066,1.304181596792926,9.324789545165034,-0.22679408555318273,-0.7323163121464165,-0.015381647840095908,142.91875263431496,16.0356531110674,-7.957253030047581,0.31382873294610547,-0.10854366076941666,-0.11136216522336179,-0.9365771477324752
236.0,-0.09784232224633482,0.08773849871607542,-0.0030327364741212105,2.705083718798904,1.2903186726727243,9.329265636933219,-0.06869778202390318,0.42028014520884305,0.19653464651005956,142.8782742958589,16.011490611571748,-7.872982646123874,0.3141906566188344,-0.10785170021990269,-0.1113400575586412,-0.9365837907977927
237.0,-0.09362533106809268,0.08740190081358454,-0.01156750907104959,2.7260627091240774,1.28839379739065,9.323680025390289,-0.22388960698362742,0.3255167445163019,0.223331249297516,142.86939383557694,16.136198688948735,-7.860915988679561,0.31421767500493253,-0.10812714853717399,-0.1123852162309335,-0.9364379554468899
238.0,-0.08480863327598182,0.06860820847130841,-0.011219238406492537,2.591660386820103,1.2601807696630671,9.364900496566115,-0.18311415833052339,0.6546686545162155,0.34578860851972576,142.63217675649815,15.322459223506627,-7.660699929823651,0.3165008924944017,-0.10463592668390959,-0.10594871350256352,-0.9367883079452193
239.0,-0.06900032278238416,0.07589396598680628,-0.01563957312029696,2.6001005467126626,1.2431948395166335,9.365629203736205,-0.17449678730658272,-0.0784884453993423,-0.034474167322318394,142.49696395428595,15.3741664397103,-7.55785092497327,0.3176178285213944,-0.10408948309080271,-0.10651929486648913,-0.9364216378405052
240.0,-0.0952129859387924,0.07797766749379653,-0.011354011579818031,2.4138693134822162,1.3045132340777503,9.405005789909016,0.1348454301075269,1.0020962572373864,-0.736021505376344,143.01641077336643,14.249470119933829,-7.893476013234078,0.3136789097233251,-0.10353829226137302,-0.09675332872828785,-0.9388032542522746
241.0,-0.08968036978756887,0.07127261998426435,-0.013498426435877266,2.313918961447679,1.3203869000786783,9.42818961447679,-0.5800907258064516,1.4710968233674273,-0.4239624311565696,143.7724613985051,13.643175894964594,-7.967510818253344,0.3076569453007474,-0.10198151043509049,-0.09220998621852872,-0.9414142646022816
242.0,-0.08832553107789143,0.08709677419354839,-0.014105625491738787,2.2039333202202984,1.2821605035405192,9.460176042486234,-0.27653791306058223,-0.092009244689221,0.0954710857592447,143.73721970889062,12.986375147521635,-7.714482936664044,0.3082080965041306,-0.09827530990047206,-0.08739660440853658,-0.9421135544280095
243.0,-0.09530389457120378,0.10091129032258064,-0.016032651455546814,2.225761014948859,1.2510963808025175,9.460204956726987,-0.09393931943351691,-0.7287667191188041,0.07409642997639655,143.7201723544453,13.11367648505114,-7.529343282848151,0.30836777230448464,-0.09710218163571988,-0.08893546810346183,-0.9420730523752949
244.0,-0.09245712037765538,0.10650845790715971,-0.013240755310778913,2.2555540912667187,1.242208890637293,9.455222659323365,-0.0881060680566483,-0.423138768686074,0.16273234657749805,143.69576858772618,13.29571695515342,-7.482892407553107,0.3084946373961448,-0.09718603880507476,-0.09054275616011014,-0.9418903056917779
245.0,-0.08279779701022816,0.09853737214791503,-0.014312352478363492,2.3735774980330446,1.2538410700236033,9.424322580645157,-0.23115656963021242,-0.8878688040912668,-0.017545239968528706,143.78478560188827,14.008802124311565,-7.57426730920535,0.30751867161290325,-0.09964937166797798,-0.09630930332258064,-0.94136451877498
246.0,-0.0898481510621558,0.08925059008654601,-0.01039614476789929,2.429550354051927,1.2398497246262785,9.412293469708887,-0.17928796223446103,-0.7516989575137687,0.07987313139260425,143.86539142407554,14.346715184893785,-7.499495967741935,0.3067551488497246,-0.09980036317623919,-0.09937134500904798,-0.9412902152734067
247.0,-0.07951966955153425,0.08413434303697875,-0.010248426435877263,2.46558320220299,1.249128638867034,9.402294649881979,-0.23663945712037765,-0.02664609559402048,0.03990214398111723,143.84599724626278,14.55965283241542,-7.563069187647521,0.30685226168056645,-0.1008731376675846,-0.10097131014575136,-0.940987798696499
248.0,-0.08381904012588513,0.08153894571203776,-0.017552321007081033,2.531192761605036,1.239591660110149,9.385349331235247,-0.2840676632572777,-1.4204907553107788,-0.2722167584579071,143.9433910306845,14.959397128245477,-7.520603855232101,0.3059202572604248,-0.10142734835090482,-0.10452140797088905,-0.9408244321715186
249.0,-0.07699763965381591,0.08129819040125885,-0.013635326514555467,2.638376868607396,1.2489382376081828,9.354230133752946,-0.07856018882769472,-0.18215234067663266,0.12227576711250984,144.13571007081038,15.603252852084973,-7.602439024390243,0.304105289209284,-0.10348331625019672,-0.10981886329228951,-0.9405825152824547
250.0,-0.07606766325727776,0.06802124311565697,-0.01261624704956727,2.6634842643587726,1.2545832022029897,9.346481707317071,-0.22169059795436663,-0.4675022128245476,-0.04837234461054288,144.19673977183322,15.756902783241541,-7.640322580645162,0.3035480738060582,-0.10413008672069238,-0.11106103085149488,-0.9405585647025964
251.0,-0.0611508654602675,0.05349940991345398,-0.013248819826907947,2.6687140047206923,1.2431848937844214,9.347154405979545,-0.25063188434303696,0.04633285798583789,0.07537372147915028,144.23666158536588,15.791089693154996,-7.572642112509834,0.3032328173945712,-0.10359571602970102,-0.1115110853416601,-0.9406722322230527
252.0,-0.06620889063729346,0.046989771833202215,-0.014263965381589298,2.685234461054288,1.2156215578284815,9.346210857592443,-0.31034372541306054,-0.503855232100708,0.012994197482297402,144.2455153422502,15.89448269079465,-7.410043764752164,0.3031289786443745,-0.10251418945043272,-0.1127990245656963,-0.9406688000594021
253.0,-0.06289594807238394,0.05027694728560189,-0.013658339889850511,2.6438485444531867,1.1988965381589298,9.359218725413058,-0.05876647324940991,1.64242230527144,0.3704329760031471,144.0860985444532,15.633684107002361,-7.296509883949645,0.30455530322856017,-0.10113712753796222,-0.11079252122069236,-0.9405756312334774
254.0,-0.07146813532651453,0.05826750590086547,-0.013510621557828482,2.4847065302911098,1.1894885916601101,9.403109362706534,-0.08535601888276947,-0.0097364280094413,0.05444531864673487,143.83246459480722,14.676317859952793,-7.206697482297404,0.3069571527836349,-0.09828917185365854,-0.10286177577970101,-0.9409705139433515
255.0,-0.07470675508598404,0.056497096399535436,-0.012587988460529767,2.296112022779214,1.1870098535086735,9.449334831965828,-0.029889288524221652,1.389244033569368,0.1582593383537522,143.6703383162864,13.536844816604848,-7.155387583829755,0.3086642799581881,-0.09514026419309879,-0.09337822403499307,-0.9416808142971786
256.0,-0.06548555692930201,0.05443816267655765,-0.008654340414371886,2.1590914165823683,1.2051225506725114,9.480707541868043,-0.18630085984039566,0.15388145816942056,-0.014389213592596747,143.57038257277733,12.721033541268593,-7.239741392229591,0.30974840728908615,-0.09385784016106552,-0.08626935864928252,-0.9421620566253794
257.0,-0.05878526469596493,0.04945747630287364,-0.012643456595856278,2.1452498782361094,1.1989420778539581,9.486026469596496,-0.2642509413285377,-0.21139030946761078,-0.10714051552957926,143.6483403815893,12.635005362294407,-7.199089814918886,0.30918896648089234,-0.09327801393183095,-0.08573080745996778,-0.9424937168689446
258.0,-0.056287990333820384,0.050690185830429745,-0.014363427747180696,2.219045080738826,1.1974120302723759,9.46901008767,-0.18336465241092503,-0.7215635654340414,-0.03320735453898317,143.7623979642014,13.080882893578359,-7.201285662770222,0.30810148866452164,-0.09432172635379903,-0.08952765894949609,-0.9423932015084299
259.0,-0.06411970327076541,0.057376269154396635,-0.01401757146603724,2.32461764265108,1.1983588475516092,9.443122962796451,-0.0836995616499944,-0.8530307500655651,-0.03480292982653329,143.827829956727,13.716834911580683,-7.224360622494474,0.3073076202639092,-0.09607123068584916,-0.0947993478319471,-0.9419562033055523
260.0,-0.060051403094676103,0.05559644132421475,-0.0140993564526216,2.440318096996106,1.2024344751760179,9.413216627327564,-0.18267787074582903,-0.8625808216829065,-0.11567852387580946,143.9173398129375,14.41353236776009,-7.273983897445984,0.30634895949122426,-0.09811105074526416,-0.10053652543552927,-0.9414651437191237
261.0,-0.05944505638604772,0.059088543242752534,-0.01019483951663338,2.595219532369021,1.2069027214589765,9.37030186205088,-0.09310304827614033,-1.4622379914866146,-0.10179087484113053,144.03616486614618,15.350692595170369,-7.337319569690734,0.30504739804399916,-0.10082153355005141,-0.10828395052018397,-0.9407212652506909
262.0,-0.057388932599003406,0.05824765478424016,-0.012571849341322196,2.6260448566644476,1.2131177651354674,9.36104078153685,-0.11601946276906938,0.7550090530371805,0.10950975534103977,144.09401181938307,15.538967462022633,-7.3846019563638565,0.3044939722887188,-0.10158496165779518,-0.10977139531201963,-0.9406481813491849
263.0,-0.062404143718856525,0.04776898868244267,-0.0102859246706611,2.577820815428998,1.2154056567612819,9.375334906897454,-0.21698150557808304,-0.27037853799753875,-0.07203443684560915,144.08364905485283,15.243929295527446,-7.387411865278702,0.3046852665233917,-0.10090672455873631,-0.10733564371246143,-0.9409618483479796
264.0,-0.06319892473118278,0.040656327543424325,-0.007116211745244004,2.6018891645988416,1.2128837882547563,9.370086021505378,-0.159493899917287,-0.5335271918941273,-0.05065136476426798,144.17756410256408,15.388329714640198,-7.373642990074442,0.30384206246153844,-0.10103532759801488,-0.10864234086724567,-0.9410846636232424
265.0,-0.07804032258064517,0.04836290322580646,-0.007588709677419357,2.5530967741935484,1.1940887096774193,9.384612903225804,-0.2664818548387097,1.8866431451612904,0.3574596774193548,144.10745967741934,15.084022177419353,-7.243800403225807,0.3045621316451613,-0.09931734129032257,-0.10635720554032257,-0.9412659180887096
266.0,-0.09162096774193548,0.046661290322580665,-0.005758064516129034,2.292032258064516,1.1527258064516133,9.453903225806451,-0.0991431451612903,0.4317036290322581,0.1519657258064516,143.75317540322578,13.519354838709678,-6.947731854838709,0.30805609897580644,-0.09329405786290323,-0.09382850883064515,-0.9419957310080644
267.0,-0.07878245476003146,0.06294630212431157,-0.0035182926829268302,2.4126247049567264,1.1580629425649094,9.423632966168373,-0.14950949055861526,-0.6210083103855231,-0.07999360739575138,143.91053673288746,14.252643095987413,-7.000867918961447,0.3065352383959481,-0.09543723884893784,-0.09987680324409914,-0.9416725742602282
268.0,-0.07746085759244689,0.06434972462627853,-0.005402635719905586,2.3860832022029896,1.1607557041699446,9.432221085759245,-0.22788281864673485,-0.15202596380802513,-0.09664757081038552,143.96205251770257,14.081806894177813,-7.015477478363493,0.30617506430763175,-0.09509696156805665,-0.09850315308064514,-0.9420174088410702
269.0,-0.0873715578284815,0.06877970102281666,-0.0019876081825334385,2.3911746656176236,1.1653778520849722,9.431489575137686,0.01990435680566481,-0.5945109657749803,0.048929238788355624,144.02926214594805,14.115979051927615,-7.0431218036978755,0.3056000395731707,-0.09535857355015735,-0.0987803502580645,-0.9421755987431157
270.0,-0.06311578304989005,0.07662971817063081,-0.010918638665294843,2.433720293933708,1.1607063991607651,9.421190920736747,-0.21980704926466138,0.2528731099578365,-0.06846406650325809,144.1290224863322,14.36869568808126,-7.0254102866711055,0.3047164447665274,-0.0957503096779943,-0.10098315463833743,-0.9421935451928978
271.0,-0.05452966571849341,0.07177453650467025,-0.007072222558453873,2.3362674050313705,1.1670225544190922,9.444704331336116,-0.03757489560007263,-0.09526203373075917,-0.050285460670983884,144.13593261413382,13.780542400492243,-7.0445599820452305,0.3047856986090701,-0.09447096858899715,-0.09605331231513647,-0.9428163791246749
272.0,-0.04478725614799572,0.06558829106901491,-0.016024702939337086,2.321801680485787,1.1611060844479413,9.449058695959163,-0.3083330811595957,-0.23098565887954167,-0.06397042506405212,144.27893208204725,13.697430917004578,-7.002674365530876,0.3036638791039057,-0.09381805852502571,-0.09557402248486956,-0.943306513954155
273.0,-0.044266956162117455,0.06968320926385443,-0.016539495450785775,2.3186325475599663,1.1578897849462364,9.450218569065337,-0.027450372208436713,-0.0004407051282051405,0.09329507857733664,144.26825242969397,13.677875568651778,-6.981318496691481,0.3037484197061621,-0.09360366124441688,-0.09545037785297766,-0.9433164821792805
274.0,-0.04135525227460711,0.07264805624483042,-0.01628990901571547,2.3396509511993377,1.1676666666666666,9.444000413564925,-0.12914857320099254,-0.1811931348221671,-0.062021815550041354,144.32200423904055,13.80519282464847,-7.042599772539289,0.3032668453006617,-0.09437792321091812,-0.0963883470918114,-0.9432999045372208
275.0,-0.05305645161290324,0.07768548387096773,-0.01660483870967742,2.3688387096774193,1.1570483870967738,9.437701612903222,-0.1701108870967742,-0.7913306451612903,-0.0768649193548387,144.41224798387097,13.98039314516129,-6.986441532258064,0.30249702689516134,-0.09427347525806451,-0.09810608916129032,-0.9433800484919355
276.0,-0.05370456333595594,0.07075609756097559,-0.015173682140047207,2.4267667191188034,1.1540586152635717,9.423642407553103,-0.12668789339103068,-0.4228240558615263,0.02661290322580645,144.45910085562548,14.32872123328088,-6.981374164044059,0.30200967024842645,-0.09503077321656177,-0.10104895922108577,-0.9431460058601494
277.0,-0.056232297403619194,0.06940637293469708,-0.01676298190401259,2.4792155782848146,1.1607525570416994,9.409479937057434,-0.09117451809598741,-0.5510941188040912,0.027255851691581432,144.47075875295042,14.643522570810385,-7.030605822187254,0.30176997632061364,-0.09618776024881982,-0.10356509514870182,-0.9428312092191189
278.0,-0.05420790715971676,0.058694728560188834,-0.0133985051140834,2.515344610542879,1.1649887883556256,9.399763178599525,-0.22327153815892997,0.24235960857592442,-0.04766301140833989,144.49255876278522,14.86135424862313,-7.062327891424076,0.3015365854130606,-0.09695778361565698,-0.10530644463985053,-0.9426414672503933
279.0,-0.06439024390243903,0.04541994492525571,-0.01083634933123525,2.465381982690795,1.156538749016522,9.413599331235247,-0.22509343036978757,0.2555800059008655,0.0036634539732494087,144.47584087332808,14.558247688827695,-6.996436123131392,0.3017988515129819,-0.09574048058202203,-0.10292133400137687,-0.9429446526695514
280.0,-0.0657435090479937,0.0500204563335956,-0.010176239181746656,2.466876475216366,1.1457088906372936,9.414819826907948,-0.19047010228166797,-0.36381785995279314,0.021085759244689223,144.5460857592447,14.571538158929975,-6.927527537372148,0.30122881890165226,-0.09513911381117231,-0.10325190116601102,-0.9431510297702597
281.0,-0.05715971675845791,0.058302124311565694,-0.014936270653029111,2.5536184107002367,1.1498914240755305,9.39109598741149,-0.09481215578284816,-1.3638916207710463,0.019010621557828483,144.65701219512195,15.10222757671125,-6.976204760031472,0.3001005808520849,-0.09670721360975609,-0.10763862869000787,-0.9428502764744295
282.0,-0.0584822974036192,0.06483162863886703,-0.01297560975609756,2.6646014948859174,1.1562509834775763,9.358304878048784,-0.14383113690007868,-0.0566114280094413,-0.034436467348544456,144.7514063729347,15.76615116050354,-7.039292387883556,0.2990973256785994,-0.09870797610857593,-0.11310159417899292,-0.9423090010672699
283.0,-0.05341563275434244,0.06656699751861042,-0.015321753515301904,2.7013571133167904,1.1504404466501237,9.349108560794045,-0.1880699441687345,-0.4184695512820512,0.002773469809760131,144.84562138130684,15.993759046732837,-7.010751395781638,0.2982211851457816,-0.09892301498180314,-0.11515161001592224,-0.9423290229749791
284.0,-0.05623830418204927,0.07692885674514313,-0.016209853940971172,2.810409575541164,1.1433126702172727,9.316325425164923,-0.25875209934636567,-2.3281120130525124,-0.4895345377151042,145.0063251477738,16.663261186427,-6.989886540731102,0.29664191985603405,-0.10018539539924146,-0.12095832794374003,-0.9419170705214196
285.0,-0.044586894026508506,0.07214991224353931,-0.02123799148661462,2.870071723254453,1.1392813351086362,9.298025615808267,-0.058282299673182825,1.7285851225060016,0.32080732791664146,145.16908999324176,17.019180996439307,-6.975412020365551,0.2951784619401137,-0.10074168895768523,-0.12403051941138613,-0.9419081630066777
286.0,-0.06215231798099618,0.05913140773467289,-0.016239963485242793,2.756273764853033,1.1423826030381887,9.33209748532349,0.06685179371179567,1.2859407467368718,0.14152765589380462,145.10939378694343,16.325694328864813,-6.974424760182775,0.29594588372812136,-0.09914932889819744,-0.11820077889924144,-0.9425891496968872
287.0,-0.0375396719724021,0.05976190764389034,-0.02455536726583147,2.6742982710968546,1.1641131150517454,9.35387024148157,-0.06895350420625794,-0.3730861274183461,-0.5510066775605721,145.22573962557243,15.825437521434766,-7.0917898535374935,0.29512818174417477,-0.09881555145096733,-0.11392119670316125,-0.9434213575325509
288.0,-0.03166561762391817,0.056660110149488595,-0.017931943351691584,2.602116050354052,1.1593245476003142,9.375039339103068,-0.16696744689221082,0.27917240361919743,0.21586349331235255,145.4664781667978,15.387165617623918,-7.04370820220299,0.29329776385719897,-0.0971700622804878,-0.11056950276514556,-0.9445642959689222
289.0,-0.04584067663257277,0.07254065040650406,-0.017542458131954593,2.5870666048480757,1.1777357817241767,9.377405211494509,0.007799386965643862,0.42764210080176834,-0.42590573601588555,145.75548089711887,15.294994567457195,-7.154474881514368,0.29092830588011875,-0.0975804968138792,-0.10975303943809711,-0.9453732029488687
290.0,-0.05459854445318646,0.0721999082087595,-0.014901933235922222,2.36324012775842,1.1974653534899404,9.432367436589114,-0.2633879982953055,0.9461141513056835,-0.01900002575774612,145.94080717751302,13.946951453673522,-7.227406475965681,0.2898284854985762,-0.09486232589838337,-0.09842257379212095,-0.9471827940416058
291.0,-0.14360582218725418,0.033583530028848674,0.007714847701472405,2.387531845940579,1.0991513431493762,9.438506200591963,-1.7192720626803044,-0.19828746112921958,-1.123790556741973,146.8033439408415,14.09271992431906,-6.630235496047357,0.28271086699850134,-0.08948686626400285,-0.10178854151073395,-0.9494372936980255
292.0,-0.0680460267505901,0.05231890899554155,0.017091098122962785,2.198474813607583,1.089139007530628,9.47719959911581,1.1798505933648045,1.4937703134951856,-0.010557748866659278,147.46210666750966,12.951282267430969,-6.55058686682777,0.2775242667879997,-0.08559945866701324,-0.09270652202995393,-0.9519318126239931
293.0,-0.11679067850586342,0.06608725787718706,-0.01326589487093028,2.2464100258514104,1.324846577498033,9.43561631261474,1.2116958900003745,-1.6497918305795962,-1.069807004233637,147.31451027499907,13.235443361058033,-7.988118654228018,0.2784520122738002,-0.09826011185942826,-0.09188034949308757,-0.9505938566368813
294.0,-0.12641264845828182,0.08763778052527066,-0.007741186167622045,2.3254246749840775,1.4274249747105763,9.406095687684989,-0.2874775205125324,-1.3109826345959315,0.16518442546176615,147.73566932673936,13.709806208085123,-8.626044359521936,0.27476931782473496,-0.10417625513319095,-0.09479369175901989,-0.950909586361695
295.0,-0.11504102506462852,0.09882207485669324,-0.006369562773968754,2.38409726124911,1.3869633959012397,9.400021355513093,-0.406574313438987,-0.8332584017084411,0.5706019819414785,147.6304208347383,14.071758738900755,-8.384387527631038,0.2756115167142482,-0.10312478616837134,-0.09823568472781087,-0.9505341503810274
296.0,-0.10250983477576708,0.10218500618185902,-0.009551534225019668,2.505044396987749,1.3380341688209507,9.376595856281146,-0.18909932186879475,-0.8138440860215054,0.2663772432655202,147.50625444906524,14.803988235734892,-8.117452980405378,0.27646893349630963,-0.10266257769884982,-0.10491685431456296,-0.9496615559184745
297.0,-0.0936876475216365,0.08827424974710574,-0.0125279307631786,2.589751152073733,1.3386551646622458,9.354500131130344,-0.10172904724438953,-0.43959808549698404,0.24398720542504965,147.43645727960734,15.314562961297817,-8.137857096024877,0.2769357832996891,-0.10403003754021956,-0.10909712141534597,-0.9489580995556177
298.0,-0.09108268704806863,0.06970087295342998,-0.010479787194185304,2.5529738863287252,1.3273298864785883,9.367281555580533,-0.36209724251620395,-0.17518498744895283,0.03219905586152637,147.40096193473454,15.089289929189615,-8.062481735416432,0.2772747894870181,-0.10293182567794387,-0.10734804459016145,-0.9491944120796522
299.0,-0.07726479971641263,0.05348032612548742,-0.011284296348812475,2.625076686754107,1.3195206191657807,9.348021741699164,-0.2723229055890346,-0.8550838946000235,-0.07802936311000827,147.4955563925322,15.52789495450786,-8.025927567056598,0.27636979043920606,-0.10350656749793216,-0.11120530387853006,-0.9489506628857376
300.0,-0.07104561030367482,0.042791622356138495,-0.012525404702824056,2.6121182204891884,1.3159154555122297,9.352774311709794,-0.20914052345503958,0.3957587439442278,0.02214123242349049,147.5053482807515,15.450545019496632,-8.000607792744889,0.276293094860924,-0.1031210332397495,-0.11059272099994091,-0.9490891458898734
301.0,-0.0742601323407775,0.040522539288668336,-0.01394933829611249,2.641357113316791,1.294857113316791,9.347678246484698,-0.28572425558312653,-0.12051540529363114,-0.16224927626137303,147.66495812655086,15.625320512820513,-7.876196753515301,0.2749425107952853,-0.10234589650620346,-0.11248783938937136,-0.9493438373796523
302.0,-0.06652345720107325,0.03328870866872441,-0.014549708487159311,2.6415816841170896,1.2756499374609132,9.350795063446913,-0.2476946907341282,-0.1913675570921342,-0.021377145998507124,147.80380577452644,15.624686957826464,-7.761719049456312,0.27382399318304784,-0.10127935472497429,-0.11288069883974863,-0.9497379963534767
303.0,-0.07295930924569793,0.030128225302104142,-0.012153886501644172,2.594637616252093,1.2499015816336823,9.366808822046035,-0.29940178085093505,-0.20281583499768002,-0.09395470203151163,147.80500268565032,15.343417067622909,-7.591671016663641,0.27393087747055617,-0.09926850244716456,-0.11089025505697109,-0.9501508174428674
304.0,-0.06509834775767114,0.03971754523996854,-0.015564122738001573,2.6478961447678993,1.231818450039339,9.353690597954365,-0.13065622541306057,-0.2584075039339103,0.006910159323367422,147.89192441974822,15.670710808418567,-7.490557385916601,0.27309977148465775,-0.09906627591837136,-0.11393601642840284,-0.9500525500812349
305.0,-0.06735562549173879,0.041882966168371366,-0.017628835562549173,2.7058512981904013,1.2139535798583792,9.340091266719117,-0.27729887883556253,-0.33623500196695516,-0.04329391227380016,148.0441224921322,16.016933025177025,-7.3980256687647525,0.27175865578265146,-0.09890199011644374,-0.11720001052065304,-0.9500587618269078
306.0,-0.0734453892553814,0.04490767415118321,-0.0068480199318122215,2.6688847061671614,1.193078526901894,9.35296664245799,-0.22807380873126348,0.615606780447457,0.12774238939659868,148.06894852377494,15.788518466682806,-7.26296160402671,0.27161231256946883,-0.09729188419842039,-0.115602386577841,-0.9504609340677137
307.0,-0.08298862696443343,0.04600930521091814,-0.01014784946236559,2.5227940446650123,1.1639782878411906,9.396460504549214,-0.28500956368899916,0.43930417700578994,0.030428039702233248,147.93890482837054,14.905121743176178,-7.053068134822167,0.27298883141770053,-0.0937850135539702,-0.1085704185438379,-0.9512207157222912
308.0,-0.08794995864350705,0.05287965260545907,-0.01046505376344086,2.4043244416873453,1.1402593052109178,9.430379445822997,-0.04802393507030603,0.027867814309346567,0.27358095533498755,147.6744171319272,14.196840105459057,-6.890394954507858,0.2754422286765923,-0.09110957334553349,-0.10275745936062863,-0.9514059312684038
309.0,-0.08162820512820514,0.05842369727047148,-0.0026075268817204295,2.3743436724565754,1.1297264267990075,9.440411497105046,-0.13497466914805623,-0.039266697684036386,0.16179047766749377,147.58289909015716,14.011398883374689,-6.820852719189412,0.27625986839474775,-0.09022134743486353,-0.10129035128515301,-0.9514367168035567
310.0,-0.07720690350824105,0.05544562125522001,-0.011563598216627327,2.3700599164800584,1.1248357743751138,9.442397920071013,-0.25590565676128224,0.39280333978898097,0.07913419929794831,147.56124694869777,13.986981404708587,-6.78950225947669,0.2764211558827594,-0.08993703990773466,-0.10115003466765518,-0.9514424183020538
311.0,-0.0769343036978757,0.05495357985837923,-0.01215814319433517,2.375980330448466,1.132621361132966,9.440471085759246,-0.15320613690007867,-0.27050796616837136,-0.044769128638867034,147.62038257277732,14.022243804091268,-6.838340873328088,0.27595861039712827,-0.09035321187942563,-0.10138540662745868,-0.9515199023412669
312.0,-0.07234618410700236,0.05524291896144769,-0.008829071597167584,2.3759740361919754,1.126395357985838,9.440925059008656,-0.07761113296616837,-0.37391325727773406,-0.028659765932336743,147.6769251573564,14.020446498819826,-6.797093823760818,0.2755139324767899,-0.08997220171793863,-0.10150781801534223,-0.9516748143682142
313.0,-0.06010051140833989,0.05635129819040127,-0.011337922895357984,2.386987018095988,1.1296492918961443,9.43766011014949,-0.09964226003147128,-0.38811590283241537,-0.07796395554681354,147.71391620771044,14.085424862313138,-6.820321105428796,0.2751995491819434,-0.09028846125413059,-0.1020384033947679,-0.9516809481841071
314.0,-0.056715578284815105,0.05257081038552323,-0.012709284028324153,2.4094370574350905,1.1402722265932337,9.430588119590876,-0.04072334775767113,-0.1043150078678206,0.024702498033044848,147.75201858772618,14.223458398898504,-6.888839988198269,0.2748260763288749,-0.09110429349803303,-0.10306107423367428,-0.9515988364791503
315.0,-0.05363709677419355,0.04970161290322582,-0.013637096774193544,2.428556451612903,1.152548387096774,9.423927419354838,-0.09894153225806451,-0.47454637096774194,-0.09400201612903225,147.7726310483871,14.339364919354837,-6.9698084677419345,0.2746148877096774,-0.09201054674193547,-0.10386569143548388,-0.9514855675
316.0,-0.06816129032258064,0.05004032258064518,-0.0139758064516129,2.487733870967742,1.145733870967742,9.409056451612901,-0.07762096774193548,-0.5234375,-0.09289314516129032,147.87918346774194,14.697832661290322,-6.937399193548386,0.27362090021774194,-0.09245009799193547,-0.10703449899999998,-0.9513710775725809
317.0,-0.06620948072383949,0.05031313926042488,-0.014448269079464985,2.569757474429583,1.1421703383162867,9.388253147128246,-0.2101273603461841,-0.43849208300550746,-0.009241001180173097,148.0154479740362,15.188085169158143,-6.9324547600314705,0.2723492103898505,-0.09334718232140046,-0.1112838015086546,-0.9511570927157749
318.0,-0.0769996066089693,0.06363119590873328,-0.011911880409126671,2.6134921321793865,1.1362966168371358,9.376941188040913,-0.25824523013375295,-0.30324916404405977,-0.21845987411487017,148.1692638670338,15.452665224232886,-6.906642161683713,0.27098687823721485,-0.0935480262848151,-0.11368499475727775,-0.9512476717411487
319.0,-0.07298367427222657,0.05708575924468923,-0.012447875688434303,2.6012380015735643,1.1337289535798583,9.380337529504324,-0.09865386506687648,0.035951022816679806,-0.012052517702596383,148.28735370771048,15.380415273406765,-6.887973298583792,0.27004613038473646,-0.09312051801337529,-0.11318523147541307,-0.9516185124996064
320.0,-0.071794256490952,0.06442997639653816,-0.010115066876475214,2.6406593233674274,1.1246144767899295,9.370265538945711,-0.19668076317859953,-0.15551239181746657,0.02875196695515342,148.46164560385523,15.624204612509835,-6.840886850904798,0.26850650922462627,-0.09306981076475215,-0.11548430604012588,-0.951777057338513
321.0,-0.07784191732736186,0.06475034799975792,-0.006945147168593275,2.6106778833545157,1.1177658819019958,9.379647037462929,-0.24218084891767033,0.15907951542294577,0.15401876676955356,148.43550190138998,15.439051877181303,-6.792121335915592,0.268770476765539,-0.09232381504656137,-0.11405045110318951,-0.9519559713289958
322.0,-0.0679469224717061,0.06265369484960359,-0.011494603482014965,2.5389652201981074,1.0938176380399043,9.401795194577257,-0.2955691813431782,0.10061568218039499,-0.024952654380762163,148.39212644243378,15.004581996812524,-6.631992021222942,0.2692814337289536,-0.09011969158228934,-0.11071708408660655,-0.9524114176660712
323.0,-0.05335111662531017,0.06170843672456576,-0.014239040529363105,2.5383693134822174,1.0774493382961128,9.404126550868487,-0.1364893507030604,-0.10896143507030606,0.1168411393713813,148.43872647849463,15.003618693134822,-6.5292287014061205,0.2689177971532257,-0.08925408150475601,-0.11097165823449132,-0.9525700387425557
324.0,-0.06544168734491315,0.06100744416873449,-0.011555004135649295,2.533055624483044,1.0669222497932171,9.40682133995037,-0.20871846567411084,0.40731363730355663,0.06015948097601323,148.45588037634408,14.971517007857734,-6.464261528122416,0.2688049562741936,-0.08861896625641025,-0.11083312381079402,-0.9526747013027295
325.0,-0.0630630938691521,0.0595709919506143,-0.012823922209445417,2.4806337327765333,1.0596464120720606,9.422025146765115,-0.1909384519558595,-0.0076734577054207165,-0.025191084649680243,148.49584562680303,14.650683390828945,-6.4174714161068405,0.26860099935916604,-0.08749373053969217,-0.108303956289445,-0.9531298445498702
326.0,-0.06901789929189615,0.05300137686860741,-0.008668371361132965,2.4474864280094417,1.0567942564909518,9.431573367427223,-0.1546555369787569,-0.1343319728560189,-0.07417019079464987,148.54234485641226,14.446361132966167,-6.389406717151848,0.26829339687313136,-0.08680987425413061,-0.10670153102065305,-0.9534627880218334
327.0,-0.07098878835562548,0.050561172305271455,-0.01143095987411487,2.4188278914240753,1.051106805664831,9.438653619197481,-0.19509490558615264,0.45654873131392604,0.13058123524783632,148.54952424272227,14.2787753245476,-6.345736624704957,0.2682757856260818,-0.08610161308674272,-0.105377797627262,-0.953677037764949
328.0,-0.0767806845003934,0.050873328088119604,-0.0066066089693155,2.41952281667978,1.0376945318646735,9.439887293469711,-0.3074264850511408,-0.7803697875688433,-0.1054755114083399,148.51863812942565,14.284170928402832,-6.264148554287962,0.26853039120416994,-0.08546231532159716,-0.10557625543863099,-0.9536388593623133
329.0,-0.07443469708890638,0.05311408339889852,-0.006254917387883557,2.493866247049567,1.0271900078678204,9.421738001573566,-0.276772718332022,-0.7846405389457121,-0.21740509441384734,148.617862411487,14.73321449645948,-6.214911978756884,0.26753275186821396,-0.0859220711487018,-0.10954836200157357,-0.9534257128505115
330.0,-0.07412529504327302,0.052929976396538174,-0.005043273013375295,2.525284815106216,1.0041575531077889,9.415593627065304,-0.20005040322580644,-0.01259957710464199,-0.0440634834775767,148.7400631884343,14.917575973642801,-6.07844340086546,0.2664902045847758,-0.08510888433910307,-0.11148623760188826,-0.9535653581758459
331.0,-0.08049409913453973,0.046610149488591684,-0.00735228166797797,2.5489085365853654,0.9909860346184103,9.41038552321007,-0.15932459677419353,-0.1572826514555468,-0.04040371754523997,148.83482494099133,15.061635769079464,-6.004972708497246,0.2656535144738395,-0.08471487029858377,-0.11293803137352476,-0.953669920668568
332.0,-0.08275983477576711,0.062302517702596406,-0.0033204169944925257,2.4678992918961447,0.9820326514555464,9.43253933910307,-0.11042486231313926,0.5721688139260426,0.19102207907159716,148.68863591660107,14.574409913453973,-5.937726199842643,0.26701665523662477,-0.08323371402006294,-0.10887173947108575,-0.953885069377262
333.0,-0.07003009441384736,0.07765342250196697,-0.008799370574350906,2.3308402832415416,0.978897718332022,9.466607985837921,0.1527561959087333,-0.04337013178599525,0.3973446105428796,148.32307976003148,13.752660306845003,-5.8981252458693945,0.27030144631943354,-0.08140847355802519,-0.10183173641070023,-0.9538581758990952
334.0,-0.06984972462627853,0.09277025963808025,-0.0077867820613690035,2.425307238394964,1.017416601101495,9.439049960660896,0.15616640440597954,-1.4582022029897717,-0.016347856018882778,148.22187254130603,14.32350757277734,-6.149491050354052,0.27098896741778133,-0.08483602608143195,-0.1059789315924469,-0.9529115568084185
335.0,-0.062316679779701026,0.09601140833988983,-0.012764358772619984,2.5244907553107785,1.041580055074744,9.40991837136113,-0.21179681353265142,0.16797797010228166,-0.07937770456333595,148.36548485444533,14.9153926534225,-6.311493164830841,0.26959842271361134,-0.08731758239948859,-0.11066948930920534,-0.9525456991005117
336.0,-0.07218646734854448,0.08889457120377656,-0.013278520849724626,2.507124311565696,1.0299205350118017,9.416565696302126,-0.19997049567269864,0.0014948859166011297,-0.09413355625491739,148.46532749803305,14.814014555468134,-6.237667191188041,0.268799462815893,-0.08640521367820612,-0.11004273655468133,-0.9529493614586941
337.0,-0.06922069236821402,0.08613099921321793,-0.014699842643587728,2.463967348544453,1.0183788355625492,9.42956136900079,-0.2562598347757671,0.7407159716758458,0.1027414437450826,148.49613739181746,14.55349626278521,-6.160041306058222,0.2686330637918961,-0.08516821494295829,-0.1080510506966955,-0.953339668007081
338.0,-0.06384777280154935,0.08075921947184732,-0.011757615646876073,2.443795895620246,1.0124667685448565,9.435685383001474,-0.24856809447436903,-0.2039645494159656,0.014806160352236277,148.5181310080393,14.432252957997942,-6.124318752647824,0.2684836421903861,-0.08459530897171114,-0.10712922962914825,-0.9535465942536967
339.0,-0.06383114446529078,0.07414977102624622,-0.011963485242792875,2.478522947810123,1.018769674595009,9.425790272145898,-0.2258465472371845,-0.8397846940628214,-0.15507171821097862,148.62779030240674,14.640269624160261,-6.167098892452945,0.2675074090830962,-0.08530777536892008,-0.10890144983473543,-0.9535531370220098
340.0,-0.055066634388428244,0.06822752123302869,-0.012752002259476689,2.5423141883031732,1.0175555690048217,9.409035970061932,-0.10065439084911941,-0.405804030745022,0.10952157598499061,148.69968881760775,15.020665889971553,-6.170587211765417,0.26681094525751986,-0.08607788016675744,-0.11214611500784766,-0.9533043727281566
341.0,-0.05356242813048478,0.05629944118299744,-0.016994411829974382,2.5223152373459214,1.0183088623938348,9.414345679759528,-0.1691017823639775,0.22402068328995947,0.0032560673001270912,148.67845377151042,14.896992071657689,-6.169857925316226,0.26704358025503844,-0.08583901016835119,-0.11107255243547376,-0.9533935084986178
342.0,-0.046348483931489444,0.06861470878976779,-0.013148661461800723,2.500838971938106,1.020285823801166,9.420157891020597,-0.08285930975004538,-0.5335394223204017,-0.06455508987472008,148.70168754665212,14.77129304605701,-6.175635099558192,0.2668445125869999,-0.08559009483476566,-0.11003296803835058,-0.9535903230950997
343.0,-0.042231313926042485,0.0781154602675059,-0.01391345397324941,2.545892604248623,1.026439024390244,9.407182336742721,0.0645566974822974,-0.7492759146341463,-0.03465037372147915,148.74564319433514,15.04420731707317,-6.217950924468922,0.26638852565578286,-0.08651981042151846,-0.11227215052124309,-0.9533703282340675
344.0,-0.02034808045350925,0.1038545663620408,-0.017482781577195423,2.481173556053178,1.0480028041719625,9.421335481853578,-0.1573431101091408,1.1659618410700237,-0.4032652716415501,148.981576249773,14.653968836369504,-6.340402519719986,0.2645203473740039,-0.0864491559021364,-0.10884407356066289,-0.954274542044453
345.0,-0.05303556658395367,0.10587220843672457,-0.018069478908188587,2.438674110835401,1.0999722911497107,9.425636269644333,0.19381074234904877,-0.538508064516129,-0.6856363730355666,149.3252442617866,14.40272694375517,-6.652734698097601,0.26167414921257237,-0.08812800298883375,-0.10636560060566583,-0.9551630016532258
346.0,-0.06501778329197684,0.09865384615384615,-0.01527667493796526,2.463240281224152,1.155873242349049,9.41327377998346,0.07409791149710503,0.2666834677419354,-0.19760649296939614,149.69803039702234,14.546978391232422,-6.996226220016542,0.25850906134822166,-0.09089174809119106,-0.1071177952746071,-0.9557023663064514
347.0,-0.06141211745244003,0.09473014888337469,-0.017291563275434244,2.47591852770885,1.1903600082712988,9.406209470636892,-0.0789792700578991,0.012449596774193494,-0.2049524400330852,149.9438740694789,14.626160566583954,-7.204917545492142,0.2564312709483044,-0.0925478114609181,-0.10749406545181966,-0.9560757835161291
348.0,-0.05727224676713269,0.09530478726623495,-0.018105065666041274,2.534542466057416,1.1910959168028405,9.390584770723642,-0.2928869353830015,-0.5359534815106216,-0.24714331285682584,150.2504455909944,14.977651732937925,-7.222269084508463,0.2537910193948839,-0.09311401951222538,-0.11069027040578787,-0.9563645585987413
349.0,-0.05043430369787569,0.08623800157356411,-0.017620771046420146,2.6220536978756885,1.166576907946499,9.369826711250985,-0.285582218725413,-0.14116222462627853,-0.02182951416207711,150.57035306845006,15.513308910306844,-7.090890538945711,0.25094989908536586,-0.09278003890499606,-0.11571459415243901,-0.9565427613638866
350.0,-0.05658438237608182,0.08621636506687647,-0.014680369787568844,2.617984854445319,1.1497645554681353,9.373119984264362,-0.281128294649882,-0.23856584382376084,-0.02429435483870968,150.5797219217152,15.488434303697876,-6.988967840283241,0.2509089571201809,-0.09188635145416994,-0.11572239536467346,-0.9566545041784029
351.0,-0.051320416994492524,0.07417269866247049,-0.021715184893784423,2.6038271046420145,1.1344024390243903,9.378922895357984,-0.28650668764752163,-0.1453161880409127,-0.05131048387096774,150.64991640440599,15.39915666797797,-6.887175452399685,0.2503638366689614,-0.09084464810208497,-0.11524957731136898,-0.9569570232545241
352.0,-0.056498608000968356,0.07109400028243458,-0.019285632149125462,2.6391833000463993,1.1283916661623195,9.369610331053686,-0.22812720652020416,-0.3974706974116887,-0.05536342018196856,150.7750796869011,15.610487401400068,-6.856480612883051,0.24922180505501418,-0.09088578842066614,-0.11721561949801285,-0.957011329074119
353.0,-0.05965764389033468,0.06265006859125664,-0.02030764691641954,2.6573831527769367,1.1340856835925681,9.363908233976883,-0.1522126984607315,-0.9256580473683147,-0.10944803581875769,150.8286442887692,15.727376863563922,-6.895839637676773,0.248753985636083,-0.09135589135588776,-0.11815794363413626,-0.9569716499548407
354.0,-0.0666957574290383,0.06631293752143477,-0.016069146038854933,2.8669415763884682,1.126853325667252,9.29782911698844,-0.17640876858520443,-0.1327887011035122,0.16344634499384694,151.0362979508362,16.997660205975507,-6.906085141419032,0.24659169810836412,-0.09362920754891163,-0.1290693392122294,-0.9557834050177428
355.0,-0.07776959389941293,0.05819187395347899,-0.015898459722810628,2.732345689846477,1.1042016431640742,9.34209315802215,-0.08650788547277531,0.7605627698258992,0.404402165415885,150.69716648131896,16.175315154128587,-6.737685568349169,0.249692238310673,-0.09102708316469973,-0.12218652812696443,-0.9561599930045444
356.0,-0.08328802275615807,0.06020884020254596,-0.012525842764631121,2.563809941697431,1.073879047388489,9.393219966107846,-0.17818337822025865,0.8418489252355303,0.32263959077245863,150.36070521646593,15.154744270612682,-6.511559518045552,0.2528458494093687,-0.08749905909847888,-0.11378333934574027,-0.9566980280224335
357.0,-0.08155468135326516,0.06280251770259637,-0.011925452399685288,2.414603068450039,1.0555623524783635,9.43619807238395,-0.35406790912667196,0.5820183418568057,0.11074080448465776,150.12427837332808,14.251777635719906,-6.375248328088119,0.2550827220247836,-0.08476507391483085,-0.10628161579032257,-0.9572322232651456
358.0,-0.07126638120599568,0.06385597349149669,-0.005222961931852568,2.349829656640239,1.0560736700357076,9.453834664810667,0.17758698733079142,-0.4566147693114648,0.18958062246565394,149.95711760374428,13.865633699993948,-6.36843216652545,0.25661008419622144,-0.08409232497881741,-0.10291484341335816,-0.9572829662152855
359.0,-0.06194367447396558,0.07789169642316769,-0.01235341644979725,2.4635478928362486,1.0831295769533376,9.421828622727915,-0.08454319988299139,-0.9000815782041195,-0.06372783392846335,150.07644186638828,14.55302854354536,-6.5524872526175635,0.25542074705778817,-0.08691861876360224,-0.10839559279942104,-0.9567527497769974
360.0,-0.05110008271298594,0.06947456575682381,-0.013537841191066997,2.4805796112489658,1.0879652605459058,9.417461124896608,-0.17445590363937136,-0.22891077336641852,-0.10159739454094294,150.17992529983457,14.653043579404466,-6.586255428039702,0.25452793824958647,-0.08730573631885855,-0.10923696636745245,-0.9568786111497105
361.0,-0.06259036393713813,0.0634106699751861,-0.012160049627791563,2.462721257237386,1.0944665012406944,9.421464433416046,-0.047384201819685674,0.5550002584780811,0.056761786600496286,150.27471567411084,14.542323200992556,-6.619715415632754,0.25375635285463194,-0.0872866799255583,-0.10829314379259719,-0.9571957738571131
362.0,-0.07027502067824648,0.06716501240694789,-0.012862282878411912,2.3782315963606284,1.115620347394541,9.440224152191895,-0.03387355252274607,0.5066583953680728,0.02273573200992556,150.19592638544253,14.035274503722084,-6.731505893300248,0.25452976078618694,-0.08723208880148883,-0.10371432969065345,-0.9574973691906533
363.0,-0.06899193548387096,0.06983064516129034,-0.013669354838709678,2.3739999999999997,1.1169838709677422,9.441854838709679,-0.16990927419354837,-0.4290322580645161,-0.11935483870967742,150.2532258064516,14.005493951612902,-6.741885080645161,0.2540719805725806,-0.08720156740322581,-0.10348490993548388,-0.9576581408467741
364.0,-0.0773790322580645,0.06750806451612903,-0.009879032258064517,2.3556370967741938,1.1065161290322583,9.44775,-0.22943548387096774,0.10856854838709679,0.050705645161290315,150.2656754032258,13.896572580645161,-6.675907258064516,0.25397220831451617,-0.0863806445887097,-0.10273988743548389,-0.9578444457580646
365.0,-0.07066129032258064,0.06516129032258065,-0.008959677419354842,2.3239354838709674,1.0823467741935482,9.458645161290324,-0.29203629032258066,0.09173387096774194,-0.002620967741935487,150.28951612903225,13.705191532258064,-6.522328629032257,0.2538007184758065,-0.08471512318548388,-0.10148039786290322,-0.9581740841290323
366.0,-0.06935483870967743,0.06249193548387097,-0.011403225806451615,2.2982983870967737,1.0589274193548386,9.467741935483875,-0.271320564516129,-0.21743951612903226,-0.02091733870967742,150.2897681451613,13.552217741935483,-6.374193548387097,0.2538944865806452,-0.08321547936290324,-0.10047681234677419,-0.9583865251370969
367.0,-0.07393548387096775,0.06416935483870967,-0.011032258064516128,2.303387096774193,1.0403387096774193,9.4681370967742,-0.24798387096774194,-0.2345766129032258,0.009929435483870966,150.37535282258062,13.583770161290325,-6.264112903225806,0.2532177839032258,-0.08228843433870969,-0.10104133872580645,-0.9585896140241934
368.0,-0.05510483870967742,0.0711774193548387,-0.013032258064516127,2.3350564516129033,1.0404838709677418,9.460709677419358,-0.08891129032258066,-0.7758568548387097,-0.14349798387096774,150.46517137096774,13.77071572580645,-6.275756048387096,0.252434466,-0.08266621238709676,-0.10267880380645163,-0.9585878909838708
369.0,-0.04412096774193548,0.06200806451612903,-0.019056451612903223,2.394733870967742,1.0363629032258066,9.445782258064519,-0.2857358870967742,-0.2304435483870968,-0.06617943548387097,150.61844758064512,14.136391129032258,-6.2586189516129025,0.25103582538709684,-0.0831181184032258,-0.105886743,-0.9585661841048385
370.0,-0.049427419354838714,0.05902419354838711,-0.008491935483870967,2.419258064516128,1.031161290322581,9.440120967741937,-0.23961693548387097,-0.4263104838709677,-0.10554435483870966,150.7259576612903,14.279435483870968,-6.228881048387096,0.2500782131532258,-0.08308120217741935,-0.10725289650000003,-0.9586680239838706
