time,linaccel_x,linaccel_y,linaccel_z,gravity_x,gravity_y,gravity_z,gyro_x,gyro_y,gyro_z,euler_x,euler_y,euler_z,quaternion_w,quaternion_y,quaternion_x,quaternion_z
0.0,0.06214285714285715,-0.06809523809523808,0.03142857142857142,1.955714285714286,2.340238095238095,9.310476190476189,-0.25148809523809523,-1.5431547619047619,-1.1577380952380953,130.50595238095238,11.505952380952381,-14.099702380952381,0.4130699526190475,-0.15232776452380956,-0.04136149142857143,-0.8968157090476195
1.0,0.0593189368770764,-0.10409376153562198,0.029700996677740864,1.89578073089701,2.237443706164636,9.34891842008121,-0.6535968069398301,-0.1917105020302694,-0.22990494647471393,130.4079918789221,11.148301956441491,-13.446993816906605,0.4142596756792173,-0.1461099965466962,-0.04058017822812846,-0.8973830723181985
2.0,0.056714918525549746,-0.09957759848125294,0.030143964562569216,1.7126135105204874,2.215094921689606,9.386951431735483,-0.032663937668090476,1.277532233823762,-0.1274422559721563,130.26754073722512,10.056755260243632,-13.267249050783104,0.41577792957680737,-0.1410225874996045,-0.032257510124980224,-0.8977605614697042
3.0,0.06780029531192322,-0.09966954595791805,0.025533850129198968,1.5566863049095607,2.1351776301218166,9.433110668143225,-0.3935765042451088,0.8778483757844222,-0.2853063861203396,130.24318567737174,9.133152454780362,-12.745549557032113,0.4164401819358435,-0.13374266989981543,-0.026652625658324103,-0.8987710092191954
4.0,0.06045636409102275,-0.09320415818240273,0.02955938984746187,1.616645447076055,2.03112281641839,9.44711192083735,-0.30948786303718784,-0.34251576286928875,0.4879085842889294,130.07389168720752,9.48992783910263,-12.126494793341193,0.41794241614407174,-0.13020388617272177,-0.031503622430679105,-0.8984578661506089
5.0,0.05503232951094918,-0.0972395598899725,0.027913335476726326,1.6881153502661381,1.986479226949594,9.444784839066909,0.07819097631550742,-0.0004389490229700366,0.22115283285106996,129.79453032901083,9.91038250634087,-11.873467250741257,0.4201317303108992,-0.12977959038666811,-0.03544924374990176,-0.8973870210860571
6.0,0.05238863287250385,-0.09297626540781537,0.023688246974635646,1.7534446255292044,1.963551215765614,9.438516054100635,0.2181044172192874,-0.2763187965981042,0.09657386853246414,129.62318197145106,10.29754036941291,-11.744779958600276,0.42138628717528387,-0.13018281063987863,-0.038807416970645534,-0.8966131315217487
7.0,0.05412826420890937,-0.08608362681553082,0.02167515267318572,1.758985497608432,1.9562110917537747,9.292843536522925,0.4855803064079028,-0.06184251401845815,0.20322485029285775,129.4057490118392,10.48632778839309,-11.886382874845452,0.4229759480679286,-0.13201043858798847,-0.03953041805265508,-0.8955820427770032
8.0,0.060136712749615975,-0.08543294244002347,0.012684350530141247,1.8821338778364745,1.9856982878123708,9.335816929551786,0.29697362094588686,-0.6620200473318097,0.7745710945012675,129.08719910269377,11.147599378067511,-12.003045268067888,0.4252003586025126,-0.1353548653907684,-0.04402459148197271,-0.893806065146566
9.0,0.04714592933947773,-0.09452138673460467,0.020305308905623622,1.9748534212531068,1.9800342437525753,9.354525208247473,0.5385357736065839,-0.2939756534662121,-0.20293622694291458,128.6993455190888,11.658045080738827,-11.947399170132254,0.42804642847560354,-0.13688094031059161,-0.047860262507499404,-0.8920106755033905
10.0,0.04870199692780337,-0.12319233699249434,0.023661871042673567,1.9390764802118068,2.0075286426136145,9.375095937457068,0.02098639678793099,-0.2354190863337205,0.023215066252045002,128.82231580869956,11.423900612566033,-12.081797703345696,0.4271050456594608,-0.13704485298939717,-0.04568930967080039,-0.8925551777125245
11.0,0.05735099846390171,-0.09885816692268304,0.018092933947772658,2.097856886840758,2.011566052227343,9.347705325140808,0.18436219918074753,-1.364164106502816,-0.07194380440348183,128.9276065668203,12.370118087557604,-12.142300307219662,0.4258739842176139,-0.14074918736251918,-0.053192684028161796,-0.892124081893241
12.0,0.07551689708141324,-0.08814324116743472,0.020594854070660522,2.2605637480798775,2.031772273425499,9.313924347158213,0.1310027841781874,-1.6380856374807986,-0.6480462749615975,129.09898473502304,13.33537826420891,-12.303206605222734,0.4240601896240399,-0.1452390093801843,-0.060584435877880184,-0.8917827762100614
13.0,0.05358909370199694,-0.07985791090629801,0.02506758832565284,2.2525560675883254,2.0722611367127497,9.306288786482334,0.27787538402457757,1.4963805683563747,-0.011775153609831057,129.38474942396314,13.280592357910905,-12.548780721966207,0.42177603143701997,-0.14680099344009215,-0.05963829036635944,-0.8926508889639019
14.0,0.05707258064516129,-0.09336290322580647,0.02562903225806451,2.133774193548387,2.0945000000000005,9.329919354838712,0.4671875,0.9872983870967742,0.08371975806451612,129.30912298387096,12.566985887096774,-12.646471774193547,0.42264748870161284,-0.14516665504032256,-0.05342303868548387,-0.8929258294435483
15.0,0.05202163650668766,-0.09549331235247838,0.02685582218725413,2.0857623918174664,2.1188579858379226,9.336306254917387,0.17818646734854449,0.7299444335169158,0.20244148308418566,129.17559746262785,12.27651947285602,-12.773983330055074,0.4237369859177813,-0.14524879296125098,-0.050446465374114874,-0.8925974877456726
16.0,0.06501581057285227,-0.08414066539282905,0.024896613090554874,2.1684856505938326,2.146953186467348,9.309782351729044,0.21637097945000186,0.9203149586939418,-0.03210299117680117,130.11162025589147,12.77887273565996,-12.977694670019854,0.41613805695735456,-0.14805202122582517,-0.05495234979804054,-0.8953488901353172
17.0,0.06009543479075343,-0.09054495897493536,0.017112743996103557,1.9945408190026597,2.1382724232887487,9.350467001985685,0.3158818164362519,0.966710513375295,-0.24569781246487576,131.17932753549883,11.734981829080963,-12.874168317504028,0.40819122489459,-0.1433536864685381,-0.048231026296738595,-0.9001346363490315
18.0,0.06061311865422801,-0.09673117342924581,0.02546481023565996,1.7898996384549097,2.1581292289535803,9.386393512794577,0.2118446995241842,0.6531483575924469,-0.04985827385635605,131.76850178899252,10.518827214697838,-12.945459084991196,0.40396440742172457,-0.13962141817673562,-0.03886779724209471,-0.903083266601148
19.0,0.06887078041287327,-0.10568393840620433,0.02565284178187404,1.7616271402345358,2.1480015735641227,9.395822936570378,0.08899301262597878,0.10980527143981117,0.08061706193098798,131.99776141770633,10.348989359709265,-12.871075456146267,0.40225657100108647,-0.1383987184863812,-0.03804804869431644,-0.9041378035420178
20.0,0.07148259713011877,-0.10698280319208722,0.028503053463714366,1.797435914727811,2.1794885916601103,9.382163238544825,0.400495719530928,0.6201809598741148,0.019040828369113187,132.1684027387509,10.567875875763367,-13.070544612416171,0.40078159035341493,-0.14059471200322204,-0.03929118267367277,-0.9044297669228578
21.0,0.08300550747442959,-0.13089693154996068,0.030660896931549966,1.819315499606609,2.1960346184107,9.374750590086542,0.12512785208497246,-0.9616837136113296,-0.14429583005507476,132.2755704169945,10.695554681353265,-13.171557828481511,0.3998425477765538,-0.14180996516443745,-0.04017535676003148,-0.9046270906703382
22.0,0.09169079464988197,-0.12286231313926042,0.028205350118017312,1.825548387096774,2.2246129032258066,9.36667269866247,0.4624754130605822,0.9615165224232886,0.11949252557041698,132.18449547600312,10.728417584579072,-13.35012293469709,0.4005055357781274,-0.14333880196223447,-0.03972249617151849,-0.9041176605971676
23.0,0.08164791502753736,-0.10210936270653029,0.020785601888276953,1.7713933910306845,2.202631392604248,9.382779307631786,0.3164412863886703,-0.45098347757671126,0.06681746656176239,131.94833054681354,10.407373623131392,-13.204752655389456,0.4025142811030684,-0.14120632694649882,-0.037351393246262785,-0.9036563766282457
24.0,0.07145967741935483,-0.07346774193548387,0.014104838709677426,1.751274193548387,2.1729112903225807,9.39352419354839,-0.006098790322580622,0.7350806451612903,0.07278225806451613,131.79863911290323,10.284627016129033,-13.018598790322581,0.4038008661935484,-0.13938204811290322,-0.03682014719354838,-0.9033925708467743
25.0,0.06074193548387097,-0.06492741935483873,0.018677419354838715,1.7484193548387092,2.1350887096774196,9.403217741935485,-0.06008064516129031,-0.11809475806451614,0.1368951612903226,131.6672883064516,10.270967741935484,-12.78578629032258,0.40498593145967754,-0.13755990286290326,-0.03732900291129032,-0.9031290374112906
26.0,0.06433870967741936,-0.07878225806451614,0.019524193548387105,1.802887096774193,2.1158790322580647,9.397532258064512,0.11088709677419355,-0.12867943548387095,0.11774193548387098,131.6031754032258,10.593548387096774,-12.676461693548386,0.4053446607580644,-0.13780635691935483,-0.04026174242741935,-0.9028077666290326
27.0,0.06876612903225807,-0.09225806451612903,0.013225806451612908,1.8331854838709676,2.117661290322581,9.390903225806447,0.3951612903225806,-0.19374999999999998,-0.0815524193548387,131.59198588709677,10.773185483870968,-12.701864919354838,0.4053761629838709,-0.1385926275403226,-0.041604860241935486,-0.9026155547580648
28.0,0.07297580645161289,-0.10312903225806452,0.019806451612903234,1.8275322580645157,2.1232741935483865,9.391072580645154,0.004536290322580627,0.2949092741935484,0.05972782258064516,131.58019153225806,10.740372983870968,-12.734677419354838,0.4054626455403226,-0.138734288516129,-0.041210641903225806,-0.9025796720080648
29.0,0.06284677419354838,-0.097,0.023709677419354844,1.8201612903225808,2.1281048387096773,9.390564516129025,0.37757056451612897,0.47006048387096777,-0.0029233870967741923,131.52132056451615,10.69657258064516,-12.761189516129033,0.40591085995967746,-0.13880935200806452,-0.04068155570967742,-0.9023859833306451
30.0,0.05628225806451613,-0.09130645161290324,0.02012096774193549,1.8252338709677418,2.1483629032258067,9.385161290322575,0.40070564516129026,0.4407762096774194,-0.05378024193548386,131.47021169354838,10.726108870967742,-12.887449596774193,0.4062832248951613,-0.13993810858064515,-0.04043687366935485,-0.9020572294274193
31.0,0.03296774193548387,-0.0976774193548387,0.029854838709677423,1.635693548387097,2.1226290322580645,9.42356451612903,0.1435987903225806,1.9100806451612904,0.24914314516129032,131.23004032258063,9.591834677419355,-12.689062499999999,0.4085838564354838,-0.13460988698387094,-0.0316894037983871,-0.9021033992661289
32.0,0.04336270653029111,-0.10113375295043273,0.03532572777340678,1.4591518489378443,2.136490165224233,9.449562155782846,-0.013958005507474426,0.1346872541306059,0.1618250885129819,130.95354420731707,8.55326514555468,-12.73288134343037,0.4110438610411093,-0.13148352302871752,-0.022858730755114083,-0.9017038171020847
33.0,0.044310385523210066,-0.10332494099134537,0.03672738001573565,1.3841162470495671,2.1084628245476007,9.46814398111723,0.2062266424075531,0.6664867722265932,0.17292363296616836,130.72397472462626,8.113930959874114,-12.545850953973249,0.41306831285523204,-0.1285384712724233,-0.019670218905782848,-0.9012995818131391
34.0,0.05742938630999212,-0.10988847364280094,0.03064260424862314,1.4038204169944923,2.134788749016523,9.458898701809602,0.2787999114870181,0.30885498623131397,0.089018243509048,130.52948588709677,8.2355109166011,-12.708664437450825,0.4144855902311172,-0.13024937280232102,-0.01981097402065303,-0.900386043020653
35.0,0.06610582218725411,-0.11654504327301338,0.03118017309205351,1.4058497246262784,2.113095987411487,9.465501770259644,-0.03169379425649094,-0.4176743214004721,-0.02572777340676633,130.50226814516128,8.243713119590872,-12.57852576711251,0.41479077674862297,-0.12929682795357986,-0.02033841340145555,-0.9004149887159719
36.0,1.0076721810426932,-0.18535974574516548,-0.26904573688351485,1.5085946416000664,2.110671083688765,9.44917257443373,0.7540424810551162,0.012659815106215555,0.18899307424738082,130.45304541595925,8.85177750631496,-12.586901890347427,0.4149804975912046,-0.1314859628834113,-0.025145396206882276,-0.8998702023121454
37.0,0.5405072156196944,-0.14260512857675267,-0.11335764420886993,1.4669951964884675,2.1202788935359633,9.454510756138976,0.010002161062569903,0.7425317171518488,0.06362517599072426,130.22481637438403,8.605373410907283,-12.631742644622966,0.4168406040143277,-0.13104987832840906,-0.022715770460640192,-0.8991582215518241
38.0,0.30783022071307303,-0.12753240299805374,-0.035481241459273685,1.4553524369539113,2.0932684790260456,9.461775539359813,0.004169427305478506,1.3336398505114082,0.4707742815437492,130.0450190742888,8.528190737711707,-12.461486241666321,0.41833086089426064,-0.12948769106339808,-0.022529287294836223,-0.8987022478888153
39.0,0.17997726613938467,-0.123585241624912,-0.0018987639239720078,1.3379751956602757,2.088738881527185,9.478960153629554,0.18191358855439146,0.22270603855232102,0.15272585044929396,129.52086221220338,7.838618382231148,-12.417357991014121,0.42261975435743715,-0.12678159168040082,-0.016609229811855565,-0.8971849141371692
40.0,0.1253112137148536,-0.11724423371568182,0.017772392231562385,1.2957456623462669,2.069567021408753,9.49023410907284,0.017872116857840903,0.22743164830841855,-0.07945864735599821,129.2910006625533,7.5906045540188,-12.292297947119962,0.42454643409404114,-0.12495791730794235,-0.014807689381734233,-0.8965881907540684
41.0,0.06935424862313139,-0.1062112509834776,0.02705173092053502,1.304024783634933,2.0607852084972462,9.491412470495675,0.670412077104642,-0.5666269177812746,0.26014334185680565,129.16771488985052,7.643190647128245,-12.24224404996066,0.4255341201463414,-0.12478519543410699,-0.015280654611919749,-0.8961495956274588
42.0,0.05608438237608182,-0.1183314319433517,0.035554091266719115,1.3715365853658534,2.124029701022817,9.467444138473642,0.5798128933910307,-0.16922575727773406,-0.0004474822974036008,128.06178083202204,7.926660847757672,-12.473062549173878,0.4274615696054287,-0.12935899321302124,-0.016696344850314716,-0.8945457598298583
43.0,0.07010113896069836,-0.08942896481960212,0.0202906785058634,1.409454928627627,2.1633038290060327,9.452508935596267,0.15148118747892544,-0.0960820126634446,0.20255563673148252,128.18864411224757,8.21062425068375,-12.797077549548536,0.4295327549167698,-0.13209034439779324,-0.01727372222412049,-0.8931473886670415
44.0,0.06194278033794162,-0.08781912442396314,0.025121735791090637,1.4241578341013823,2.1491586021505373,9.454018433179723,0.165099366359447,0.369076420890937,0.03208525345622121,128.2702956989247,8.323231086789555,-12.754365879416284,0.4305245888997696,-0.13175424347427034,-0.018103812244239632,-0.8927164595837173
45.0,0.05404862341959116,-0.09611024459411555,0.024797116861633,1.438707845917523,2.2076734904880064,9.437695941155617,0.9319752156445704,-0.9244090083303794,-0.27926599610067354,128.42086176592224,8.425650257001063,-13.141084537102682,0.4299844380085076,-0.1349188460031608,-0.017562307895899798,-0.89249950555592
46.0,0.042944434597660404,-0.1008815431879948,0.03140163062743709,1.6500516956162117,2.2414644334160467,9.391086257828192,-0.36572562182441215,-2.10403798150774,0.6042466102445941,128.54696122090274,9.68997566613494,-13.40287833805979,0.4288660046958821,-0.141321397104691,-0.02680317765647525,-0.8917123686717772
47.0,0.05513321257813784,-0.09039769527613745,0.027705536006086755,1.86278410901975,2.149966874457826,9.371544702478216,0.03251324632618888,0.4000555322595054,-0.16977197910272257,128.4115159910572,10.953258264814126,-12.911184202468132,0.43008842029709526,-0.1419825686664289,-0.03844298400772228,-0.8905522384781979
48.0,0.05479076424493418,-0.08221385269595341,0.0259637792053213,1.8795065874985228,2.1116900986503655,9.379485400581583,-0.012467946916707738,-0.880037260470974,-0.05152853760126575,128.5098697513639,11.055624041739797,-12.68025584556736,0.4294189664731515,-0.1405203723338514,-0.04020984680266972,-0.8911042434541903
49.0,0.061625220832144514,-0.08021579731571862,0.018433502505886455,2.0507170034266813,2.1016918235187316,9.34702092609724,0.21337288138035582,-0.5090710495903257,0.03212383603807681,128.63600846439164,12.08431403699893,-12.665909172783682,0.4280039008252854,-0.14394111309031277,-0.04858456713117358,-0.8908368606424176
50.0,0.06883163440283815,-0.08698961908796685,0.013976883593720731,2.1217522155264095,2.1034348282192497,9.331835525083356,0.12653755731548808,-0.10666021462146559,0.04281439940861657,128.69561486081452,12.505685761262079,-12.696090442471244,0.4274724848791439,-0.1456351697254707,-0.05193123869379193,-0.8906707509084714
51.0,0.07414008755472168,-0.11830970969759327,0.01761132966168372,2.149448304383789,2.1041636506687644,9.325449252557036,0.14020330246726784,0.04298805705178641,0.005926208920898145,128.72383949645948,12.67213051503964,-12.709028324154207,0.4272228418466379,-0.14636945868070766,-0.05319007465565172,-0.8906145712714403
52.0,0.06708671606389939,-0.11314046797681732,0.020082687048068648,2.1786505693362503,2.10539118054775,9.318598329024763,0.06391159653354776,-0.3320041075499376,0.08312238099561073,128.75209340227042,12.846878827637088,-12.723181268967068,0.4269082806526284,-0.1470580929833421,-0.05458492496073582,-0.8905747892787086
53.0,0.05316963655279943,-0.09969375877204359,0.01784228766250797,2.2463158432833885,2.0865704919261168,9.307863287250388,0.07468789897487774,-0.24005791530132597,0.05682967987624754,128.68894009216592,13.24717564513247,-12.620736975946949,0.42723070992898915,-0.14771153952471583,-0.058073438306489054,-0.8900936774678356
54.0,0.044748468945164474,-0.09515824838680859,0.0208206324229141,2.285011875221552,2.0722494473792654,9.302743996103562,-0.09471004343152258,-0.2347085898300493,0.055000082857085214,126.93898224120491,13.304315350103607,-12.397395189389682,0.4273987282620949,-0.14789102649347513,-0.06021020564242627,-0.8898414513987485
55.0,0.04206571503503055,-0.10128714735304037,0.024184509759844153,2.323127112135177,2.0551247236896333,9.29588812708404,-0.04477024090517402,-0.23137931559327113,0.03986046326477089,127.7799749915702,13.616859908302423,-12.380955659210969,0.42740172610375216,-0.14802637060240337,-0.06230289441261098,-0.8896845000219546
56.0,0.03371027687235399,-0.10076857367652017,0.026322093589599506,2.347132104454685,2.046820426360946,9.292331160316214,0.013098750515154918,-0.15336606908695816,0.013226602600127382,128.20450362481736,13.800743462215728,-12.375155248960322,0.4273618099833276,-0.1481676509826533,-0.06358360896437001,-0.8895916763012996
57.0,0.027590873328088128,-0.10391974822974034,0.025762391817466576,2.3680558615263565,2.0423579858379233,9.286638867033826,-0.056417191188040915,-0.05997738001573563,0.004573170731707318,128.44477773406766,13.952812745869394,-12.369389260424862,0.4271653776553893,-0.1484962202155783,-0.06471325123839497,-0.889550954086546
58.0,0.025283241542092844,-0.11496223446105429,0.029657749803304496,2.3102781274586937,2.043307238394965,9.29835169158143,0.26645603855232103,2.4330571400472065,-0.31516522423288745,128.58005015735642,13.621292289535798,-12.367488690007868,0.4270969718434303,-0.14717648251455545,-0.0620238267018096,-0.8899386739110937
59.0,0.009773800157356415,-0.11418450039339101,0.03585169158143196,2.0457488198269074,2.094092643587726,9.345906766325726,0.004957956333595609,-0.6358514457120379,-0.15689417781274584,128.85835218332022,12.05088512981904,-12.614212480330448,0.4263192980578284,-0.1433878732321007,-0.048779458366640445,-0.8916441546738789
60.0,0.004863099921321794,-0.10408398898505113,0.03498839496459483,2.1204962627852084,2.0643987018095986,9.338220889063727,-0.1526430959874115,-0.33178230723839497,-0.12133654602675056,129.06268317269866,12.496078383162864,-12.450521243115656,0.4246435741282455,-0.14357119145495673,-0.05317794302242329,-0.8922305085106217
61.0,-0.005557041699449253,-0.09521597167584576,0.033403619197482304,2.166151062155783,2.0428717545239965,9.334130212431154,0.018506589299763954,-0.13564614476789932,-0.014046518489378435,129.17888473642802,12.766598642800945,-12.331621262785209,0.42370943720377663,-0.14351913710110148,-0.05593009596341464,-0.8925533250849724
62.0,-0.015402439024390247,-0.07607454760031471,0.03332887490165225,2.0727663257277733,2.026468135326515,9.35954976396538,-0.11055394374508261,0.19002016129032256,-0.027184549567269862,129.1839988198269,12.208781225413059,-12.206536437844218,0.4239332396813533,-0.1405803423640834,-0.0519026327149882,-0.8931612665802515
63.0,-0.01701809598741149,-0.06749645948072384,0.02935011801730921,2.095732494099134,1.9940031471282453,9.362221872541308,-0.04800354051927615,-0.1675354051927616,0.021488985051140833,129.24612509834776,12.343872934697089,-12.013896538158928,0.42351913587411494,-0.13953984189299762,-0.05373871263414633,-0.8934388025460265
64.0,-0.020438237608182537,-0.05838237608182535,0.029877261998426444,2.121059008654602,1.9839984264358772,9.360619197482302,0.04383851298190401,-0.04431549960660896,-0.022369197482297397,129.25424370574348,12.485321597167584,-11.958723446105427,0.4233252388402835,-0.139613521509048,-0.055159910188827696,-0.8934436539244685
65.0,-0.03681943351691583,-0.056571990558615275,0.03671439811172307,2.130719118804091,1.9812431156569625,9.359385916601108,0.055795141620771045,-0.04581038552321007,-0.035663355625491736,129.27152586546026,12.539902143981116,-11.94323859166011,0.42323392969551543,-0.13972950969630216,-0.05568737401022816,-0.8934441968426431
66.0,-0.04668981117230528,-0.058498426435877264,0.03965224232887492,2.1044468922108575,1.9840739575137685,9.36471262785209,0.05957538355625491,0.16892702596380801,-0.024121016915814315,129.29020825137687,12.38582931746656,-11.95520013768686,0.4231267447360346,-0.13926662590086547,-0.054410480056254915,-0.893650679776947
67.0,-0.05096184107002362,-0.052434697088906385,0.03968095987411489,2.1015137686860736,1.985666011014949,9.364199055861532,0.0005286191974823023,0.008657061369000768,-0.021914339103068448,129.4003712627852,12.37071203776554,-11.96000934303698,0.42225867556963004,-0.13919446561172305,-0.05436881366522423,-0.8940715221384739
68.0,-0.05823387096774195,-0.05994354838709678,0.042008064516129054,2.104774193548387,1.9874758064516127,9.362048387096781,-0.009929435483870963,-0.062449596774193546,-0.03996975806451613,130.1874495967742,12.383669354838709,-11.977772177419354,0.41609428162903217,-0.13892433400806448,-0.05544674781451614,-0.8969088646774193
69.0,-0.06151612903225809,-0.06385483870967743,0.04618548387096777,2.11716935483871,1.9889112903225803,9.358830645161298,0.0011088709677419374,-0.13951612903225807,-0.021370967741935483,130.87026209677418,12.469052419354838,-11.989969758064516,0.41070802779032256,-0.13902105537903225,-0.05683135967741936,-0.8992823933870966
70.0,-0.06270161290322582,-0.06831451612903226,0.046524193548387126,2.135258064516128,1.999935483870967,9.35275,0.14319556451612903,0.10599798387096773,-0.04778225806451613,131.2538810483871,12.571522177419354,-12.062096774193549,0.4076096067983872,-0.13970834027419352,-0.057903708161290326,-0.9005301192419353
71.0,-0.07565243902439026,-0.060234657749803314,0.04738001573564125,1.9985721872541302,1.9893351691581425,9.384180369787568,-0.08054804287962235,0.6921370967741935,-0.08825604838709677,131.53188926042486,11.75681918764752,-11.95749409913454,0.40579192085523214,-0.13607761194551532,-0.051984330239968526,-0.9022428200377655
72.0,-0.06169894490508179,-0.071977026972503,0.048462340374024096,1.9088168008230948,1.97898023966592,9.405503853214707,0.7953332728116363,1.80145264681555,0.37224591604631924,131.56888094121325,11.222867177570658,-11.870897070245515,0.4057623949422976,-0.13359426936595453,-0.04796351014976094,-0.9028419938389818
73.0,-0.052655924065444115,-0.05000061026044504,0.03913842825152819,1.75588420686316,2.09974011983296,9.403526120155737,0.054420668663882676,0.6086396298593879,-0.8500917597187758,131.77441022867117,10.326756169430489,-12.582373938348564,0.4040681336687294,-0.1360293616587837,-0.03853640039746112,-0.903533305766265
74.0,-0.048844287760495486,-0.04254662692408563,0.03500597651758157,1.6184142710161589,2.0997559765175815,9.430423268575112,-0.15636190209606812,-0.10691211366983394,-0.27784202954467513,132.27165387515385,9.50848343975065,-12.549251485303314,0.4004520139595613,-0.13292824394003308,-0.03262076589847485,-0.9059126464826603
75.0,-0.0485592406544413,-0.045785410236236376,0.035845730194274665,1.5448039097016282,2.0960392785813724,9.446776150416586,-0.08992490266093729,-0.012957064899433123,-0.1651558938045956,132.5622130262866,9.06437276826242,-12.498365662006496,0.3983923439071999,-0.1309652636393714,-0.029581319973430983,-0.9072744139026204
76.0,-0.04725444330125686,-0.05159530149892072,0.036244658960237264,1.5280667856926708,2.0968740846093326,9.45103087615243,0.0516937249087131,-0.07986562922391009,-0.059594075934555873,132.70478865319052,8.956650388851902,-12.499881100082712,0.39729378270812404,-0.1306290560116605,-0.028890136568934216,-0.9078604276114203
77.0,-0.05253127458693943,-0.05504661683713613,0.03926376868607398,1.514296420141621,2.1024817073170725,9.45092073170731,-0.06394325334382375,-0.06921838119590873,-0.09521784028324154,132.7791674862313,8.873641571597167,-12.543649193548386,0.3967981282490165,-0.13063769290243904,-0.028189812634343045,-0.908113108607199
78.0,-0.06310031471282457,-0.0631805664830842,0.04366011014948862,1.5145232100708106,2.101994885916601,9.45126278520849,-0.040590578284815104,-0.02944285995279308,-0.0313286782061369,132.80979543666405,8.887249213217938,-12.541935483870967,0.3965816198583792,-0.13060766059638085,-0.028314374280881204,-0.9082246427753735
79.0,-0.06810483870967743,-0.07100806451612904,0.04312903225806454,1.5210483870967746,2.1084112903225805,9.449661290322574,0.0765625,-0.10821572580645161,0.009576612903225808,132.8125,8.924899193548386,-12.56774193548387,0.3965117448709678,-0.13097229100000002,-0.028500808435483874,-0.9082001751209674
80.0,-0.07171774193548386,-0.07315322580645162,0.04535483870967745,1.5327096774193545,2.1146935483870966,9.444516129032255,-0.009879032258064517,-0.09102822580645162,-0.03225806451612903,132.8125,8.984274193548387,-12.599395161290321,0.3964346602096774,-0.13155118821774198,-0.02886790587096775,-0.908136034879032
81.0,-0.07600000000000001,-0.08094354838709678,0.049693548387096796,1.5451532258064515,2.1163467741935484,9.441387096774193,0.029284274193548385,-0.33175403225806455,-0.0038810483870967746,132.82862903225805,9.054788306451613,-12.614516129032257,0.39626464753225804,-0.13191808861290327,-0.02941702468548387,-0.9081357883225806
82.0,-0.06741089693154996,-0.07337922895357986,0.04745003933910309,1.5506014948859164,2.108616443745083,9.442924075531074,-0.0069703973249409905,0.06099896734854446,-0.02311909913453973,132.86541109362707,9.089583743115657,-12.574345987411487,0.39596368538237603,-0.1316614965261605,-0.029887826637686857,-0.9082831710731708
83.0,-0.0550205406316736,-0.06087548237233524,0.03819698587538872,1.4834743265520212,2.1112321850061813,9.453712421790119,0.10695066923307481,0.414650069311753,-0.11090190747817616,132.894255085984,8.695078689914203,-12.579175681877786,0.3958192736051666,-0.13037369515689745,-0.02670048346323667,-0.9086256728100106
84.0,-0.052796560638417436,-0.05305870892810311,0.04022349293769436,1.3954347439211723,2.1016443183095417,9.469432823798286,0.08772432655202128,0.4066193894945862,-0.10154470373908808,133.0259581881533,8.175639143344199,-12.503448728035668,0.3949007515122608,-0.12803100734054554,-0.022911201913069945,-0.9094528823082312
85.0,-0.04855150612566033,-0.04816645123824512,0.03663997227529879,1.3221246300251024,2.1020479656063835,9.480006734479792,0.09376135682439773,0.16974114636019633,-0.05765239219212468,133.0587452231089,7.74291029747855,-12.494869525308157,0.3947509976795175,-0.12652318265414375,-0.019443207758954327,-0.9098112357347607
86.0,-0.0510699112060245,-0.04394248997789518,0.03936109550035593,1.267523172604998,2.0938220748566927,9.489606534037694,-0.00935334007717957,-0.03752505526207334,-0.04811219137536997,133.0240249522311,7.426974916638567,-12.433262850773668,0.39508595062732754,-0.12499734587201677,-0.017036017822337116,-0.9099294311079391
87.0,-0.035161234123861976,-0.030102637593196216,0.029275354988572932,1.2398748829193362,2.100923625941328,9.491416170244655,0.33123009628713795,0.509930430669514,-0.035931587426473344,133.01127486793303,7.26039933872841,-12.466852707841593,0.395227058594545,-0.12474668030815628,-0.015528552034693343,-0.9099301814705705
88.0,-0.03778107789142407,-0.03516345397324942,0.029516325727773414,1.1625902832415425,2.1225654996066083,9.494997639653818,-0.04265588119590874,0.2058676730920535,0.008541502753737213,133.01903029110935,6.807297403619198,-12.58692097757671,0.39518079614673496,-0.12414738243902437,-0.011476211986624704,-0.9100903286239181
89.0,-0.032644571203776555,-0.04896479150275375,0.04104445318646736,1.15609756097561,2.1253351691581432,9.495047206923687,-0.05313237608182533,-0.6572224134539733,-0.0612534421715185,133.05553329071597,6.76740878245476,-12.608253835562548,0.39496207249272236,-0.12417149986467346,-0.011167700114280095,-0.9101924461022817
90.0,-0.0175279307631786,-0.04402675059008656,0.034949645948072386,1.1772423288749017,2.13726435877262,9.490475216365072,0.17272816679779698,0.3345692368214004,0.013980133752950433,133.0965922501967,6.8899291896144765,-12.684923288749015,0.39457689488749015,-0.12519388654523994,-0.011944402907946497,-0.9102066867608183
91.0,-0.01627380015735641,-0.04044531864673487,0.03188709677419356,1.1513363493312352,2.126074350904799,9.495409913453976,-0.12965676632572778,-0.11731904012588518,0.02048337922895358,133.15015489771832,6.739742328874901,-12.612952399685287,0.3942345958394965,-0.12411542003343823,-0.011006704270653027,-0.9105157409492528
92.0,-0.030258064516129033,-0.04548387096774195,0.036653225806451625,1.1390403225806451,2.124266129032258,9.498483870967743,0.15372983870967738,-0.05766129032258066,-0.04501008064516129,133.22515120967742,6.669758064516129,-12.599193548387095,0.3935966736129033,-0.12375119107258063,-0.01056134658064516,-0.9108507219758064
93.0,-0.020251536098310294,-0.050107142857142864,0.03259331797235023,1.140479646697389,2.128148233486943,9.498299155145933,-0.003523425499231972,-0.36100470430107534,0.07737855222734255,133.30958621351766,6.677637768817204,-12.622357430875576,0.39292212294777273,-0.12395966686213516,-0.010644597246927802,-0.9111146637899386
94.0,-0.041670122887864834,-0.04237211981566821,0.03493778801843318,1.1224535330261136,2.1309289554531485,9.49975038402458,0.10967981950844852,0.0688676075268817,-0.024541570660522274,133.2976358486943,6.571757392473118,-12.633381336405531,0.3930313527884025,-0.12371150402380954,-0.009716928345238095,-0.9111097345199692
95.0,-0.015742319508448545,-0.03642396313364056,0.029130184331797232,1.1493517665130568,2.166694316436252,9.487326804915515,0.6034034178187404,-0.08141801075268819,0.2105366743471582,133.18856086789555,6.726629704301075,-12.856962845622121,0.39378811849500767,-0.1260196245280338,-0.010119399297619047,-0.9104516586632103
96.0,-0.015539826158630251,-0.030833146004271103,0.02731125660334944,1.1293774961597545,2.1750410999962533,9.488246309617475,-0.1926740286988124,0.08239657094151584,-0.05799877533625568,133.18237174984077,6.6100023767374765,-12.900561109081712,0.39387800742816864,-0.1259560220705669,-0.008998471036988122,-0.9104388095297758
97.0,-0.014810235659960286,-0.027779476227942003,0.023966112172642464,1.140531490015361,2.153939904836837,9.491264283840998,-0.10349427241392231,-0.14000131130343563,0.07273952362219474,133.2155306329849,6.674885260949384,-12.773944869056987,0.3936034569681166,-0.12519385296270277,-0.00999082464349406,-0.9106572434221456
98.0,-0.01457946498819827,-0.03353029110936272,0.027135129819040125,1.1064516129032258,2.1584476789929194,9.494630605822188,-0.039357543273013385,0.06864181746656177,-0.021613149095200623,133.29595176042486,6.472489673485445,-12.801531766325729,0.39300409041109363,-0.12472466836998426,-0.008358318408536583,-0.91099482138926
99.0,-0.004701643164074316,-0.044645832072464656,0.052263904859892275,1.0876451612903226,2.115978802275616,9.506827709858982,-0.15629929996570438,0.4226325299078053,0.25508918124230867,133.04255494865743,6.366714232937925,-12.540920453055337,0.39514227475951696,-0.12231325161416913,-0.008087862808383263,-0.910391827674262
100.0,-0.002895176420746837,-0.04014952893945814,0.04097872662349452,1.0586451612903225,2.103396659202324,9.512974338800458,0.04322131775908328,0.1336448939861607,0.09715144545986404,132.96270892594163,6.194874253565736,-12.462874541043798,0.3958258761297585,-0.12111773581918134,-0.00688386273886905,-0.9102702242968084
101.0,-0.031663953277249905,-0.041565716476023334,0.04009203837075592,1.011938630999213,2.1341255522604863,9.511062307087087,-0.0012797817184127189,0.05066882779559807,-0.0824480774274244,132.93837649286854,5.920263641338336,-12.63891661749279,0.3959867383520547,-0.12161063982540501,-0.004049761810032479,-0.9101526103860123
102.0,-0.03875290504145737,-0.07349509269906596,0.05192987048356837,1.0930381589299762,2.1208186769957025,9.505242207831506,0.05836876374346869,-0.756589268242248,0.33645347898888417,132.72912136995905,6.3998747642175555,-12.57026168699187,0.3976043060989227,-0.12268802515680163,-0.007922611350138192,-0.9092629392668653
103.0,-0.011773341921650346,-0.031559566318811016,0.02596858347527113,1.1380978045033905,2.1374277716775745,9.35850589654248,-0.014128790171276401,-0.1849130577002331,0.6031201726741656,132.17261920072454,6.6615817273468725,-12.674307350792402,0.4019494848163584,-0.12445236011334705,-0.009066685701950815,-0.9070812028310133
104.0,-0.02607791952343487,-0.029115638230115023,0.026106908695815074,1.0796271870668015,2.09456330785658,9.442928430931769,-0.039094872803566744,0.7913329867745682,-0.17875460127009102,131.40456924852947,6.319393241167434,-12.407193670150987,0.4081803843261117,-0.12119769946820089,-0.006438993208759508,-0.9047338869942958
105.0,-0.03140609194110375,-0.026825521711438326,0.02189314750290361,1.072998388970065,2.097248510733955,9.477094526244798,0.7007441646997115,-1.372859765464014,-0.10359531302686298,130.48495513468959,6.286348862912591,-12.426784777640403,0.4154132219178749,-0.12128565730658275,-0.00514922187778652,-0.901405428780488
106.0,-0.015611254730058824,-0.028335019294893418,0.030843355438162686,1.155942452512083,2.1386145142557416,9.475383462590385,-0.07622653703495563,0.3485257202802442,-0.07749803304484656,129.90348572552546,6.7698123899441764,-12.684060170094789,0.41976746381289576,-0.12505605012438648,-0.0074201703019744466,-0.8988724004585817
107.0,-0.026743846240305715,-0.019880671387359043,0.029284028324154214,1.222639653815893,2.1435053014124614,9.473817204301072,-0.07067925517964857,-0.6114174721816343,-0.18889794312689667,129.67417270802892,7.16726026563261,-12.723268142819677,0.42145359626091194,-0.12680647995785094,-0.010251937914090892,-0.8978191378938596
108.0,-0.04167472181634259,-0.02581806601476154,0.034642388820201576,1.3594353902064364,2.1853302611367127,9.45201116481211,-0.06389325990034095,-1.368525439286651,-0.21026750590086546,129.63310666516804,7.972680397886927,-13.007593851860177,0.4214431506788805,-0.13185615908133824,-0.015675196710127008,-0.8969828209748605
109.0,-0.042788580420366415,-0.022787081787868573,0.02977595444157207,1.2260615188640367,2.1562064366265785,9.475568918361994,-0.00662208234985576,1.3030553370049827,-0.15328481510621556,129.57293610205687,7.182529223333708,-12.808719231201529,0.42218980748499496,-0.127469001844367,-0.009939066226818028,-0.8973261190004121
110.0,-0.04107800382151286,-0.021572927203926416,0.03356460979356338,1.0621700198568804,2.163978119965532,9.494567307332057,0.17485083923419875,0.9076793207448203,-0.1777881589299764,129.63373890075306,6.219539591997302,-12.827018938968191,0.4219300022838035,-0.12420579456419766,-0.002226255410812633,-0.8979807773735341
111.0,-0.05135397699599116,-0.026915589524558838,0.024701172679929564,1.0361796111048664,2.1746403282005167,9.496305983290245,0.25972425162039636,-0.2889546101682215,-0.0918919298639991,129.74337791765015,6.063601963208572,-12.892487636281892,0.4210782491652992,-0.12414343605312653,-0.0008933713710614064,-0.8984166307731445
112.0,-0.051498426435877265,-0.0303477576711251,0.03643351691581432,1.0585483870967742,2.1679051927616055,9.496824547600314,-0.10285208497246265,-0.2355994295830055,-0.2461890243902439,129.974282061369,6.194165519276161,-12.849495967741934,0.41926861148741146,-0.12430084950786785,-0.0023446508438237615,-0.8992694944457118
113.0,-0.059323564122738,-0.04190794649881983,0.039913847364280094,1.0980751376868607,2.195809402045634,9.486482297403622,0.20676632572777343,-0.10977945515342252,-0.22554337136113295,130.25073760818253,6.4274132081038555,-13.025136457513769,0.4169987086650274,-0.12649254300963808,-0.003860974273210071,-0.900027883923092
114.0,-0.04179642014162077,-0.03863296616837136,0.03566699449252557,1.0872317073170732,2.224043666404406,9.48178560188828,0.42127384933123524,-0.36019743312352476,0.029241247049567265,130.27660798583793,6.358644767899292,-13.1921875,0.41677659706726977,-0.12758076010857594,-0.0027694749685287174,-0.8999947925255702
115.0,-0.043490952006294256,-0.0520180959874115,0.046918174665617624,1.264914240755311,2.3009008654602665,9.438675059008656,0.19549075531077892,-1.3839545633359558,-0.2830104248623131,130.38679189614476,7.411782061369001,-13.693145161290323,0.41540938400944133,-0.13514941131235247,-0.009616484919748232,-0.8994044201014948
116.0,-0.052910700236034613,-0.04574783634933124,0.03299803304484658,1.3757946498819826,2.312367820613689,9.421638867033831,0.08874655782848152,-0.5875172108575923,-0.44299518095987406,130.87017112509835,8.063985051140833,-13.777906176239181,0.41139423077340675,-0.13803677265932335,-0.015138291390637295,-0.9007495223033044
117.0,-0.05930664830841857,-0.04762922895357986,0.04773190401258852,1.3676502753737214,2.3303656569630204,9.418680959874118,0.6799014063729347,-0.7377003835562549,0.22279823957513767,131.06920731707316,8.017269866247048,-13.892100216365066,0.4098335557738001,-0.1387312195255704,-0.01457073727989772,-0.9013910234742326
118.0,-0.05720958375482372,-0.03869345472256566,0.027100783035480126,1.3400782098834811,2.3103911618148434,9.427432261811099,-0.49681364973211933,0.13346715653216445,0.08474661402720017,130.8698571147578,7.847939848638117,-13.75844210127009,0.4114811182513394,-0.1371275524332921,-0.01345903811479525,-0.9008858905084297
119.0,-0.06609495710164476,-0.03489747480424113,0.02550947885054887,1.2896496478213628,2.2784607264621033,9.442673644674239,-0.06953684060170093,0.49130084813232927,0.17174978222996518,130.7718925620996,7.551035227230152,-13.551624669832528,0.4124043012971882,-0.13453572114583567,-0.011676968545989286,-0.9008928914147185
120.0,-0.05926108988048405,-0.03882403244539358,0.025171143831253975,1.2622065115582033,2.2709607920272754,9.448540107152223,0.08352610664643513,-0.0788449290022854,-0.16751011576936042,130.89289086208834,7.391965046738601,-13.502714749353714,0.4115280040906672,-0.13360522050073056,-0.010706394964182686,-0.901466354692902
121.0,-0.06500731519988011,-0.04282301150200442,0.0017047693979243932,1.3879750103030986,2.338037634408602,9.411560572852274,0.29995357751676593,-1.6580433830691992,-0.18290557912779587,131.14685603293248,8.139799522779214,-13.946790350680004,0.4091424082264902,-0.13955204199662807,-0.01552215755447529,-0.9015012109964314
122.0,-0.07412629725375595,-0.03446854745045146,0.02515529579258927,1.462755797834476,2.3277747180697608,9.404604735678697,-0.07736573189464616,0.062227202053126485,-0.19640398448915364,131.47011984376758,8.574725562923831,-13.894434219399797,0.40653017542392567,-0.14060170740586714,-0.019595503459967783,-0.9024732644672362
123.0,-0.08501180173092054,-0.007301337529504338,0.006160503540519282,1.5242643587726201,2.3692132179386305,9.384075531077894,0.6559795436664043,-1.39683320220299,-0.5559598741148701,131.7912077104642,8.949203383162864,-14.166699449252556,0.4037803575924469,-0.143933672061369,-0.022078207120377655,-0.9031246249724627
124.0,-0.06307294593683263,-0.026372934697088908,0.021615525832677684,1.6195230602075608,2.430214679105316,9.352506837510775,-0.031213704994192848,0.11113296616837132,-0.06556985500730583,132.012429283279,9.507085721778877,-14.55705574912892,0.40171084930163725,-0.14881750431493762,-0.025547799125547936,-0.9031780093424748
125.0,-0.0811745532201866,-0.02683713611329662,0.023482821924993444,1.6237387134240011,2.4224165449027764,9.355136188228247,-0.10584092016035368,0.036191974822973996,-0.11269248061144206,132.11287278483383,9.53009675546064,-14.509645105091604,0.4009487162204488,-0.14850821714173318,-0.026018312159154774,-0.9035856941519611
126.0,-0.0772998388970065,-0.022328067945691865,0.025305937178478486,1.6007092566494616,2.420697469328469,9.359830798627028,-0.0088757950677699,0.2869598438540216,-0.03641064547830873,132.2340555949427,9.393541614430678,-14.492802060907882,0.4000398236822553,-0.14791055536029143,-0.025102777315632176,-0.9041261321193544
127.0,-0.10415503353190214,-0.01382807803264137,0.026959026811111786,1.6703593490170987,2.444698852681544,9.341233259266307,0.18511757060144154,-0.329095805846396,0.24593708481395343,132.18273885175932,9.805228714375055,-14.657755279077072,0.40025522120226065,-0.15059393491539352,-0.02784297615034166,-0.9035006487134932
128.0,-0.07648349630961747,-0.015895156246847827,0.028656539369363923,1.5671938365856537,2.4169521013997795,9.365754316493895,-0.34218747748448775,0.5695935211523331,0.024006111250407067,132.0973686390976,9.192887763953854,-14.462261785879999,0.4012038988466063,-0.14702124693842056,-0.023418625860379325,-0.9037790209224432
129.0,-0.06736847626540782,-0.02373790070406908,0.016833646028767982,1.4576007585386028,2.345837801851964,9.400599124452786,-0.22295625794347276,0.2994136960600375,-0.05444279690935867,131.9940952258468,8.546021454941595,-14.009399902156588,0.40238694641562267,-0.1412905111650628,-0.019567589676733443,-0.9042398241248161
130.0,-0.057784159454497774,-0.02445274264157034,0.022588341503762436,0.5165446750993563,-0.39033916359014675,10.387771631463215,-0.15070904950674818,0.11437541608666707,0.04811298392140248,131.91115559876133,8.162015448163167,-13.800967653674675,0.4032067736885352,-0.1384065917406746,-0.017049821629869472,-0.9043884750561137
131.0,-0.04973918174665617,-0.019981117230527153,0.021706726986624708,0.9715527143981115,0.9393241542092841,9.906915027537371,0.05283610346184106,-0.2714299763965382,0.0022964201416207676,131.92358010424863,8.259979838709675,-13.664691925649095,0.4031213381483084,-0.13767707896007086,-0.018356454086939415,-0.9045226854262394
132.0,-0.04569197482297403,-0.02071990558615264,0.027250196695515344,1.1947482297403618,1.610596774193548,9.665870967741936,-0.268051730920535,-0.1768784421715185,0.11414732494099133,131.8851052321007,8.286833693941777,-13.63152783241542,0.4034416955157357,-0.13750762143627068,-0.018640924407553106,-0.9044147753127458
133.0,-0.03313237608182533,-0.01886270653029111,0.025156963021243123,1.1761553894571204,1.9417216758457907,9.563556254917389,0.05793912273800156,1.3270948072383948,-0.13293420535011802,131.77862165617626,7.527253392997639,-13.566226150668765,0.4045043582385917,-0.1343961125426829,-0.01256334472698662,-0.9044677775320615
134.0,-0.053183123524783646,-0.025173288749016517,0.022288158929976397,1.1095131785995278,2.139098741148702,9.510294256490951,0.32932238394964597,-0.08851912863886702,-0.31782798977183324,131.86350437647522,6.81823859166011,-13.71942859952793,0.40387935697010235,-0.13322278746085758,-0.006469896718332021,-0.9049420529232888
135.0,-0.04720849724626279,-0.02482454760031471,0.018688434303697876,1.2147686860739575,2.3398961447678994,9.435792289535799,0.281294256490952,-0.9011900078678206,-0.4063434303697876,132.25289634146344,7.115873328088119,-13.921508654602675,0.4006620995979544,-0.13578800013768685,-0.008645468246262784,-0.905970482082612
136.0,-0.052851298190401255,-0.03925727773406766,0.029909126671911878,1.2812033831628642,2.338437450826121,9.427829268292683,0.2244935090479937,-0.7623131392604249,-0.04605625491738791,132.49663896538158,7.50897423288749,-13.924336152635721,0.39865055162588514,-0.13711079691384734,-0.012092297972856018,-0.9066423754464987
137.0,-0.06132258064516129,-0.022387096774193548,0.026685483870967745,1.3233790322580647,2.378903225806452,9.413048387096769,0.014012096774193558,0.22056451612903227,-0.16068548387096776,132.6030745967742,7.758165322580645,-14.177721774193548,0.3976446337499999,-0.13992349028225803,-0.01337280247580645,-0.9066625289435486
138.0,-0.04164417781274587,-0.025396144767899295,0.020017309205350123,1.3859628245476006,2.3893035011801738,9.400788945712035,0.08953088119590874,-0.4712123819826907,0.3836128048780487,132.61035110149487,8.130134982297403,-14.24994467938631,0.3974714121288355,-0.14175332090027537,-0.01614740888414634,-0.9064236951127066
139.0,-0.0326748154808737,-0.012067120002997268,0.01486349331235248,1.4312703907684239,2.369651942602376,9.399241439061853,-0.7210875739949796,1.2940009038627251,0.37790711288449286,132.32676973277512,8.395704251901389,-14.13945366649807,0.39970377752467123,-0.14179421112314078,-0.018295605701865794,-0.9053883677631506
140.0,0.0009487842343861262,-0.025024708703308234,0.017630212431156575,1.3108958169420404,2.3845706605222734,9.412479787194187,0.64293342090967,-0.32933216018508116,-0.15192960642164022,132.21086531977073,7.683891047075793,-14.205674782698289,0.4007552989846015,-0.1399589717209921,-0.012172899869028884,-0.9052958715382432
141.0,0.006193510921284334,-0.014938593533400775,0.00413355625491739,1.5128514293207447,2.4537585796710504,9.361605747255629,-0.051854616256416075,-0.3835642164025327,0.039523739275411196,132.3094686059908,8.87317892735379,-14.679335965306658,0.3994639623455659,-0.14757030776549213,-0.020372235405895243,-0.9044417098878272
142.0,-0.009308006444119742,-0.015606009516316365,0.016921808849424902,1.5187625042149038,2.4197516016634815,9.371110861339032,-0.0748028361620022,-1.4040804952980406,-0.10969521561575063,132.36722350230417,8.90940532389195,-14.469828312914466,0.3991052120441347,-0.14607170664868308,-0.021463677511895395,-0.904851814808737
143.0,-0.022553295118204638,-0.0170437600689371,0.01730433479450002,1.659778577048443,2.397605934584692,9.353226555767861,0.08494319246187852,-0.5318494529991383,0.06852965419055113,132.5549237102394,9.740132441646995,-14.368593346071709,0.39743026328013187,-0.14799737357611178,-0.028800694023453595,-0.9050856524830464
144.0,-0.03654700086171369,-0.01291281705443783,0.023587651268217755,1.6820290734704584,2.3993590348806713,9.35029837773032,0.07982278670712974,-0.26137883556254915,-0.14065836798920983,132.56874929751604,9.874367296092315,-14.3887513581357,0.3972916337921397,-0.14858396167592067,-0.029824394467947997,-0.905056045174703
145.0,-0.04434745794462554,-0.01428489003784047,0.01927218912742123,1.6548815705668578,2.3944159454497775,9.357363980367914,0.03440391892398187,0.5946007081038551,0.07667612678430932,132.70822889738113,9.710418305795962,-14.348216159004908,0.396243365444457,-0.1477319442604623,-0.028794429405492487,-0.905705918012214
146.0,-0.044856655801581054,-0.013082649582256193,0.020336330598329025,1.5885108088868907,2.3861300813008137,9.370625341875538,0.017767459068599903,0.27455743509047986,-0.02443239294144093,132.65973010565358,9.317910765801205,-14.274152335993406,0.39674684045629616,-0.14588760059994005,-0.025769970635082982,-0.905876922471882
147.0,-0.0574897718332022,-0.012735641227380013,0.02659520062942565,1.5816140833988985,2.3996026750590085,9.369357985837926,-0.13948416601101493,-0.3447777340676633,-0.06852380015735642,132.60997738001572,9.281267210857592,-14.354578088119592,0.3971163961306059,-0.14639029163099923,-0.02511960911093627,-0.9056581676353266
148.0,-0.06430350118017308,-0.01974232887490165,0.03094984264358773,1.5662020062942568,2.408186860739576,9.369693941778129,0.06586472265932337,0.4429779701022817,-0.012758162863886705,132.5995402242329,9.192172747836349,-14.401994000786782,0.39722549013768693,-0.14645534640952002,-0.024191261298190398,-0.9056253106980723
149.0,-0.04544846577498032,-0.029498033044846578,0.03287883556254917,1.552083398898505,2.396926042486231,9.37459166011015,-0.05010818253343823,-0.09719708890637291,0.017009244689221086,132.68561172305272,9.10650078678206,-14.333069433516915,0.39656204009205354,-0.14561594251062152,-0.02389863942800944,-0.9060552921156568
150.0,-0.046095594020456335,-0.02808103855232101,0.037470102281667965,1.5087167584579073,2.3961105428796223,9.381670338316285,-0.10926435877261999,-0.35273898505114076,0.010545338316286387,132.67726199842645,8.84824449252557,-14.314228461841068,0.3967312842081039,-0.14465902789968527,-0.021840424930369785,-0.9061868376864672
151.0,-0.0511713217938631,-0.027195515342250197,0.03766502753737214,1.4815023603461843,2.3977130212431153,9.385465381589297,0.14476789929189615,0.29584726593233673,0.05196326711250983,132.69000295043273,8.68403078284815,-14.322584333202203,0.396689537973446,-0.14416124162883553,-0.020492959628835565,-0.9063150615930371
152.0,-0.03815420928402832,-0.03249291896144768,0.031078481510621557,1.4426060188827696,2.3840782848151063,9.39491817466562,0.06336177222659324,0.23270185877261998,0.012549173878835558,132.67715873328086,8.454364181746655,-14.23097462627852,0.3968907293294649,-0.14268463773780488,-0.018927844721675843,-0.9065020117682927
153.0,-0.027109362706530287,-0.020722265932336746,0.025043273013375292,1.4126860739575133,2.3920472069236824,9.397313926042484,0.0023210070810385543,0.15664830841856806,0.009500393391030683,132.7064221085759,8.277232494099135,-14.271233280881194,0.3966675186687647,-0.14243939095357985,-0.01737146946970889,-0.9066702549567269
154.0,-0.02117073170731707,-0.02170259638080252,0.029083398898505117,1.3261148701809597,2.3941077891424074,9.409199842643591,0.12097265932336743,0.22277242328874902,-0.22791601101494885,132.69885424862312,7.765263571990558,-14.264255507474429,0.3968712781306058,-0.1406732850755311,-0.013236575678992918,-0.9069142420731706
155.0,-0.010217151848937841,4.206347757671125,0.031812352478363504,1.2808961447678993,2.4117132179386314,9.412147521636513,0.059060287175452406,0.11134195515342252,-0.012541797797010229,132.78210808418567,7.5041256884343035,-14.35639014555468,0.3962402946231314,-0.14053898134972465,-0.010872779452399685,-0.907244132919355
156.0,-0.014659323367427224,2.093526357199056,0.027175255704169947,1.2662450826121163,2.4258762785208496,9.410250786782068,0.02250319630212431,0.18771759441384736,-0.08831751573564123,132.90234928206138,7.420876770259637,-14.44629597757671,0.39527334911014944,-0.14092325000924472,-0.010047093940204564,-0.9076246663463808
157.0,-0.01370003933910307,1.033890243902439,0.02401455546813533,1.278217348544453,2.422835169158143,9.409604838709676,0.10294674468922109,-0.2473864083398898,-0.1137035306845004,132.95506982690796,7.488366689614477,-14.43239821007081,0.3948446453074351,-0.14102773933497248,-0.010723801540322583,-0.9077898910995278
158.0,-0.025194728560188836,0.49796380802517703,0.024658929976396547,1.3040503540519273,2.4336911880409127,9.40318607395751,0.12857248229740362,-0.3324818056648309,-0.10497147915027537,133.05189319433515,7.638972757671125,-14.503004523996854,0.3940166379362707,-0.14207197268568061,-0.011851216716365066,-0.9079722806176238
159.0,-0.023549370574350907,0.20945003933910306,0.036719708890637304,1.3513131392604247,2.4694065696302125,9.386797600314711,0.2494504819040126,-0.4709960169158143,0.004334677419354845,133.22050304878047,7.920317417387883,-14.732004819040126,0.39252699860621565,-0.1447930589313533,-0.013590034597364282,-0.9081594713394963
160.0,-0.0157625885129819,-0.04524272226593234,0.009670338316286392,1.4085114083398897,2.548441188040912,9.356523800157355,0.4450125393391031,0.12123082218725412,-0.030846774193548386,133.35445515342252,8.252321007081038,-15.228199990165223,0.3911445205611723,-0.14979489116325734,-0.014840140641424079,-0.9079132843794255
161.0,0.05515499606608969,-0.06733910306845003,0.031173878835562552,1.3444815106215577,2.611531077891424,9.348588512981904,0.1830153422501967,0.6019964594807239,-0.13629032258064516,133.45847757671123,7.8749508261211645,-15.599105035405191,0.3902295922281668,-0.15152255583162866,-0.010668494558615266,-0.9080732174760031
162.0,0.003918961447678993,-0.037377655389457115,0.03021636506687648,1.2588552321007083,2.574631785995279,9.370926829268292,-0.41053796223446104,0.8494984264358774,0.07113985051140834,133.40025570416995,7.3692859952793075,-15.352616050354051,0.39091135593154996,-0.14789652480959875,-0.00726497517151849,-0.9084090218324157
163.0,-0.015277040950133004,-0.029273669027012852,0.02822065490240156,1.1568885579408787,2.5095996215952936,9.40099842643588,-0.3121085993406017,0.4127823985613129,0.010956057285227225,133.41452947622795,6.770045146303998,-14.935235425798957,0.39115420255739775,-0.14263837577503652,-0.003788375469502829,-0.9091633422044699
164.0,-0.021765192386946908,-0.03365729084710202,0.018240933273388035,1.0629013993480947,2.4546699917575205,9.426254523996857,-0.5097128362556667,1.2991823086433631,0.06608483430744445,133.34925431325166,6.215421865048143,-14.58229119834401,0.3918856847248043,-0.13801810351300997,-0.00036979749084897567,-0.9095559013186001
165.0,-0.035144692967667,-0.04051816155258327,0.017374498894758533,0.944954731932112,2.3669922539432764,9.331691778127462,-0.582603393934285,0.9570004285152298,0.1622006832827545,133.30980860823874,5.524747222846652,-14.219623421752651,0.3924617957696602,-0.1328391505831179,0.004072525194091641,-0.910074276550429
166.0,-0.023308577797759546,-0.0411334906897456,0.028749503577985086,0.7995309654939868,2.3103264770896557,9.42379523996853,-0.2452202404368514,0.049951704226143756,-0.05823814675358738,133.1295865179274,4.673764740455584,-13.767984409538796,0.39424349203844933,-0.126344675073817,0.009666953902120565,-0.9101733128198644
167.0,-0.025465806682171743,-0.0446560753696867,0.03177301481628784,0.8179031998685815,2.3152848266341577,9.452891726684015,0.19654633656403914,-1.2904275029324204,-0.2219889555107887,133.15208906127967,4.779995867953185,-13.758148273834742,0.39403103865332306,-0.1266312596288233,0.008692821587743491,-0.9102259293764334
168.0,-0.020176067703605072,-0.04726889789989712,0.03714149972765237,0.9542488349573321,2.336537190582824,9.451123282696845,0.10395673203009945,-0.7752828758901733,-0.19646874810869697,133.44588900068592,5.578357188968912,-13.88360082662551,0.3915302118235894,-0.13029269409321348,0.0022842528591559236,-0.9108251003418265
169.0,-0.028560365349311063,-0.049866267223466286,0.03575396921463011,1.0332594010369385,2.34969367951744,9.447798220662104,0.08186978000363129,-0.13365646245637391,0.05118802199963689,133.63933125416088,6.046484698097601,-13.959248944652908,0.3898571767467923,-0.1324594252384202,-0.0014172290158617278,-0.9112557472732354
170.0,-0.04221989549920314,-0.059171135185297256,0.03550267304161876,1.0515798382053299,2.372718594282717,9.448635538340493,-0.013651803546571452,0.3984334967419153,-0.03348778974762451,133.81481155056588,6.152687667695535,-14.086439357259579,0.38842117574780605,-0.13383968430577578,-0.0020599363652282674,-0.9116846824096312
171.0,-0.04642072666384231,-0.05469571708124028,0.028805624483043843,1.045152625632956,2.367488329399423,9.450356321491256,0.6825672925618834,0.3647114375920434,0.5510668840404285,133.6187796934576,6.116691001432346,-14.05529186588392,0.39000094850332867,-0.13347318202700276,-0.001614700401339547,-0.9110602319640604
172.0,-0.060303829006031984,-0.05020393794508665,0.04145740281224153,1.0544646502854607,2.360019598942888,9.45190024511287,-0.4117508863906877,-0.5593212869938873,-0.17099261257035642,133.56697876318867,6.172075856382012,-14.004419092578022,0.3903924866677107,-0.13327489718389013,-0.0021780923090237853,-0.9109275873666454
173.0,-0.04953999475478625,-0.04319441586475419,0.03817874074522384,1.0552418648752244,2.324502128346344,9.461292864491924,-0.11389754685388045,-0.12766295466924893,-0.03165889971554801,133.58328592467063,6.17366700962295,-13.788588381851559,0.3903450115029151,-0.13159435243075307,-0.0029497100892089813,-0.9111922478073393
174.0,-0.05829346970889064,-0.03838158929976397,0.03377970102281668,1.024239181746656,2.322420928402832,9.465174665617626,0.23592643587726198,-0.04764948859166013,-0.1220544846577498,133.6270308811959,5.988444138473643,-13.77324449252557,0.39006960795515333,-0.13089144396931549,-0.0015482565413060582,-0.9114249595822188
175.0,-0.04801376868607396,-0.03483988985051142,0.03319984264358773,1.0507584579071598,2.326839889850511,9.461226199842645,-0.21597659323367427,-0.40610247836349334,-0.09864525963808024,133.7864943941778,6.141768292682927,-13.809370082612116,0.38877258824586924,-0.13163674042682927,-0.0028679556388670337,-0.9118662603261212
176.0,-0.03921223446105429,-0.03287155782848152,0.03120180959874115,1.0784870180959873,2.326528520849724,9.458259834775763,-0.04489821007081039,-0.0416920731707317,-0.16208816876475218,133.9100449940991,6.3093725413060575,-13.812675796616837,0.3877273300552714,-0.13218980947541303,-0.00437321682808812,-0.9122291395438631
177.0,-0.03612858266831516,-0.03486838260087671,0.03046764827095276,1.061549960660897,2.3078827320070436,9.464998388970066,-0.05374470795399198,-0.02712243827507399,-0.028503521786369945,134.04980096287136,6.213106009516316,-13.694419935558802,0.3866871952156158,-0.13094037749788312,-0.00410585265482747,-0.9128522843900191
178.0,-0.0501807350792402,-0.032705631111610664,0.030151212019032633,1.0221754523996853,2.3156644187179194,9.467499194485036,0.14649015585777977,0.24696199093327337,-0.14724251620396386,134.16740638230112,5.983249503577985,-13.73585571915627,0.38578300268255217,-0.13050197100700606,-0.002220953325840171,-0.9132996895592895
179.0,-0.045572664943239305,-0.04225368101607284,0.03098669963658161,0.9917840283241542,2.331094994567457,9.467357779775957,0.054396730171218766,0.3162426005020419,-0.09303018807837848,134.2970047253756,5.800097411112359,-13.82572191937357,0.3847718239124799,-0.13063098959398295,-0.0005985402372709903,-0.9137096583650106
180.0,-0.05094290210183208,-0.04202298527593572,0.03212749615975422,0.9314270259638081,2.359399582256191,9.466052611367132,-0.1558513988797722,-0.4803965990408751,0.04826264002847401,134.3671048410513,5.450166722865385,-13.985333422314639,0.3841841223394028,-0.1307736396774006,0.00271437332589637,-0.9139247461242834
181.0,-0.05707215915477128,-0.04630987973474206,0.0314575325015923,0.9785169158143198,2.339582855644224,9.46675358735154,-0.046740240155857773,-0.3720617436589112,-0.17903178974186057,134.39733032670188,5.724704722565659,-13.87358847551609,0.383950456930913,-0.13074695121183172,5.560745071372421e-05,-0.9140376393311227
182.0,-0.05766050354051927,-0.04745908733280882,0.02788237608182533,0.9762745869394178,2.32728835562549,9.470164044059796,0.02510818253343823,0.011703383162863873,-0.10200629425649096,134.53385621557828,5.708819335169158,-13.797474921321793,0.3828920956782061,-0.13012104599685287,-0.00022522942210857565,-0.9145704434051927
183.0,-0.06561388670338317,-0.0445241935483871,0.02248957513768686,0.9748288749016524,2.33483064516129,9.46801750590087,0.16833693941778127,0.334662667191188,-0.06544551534225021,134.67154553501183,5.698494049960661,-13.845167437057434,0.3817963798878836,-0.1304479277041699,-0.00015273643410700219,-0.9149866188827693
184.0,-0.07207211232250571,-0.047364823348694324,0.032360955003559254,0.9682343299239445,2.3294577572964665,9.469544659248442,-0.0891082199992507,-0.4032331825334382,-0.116502519575887,134.81083757165337,5.663308324903525,-13.809580886347458,0.38070352869547786,-0.13006518477451195,-0.00011771947723015249,-0.9154969417958395
185.0,-0.08032962421790116,-0.04076286014012215,0.03377164587314076,0.9814352216102806,2.3344904836836387,9.467217451575443,0.08816618897755797,-0.15376671911880407,-0.021835543816267663,134.8226898814207,5.7385630924281585,-13.840442120002997,0.38057938139455255,-0.13057275967266121,-0.0006457663197519764,-0.9154762863004572
186.0,-0.07833453512131718,-0.04246993296501558,0.03306508820316846,1.0034992888700598,2.338626548706997,9.463759323943828,-0.038859999985590074,-0.1366138614860094,-0.0309441492810887,134.90010807896206,5.872368783196871,-13.866960075313486,0.3799358625002176,-0.1312180931628048,-0.0017122656891785763,-0.91565408029774
187.0,-0.07474653585334151,-0.04424903021185477,0.03741196975067943,1.0054057223264539,2.331294293236268,9.465438473931002,0.09791239772553699,-0.11615557354394884,0.03523479986771686,134.95483681387128,5.885847550528412,-13.825531694816458,0.3795347230329569,-0.13093227534045038,-0.002009582822854434,-0.9158634937943262
188.0,-0.07010886700501176,-0.04185857808595811,0.04177242112725983,1.0687483680756693,2.3498739131311908,9.453651648639848,-0.1012454140404573,-0.6914999257888714,-0.192248431479352,134.9492802060908,6.259741651608293,-13.94834932475078,0.3794466202749269,-0.13311243911914994,-0.004689050426404175,-0.915555789178461
189.0,-0.03823031675903431,-0.03511131669274865,0.027706487061325773,1.1596007585386028,2.3379323482706647,9.445097713720848,-0.10894643973912266,-1.2413192793306878,0.3581288564569446,134.9204206329993,6.794089335788785,-13.891729385877692,0.37956416319813935,-0.13433475195588832,-0.00921191826619748,-0.9152842999271722
190.0,-0.03344482006323077,-0.023323557638270473,0.025286760446477215,1.411558837176461,2.2608859223650732,9.426405662525253,-0.2592381687287273,-1.182004053512708,0.2721899199672606,135.0348611819599,8.281033652945533,-13.46958125470124,0.37844859309710266,-0.13565397882058777,-0.022878204116576317,-0.9152241713286531
191.0,-0.021642651080888694,-0.01868824697463565,0.030801243864973224,1.4435225356861863,2.2304866809036756,9.431028661346524,0.27309345846914695,-0.06289807425724026,0.19298967816867107,134.87829183994603,8.463762129556779,-13.292641714435577,0.3797519843554755,-0.1348618808187779,-0.02476467838642239,-0.9148091830594585
192.0,-0.019499531677344428,-0.012251283204076282,0.023673635307781656,1.5294481285826684,2.238929414409351,9.415561537596941,-0.10241373496684275,-0.9994614289460866,0.30341852122438273,134.81249859503203,8.973177288224495,-13.364234901277584,0.3801530673468959,-0.13703596540938895,-0.028627151199505454,-0.9142295170883444
193.0,-0.01952856768199019,-0.011681709190363794,0.02439749353714736,1.6846088569180622,2.2074708515979173,9.395609493836872,-0.17973509328987297,-0.8552654686973137,0.3026405202128058,134.64029787662508,9.894585955940205,-13.207674286276273,0.38131644631784123,-0.1387337032423289,-0.036445907069798805,-0.9132030395702857
194.0,-0.028550766175864533,-0.041009825409314,0.03310120452587015,1.6269511258476639,2.0602600033719236,9.437382319883106,-0.37282165570791653,1.037925061350268,0.947499215559552,133.74046383846616,9.548843477202052,-12.303913948053651,0.3888871207933292,-0.13069670636770825,-0.03566070219849387,-0.9110878098734686
195.0,-0.03316975759619349,-0.0720461204151212,0.025239331609905963,1.4369285526956652,1.957345284927504,9.48827829605485,-0.09673672773594097,1.1029607358285567,0.0829174628151812,133.4128355531827,8.422968650481437,-11.652346062343113,0.3919803411646623,-0.12194635626784307,-0.028336813210183207,-0.911209591339665
196.0,-0.04090899554156832,-0.06403918923981866,0.03500369038252596,1.3372154284215654,1.872535161664981,9.52122900977858,-1.614098970626803,1.1664909285901615,0.7993840386272526,133.08578605616123,7.831420001123973,-11.118271725487993,0.3949647988258027,-0.11580533872224717,-0.02494167408819452,-0.9108619478196021
197.0,-0.03840099659061107,-0.08062305646097935,0.04076305683563749,1.3334660934397364,1.7887302086845756,9.539760846352706,-0.6218852445580907,-0.09928797394252742,0.04935271954966097,132.87454625388708,7.812567789704394,-10.61605462749616,0.39680816481416026,-0.11184360532493162,-0.02623476946738601,-0.9105829318838372
198.0,-0.0358203139635083,-0.05818249597242517,0.03876804915514594,1.312318684200667,1.7137337679367577,9.557858341763142,-0.20386576936045855,-0.2614275411187291,0.07469676108051404,132.81965479937057,7.6871042673560375,-10.157690092165899,0.39745798689037504,-0.10784440930321082,-0.026682062527855828,-0.9108289870820878
199.0,-0.030221984938743396,-0.046558221872541314,0.03923963133640554,1.322497283728598,1.6718676520175344,9.564254055674194,-0.18899605672324002,-0.16594322524446445,-0.005715175527331317,132.83152478831815,7.74850605072871,-9.905035522273426,0.3974573199375071,-0.10604055137126747,-0.02802770756269904,-0.9110292223060208
200.0,-0.03502129931437563,-0.04114614476789931,0.035981735416432514,1.3573249597242514,1.6530809542542433,9.562786351204526,-0.07936230845603387,-0.20873872513206698,0.031037966917687607,132.8286754547413,7.948117108763253,-9.800654071128843,0.39742304554467806,-0.10589455650231352,-0.030007763492600502,-0.9110073623371172
201.0,-0.04353407515641977,-0.0362798696189727,0.036197856955528095,1.4413855981416956,1.6621351391854935,9.54901183919673,0.24080799707766665,-1.0903080626428383,-0.18103199580382898,132.88728199580382,8.452625182645836,-9.861966580495297,0.39678036360260016,-0.10805737366647934,-0.03391389262264434,-0.9108830739319995
202.0,-0.047380727586077705,-0.0331084635270316,0.0401484957476303,1.7623371735791091,1.64408094488779,9.49179545539695,-0.546049581319546,-1.376536800794275,-0.4078596249672174,133.32960677288224,10.361024432392941,-9.819678215503352,0.39268955143544637,-0.11373497190405008,-0.049946855996609335,-0.9110334188582105
203.0,-0.037870087295343,-0.024505844666741605,0.03729314188303175,1.808981182795699,1.5832063710614066,9.496578987299086,-0.10930551262597882,0.1421031433816643,-0.42821456670787905,133.88224770287738,10.63036340667266,-9.456531696077327,0.3883486309527463,-0.11154076311408341,-0.053837281474495145,-0.9130216052455414
204.0,-0.04093937094900903,-0.041003512419916836,0.035755245213742466,1.7171224757408865,1.6210566670413245,9.50865229852759,0.2504705471881908,0.03377039545165035,0.033496719399797675,134.21545201331912,10.085475148458283,-9.671584347251882,0.38583149734586564,-0.11138720418115658,-0.04902785248321531,-0.9144262809126015
205.0,-0.03229118429433143,-0.04116747218163426,0.03724731182795699,1.7013826383425121,1.6722980030721966,9.503979768461278,0.5062701378741898,-0.046614261361507627,-0.07126489266044735,134.11076556704506,9.989605812820802,-9.972180229290771,0.38660312512670936,-0.11352650741542092,-0.047181098910569104,-0.9139687759121428
206.0,-0.02663808025177026,-0.03680802517702597,0.034271439811172304,1.6209417781274587,1.7079488591660108,9.5114846577498,0.20890784815106217,0.6009072580645161,-0.12149881982690794,134.0708743115657,9.511287863886704,-10.172634736428009,0.3870131734901653,-0.11358760741935484,-0.042571411627458686,-0.9140251895440598
207.0,-0.021533044846577497,-0.03221125098347759,0.03100432730133753,1.5755676632572775,1.6986675845790709,9.52196341463414,-0.08457046616837133,-0.12690179976396537,0.00030979543666403986,134.12996410306846,9.24546493902439,-10.1050083595594,0.38664499643666406,-0.11218552255940203,-0.04071399319217152,-0.9144584519167979
208.0,-0.016500393391030682,-0.026936270653029115,0.032623131392604254,1.5818725413060584,1.6862612116443743,9.523054287962228,0.020239968528717567,-0.13434303697875688,0.020013768686073956,134.08539535798582,9.280015735641227,-10.036123131392603,0.3870463622344611,-0.11176105668292682,-0.04118612941463415,-0.9143274924059797
209.0,-0.013485444531864673,-0.032035405192761615,0.02878914240755311,1.5870597954366643,1.6673516915814317,9.525878835562542,-0.1049665617623918,0.12914535798583793,-0.09448760818253343,134.09519079464985,9.312785208497246,-9.921592250196696,0.3869626508119591,-0.11095631940991343,-0.04182133661054288,-0.9144358047033833
210.0,-0.029012588512981906,-0.030459087332808818,0.03693587726199844,1.5297336742722267,1.6796868607395758,9.533061369000784,0.0599036191974823,0.04069876081825334,-0.12633998819826908,134.23612804878047,8.972924862313139,-9.985776455546812,0.385917705610543,-0.1103256913690008,-0.038991529493312346,-0.9150775924303697
211.0,-0.032783241542092834,-0.017098151062155786,0.0289124704956727,1.4684034225019669,1.676460267505901,9.54315538945712,0.005930369787568841,1.116656422108576,0.15132646538158928,134.2085931353265,8.60755310778914,-9.957187991738788,0.3862571210546814,-0.10891337751376869,-0.03609466206372934,-0.9152137482332808
212.0,-0.03843194335169158,-0.008875688434303699,0.03271026750590087,1.3253831628638868,1.654883359559402,9.567553501180168,-0.10096626671911879,0.4628392997639655,0.186978756884343,133.90469979346972,7.769451957120376,-9.805534520062942,0.3888808093821795,-0.10503541544236819,-0.02951613187057435,-0.9147644526005114
213.0,-0.024699842643587724,-0.0022846184107002355,0.030770456333595597,1.2569496459480725,1.6312279701022816,9.580623524783634,-0.05663232690794649,0.22879868214004725,-0.02626868607395752,133.8087763080252,7.366001180173091,-9.663402340676633,0.3897773190580252,-0.10257849641070023,-0.026658862935287173,-0.9147637889252558
214.0,-0.0277741935483871,-0.00783477576711251,0.029958300550747448,1.4336231313926038,1.6405082612116442,9.55143351691581,0.10244394177812745,-1.2614870180959872,-0.09350904799370575,134.03231707317073,8.41496361132966,-9.742722265932336,0.38772301616915816,-0.10656154793076317,-0.03511184424390243,-0.9148204744099137
215.0,-0.01267545239968529,-0.005963021243115657,0.036411093627065315,1.5842269866247047,1.6900062942564906,9.519044846577497,0.08667633752950432,-0.9839840676632572,0.04313532651455547,134.11728461841068,9.307599822974037,-10.063999803304483,0.38672292568489386,-0.11200173265145555,-0.04139077506845004,-0.9143360088729349
216.0,-0.009626475216365069,-0.015164830841856807,0.0327020062942565,1.518900275373721,1.6999166011014946,9.52945476003147,0.29654430566483087,0.5102650472069237,-0.21085267505900865,134.12194384343036,8.916432680959876,-10.109547108575924,0.38678919600767114,-0.11111719697718334,-0.03799320216994492,-0.9145910704207316
217.0,-0.006309205350118017,-0.01981628638867034,0.02815342250196696,1.486905782848151,1.697651848937844,9.534824154209282,-0.07972683910306844,0.003721233280881253,-0.11701907946498818,134.29454047010228,8.721951219512196,-10.088392505900865,0.38547206236270654,-0.11028466374665617,-0.036678313931746656,-0.9153179416337529
218.0,-0.01695043273013376,-0.025952006294256494,0.03035169158143195,1.4962572777340677,1.6900889063729347,9.53570023603462,-0.12943056648308415,-0.28676239181746654,0.06874508261211644,134.40586152635723,8.7746115263572,-10.043838512981903,0.3845987935932336,-0.11006258906845004,-0.03736586178127459,-0.9157141515114082
219.0,-0.016890637293469714,-0.02513493312352479,0.02903029110936272,1.5434551534225025,1.684758064516129,9.529359166011012,-0.05256933516915814,-0.16509146341463415,0.10714004720692369,134.38113198269082,9.053267604248623,-10.014312057435092,0.38473402515224225,-0.110790083779701,-0.039686487150275375,-0.9154785994559403
220.0,-0.012461054287962233,-0.025908143194335174,0.030855035405192768,1.4905851691581435,1.6697008261211645,9.540545830055073,-0.19364304681353264,0.23335710070810384,-0.05319138473642801,134.31948023210072,8.738691237214791,-9.919656028717544,0.3853616609537765,-0.10901197266168368,-0.03740476335405192,-0.9155267324982297
221.0,-0.01303324154209284,-0.018613493312352482,0.03132887490165225,1.435134343036979,1.6459366640440596,9.553486821400469,-0.059076268686073956,0.1566532258064516,-0.09900422895357985,134.42753983084185,8.413718282848151,-9.763885474036192,0.38460899808536586,-0.10670687350708102,-0.03535971659461054,-0.9161947254919353
222.0,-0.022177719081338285,-0.019737814244501897,0.030392548049904475,1.4452002360346183,1.6336261661234128,9.553842681053542,-0.2772975909482597,-0.7424347158218125,-0.11837452231089131,134.56687811434566,8.474083843805028,-9.69135253924544,0.38351821190942637,-0.10626535404578322,-0.03620345159166011,-0.916671105130568
223.0,-0.022818094114120866,-0.011704169944925258,0.029542495597767046,1.5436922464501142,1.6259642950807391,9.539084054550226,0.2658438237608183,-0.04729379753474949,0.07750558474766772,134.52588150031846,9.056398165580157,-9.662358390937019,0.38367596390139935,-0.10792539866464351,-0.04098560872584392,-0.916195515292608
224.0,-0.026866462477988833,-0.002066089693154997,0.02917811247236897,1.5804215559551906,1.6474673953767187,9.529745410437977,0.11432189221085759,-0.07985264227642275,0.022398174946611213,134.62388562624105,9.273764213592596,-9.798461969858753,0.38277345138569174,-0.10966799779967029,-0.04241450901732794,-0.9163064643327714
225.0,-0.0192248323404893,-0.004893784421715187,0.027148851672848535,1.6260421115731893,1.6352729384436695,9.52439286650931,0.024586939417781284,-0.5828907684238132,0.07896622457007979,134.59498520100408,9.54341116855869,-9.742059589374696,0.38297776526581984,-0.11002968374995319,-0.04477283456708254,-0.9160714142096587
226.0,-0.02307347045820688,-0.010903225806451613,0.024804952980405387,1.6898282941815594,1.6209771458544076,9.515525308156306,-0.14719708890637295,-0.13322351167060054,-0.055614251995054514,134.7479302480237,9.920864710951257,-9.660142697913155,0.38165923555580533,-0.11052782970817879,-0.04825817342044135,-0.9163821138428309
227.0,-0.021493649544790376,-0.014932711400846725,0.0252739500206062,1.6451128095612755,1.585183132891237,9.528924656251172,-0.16555135626241055,0.399097073920048,-0.006764218275823311,134.73957701097748,9.657583314600426,-9.432380530890562,0.3818561556026376,-0.10790864688014687,-0.046803357825484254,-0.916689838747218
228.0,-0.01991502753737215,-0.011909520062942564,0.0295916601101495,1.5545948072383948,1.554200629425649,9.548901652242328,-0.009844610542879634,0.2590627458693942,0.05432238394964595,134.70712529504326,9.124572187254131,-9.234829858379229,0.38231229026829266,-0.1046408422895358,-0.04310610088355626,-0.9170527327560976
229.0,-0.009207710464201416,0.003100314712824551,0.02246066089693155,1.565291896144768,1.5626927616050352,9.545797797010227,0.23838512981904011,-0.6025201612903226,0.03970053107789143,134.6074277143981,9.185088021243116,-9.29344758064516,0.3830997776022817,-0.10528575490637294,-0.043313250027930766,-0.9166243772804877
230.0,-0.011128638867033832,0.008264555468135329,0.019466365066876476,1.6096034618410697,1.5663762785208495,9.538189221085753,0.08166306058221873,-0.3894288453973249,0.036382523603461836,134.5794170436664,9.448651406372935,-9.314618164830842,0.38322677291050367,-0.10636327030212434,-0.04532818178658536,-0.9163655781217541
231.0,-0.012690007867820614,0.01422147915027538,0.020318253343823763,1.6572714398111719,1.5701050354051926,9.52953186467348,-0.02661290322580645,-0.18792781274586937,-0.06687893391030685,134.5531028717545,9.728488886703383,-9.333639850511407,0.3833665583745083,-0.10748847548701815,-0.047514467536191984,-0.9160758974173875
232.0,-0.02998162301899517,0.002379182121314303,0.028543975497358664,1.6248930725712785,1.5685042430032594,9.535214210782657,-0.009415861151699076,0.462952516765951,-0.13003569789442132,134.53589564366266,9.53497029663557,-9.323058217189313,0.38352683570780416,-0.10676394945138812,-0.04596274023225994,-0.9161701257979749
233.0,-0.02130946328782678,-0.0011837546796240727,0.02974086698771987,1.5264124171789393,1.5809420511955918,9.549471249311923,0.052174048332339046,0.6205413431637861,-0.12816598273546542,134.55740967046657,8.950978091866173,-9.386428302143045,0.38349455305592856,-0.10536325668537148,-0.041033054962800776,-0.9165719450601744
234.0,-0.034920860676171464,-0.008233006372070101,0.031261562526118,1.4557021763314049,1.5859831223719896,9.55980014078499,0.04753359674681469,0.2694944619044737,0.0694099521806544,134.6308973755559,8.529470900771795,-9.409015562361844,0.383024540523932,-0.10416460979833089,-0.037651679957206835,-0.9170547059816999
235.0,-0.04217600862290084,-0.022575492171086196,0.03600578126305901,1.435205828527622,1.603895672122265,9.560379909102174,-0.011215499030211858,0.08924295282477814,-0.12637820152572316,134.7148924082736,8.411754898654976,-9.516772975909483,0.38234049166420825,-0.10459057637743059,-0.03643512237219114,-0.9173482781079821
236.0,-0.04728784695503814,-0.03740104270238025,0.03817991659533754,1.432555707340129,1.6153191971940986,9.495115210255257,0.08949453215287204,0.04976014675070536,-0.08875951775735409,108.87591099563956,29.03489987261624,14.106975431793488,0.38219496564721034,-0.10507540348769248,-0.036115100127873695,-0.9173720901004112
237.0,-0.042120882002864686,-0.05093016804857875,0.03656691682301439,1.456396901289112,1.6182655893804592,9.523219663499367,-0.2552767354596623,-0.7066627453650467,-0.03170214751154955,121.91496682654483,18.859510228166798,2.2431574547600315,0.38125162626676956,-0.10566567870928403,-0.0373486206898969,-0.9176447727583468
238.0,-0.05001494885916601,-0.04306392604248624,0.040234657749803324,1.4571463414634143,1.6294024390243895,9.537418764752166,0.17856510621557833,0.08524906569630208,-0.01716414240755311,128.39084259441384,13.701126081825334,-3.748784175845791,0.3811233211449646,-0.10621957348367428,-0.037105640229150263,-0.9176454137472462
239.0,-0.05663650668764752,-0.0380763178599528,0.035081038552321024,1.4578796223446107,1.6245318646734859,9.545850511408341,0.11498819826907948,0.07284126671911881,0.0073957513768686065,131.6470594020456,11.124857395751377,-6.681977773406766,0.38094131484264365,-0.10597745455232102,-0.037267552384736426,-0.9177438306357197
240.0,-0.04314909520062943,-0.02614673485444532,0.03225334382376083,1.4503599527930762,1.6197442958300554,9.55191817466562,0.0004032258064516278,-0.050174567269866244,0.0008457907159716751,133.31116247049567,9.79457857985838,-8.134753638867034,0.3805670039673486,-0.10561848739417781,-0.03707378888316286,-0.9179507011911879
241.0,-0.04051239181746656,-0.025862509834775775,0.03096931549960661,1.4405458300550746,1.623440204563336,9.556753737214795,0.14757572777340677,0.05577916011014949,-0.001052321007081039,134.967737018096,8.442848888670337,-9.63174542682927,0.38026303724331234,-0.10556438819354838,-0.03655561544079465,-0.9181026855719905
242.0,-0.02791345397324941,-0.0404352871754524,0.0393072383949646,1.4344059795436666,1.637470102281668,9.554651062155784,0.35654996066089695,-0.4385166699449253,-0.250022128245476,135.06305197678995,8.407639162077103,-9.72295436664044,0.379530425899882,-0.10610331895967741,-0.03606234433733281,-0.9183618378263179
243.0,-0.023116247049567266,-0.029861919748229743,0.027260424862313136,1.4316416207710465,1.665061172305271,9.55065676632573,-0.04456997442958299,0.2725548288749016,0.11112436073957513,135.11957857985837,8.391058959480723,-9.885481412273801,0.37903205210700236,-0.10731772624645947,-0.035439190344807234,-0.9184482038007475
244.0,-0.03067505900865461,-0.029374508261211643,0.02553343823760818,1.5069095200629425,1.6877120377655392,9.533348544453188,0.3470446498819827,-1.5936369000786783,-0.22974527930763178,135.21629130605822,8.838498229740361,-10.034524980330449,0.37807754547285605,-0.10992717384500392,-0.03874426255546814,-0.9183532387592446
245.0,-0.03660087670001124,-0.01653637930388521,0.028999531677344426,1.634279569892473,1.702352515829306,9.509593608332397,-0.03279956258663971,-0.007582377955116071,-0.03551770727960735,135.41278485725525,9.592315410625304,-10.14371663201079,0.3762689930934773,-0.11308451391099994,-0.044704848267918026,-0.9184320009895284
246.0,-0.014586040238282567,-0.016617520887190443,0.028080410999962536,1.572124049305009,1.681707335806077,9.524513562624106,-0.22593459639953545,0.36786990464950725,0.18070200395264324,135.41606984798247,9.223857351260724,-10.009795963527033,0.37640477815728157,-0.11083760026155819,-0.042106416703589236,-0.9187939724743077
247.0,-0.012196245925592899,-0.02032085721778877,0.02914907646772321,1.5202878311041172,1.6466197969352967,9.5397971038927,-0.16828483852234835,0.29920712974410846,0.06991249391180548,135.37010649657188,8.914625248211006,-9.78461068337642,0.3769413544496084,-0.10811948270739202,-0.04026353156953655,-0.9189973238379603
248.0,-0.004622119815668201,-0.019390168970814133,0.02515360983102919,1.5394059139784944,1.6568102918586793,9.534240015360984,0.2386496735791091,-0.9573348694316438,0.1791930683563748,135.4541474654378,9.033448540706605,-9.852174539170507,0.37619907154109067,-0.10898385724039938,-0.04106853367933948,-0.9191532370314901
249.0,-0.01923041474654378,-0.02858218125960062,0.029350998463901698,1.5123763440860212,1.6644777265745008,9.537745007680488,0.016628264208909393,0.08826804915514586,-0.03941052227342551,135.31094470046082,8.86974846390169,-9.891157834101381,0.37735589602457764,-0.10884051106374808,-0.03949126965821813,-0.9187754782818742
250.0,-0.02764516129032258,-0.029709677419354843,0.03221774193548388,1.568322580645161,1.6593064516129032,9.530032258064512,-0.06018145161290321,-0.028024193548387123,-0.08669354838709678,135.3717741935484,9.202822580645162,-9.871673387096774,0.3767870006774193,-0.10970739541129032,-0.0423138528467742,-0.9187896235403226
251.0,-0.020499999999999997,-0.029548387096774195,0.02934677419354839,1.5398467741935482,1.6534596774193546,9.535790322580645,-0.11643145161290322,0.4920362903225806,-0.16970766129032258,135.41078629032256,9.035433467741935,-9.832308467741935,0.37652292533064513,-0.10885211524999999,-0.04110801442741936,-0.9190535515725806
252.0,-0.02975076804915514,-0.019778033794162826,0.02966129032258065,1.580912442396313,1.657983486943164,9.528067972350229,0.06382968509984639,-0.25249855990783415,0.038916090629800296,135.43143481182796,9.277649769585253,-9.866299443164362,0.3762893422438556,-0.10985432241513057,-0.042991432028801846,-0.9189401136294162
253.0,-0.03542780337941628,-0.022364823348694322,0.03371774193548387,1.5971255760368663,1.6347377112135175,9.529691244239627,0.045422907066052225,-0.393764400921659,-0.25140889016897083,135.50238575268816,9.371435771889402,-9.72228782642089,0.3757207684807988,-0.10902335884869432,-0.04431964014746544,-0.9192144664800306
254.0,-0.039795787545787546,-0.02712017015242823,0.03418858560794044,1.6022179782583006,1.6201576273189175,9.531661378943635,-0.24243083865059675,0.2461466456930166,-0.0072510486825002884,135.59167959057072,9.400269555713106,-9.633864136535507,0.37501358130408835,-0.108397310195439,-0.0449014034382902,-0.9195524434736796
255.0,-0.031146418556528707,-0.03686850364427077,0.029621830176118136,1.5651537373588906,1.5884045414328654,9.54255325044743,-0.26206600449445655,0.07656651226428958,-0.03465424188649011,135.70735140032076,9.179310869516662,-9.440682437071846,0.37420884051730774,-0.1061119277643206,-0.04383377299147004,-0.9202017540970874
256.0,-0.045819177020199844,-0.046869735693103126,0.03438349573322036,1.544137352550413,1.570589367490626,9.549381463933393,-0.0870057845052928,0.07291027226117705,0.017073080669658167,135.78031380499908,9.059539507338975,-9.330094242729471,0.3736924122425248,-0.10481921553941836,-0.04325566323363825,-0.920589079568705
257.0,-0.04719837499243479,-0.05539492929048398,0.037869167221448896,1.573727662450322,1.5486986776009202,9.548474142104947,-0.06823887535556498,-0.2408058085698723,0.13292210101071233,135.78615824658556,9.236365375789303,-9.207952267294075,0.3736235826980673,-0.10436283139106095,-0.04510403889792511,-0.9205816830416491
258.0,-0.04121140228772015,-0.05121644576247253,0.03570592507413909,1.585041840666546,1.5357406645282343,9.549413605277497,-0.03406350239060704,-0.29587128548084485,0.029144223204018653,135.78904809457524,9.305184187697957,-9.136961356896448,0.3735853559220076,-0.10395825767094355,-0.04590375667132683,-0.92060538967169
259.0,-0.031605822187254135,-0.03679858379228954,0.034163257277734074,1.679701416207711,1.511979150275374,9.535742328874901,-0.218727871754524,-0.4880089496459481,0.43822777340676633,135.7236870574351,9.865932336742723,-9.007558025177026,0.3739921241864672,-0.10472732186821401,-0.050824325035011796,-0.9200789557490167
260.0,-0.019979974523247537,-0.03486008392341988,0.02515176463976622,1.572265754374134,1.5525833707991463,9.546026909819789,0.4304411482334869,0.5393693684200667,1.0980267224907272,134.78117495129445,9.226729749728372,-9.230659093889326,0.38171036884925624,-0.10484877076457419,-0.04401534587706531,-0.9171625340844667
261.0,-0.02353914240755311,-0.017755694803491814,0.03038406204338542,1.4977935914727813,1.5811835824809861,9.553819330485933,0.44204589093701996,0.6129510532576523,0.113339878142445,134.25260504477166,8.784111802667567,-9.388764646791053,0.38598028039621035,-0.10489305700114271,-0.039429140820829114,-0.9155978476201904
262.0,-0.02598366490577348,-0.022620358922483236,0.03468435053014125,1.4624461428946085,1.5769581506874975,9.560687123000262,0.10647081413210441,0.1658541268592409,-0.10862743996103552,134.17207345172528,8.5789006593983,-9.358491626390919,0.3866858125596643,-0.10402135871754523,-0.03778312809186617,-0.9155053202843655
263.0,-0.03267947997452325,-0.02798209134165075,0.032025102094338925,1.4385000187329062,1.5878724663744332,9.562573301862049,0.10159791690082798,0.14435015548312163,-0.09966187104267353,134.19756800044956,8.434990258888764,-9.41824069911206,0.38649572226016254,-0.1040561206042486,-0.03643682348417068,-0.9156582884214906
264.0,-0.026425499231950846,-0.0185284178187404,0.03458218125960062,1.4344592933947773,1.6029047619047618,9.561763440860215,0.10494431643625192,-0.15151689708141322,-0.13576228878648233,134.29703341013823,8.408707757296465,-9.510743087557604,0.3857009919892473,-0.10463875612903226,-0.036057264509984636,-0.9159538130691246
265.0,-0.057256341088756504,-0.0233292495597767,0.032887640028474024,1.4705329137162342,1.6046003521786374,9.55540421865048,0.09553852422164774,0.05795118204638268,-0.305385710539133,134.5356480180585,8.62347748304672,-9.529815059383312,0.38373010079296394,-0.10539034324622533,-0.03794195177505526,-0.916610806593009
266.0,-0.051967311078640735,-0.026606552770596835,0.020903188340639173,1.4573736278146192,1.6615873890075308,9.54622352103705,0.22002711588175788,0.5555710492300775,-0.3271488985051141,134.93682584953729,8.544325334382375,-9.868359418905248,0.38042459751508,-0.10769384170778538,-0.03655639612431155,-0.9177370262003861
267.0,-0.04175432730133753,-0.01586369000786782,0.025809205350118016,1.3210324547600316,1.6748107789142408,9.563574744295828,0.2520874311565696,-0.34459947875688424,-0.1813508064516129,135.18835070810388,7.741613394964594,-9.927815204563334,0.37855893916207706,-0.10557941435188828,-0.030052546596774185,-0.918991036598938
268.0,-0.02188060582218725,-0.018087726199842644,0.0240102281667978,1.2962399685287174,1.6708214004720692,9.56826888276947,-0.19490189811172304,0.11156323760818257,-0.09314761998426435,135.18695785798582,7.591764604642014,-9.896208693941777,0.37864808369256486,-0.10486575172187254,-0.028938474812549173,-0.9190877693206138
269.0,-0.025974673110786405,-0.014051927616050354,0.02799820164100259,1.237228279195234,1.667995953692256,9.577287475178892,0.019341725675321275,0.37875828931100375,-0.12264667865572665,135.29766119665805,7.247225188265707,-9.869604923007754,0.3778561351118354,-0.103541211184669,-0.02632938775055262,-0.9196561436952531
270.0,-0.031060628330494573,-0.0191420040751276,0.03176645541712419,1.1472538135874093,1.6795611312369774,9.58588878994071,-0.05175109443402126,0.2630145064743806,-0.10025076876965153,135.39939672837,6.715258204292429,-9.923105382684454,0.37710379170720176,-0.102281509176732,-0.02192650850488352,-0.9202225701476731
271.0,-0.010399708343060036,-0.02703835058201699,0.022177484199514097,1.410342091687489,1.6774076309213997,9.546721735646987,-0.08309427263007121,-1.6070598199335413,-0.020055557476879267,135.8151881360182,8.277598614341336,-9.956940181507452,0.3733935485396749,-0.107238378227233,-0.03492664574811445,-0.9206326699227745
272.0,-0.007273024903237337,-0.02374734208880551,0.026460103232723214,1.516131706740676,1.6746330050751763,9.53251429032546,0.02589975589582199,-0.4460308934443473,0.039072339278869564,135.7221200318171,8.891464531403557,-9.954817455033819,0.37401937825803566,-0.10924089648419086,-0.039879725433459266,-0.9200034984035588
273.0,-0.00900472645633936,-0.018119933829611252,0.026416518964906058,1.5853546023868605,1.6825965969514358,9.521278388278386,0.3229321753515302,-0.4182308283114735,-0.04727637953444405,135.7077211095356,9.301869165780456,-10.015277531608177,0.3739992552785064,-0.11101930458277204,-0.04301136842798063,-0.9197005612332507
274.0,-0.014473945409429284,-0.014963192721257236,0.0276575682382134,1.5068316790736145,1.7265955334987595,9.526421836228288,0.03922146401985112,0.4245683416046319,-0.03731906534325889,135.7324415839537,8.835597601323407,-10.266754549214227,0.3738451080355666,-0.1115861334019851,-0.038438144501240695,-0.9198972817725395
275.0,-0.010370967741935489,-0.025669354838709676,0.026806451612903223,1.45433064516129,1.7132258064516128,9.536999999999999,0.302116935483871,-0.13049395161290323,0.00131048387096774,135.8327116935484,8.520766129032257,-10.17913306451613,0.3731472878870967,-0.10988582466129035,-0.03623322548387097,-0.9204770483709677
276.0,-0.002741935483870975,-0.02337096774193548,0.033717741935483866,1.3788709677419355,1.7751209677419355,9.536427419354835,0.5067036290322581,0.2933971774193548,-0.4251008064516129,135.85020161290322,8.085433467741934,-10.533165322580643,0.37302452879838705,-0.11136912667741937,-0.03152593796774193,-0.9205093871370968
277.0,0.00038709677419354583,-0.027491935483870963,0.030427419354838704,1.3579435483870967,1.8466532258064514,9.526274193548385,0.014012096774193544,-0.2920866935483871,-0.21567540322580644,136.21910282258065,7.962449596774193,-10.959274193548385,0.36995697088709667,-0.1143182562983871,-0.0295869889516129,-0.9214707894758065
278.0,-0.004024193548387097,-0.038830645161290325,0.02691935483870967,1.3618951612903225,1.8325887096774194,9.529717741935483,-0.21365927419354835,0.1597782258064516,-0.06300403225806452,136.42202620967743,7.982963709677419,-10.876108870967741,0.3683491375403225,-0.11364022490322581,-0.030201573766129027,-0.9221989293225807
279.0,-0.021814516129032256,-0.03238709677419355,0.02989516129032258,1.4096451612903222,1.8178548387096778,9.525935483870967,-0.07489919354838709,-0.23377016129032258,0.002872983870967745,136.48286290322582,8.264465725806451,-10.79375,0.3678017899354838,-0.11386822022580644,-0.03283460074193548,-0.9223090395645162
280.0,-0.0270682382133995,-0.03361124896608768,0.030405086848635236,1.4544551282051277,1.8248411910669975,9.517868072787428,0.06957842224979321,0.154295905707196,-0.18772875310173695,136.59013647642684,8.52608431555004,-10.846249483043838,0.3668794546718362,-0.11504412049896608,-0.03493837621918941,-0.9224446605601736
281.0,-0.011937344913151368,-0.036071753515301896,0.031335607940446646,1.4366025641025635,1.8049367245657573,9.524240488006615,-0.11175816790736147,-0.25092664392059555,0.058126550868486365,136.5510662220844,8.422442359387924,-10.722973531844499,0.3672420796141439,-0.1137596561567411,-0.03443026739991728,-0.9224788128244417
282.0,-0.01370008473037584,-0.04145001916520406,0.0294533075107426,1.4359230365752786,1.7869646250680882,9.52809732897577,-0.14131009300167444,0.11608553228832534,-0.030681758003994433,136.62373519109724,8.41993417635014,-10.614450721469062,0.36671238697662356,-0.11284387767239103,-0.03479999491435676,-0.9227994895155842
283.0,-0.020261332687768568,-0.049095977324537514,0.03150891181988742,1.4223728086102196,1.778667796405012,9.53184705158466,0.37465745349916274,-0.27713868546874054,0.0921944032560673,136.66436255522603,8.340536644626681,-10.565768707508724,0.36643205542782786,-0.112195322703131,-0.034331888388629994,-0.9230111662497273
284.0,-0.03272744053743267,-0.06826573059775261,0.034839133329298555,1.4089888236599482,1.7632371240089575,9.536850945147172,-0.3788759103471928,0.25447501210433937,0.052296798402227195,136.56978208406463,8.25754150779721,-10.469099071496299,0.3672164979881075,-0.11117165158543647,-0.03385243845237951,-0.9228418545724446
285.0,-0.02504464988198269,-0.058118017309205336,0.038953186467348536,1.4063465774980326,1.7616597167584582,9.537130409126675,-0.016030684500393383,0.024681599134539725,0.12252163650668764,136.5564897226593,8.24463512981904,-10.458857444925254,0.3673322218125492,-0.11103761326180175,-0.033751148341463415,-0.922810367017506
286.0,-0.024911487018095986,-0.04292289535798583,0.032925649095200626,1.3365818253343822,1.7172238394964596,9.5550794649882,-0.28544944925255705,1.0419649881982689,0.16156815499606608,136.4953260228167,7.830303402832415,-10.18264653815893,0.3680188507789142,-0.10753992084933123,-0.031180671889850513,-0.9230318025991343
287.0,-0.014022226593233673,-0.028068843430369785,0.03008280881195909,1.3026064122738001,1.6976213611329662,9.56341935483871,0.06743459874114868,-0.33695416994492533,0.05845913650668764,136.41391989575138,7.630459529897718,-10.06016178206137,0.36872541078284815,-0.10598015798170732,-0.02991052809598741,-0.9229755471233279
288.0,-0.013813532651455546,-0.020865066876475217,0.0265051140833989,1.3807265932336747,1.7038469708890638,9.550879032258063,-0.03483108772619984,-0.6905536978756884,0.02985960857592447,136.3585476494886,8.097412224626279,-10.105484116837136,0.3690603548027144,-0.10781195448682139,-0.03350532470121951,-0.9224998204044059
289.0,-0.02063257277734068,-0.02698898505114084,0.02734933123524784,1.4705326514555468,1.6657702596380806,9.54348387096774,-0.2053943745082612,-0.6500147521636507,0.2437352478363493,136.30868410700236,8.626352281667979,-9.893341856805664,0.3694042388166797,-0.10778835445712037,-0.03846717474980331,-0.9221628976538156
290.0,-0.020996852871754526,-0.02550157356412274,0.027953973249409916,1.542514948859166,1.6516884343036975,9.534442171518492,0.10548042879622346,-0.030927911093627025,0.21258851298190398,136.06567663257277,9.052716856805665,-9.821479150275373,0.3712952451188041,-0.10862220229464986,-0.04190302837962235,-0.9211452768607395
291.0,-0.011919354838709678,-0.017201612903225808,0.02812096774193549,1.5449435483870966,1.6779032258064517,9.52935483870968,0.6010584677419355,-0.45781249999999996,-0.18568548387096773,136.00645161290322,9.065171370967743,-9.979637096774193,0.3717178341290323,-0.10992539894354837,-0.041449712620967735,-0.9208417340322579
292.0,-0.01106451612903226,-0.015338709677419356,0.028717741935483876,1.4674112903225807,1.717774193548387,9.535088709677424,-0.19465725806451611,0.038004032258064535,-0.10418346774193549,136.15574596774195,8.606602822580644,-10.203427419354838,0.37054586080645163,-0.11024288021774192,-0.037159778483870975,-0.9214666557177419
293.0,-0.011370967741935481,-0.018911290322580647,0.02572580645161291,1.436782258064516,1.7206935483870964,9.53912096774194,-0.036743951612903225,0.3235383064516129,-0.07963709677419355,136.1945564516129,8.423387096774194,-10.212802419354839,0.3702660343629033,-0.10975322118548385,-0.035694392919354834,-0.9217079906048387
294.0,-0.006782258064516129,-0.02192741935483871,0.026725806451612908,1.3917580645161292,1.713774193548387,9.54736290322581,-0.02081653225806452,0.1983366935483871,-0.07358870967741934,136.284122983871,8.158064516129032,-10.16844758064516,0.3695904646290323,-0.10852562708870965,-0.033744664443548386,-0.9222029661451611
295.0,-0.012019201228878647,-0.02285330261136713,0.029239247311827966,1.4113260368663596,1.6930841013824889,9.548581029185875,-0.5455045122887864,-0.9936467933947772,0.11542818740399384,136.31583141321045,8.281602822580645,-10.05257296466974,0.36934745831643623,-0.10793263178533025,-0.035144115231950844,-0.9223186005641321
296.0,-0.014727342549923198,-0.026241167434715825,0.026680107526881724,1.4561993087557603,1.6172638248847928,5.26013325652842,-0.12428955453148996,0.5966493855606758,0.17963949692780337,136.1141657066052,8.54117943548387,-9.597556643625191,0.37105523565821813,-0.10520786499347157,-0.03845806628533026,-0.921797260705453
297.0,-0.012621735791090629,-0.026322196620583722,0.031448924731182805,1.3536117511520738,1.5893536866359448,7.427522273425501,-0.10413066436251918,0.28275009600614437,-0.037221582181259594,136.08520785330262,7.933870967741935,-9.414705741167435,0.37148500327265743,-0.10186324165399384,-0.03407546584831029,-0.922168501453533
298.0,-0.00508909370199693,-0.042350614439324114,0.0326478494623656,1.4141002304147463,1.5494631336405535,8.498293394777264,-0.048259888632872484,-0.018428379416282642,0.2177299347158218,135.8573468701997,8.291935483870969,-9.189283314132105,0.3733182051282642,-0.10123561553264207,-0.037507915081413205,-0.9213676162066051
299.0,-0.03372196620583717,-0.04476804915514593,0.025553763440860217,1.5385138248847925,1.583884792626728,9.007937019969276,-0.03353014592933947,-1.160071044546851,-0.039496927803379434,135.90092645929337,9.036592741935483,-9.417852342549923,0.37270065800768043,-0.10534955809293395,-0.04291253329877112,-0.9208618638855606
300.0,0.005741935483870954,-0.022258064516129033,0.02245967741935484,1.53525,1.5747903225806454,9.276790322580645,0.9610383064516129,-0.676008064516129,0.0721774193548387,135.64591733870967,9.015272177419355,-9.365675403225806,0.37473887795161287,-0.10495969765322578,-0.04267696250806451,-0.9200358737499998
301.0,-0.006532258064516133,-0.025241935483870964,0.026193548387096775,1.5711370967741938,1.6434838709677417,9.529637096774193,0.10922379032258067,-0.9580645161290322,0.07449596774193548,135.84369959677417,9.222832661290322,-9.781653225806451,0.37301891655645153,-0.10885246052419356,-0.043264081137096774,-0.9203133372983868
302.0,0.005751152073732713,-0.011464285714285713,0.014605222734254993,1.71205069124424,1.713571812596006,9.492546466973884,0.18389736943164364,0.7001752112135178,0.025100806451612903,135.82865063364056,10.055054723502302,-10.232882104454685,0.37277641942895545,-0.11501097307642089,-0.04858534080414746,-0.9193833014251149
303.0,-0.025543778801843317,-0.007002304147465438,0.018633256528417817,1.6722753456221198,1.6853625192012291,9.505753072196615,-0.02596966205837173,0.31286482334869437,0.06244959677419354,135.78209245391704,9.814825748847925,-10.048648713517665,0.3732685797910906,-0.11284350313901688,-0.04717635025691245,-0.9195658837730412
304.0,-0.009602534562211981,-0.012170506912442394,0.02617549923195085,1.5964400921658988,1.6859554531490013,9.519219278033788,0.0010272657450076852,-0.10682363671274961,-0.3165322580645161,135.82962989631335,9.369938076036865,-10.038664074500767,0.37300632099231956,-0.11138691231144393,-0.043619371890552996,-0.9200491538260368
305.0,-0.0076388951331909614,-0.023575221984938742,0.02686833576861114,1.555431297066427,1.6812432655202127,9.527628620134127,-0.1381026141770634,0.1929745162226968,-0.3288749016522423,136.06027804316062,9.12319127936383,-10.000195407628038,0.3712468482705501,-0.11026417483422313,-0.041939294989237944,-0.9209896423958075
306.0,-0.01258075755872766,-0.026564066539282907,0.017989734367389758,1.5514710576598851,1.7150563298490127,9.522376269154396,0.30588353752201114,0.03455706043235547,-0.28612559008654603,136.3827993284253,9.101387757109137,-10.201989668802218,0.36861997813871716,-0.11171186682259936,-0.04144354782319883,-0.9218852756147013
307.0,-0.031492132179386303,-0.020354642014162077,0.02604996066089693,1.4619331235247834,1.722149291896144,9.535503540519276,-0.13900472069236822,-0.49871410306845004,-0.20707489181746655,136.5129265833989,8.571996705350118,-10.22836103461841,0.36770030187077096,-0.11024149463690007,-0.03715292942328875,-0.9226170978922106
308.0,-0.025439614476789923,-0.026237804878048783,0.024524980330448462,1.522523013375295,1.6957077104642009,9.531098544453183,-0.06985518292682927,-0.4311110837922895,0.04386678796223448,136.72206309008655,8.929622344610543,-10.080511162470495,0.36596377381845,-0.11006548110877264,-0.04073569660680566,-0.923180871034815
309.0,-0.0170684500393391,-0.0322108575924469,0.02355940204563336,1.641656963021243,1.6575688434303695,9.51716915814319,-0.1470790715971676,-0.16607985837922892,0.33900472069236826,136.65486821400472,9.634382376081824,-9.871607002360346,0.36636960968371357,-0.11056210747600317,-0.04708073322265931,-0.9226403068528719
310.0,-0.03453186467348545,-0.017881195908733286,0.023081038552321007,1.7029756097560973,1.7041203776553897,9.497546813532649,0.4580792682926829,-0.06077399685287175,0.04732002360346185,136.4522128245476,10.00219807238395,-10.16496361132966,0.3678058230739575,-0.11413914712745869,-0.04894218034067663,-0.9215209386498822
311.0,-0.010562549173878838,-0.024074350904799376,0.023342250196695516,1.6553273013375294,1.7040625491738792,9.505673485444532,-0.1764973446105429,0.5574867230527144,-0.25031225413060576,136.60216365066879,9.714439909520063,-10.153980625491737,0.3666734314543667,-0.11310323249763966,-0.046786474942171516,-0.9222153758709681
312.0,-0.015562268180285492,-0.019804587688734034,0.025636881345771988,1.5370926716870854,1.681381992057248,9.529746937169836,-0.21365845462890115,0.07866304419092576,-0.10163462168895881,136.75425775542317,9.015676925274438,-9.99281048621258,0.3656658083140104,-0.109635604853593,-0.04170317941350081,-0.9232778991763517
313.0,-0.013127908283691134,-0.019462777715334757,0.02406037615675696,1.5152479487467687,1.66809825409314,9.536252500842984,0.059425813008130074,0.3208587398373984,0.15500426173616574,136.61271355513094,8.885333422314638,-9.90882963826758,0.3668570499755536,-0.10862651945502233,-0.04081719832368589,-0.9229727844752726
314.0,-0.005139878610767674,-0.02112556667041325,0.027144271477276986,1.4493430931774753,1.6546061687460192,9.548640019107566,-0.04098929648570679,0.2777238231051665,0.16229265014424338,136.48917050691244,8.497574264265108,-9.822579649975648,0.36798279815850843,-0.10672414828376608,-0.037803412642566786,-0.9228872890370068
315.0,-0.01283331460042711,-0.011245513468959571,0.027178449664680974,1.4306288636619087,1.6872250946011758,9.54541766887715,0.5326285077366903,-0.3184041437188565,0.36915650406504064,136.27831853433742,8.385191169308007,-10.013520475066501,0.36961323878745644,-0.10802085254943614,-0.0361128763670151,-0.9221360292990896
316.0,-0.5007164212655951,0.6575243715109964,-3.387445393578362,1.455424581319546,1.7213466149638448,9.536080195571536,0.09845921846315245,-0.33013047469184365,0.013084349593495942,136.11368719793188,8.533247630287363,-10.223838325652842,0.37087378184455433,-0.11020524479163388,-0.03648470920239032,-0.9213704081979319
317.0,-0.26562549173878836,0.3104311565696303,-1.674433910306846,1.4967145948072385,1.735303107789142,9.527885719905584,-0.08689270259638078,-0.3785060975609756,-0.14574277143981118,136.1536609952793,8.781768784421715,-10.311189516129032,0.3704878669775767,-0.1116611684388277,-0.03825324191148702,-0.9212881825920536
318.0,-0.1624417781274587,0.13669138473642806,-0.8160314712824552,1.499450039339103,1.7454701022816679,9.525648505114077,0.05620082612116444,-0.23980748426435877,-0.031868361526357185,136.2375663847364,8.796983182533438,-10.381754032258064,0.3697871741420141,-0.11220701027989774,-0.03822737637509835,-0.9215139840540914
319.0,-0.10035798583792288,0.04497875688434305,-0.3886286388670341,1.5321282454760032,1.7422753737214787,9.52115892997639,-0.02603265145554681,-0.5381245082612116,-0.04065696302124311,136.34826907946498,8.988360542879622,-10.368548387096773,0.36883230896616837,-0.11265299553107791,-0.03996868753029112,-0.9217720656923682
320.0,-0.06317663257277735,0.00010542879622345638,-0.1792671125098349,1.73521833202203,1.7294893784421714,9.486138080251767,-0.24875590086546026,-1.4963439221085757,0.058128442171518496,136.4357395751377,10.192916502753736,-10.32719807238395,0.3678087192903226,-0.11597892692368217,-0.05005407443784422,-0.921211092551141
321.0,-0.031373524783634935,-0.018848937844217154,0.029153225806451622,1.7345100314712822,1.7052301337529512,9.491353855232099,0.22076858772619987,0.2195011309992132,0.10324301730920535,136.47393292682926,10.185099085365852,-10.180932828481511,0.3675374058143195,-0.11477692344531869,-0.050441504693351694,-0.9214702311292289
322.0,-0.026424665617623924,-0.011553501180173092,0.029830645161290324,1.7407025963808023,1.7056070023603471,9.491084185680567,-0.01748869000786779,0.10130802517702597,-0.07025349134539732,136.50042412470498,10.223875147521635,-10.17463980133753,0.36732996726199846,-0.11488653153717548,-0.050796131584579074,-0.9215455975767111
323.0,-0.035893784421715196,-0.025317073170731706,0.03295161290322581,1.789351298190401,1.6907309205350123,9.484703383162863,-0.18460119984264356,-0.7294871164437451,-0.12290396341463415,136.62317073170732,10.515793420535012,-10.094855182926828,0.366263934235838,-0.11505735241778128,-0.05356515056648309,-0.9217939025222267
324.0,-0.029260787992495315,-0.01734257297907967,0.02842721257237387,1.8984719683673261,1.68353584901854,9.46453448728036,0.2270813789868668,-0.6470752889911033,0.24940215911154145,136.59289481581231,11.163277577719946,-10.080057218221064,0.36636263369722,-0.11688144976306766,-0.0588920939664508,-0.9211950690186608
325.0,-0.0326650124069479,-0.0065516956162117446,0.025471670802315972,1.995910256410257,1.7001416459884198,9.442365591397849,0.1703512717121588,-26.48957816377171,0.18003644540942929,136.50839666046318,11.740480252274608,-10.195132857733663,0.3667974536424732,-0.11962698522063693,-0.06315909590612076,-0.9203872854574024
326.0,-0.038953473945409434,0.009054797353184454,0.0265382547559967,2.027019644334161,1.6947925971877578,9.436126344086023,-0.12301488833746897,-13.427299162531016,-0.08147875310173697,136.46556425765095,11.926994158395367,-10.17342328370554,0.36711250493817205,-0.12003333703370558,-0.06471952104983457,-0.9201117818335396
327.0,-0.04342176057616656,0.0071297786923278685,0.024984017228509764,2.0476599991930438,1.680033100324799,9.434584906897458,-0.06052150789808146,-6.738347776584155,-0.10208563441868909,136.56669059165003,12.051159967671328,-10.081528715023502,0.3662791023590349,-0.11962645357045226,-0.0661181012761958,-0.9204067941932255
328.0,-0.04611772478766972,0.0011500837216808896,0.029508654602675072,2.038390586858722,1.679647753636345,9.436916005971474,0.12649715548023968,-3.0552580746030786,-0.28242399483548186,136.6263644490508,11.991226308277351,-10.075050182573785,0.3658256594251749,-0.11935346481014342,-0.06569949949593495,-0.9206561142231635
329.0,-0.043080044987794795,0.0014999142609292103,0.02141100788799452,1.9018478585406202,1.7319692701083347,9.454841428110308,0.261033483628881,-1.3036098670540055,-0.39716771066594037,136.90054214201416,11.17624646326333,-10.365997775827633,0.36379225165725043,-0.11909105351998223,-0.058433851531642766,-0.9219469899157537
330.0,-0.05115695797776837,0.005221731324012992,0.02388695555690049,1.7951819937864393,1.7775209253767477,9.4673360366358,0.24911553213702115,0.475967243892352,-0.11330159726845407,136.88532651455546,10.54238230421231,-10.620750904042849,0.36400635225201233,-0.11922922187289434,-0.052451459217434285,-0.9222002723852962
331.0,-0.037114769311464825,-0.0021633278863806013,0.030080574552643798,1.6786272872158003,1.7855144949464388,9.487603502188865,-0.07088074199600555,0.4814564042042405,-0.056197169601968966,136.89548583792288,9.855036918235188,-10.64104581492465,0.3641337313518127,-0.11732615663806006,-0.04671995691516875,-0.922708284172487
332.0,-0.028120720611672617,-0.003999051826746557,0.0319490205572031,1.6794096310193871,1.7789090964110634,9.4885295245012,0.274335396114507,-0.9230011448687688,0.02878084084811071,136.9289830841857,9.858738954790294,-10.611725700538642,0.3638898420897537,-0.11704901600195687,-0.0469376285307551,-0.9228330394489499
333.0,-0.015210070810385522,-0.004226986624704958,0.02742446892210858,1.8183044846577494,1.8074024390243904,9.45690165224233,0.16872787175452397,-0.8076440794649882,0.09428599527930762,136.98162863886702,10.68752704563336,-10.814454661683712,0.3631549222781275,-0.12114165613414635,-0.0531044417848151,-0.9222446560420928
334.0,-0.012387096774193548,-0.007040322580645164,0.022782258064516135,1.9217258064516125,1.82091129032258,9.433870967741939,0.10126008064516129,-0.14682459677419352,0.22580645161290322,136.96895161290323,11.30015120967742,-10.914667338709679,0.3630583236048387,-0.12377850958870967,-0.05781259813709677,-0.9216571925080644
335.0,-0.013432533438237608,-0.012599134539732496,0.014996066089693158,1.9836870574350898,1.8409789535798584,9.418069236821399,-0.1474601691581432,-0.11374901652242327,-0.37132916994492526,137.12684156176238,11.6692355920535,-11.053254081431943,0.36163334486309995,-0.12588009712411485,-0.06060803718076317,-0.9217589640283241
336.0,-0.024520606196845374,-0.030494267730695745,0.02903720355175902,1.9630245963058703,-2.22949151399348,9.314675555430668,-0.12272922052377207,0.2467257221535349,-0.06723380540257017,137.3240174590686,11.542441096717996,-10.782731831422577,0.3601732522038234,-0.12325119498698062,-0.06060364883558128,-0.9227000796278333
337.0,-0.029615141808100105,-0.04948100483308981,0.02830085984039564,1.8386090723464834,-0.2525683376419019,9.403793422876621,-0.32426783606833764,0.9879797965606385,-0.26355641883031733,137.47970026179235,10.804562282229966,-10.53388103667903,0.359184521872073,-0.11899709398542581,-0.055435363579080965,-0.9239455302816586
338.0,-0.02210192574275973,-0.04170017983589974,0.02874317185568169,1.6776392135925964,0.7006997021467913,9.47180396950283,-0.1326228293244914,0.6932338498932225,0.6756310647783897,137.6370527518639,9.849408157244014,-10.180045357049192,0.35826441218603655,-0.11326006010561614,-0.04883463972905662,-0.9253768236126034
339.0,-0.017233965352769446,-0.036710098189248475,0.029300452759933482,1.5829913396333537,1.164064801445604,9.510601219656298,-0.061252352420723785,0.43515019107564346,0.4151857763925034,137.66156297642823,9.28750003602482,-9.921651348913347,0.3583060117470712,-0.10950453126827539,-0.045049063714507634,-0.9260295785507187
340.0,-0.039706675831380794,-0.029027747757094734,0.029882327088070593,1.549107786260422,1.4022645014309054,9.526854504399349,-0.10165784418833199,-0.1662024418343262,0.37606259708688894,137.6363971451771,9.085552732410521,-9.83476843606171,0.3586044807358487,-0.10821810200313847,-0.0436421920028085,-0.9261551019740218
341.0,-0.034897884766688855,-0.03478576327946903,0.04057249994956525,1.4694740160180757,1.6006022967984022,9.555742152353286,-0.24829435988218443,1.0757265440597954,0.5012705458552724,137.1794648936331,8.616192264822772,-9.503410523714418,0.3625344577749904,-0.10426804683720672,-0.04036001824487583,-0.9252138345822492
342.0,-0.04128361980269926,-0.023675139704250642,0.03970963707155682,1.3870999112348446,1.5824019548508144,9.571471882628254,0.008766126510520694,0.3273037962234461,0.17792861970182977,136.959666922623,8.13289451950816,-9.387289939276563,0.36444013133104347,-0.10192195091860337,-0.036589507553889525,-0.9248868464120924
343.0,-0.04325068086909156,-0.017627892432770482,0.03796772176158487,1.4167354394883902,1.589983235489924,9.565860941314128,0.027618950352034537,-0.393051730920535,0.12817801952833424,136.92869938873088,8.307147864592789,-9.433765937380217,0.3646201103187476,-0.10286032581817266,-0.03786146772452541,-0.9246703648995948
344.0,-0.047749409913453965,-0.014249016522423288,0.035669551534225026,1.464740755310779,1.5993489378442174,9.556589693154999,0.05556402439024391,-0.3624532848151062,0.11553648701809599,136.9028422501967,8.585449449252557,-9.495832513768686,0.36475170437608184,-0.10425288961959088,-0.039911500387490154,-0.924376904357986
345.0,-0.04265912667191188,-0.011314122738001572,0.037748229740361926,1.4294946892210856,1.6257248229740364,9.557378245476006,0.07031741738788355,0.33591045436664047,0.014421469315499605,136.9244246656176,8.374476298190402,-9.651338758851299,0.3645788791038552,-0.10483827406628637,-0.03774351242033831,-0.9244723995118017
346.0,-0.02537352478363493,-0.02388257277734068,0.03806726986624706,1.3757399685287175,1.6280851691581435,9.565147324940995,0.4253331530291109,0.22899906569630216,-0.15139530881195906,136.91043346774194,8.059731510621559,-9.654238788355626,0.364747693666011,-0.1039141064822974,-0.035122661692368204,-0.9246090350586151
347.0,-0.03810877261998427,-0.029083595594020458,0.03767309205350118,1.3492950432730133,1.6597313139260428,9.563315499606608,0.08602232494099134,0.42632892407553113,0.20217102675059012,136.8865878245476,7.906842545239968,-9.837572531471281,0.36491412496990555,-0.10494783239142408,-0.033275972460660885,-0.9244915507739968
348.0,-0.03950196695515342,-0.039892604248623134,0.028191384736428012,1.327018489378442,1.6692285601888277,9.564891620771046,-0.3133900472069237,0.3215061959087333,0.20471454563335956,136.64208423485445,7.775245869394178,-9.889073564122738,0.3668962972147914,-0.105022010929583,-0.03182213070613689,-0.9237493511249018
349.0,-0.028992918961447678,-0.031889850511408344,0.027881982690794654,1.3758882769472855,1.6447836349331235,9.562264358772618,0.5887686860739574,-0.6720594020456334,0.3458300550747443,136.23230723839495,8.069679386309991,-9.754819040125884,0.37018287125255694,-0.10498935256963021,-0.03425441852242328,-0.9223382426309992
350.0,-0.04304012588512981,-0.01490007867820614,0.028787568843430367,1.291838709677419,1.6563926042486226,9.57149409913454,-0.07461152635719909,1.0772177419354838,0.015248819826907956,136.11508162863885,7.568887686860739,-9.810370771046419,0.3712379968851298,-0.10387961730920535,-0.029867992712037758,-0.9221852515641227
351.0,-0.048695515342250195,-0.012147128245476002,0.029755704169944924,1.1745464201416205,1.6539280094413848,9.587190794649885,-0.223969807238395,0.31762145948072384,-0.05539191581431943,136.13835808418565,6.878783929976397,-9.776398996852873,0.3711979994693154,-0.1014551195003934,-0.024404001965774975,-0.9226294801998427
352.0,-0.04933595594020455,-0.02088552321007081,0.023566286388670334,1.2080041306058222,1.6483904405979544,9.583624508261213,0.020882916994492504,0.22989157159716755,-0.08549493509047992,136.1867636211644,7.073213758851298,-9.751933762785209,0.3707666696638473,-0.10185320001062156,-0.02614959100098347,-0.9227158622525571
353.0,-0.034071203776553885,-0.012999213217938631,0.021537175452399682,1.2366915814319432,1.6352234461054287,9.58280822187254,-0.11957366247049567,-0.5790310287175453,0.0966930566483084,136.26250983477576,7.237892161683714,-9.67553845397325,0.37014827069079465,-0.10173728454563337,-0.027821972262588514,-0.9229395236585366
354.0,-0.041268686073957506,-0.011281864673485444,0.030588512981904018,1.3138739181746657,1.5979028324154205,9.578214004720692,-0.050078678206136894,-0.4757621951219512,0.16657036782061369,136.23349478756882,7.695434205350118,-9.460755556648309,0.3703258848711644,-0.10145264491542094,-0.03216019102852084,-0.9227490023495281
355.0,-0.03851544311969173,-0.015330034900845283,0.029103189493433407,1.3741014545381187,1.5944218463152375,9.571563578042728,-0.0524225070104299,-0.5348129627388085,-0.033338187677782474,136.24780741239482,8.051595566281346,-9.448864776876679,0.37014365310193875,-0.10246813574948052,-0.03510872066200649,-0.9226167204747021
356.0,-0.035952450120034694,-0.026725599669148056,0.031084246202263518,1.407540892493292,1.565812024652505,9.57129870483568,-0.0013981142447900934,-0.07430557657003364,0.13544538295103795,136.10721900910852,8.247768672204401,-9.28105610991749,0.3712902080372007,-0.10177854871581028,-0.037104765845558704,-0.9221634748848727
357.0,-0.02321225967842805,-0.024464393068248304,0.032749833565333175,1.359079651596764,1.581688762129557,9.575531531804149,0.013364672224575843,-0.013709141550162385,-0.2084740778006415,136.2304615157659,7.9662937332304455,-9.36941340606024,0.3703432279682463,-0.10155620722139846,-0.0346138522587353,-0.9226665657145647
358.0,-0.02997056916333077,-0.022695714199254716,0.03154427162137626,1.3408902482254172,1.6045934210033344,9.574546487868277,0.1124751068496151,-0.09431976854773863,-0.15094042791721785,136.44998258199968,7.859007321684348,-9.504371161555465,0.3685292175555517,-0.10222421363335667,-0.033502697750143376,-0.9233623832845099
359.0,-0.02389559142666932,-0.02434785709962736,0.03113877625128609,1.3127645576296243,1.6041928552695668,9.579189845035632,0.03907586971119622,0.19657536356248,-0.1350492855557765,136.54122358840345,7.689825258009758,-9.500449742854837,0.36786573527974276,-0.10163633221872395,-0.032221427263742025,-0.9237401491615311
360.0,-0.025296017384136976,-0.0335494455059758,0.03241306058221873,1.2479397643400396,1.6223329867745677,9.584088719043867,0.21268826570754185,0.38439706970514403,-0.22501533756697012,136.71408263787418,7.305928964819602,-9.600219701865797,0.3665649076043049,-0.10122537508537521,-0.028933160526825517,-0.9244092596080609
361.0,-0.02647750177962609,-0.02354718819077592,0.03189547038327527,1.1931140833988985,1.654026900453336,9.585737139859873,0.19867324191675095,0.05580860589711886,0.027966121539095556,136.707700161103,6.985625772732382,-9.783374779888351,0.3666122691658237,-0.10170032083166611,-0.02572662805027912,-0.9244289072458507
362.0,-0.03659044247124499,-0.021104829343224312,0.03138833314600427,1.1637128245476003,1.6728513731220263,9.586900827994448,0.08146191600164848,0.05069639578884268,-0.1394148542579896,136.75653497433592,6.810451556704507,-9.884557177513017,0.3661884958378292,-0.10199954208774492,-0.024044512612865762,-0.924614132537166
363.0,-0.06576065902364092,-0.02742645461016823,0.006853920797272496,1.322209714885167,1.7436338278820585,9.55049342474991,0.2856426323479825,-0.8859901277584205,-0.029984884886291266,137.0212446377056,7.75272001798359,-10.337511883687384,0.3637120185218332,-0.10842058614371886,-0.030612477059121054,-0.9246056456887061
364.0,-0.06948113596343336,-0.0487858079502454,0.00357212168895882,1.4487177606683903,1.8000346558765135,9.520416067213663,0.5683253484320557,-1.681049499363081,-0.5108341763141134,137.18612635111086,8.505543476733731,-10.70038396603724,0.36209206272462635,-0.11357613790250459,-0.03584695612633472,-0.924409908904837
365.0,-0.05895024540107151,-0.05378000074931624,0.015052189876737475,1.7781854932374208,1.8913882956801915,9.441816904574573,0.31606791615151175,-1.779864467423476,-0.9052154752538308,138.1161730545877,10.463784843205575,-11.32370508785733,0.3538655749913454,-0.12387761745528458,-0.051077848934135084,-0.9253941107911282
366.0,-0.08000929152148664,-0.055613165486493574,0.018852384698962193,1.9281475778352255,1.9505844666741599,9.402787643775056,0.28730915851785244,-0.5845144430706979,-0.7175688902626353,139.1439160203814,11.349331937731819,-11.719460913791167,0.3451975959252932,-0.12912023031628642,-0.058357713831179034,-0.9275797932493349
367.0,-0.055885841669476605,-0.049281799108313665,0.022899835150425228,1.9298605709789816,1.9317202427784645,9.409316717245513,-0.2114299998126709,0.10905080364167702,-0.03349923663407134,139.44826111797983,11.353117975160167,-11.595863423063953,0.34280992955194634,-0.12807290982769473,-0.05900838497223783,-0.9286818120613316
368.0,-0.04872305271439811,-0.042734264358772624,0.02719492525570416,1.9181229346970892,1.8769256490952009,9.424188630999211,-0.34871533241542096,0.1287445908733281,0.01745549763965385,139.56523160896933,11.282667437057436,-11.260979297797011,0.3420339382596381,-0.12514276478206138,-0.059482362649095205,-0.9293769172812745
369.0,-0.05090302911093627,-0.032595003933910315,0.028809402045633356,1.8823438237608188,1.8481290322580648,9.437277930763178,-0.23248549370574348,0.1988173682140047,-0.13858674272226593,139.61249262391817,11.066435139653816,-11.07282774390244,0.34173675523131397,-0.12302388925904803,-0.0582859703729347,-0.9298664307199057
370.0,-0.04331235247836349,-0.014476789929189618,0.02328874901652242,1.8521557828481514,1.775594020456334,9.329866247049566,-0.08202202989771831,0.32361329661683713,0.07626868607395751,139.58433320220297,10.886359166011015,-10.892456726986623,0.3420759749645948,-0.1210777587254131,-0.057283871487018086,-0.9300638436585367
