time,linaccel_x,linaccel_y,linaccel_z,gravity_x,gravity_y,gravity_z,gyro_x,gyro_y,gyro_z,euler_x,euler_y,euler_z,quaternion_w,quaternion_y,quaternion_x,quaternion_z
0.0,-0.0980487804878049,-0.1358536585365854,0.0036585365853658534,0.5024390243902439,1.08780487804878,9.72975609756098,-0.3628048780487805,-0.10060975609756098,0.32164634146341464,268.5198170731707,2.9435975609756095,-6.362804878048781,0.6968115812195121,0.021788062439024394,0.057454923658536605,0.7146189599999999
1.0,-0.11157181571815719,-0.15131629887727452,0.005346496322106077,0.506368563685637,1.0653000387146723,9.729918699186996,-0.11101432442895856,-0.18333817266744096,0.2857868757259001,268.47882791327913,2.967310298102981,-6.229069879984515,0.6966017745334883,0.020841556527293845,0.0567899869337979,0.7148996109523812
2.0,0.05434378629500575,-0.029309772689563654,-0.00927658868425419,0.2652380952380954,0.9804595984735356,9.725226480836238,-2.654720424755268,8.836931723909075,9.497915629666501,266.9639227642276,1.5182200929152148,-5.732319147171063,0.6866149234411814,0.026150390009955206,0.04374817084619213,0.7235904012095569
3.0,-0.12769382996155543,-0.09901122725512967,-0.015987989448000794,-0.05743152454780348,0.9031912234736963,9.734470032142177,-0.3698772834904428,-1.202455117989718,4.139337371363746,259.1862647318334,-0.33335775508917886,-5.289035757051923,0.6349831912492954,0.036004387524025606,0.026538633402641607,0.7673471230450802
4.0,-0.11401467962809515,-0.09558914990071557,-0.005524142359631721,-0.24763583753081125,0.866643986780667,9.745557696044218,-0.12828163486864752,0.8267690289297065,2.1119681597228572,255.67691765057987,-1.4508566710492952,-5.073803784134187,0.6117994223710108,0.041950298110703624,0.0166725194498189,0.7872428662353306
5.0,-0.1066701475020323,-0.0964789629463115,-0.0008548739972449554,-0.4289417432755401,0.8294173064171968,9.748105362577576,-0.0475364376808488,0.3312898945555205,1.0776779560743843,253.6165570138179,-2.502552412929016,-4.856703042267536,0.5980874828555438,0.04675015118191133,0.0075528266397871255,0.7987889886937023
6.0,-0.1134878406012653,-0.09917537746806039,0.00010214226030375224,-0.518373966313878,0.8157724012884753,9.749375261933949,0.06096422842644457,0.32583880944103627,0.6092629973695514,252.53731404323207,-3.031034598806496,-4.780574063376472,0.5908854397917337,0.04937686141061398,0.0031716075836903477,0.8048153610842345
7.0,-0.13654329087498357,-0.10358847551609157,-6.970383710909423e-08,-0.5714843867761363,0.8233740055222869,9.749766309173111,0.2346766460778958,-0.17291360078695628,0.028200538810660848,252.02753290674582,-3.340728747082241,-4.822328731137488,0.587455508050863,0.05149931165731328,0.0010671489531354967,0.8075947263603703
8.0,-0.13791521486643438,-0.10548424562586639,0.002744370761679967,-0.595352553295118,0.8254640140871453,9.750003184594057,0.09577900790528643,-0.07801318796598103,0.165369412910719,251.98874152335992,-3.4783529560526016,-4.8380142182758235,0.5871627367284855,0.052325984684163204,0.00014863941216140272,0.8077762406779438
9.0,-0.12296673035854783,-0.08851410587838597,0.0019324866059720505,-0.5916715372222846,0.8178745644599301,9.749905586152636,0.27132507212168894,-0.3253542860889438,0.07612936008392343,251.97947575961933,-3.457335806076955,-4.793612547300588,0.5870613452167397,0.051871989855569296,3.6805724026825735e-05,0.8078789255692931
10.0,-0.130462627852085,-0.08447364280094415,-0.00038552321007081017,-0.572102281667978,0.8243981117230521,9.749952793076318,0.11677812745869393,-0.2173190401258851,0.11222462627852085,251.98350708103854,-3.344777734067663,-4.837234461054289,0.5870286790354053,0.05158438835405192,0.0010416799464988205,0.8079099714712822
11.0,-0.14033359559402048,-0.09129661683713612,3.93391030684502e-05,-0.5451974822974037,0.8275216365066869,9.749976396538159,0.12575727773406764,-0.26146734854445314,0.1544846577498033,251.9919256490952,-3.1886900078678204,-4.858133359559401,0.5870734155483872,0.0509339478867034,0.0022700175892997644,0.8079173662627848
12.0,-0.15795672698662475,-0.09134697088906374,-0.0015169158143194335,-0.5106239181746658,0.8346372934697087,9.75,0.2176681746656176,-0.2700383556254917,0.08728855232100707,251.9707218725413,-2.9859116837136113,-4.890686467348544,0.5870443730228169,0.050150268728560196,0.003916512520062943,0.8079900813296614
13.0,-0.1467218725413061,-0.07991502753737215,-0.0017364280094413847,-0.5022395751376869,0.8354508261211641,9.75,0.20868656569630212,-0.3778299567269866,0.1666133949645948,251.94804779701022,-2.935471577498033,-4.895259638080252,0.5868674054382377,0.049951402436664044,0.004273596851691581,0.8081285078646734
14.0,-0.1398802124311566,-0.07724468922108577,-0.0010169158143194332,-0.4668790322580644,0.8469677419354835,9.750903225806452,0.26021464398111727,-0.43376155586152637,0.13663085169158143,251.86058467741935,-2.728106559795436,-4.964516129032258,0.5862788640236034,0.049369643442564906,0.006060167351888277,0.8085744548387097
15.0,-0.15441767031814238,-0.08588495834089854,0.0004582501159999193,-0.42858560794044664,0.8638933002481388,9.750451612903227,0.12903269936855696,-0.249003787649539,0.1726714277068329,251.757573407775,-2.5095447759688514,-5.064505789909016,0.5855866268852508,0.04895520913877624,0.008088368482912707,0.8090860397105049
16.0,-0.16468326474207673,-0.08680164518146422,0.0011024531461195507,-0.3864249833565333,0.867465926284573,9.754883556254914,0.16146265180859004,-0.2740888332425508,0.16029322762210252,251.64511243166092,-2.2615583832637336,-5.0783288194234295,0.584789462333263,0.047807511969073416,0.009870112180087353,0.8097058869677621
17.0,-0.14881340656458675,-0.07301775807460308,0.000857678185963001,-0.38650281425891186,0.8737087695938994,9.752699842643587,0.18221822106558533,-0.30518957791159795,0.14758612994008352,251.57739492550786,-2.2589041916318666,-5.107359974227844,0.5842939371827605,0.04806243068614961,0.010013649198914645,0.8100460494193649
18.0,-0.1527836702374468,-0.07189056668482317,0.0009606054187092735,-0.34220597046541196,0.8730321975428191,9.756259441384731,0.15407380368778872,-0.34784766562771086,0.17681357047751617,251.47516911401277,-1.996031069065343,-5.112753182432568,0.5835967194707077,0.04677070680894814,0.011827460887026166,0.8106015802629867
19.0,-0.14290393189291695,-0.06184044463273418,0.0002262704512901205,-0.3500021787810931,0.8642419052230226,9.758262785208494,0.05420424055357177,-0.2103905666848232,0.19238864007746775,251.40807346829672,-2.040782671629446,-5.054360462184026,0.5830826872434185,0.04661432512624826,0.011185765653190502,0.8109947546798802
20.0,-0.1397108575924469,-0.05907985837922897,-0.0019803304484657747,-0.35249488591660105,0.8514881982690795,9.759292682926823,0.05134736428009441,-0.18639358772619985,0.15415027537372147,251.34814860346185,-2.058770161290323,-4.960156864673486,0.5826467499169947,0.04610527780133753,0.010651329566876477,0.8113540071372929
21.0,-0.15252261998426436,-0.05329681353265147,-0.002150668764752163,-0.33488630999213226,0.8452641620771048,9.759662077104636,0.12643095987411487,-0.17098987018095987,0.11321793863099922,251.32653791306058,-1.9570503048780488,-4.939362460660897,0.5824871226689614,0.04533772249232887,0.011152626282258063,0.8114976677621948
22.0,-0.1518929976396538,-0.048713611329661705,-0.0030975609756097562,-0.3435684500393392,0.8347057435090481,9.759984264358767,0.06696990558615264,-0.0572851101494886,0.16464152242328872,251.30352822580645,-2.007946498819827,-4.88183025177026,0.5823712065220297,0.04519277337568843,0.010490556307631786,0.8115946096156569
23.0,-0.13720759806676408,-0.03697941253606086,-0.003162058371735791,-0.3733302517702597,0.8213654602675058,9.759999999999994,0.1596838587913529,-0.11907331825334383,0.13504452577647896,251.2745021144768,-2.176656691394103,-4.787046546588738,0.5822738167005641,0.0454601622440242,0.008816870488123338,0.8116653999651848
24.0,-0.14450741823086435,-0.0316161814843955,-0.0027059308381102245,-0.39007572777340677,0.8100393391030682,9.759999999999994,0.06308715952942939,-0.08726150668764752,0.07995649282529692,251.26134933123527,-2.2802638295680193,-4.7189080588962575,0.5822337048523474,0.04552384568780674,0.007794199110505412,0.8116984669158144
25.0,-0.1379729514260098,-0.02676364213004472,-0.0017685693200303562,-0.3315274550344903,0.827060179679066,9.759999999999994,0.33611386296051365,-0.29387339212851993,0.10858055323935513,251.26462065211427,-1.9339698273871604,-4.832212844151804,0.5822146431155959,0.044510818731093915,0.01078610781275458,0.8117313285329262
26.0,-0.1366072092936126,-0.02439227402669484,-0.001217543061723619,-0.37912459822272637,0.8485224093479815,9.754961597542238,0.13639363673671032,0.15057580815064395,0.05538966405364407,251.256302261541,-2.212693907361858,-4.94959383356292,0.5820557750040907,0.04676928996087873,0.009429488903567353,0.811742440142414
27.0,-0.14757189732973314,-0.03665325739100282,0.0002094818129619511,-0.4044128105197031,0.8559449182853204,9.75231950844854,0.21038308902138428,-0.1457240943511139,0.14620388002052775,251.25096289316235,-2.368074923783211,-5.014455650062341,0.5819683813454758,0.04796558189231977,0.0086544661787703,0.811760004071994
28.0,-0.13228798488820812,-0.04454318283403605,-0.000805575958449543,-0.32946822071371507,0.8927474028785941,9.752318793984209,0.33749236525159165,-0.6324785137922111,0.1261135187978179,251.1874656926427,-1.9259439206491518,-5.227283955135125,0.5815142627157487,0.04723885329710477,0.01282798755773438,0.8120540132513008
29.0,-0.1178355738760474,-0.04751549385604242,-0.0008709233057393271,-0.32889618746149957,0.9109449052158511,9.750998106669524,0.23065609607976909,-0.6465647879739969,0.16012599622030943,251.15419213034966,-1.9230919445889345,-5.3299578705652015,0.5812397432540191,0.047973871141077956,0.01337627578122754,0.812198947778286
30.0,-0.11795604650291494,-0.042870275060054225,-0.00042045790193192905,-0.27755161961222014,0.9261183640857951,9.750337763012181,0.17514143888759648,-0.2605432717064283,0.06334319315891691,251.1372751724516,-1.623591171094167,-5.418312581194079,0.5811752284169571,0.04703519790962374,0.015893951339976113,0.8122582312859921
31.0,-0.1329419062082594,-0.04422933782226046,5.306204599930472e-05,-0.24234911166816095,0.927405778273837,9.752682743856692,0.12779787934788575,-0.4809516403491117,0.17558070920169067,251.07640705908182,-1.4163035423490018,-5.433954677693814,0.5807960976365069,0.04601517757532064,0.017389275191736962,0.8125610380374364
32.0,-0.13565978079885826,-0.03732788684976124,-0.001674491793680127,-0.2077016998151977,0.9287642581377051,9.75430911386383,0.23444870363932446,-0.2658495416537061,0.06623744350721826,251.0543817356778,-1.2152623140541232,-5.435983043016852,0.5806117939512199,0.045095015980421926,0.018864573876749675,0.8127084100163577
33.0,-0.13961683713611334,-0.04066994492525572,-0.0011943351691581431,-0.22625295043273014,0.9294496459480723,9.752113296616837,0.06467840283241541,-0.05082612116443745,0.0814073564122738,251.05738591660108,-1.324402537372148,-5.437069728560188,0.5805490581046424,0.04566206228953579,0.018108725416994487,0.8127329829339102
34.0,-0.17676199842643592,-0.0405647128245476,0.008966955153422506,0.026659520062942588,1.014319630212431,9.739314712824545,1.2538085169158142,-3.676352281667978,0.1868484461054288,251.1299026357199,0.16819310582218705,-5.940977822580645,0.5809082210334384,0.04152229633831628,0.03148248241660109,0.8120467762159715
35.0,-0.16879858379228957,-0.07959480723839496,0.008889457120377657,0.31220377655389453,1.0602722265932336,9.728292289535798,-0.2139727576711251,-0.3025177025963808,-0.07842741935483871,251.13846626671912,1.825499114870181,-6.209256982690794,0.5808155767580645,0.03489479769866246,0.044709740585365844,0.8117572127785208
36.0,-0.15776121164437454,-0.07920259638080251,0.006888473642800945,0.23490676632572774,1.007961447678993,9.73906746656176,0.13371975806451614,0.13118607395751386,-0.09371311959087333,251.19789658733282,1.3707894866247048,-5.900797846184107,0.5814817748101886,0.034982213006687635,0.04001103497482297,0.8116594325167186
37.0,-0.16148524783634938,-0.08290932336742722,0.005007277734067664,0.13573072383949644,0.9773214004720692,9.745448072383947,-0.017287077104642,0.35849724626278523,-0.021125098347757672,251.24308615263573,0.7906262293469708,-5.711024783634933,0.5819022701125097,0.03663549020830055,0.03498446416207711,0.8115774063481507
38.0,-0.15044020456333598,-0.07970869394177814,0.0061286388670338315,0.037369394177812716,0.9384348937844214,9.752885326514551,0.30809033241542094,-0.2001868607395751,-0.12099601691581433,251.21730920535012,0.21605404209284026,-5.482326907946499,0.5817921197981903,0.038048295051730914,0.029555167000393397,0.8118418151095592
39.0,-0.15293093177475556,-0.07913564497396128,0.003503259525682814,-0.04155378217376646,0.9234657187816115,9.756970889063725,0.2932336742722266,0.08651851279457497,-0.1819037784271852,251.24751788992543,-0.24029647165711288,-5.394264452437151,0.5820658971759767,0.03981516275263197,0.02576154600288487,0.8117222696805475
40.0,-0.1509343879959537,-0.07357254317934886,0.00022920647409239037,-0.11245667078790605,0.9020711756771944,9.75915814319433,0.30028520849724627,-0.04097559804803117,-0.2035846586864486,251.33146940916413,-0.6593398172604998,-5.274507324566333,0.5826672325848412,0.04110073087670938,0.02216604041686336,0.8113544148835468
41.0,-0.14953651043422878,-0.07768277696601851,-0.0004535611254730061,-0.12334507886553522,0.9168652729384438,9.75703682889363,0.5166220589337229,-0.5151558577797759,-0.18701938387471434,251.49810797647146,-0.7227706670787906,-5.364336995616499,0.5837905494729121,0.04203257358716421,0.022191162095144427,0.8105031117184631
42.0,-0.15051925742759734,-0.0796229253306358,-2.8211756771945556e-05,-0.1270372691169308,0.9242789891723802,9.758279569892467,0.37136880174965337,-0.37806681091004457,-0.1472918657037953,251.60013675021543,-0.7450914517065679,-5.406527832415421,0.5845332341371905,0.042456844825315664,0.02233618205315462,0.809941239090471
43.0,-0.1635210370536885,-0.08240174590685999,0.0023906934921883783,-0.1457779775954442,0.9147750177962608,9.759139784946232,0.3213852515829305,-0.3519046682402308,-0.11902420291484021,251.63614725000934,-0.8548117811247238,-5.353289732494099,0.5847782831776629,0.04259384778146193,0.021259497743434115,0.8097883143254283
44.0,-0.1524671237495785,-0.08357798508860664,0.003998726162376831,-0.19353415008804464,0.9108437300962868,9.759569892473113,0.33948006818777865,-0.11753259525682816,-0.14649366827769658,251.7153230489678,-1.1308189089955416,-5.330134689595743,0.5853774628829944,0.043823420561237884,0.019183203103667897,0.809341370081301
45.0,-0.15210557865947327,-0.07765707541868044,0.0011824210408002698,-0.20626409651193284,0.9067284852572026,9.759784946236554,0.44609489153647297,-0.37637569780075686,-0.17554957663631937,251.79733337079915,-1.2061532913716233,-5.303241261099247,0.5858998185656215,0.044021355517028224,0.018572705014611668,0.8089729636362445
46.0,-0.15800719343598968,-0.07729103443108162,0.00035480124386497354,-0.1980397886928178,0.9179481847813867,9.757711026188598,0.38209040500543257,-0.34530014798995917,-0.1810500262260687,251.87753245476003,-1.1561294069161887,-5.368461044921509,0.5864690511228505,0.044219647705780976,0.01927355799745232,0.8085340370182834
47.0,-0.16354014461803607,-0.07182083848488255,-0.00045970551871417315,-0.18662245700798022,0.9136169495335502,9.758867033831624,0.38428449664680975,-0.5869511258476641,-0.12270053576111797,251.94378254842456,-1.089370012363718,-5.338248379603611,0.5869169592304524,0.04367389785433292,0.019627047817616424,0.8082289672571278
48.0,-0.15547974972837286,-0.06412442396313364,-0.00043441609531302665,-0.17165111835450153,0.9156637068674834,9.759055861526353,0.4834237196058596,-0.5822737533250908,-0.21010125135813568,252.02305669514067,-1.0014857536248174,-5.355493190588588,0.5874832431439437,0.04329981063448353,0.02035661494342662,0.8078201201234496
49.0,-0.15364463676894835,-0.06786021505376345,0.0007267243640178339,-0.14574260986849502,0.9232005170282117,9.759527930763173,0.33272568468772246,-0.5180329980143119,-0.11189586377430594,252.07962070548123,-0.8461873852609494,-5.398584728934846,0.5879259937632163,0.0428858973272264,0.021723087980929902,0.8074856279795437
50.0,-0.16022974036191973,-0.07318332022029898,0.0020267505900865455,-0.11934539732494098,0.9280566483084186,9.759763965381584,0.43061565696302123,-0.6149095200629425,-0.15491738788355625,252.1277537372148,-0.692918961447679,-5.427763571990559,0.58824941218096,0.04228516622187255,0.022952752558615265,0.8072438411298192
51.0,-0.14828146623898,-0.06763969416369103,9.485767314248842e-05,-0.10838883172950836,0.9307605559926567,9.759952793076312,0.39442242127135907,-0.5750230738969921,-0.1613077225685408,252.1929179527527,-0.6315355867578527,-5.443433648046158,0.5886745340707701,0.04203174581908048,0.023491170515927293,0.806932498506163
52.0,-0.13645465916197624,-0.059451633077124824,0.0005832274203635339,-0.11190960075853858,0.9234770521898767,9.759976396538153,0.3934838306199439,-0.348649420504751,-0.11749984869575743,252.25774929895698,-0.6542561883435212,-5.402966824023078,0.5891419257560774,0.041816640138493816,0.023118643975508883,0.8066138851271962
53.0,-0.13116989449050817,-0.05095713046460491,-0.0004597631584256288,-0.12794929290483964,0.9198935221610283,9.759999999999994,0.44713530634065646,-0.33035342779761545,-0.1626297433880046,252.30840848110714,-0.7451060642740421,-5.378829006031996,0.5894772529331136,0.04212077294886924,0.022369027369343746,0.8063754780592709
54.0,-0.1550375436260566,-0.0588098004801388,0.0006190562650043376,-0.096978777058242,0.9421930238657226,9.754964594807234,0.4030768978595493,-0.54209510984688,-0.10540269624160262,252.34573649861807,-0.5671979967318284,-5.497857658012064,0.5897285834348889,0.042063633211846106,0.02429635520355464,0.806130859937582
55.0,-0.1497374972260889,-0.06351583651072243,0.0013913534668845446,-0.07386704391857814,0.940722790453711,9.755845790715966,0.2693246409045976,-0.4452951945772559,-0.03927687919869273,252.38655333978897,-0.431882829994553,-5.49342135457645,0.590031388314612,0.04132322076800016,0.02522720435236741,0.8059226722661947
56.0,-0.14307092278296057,-0.0634369918699187,0.0009704020081675474,-0.09000158293057584,0.9381340526769322,9.75669401670975,0.3977154635457645,-0.41150645348619386,-0.13136374386497318,252.4419584316811,-0.5229173691506501,-5.482789786351205,0.5904239250127947,0.04169435163296617,0.024527318227820245,0.8056406530532201
57.0,-0.14485804203664154,-0.07101285077366903,-0.0013373796410775167,-0.08452901727173953,0.9517121876287884,9.753185718032295,0.41269341725675324,-0.6106927428721292,-0.053207073545389824,252.4861001835825,-0.48988610393016374,-5.570250739949795,0.5907325968531716,0.04208822250196695,0.025200651601813347,0.8053704154701588
58.0,-0.15152760664033604,-0.07466401966345244,-0.0024455364712258204,-0.053499024581929455,0.9602811939918776,9.751431568693565,0.4075353442019041,-0.6190128215851871,-0.13648885871293606,252.53296898919854,-0.3116903028021814,-5.617731196736466,0.5910493249784675,0.04149304716795052,0.026746497512066175,0.8051206519190216
59.0,-0.1539980395795813,-0.07926487109582275,-0.0005129784188207334,-0.04163130765269715,0.9654925883038704,9.750711850436478,0.3493691857197749,-0.2859872470295274,-0.13123031411162894,252.58301675266375,-0.24080122273599758,-5.646932502942809,0.5913932516033544,0.041316836218009204,0.02740763204384546,0.8048578213148743
60.0,-0.14753084699746366,-0.07674513271174938,-0.0015207730504054585,-0.04197072482406318,0.9566944414675096,9.75344086021505,0.33973437555817526,-0.5204476342299861,-0.10971358911156359,252.63190518611793,-0.24144328492837494,-5.595936372485978,0.591730585996874,0.04096335416479118,0.027155892916943522,0.8046376623435859
61.0,-0.1566633104269099,-0.07423540401650935,-0.0013974926658493893,-0.0205353043400223,0.952574394687522,9.755625866396908,0.4266122048260323,-0.5428044388601505,-0.14333406685730665,252.6684022717896,-0.11555370195989763,-5.574388023454034,0.5920224712010147,0.04007754202535388,0.028010297166481953,0.8044374961939915
62.0,-0.15623488101990657,-0.06928302458889984,-0.001158423752279533,-0.025876523137753092,0.9519686489566643,9.753329062230712,0.3354583201549516,-0.36432056620426884,-0.18411663020284685,252.71285536976575,-0.1454532622702714,-5.570283729468953,0.5923156059593783,0.040245345351386616,0.0277535389461442,0.8042181412340924
63.0,-0.14708456033869094,-0.06776284140721592,-0.001026488329399423,-0.017423925667828116,0.944286613465213,9.756699936308117,0.3673253624817354,-0.48690967929264545,-0.0743562905099097,252.75946480086918,-0.09775556367314825,-5.5247656045108835,0.5926510145294668,0.03965658078494623,0.02789476451204526,0.8039974179743732
64.0,-0.1382303772807313,-0.06174268480011991,0.00021902513956015138,-0.01526229815293545,0.9497084035817316,9.756119441010075,0.5683914990071559,-0.6191099059608107,0.052146791053164,252.7709106065715,-0.08693426623206324,-5.554421200029973,0.5927797941387734,0.03981501072432655,0.028170972208722035,0.8038853478358621
65.0,-0.14025727773406765,-0.07122541306058222,0.0015672698662470494,0.008798190401258859,0.9664087332808808,9.752959874114868,0.2579956726986624,-0.509674960660897,-0.04352625885129818,252.75928402832415,0.05240460267505901,-5.657966168371361,0.5926644648013375,0.039673684178599525,0.029862108544453182,0.8039097169079463
66.0,-0.16888867033831628,-0.09213749016522424,0.0035129819040125884,0.05282553107789141,0.974493902439024,9.751354051927617,0.37635719905586146,-0.4482334284028324,-0.12453161880409125,252.78773603461838,0.3045756294256491,-5.708010424862313,0.5929019746327695,0.03860930226396539,0.031985515128245476,0.803703595966168
67.0,-0.16658143194335168,-0.08786309992132178,0.0020306845003933913,0.052231313926042494,0.9712509834775767,9.751564122738,0.35108182533438237,-0.5458153029110936,-0.100698269079465,252.83257769472854,0.30122934697088904,-5.684347954366641,0.5931514701510621,0.03841458614004721,0.03190991401573563,0.8035335132250195
68.0,-0.16079819040125887,-0.08376081825334382,0.0005149488591660111,0.06678520849724628,0.9556648308418567,9.75565696302124,0.3231313926042486,-0.5042019079464988,-0.10401750590086546,252.86953432336742,0.3901848937844217,-5.592419846577498,0.5934292388709679,0.03730023139732493,0.03209563875688434,0.8033748783245473
69.0,-0.1701693548387097,-0.07606451612903226,-0.0006693548387096773,0.06819354838709676,0.947709677419355,9.756096774193544,0.36955645161290324,-0.32585685483870963,-0.19344758064516127,252.90609879032257,0.39475806451612905,-5.544808467741936,0.593661301370968,0.03689181451612902,0.031900959193548385,0.8032295984919353
70.0,-0.15901861042183624,-0.06584884201819685,-0.0013054177005789908,0.057955541770057906,0.932854838709678,9.758209677419348,0.3276998035566584,-0.5218918010752689,-0.11849281430934656,252.93317049214224,0.33098247518610424,-5.453780241935483,0.593924803344086,0.03655467535545906,0.03102206347022332,0.8030867658672456
71.0,-0.16588833746898263,-0.06505748552522747,-0.0003502894954507858,0.07482051282051282,0.9236290322580647,9.759266129032252,0.3494093775847808,-0.3901041666666667,-0.15352564102564104,252.9696094396195,0.4366353908188586,-5.397832661290322,0.5941327820913976,0.03564279898014888,0.0314643660093052,0.8029537893449132
72.0,-0.15280884221993585,-0.05296816054388833,-0.0023232564707781067,0.056509784341019595,0.9162647521636506,9.759766129032252,0.3882133679820049,-0.4162097593758196,-0.13131386299905184,253.01123629435733,0.32311891000423654,-5.3558910306845,0.5944291958010097,0.0359421330050233,0.0304894301910216,0.8027606052472005
73.0,-0.15920280820674212,-0.054496177046137725,-0.0007584024289374407,0.07498876313825176,0.9126485051140831,9.759887096774188,0.26832543399100245,-0.5263760490427485,-0.06560652827371946,253.03943871169477,0.4363578420988924,-5.331171321793862,0.5946655932271177,0.03527908618799552,0.031220641583414026,0.8025897823332775
74.0,-0.1467765193107443,-0.05023733583489683,-0.0019485176507206404,0.07254276866590006,0.9061666104679478,9.759999999999994,0.2140722312044106,-0.11458731407590572,-0.11909838702472454,253.05298548487963,0.4231928419403832,-5.2980741401596045,0.5948315394169383,0.0350579761867397,0.030918341007720833,0.8024940632351869
75.0,-0.12114437450826121,-0.03637472368963322,-0.002051300063691881,0.04411257539994755,0.8975994342662321,9.759999999999994,0.08185296541905512,0.007126465849911952,-0.05879960707729196,253.059500393391,0.2595588751826458,-5.239762876531415,0.5949460781493292,0.035552587390309476,0.02950678363631936,0.8024453210510092
76.0,-0.10535837922895358,-0.040289741860552265,-0.0017930575849537298,0.027751901389981647,0.8933722977782774,9.759999999999994,0.019142454385373358,0.10929198980929902,-0.015335459518189648,253.06200826121162,0.15407932449140158,-5.210934865685061,0.5949868418922296,0.035921490396275915,0.02863877495978045,0.8024305909045366
77.0,-0.10341089693154998,-0.04111654677606686,-0.002592044134727061,0.0019247311827956994,0.891351766513057,9.759999999999994,0.09872346952156157,0.29082813495185644,-0.16406525139560152,253.06249999999997,0.007532384511633128,-5.197004608294931,0.5949849417604344,0.036763510552189876,0.027368904840236408,0.8024272542956985
78.0,-0.11185680566483086,-0.04154696339590126,-0.00307051065902364,-0.023196957776029387,0.8903533026113675,9.759999999999994,0.06734831029185867,0.06432879997002734,-0.021400003746581242,253.06249999999997,-0.1301527200179836,-5.190236175115206,0.5949664828696939,0.037553612715709415,0.02623311703233299,0.8024410417833723
79.0,-0.12122333370799145,-0.05537563223558504,-0.0021304934247499156,-0.009888801468659855,0.8921935483870966,9.759999999999994,0.11483294930875576,-0.2223958918736653,0.1332612116443745,253.06249999999997,-0.05312839533925293,-5.210887096774194,0.5948679275216366,0.03713099776108052,0.026856439382525944,0.8025203146981377
80.0,-0.14175452399685287,-0.05324311565696305,-0.0014177812745869392,0.015431943351691589,0.8962580645161285,9.759999999999994,0.1814516129032258,-0.0959185680566483,0.11743705743509048,253.06249999999997,0.08148111723052713,-5.231451612903225,0.594792321502754,0.03634805475688434,0.0280296208072384,0.8025694949834774
81.0,-0.13984185680566485,-0.04886546026750593,-0.0009433516915814319,0.014588512981904018,0.8888709677419351,9.759999999999994,0.13234657749803302,-0.1785503540519276,0.21482592446892207,253.06249999999997,0.08164339103068449,-5.195766129032258,0.5947840918811961,0.03607797336270652,0.027853304741935484,0.8025938507175452
82.0,-0.13665184893784424,-0.04388512981904015,-0.0010617623918174667,0.019648308418568065,0.8791129032258063,9.759999999999994,0.21156077891424074,-0.27304287962234464,0.20590332415420926,253.06249999999997,0.11466119197482297,-5.137600806451612,0.5947505526896149,0.035580624219512205,0.02777120780212431,0.8026430463910303
83.0,-0.14868548387096775,-0.03338709677419356,-0.001637096774193548,0.026403225806451623,0.874233870967742,9.759999999999994,0.20433467741935485,-0.15383064516129033,0.1704133064516129,253.06249999999997,0.15720766129032257,-5.121421370967742,0.5947436902338712,0.035160581274193546,0.02799111697580645,0.8026577847258061
84.0,-0.14091873449131515,-0.020485318444995872,-0.0041069065343258895,-0.0017092638544251443,0.8706670802315966,9.759999999999994,0.22692436931348223,0.004511734904880063,0.09237618899917285,253.02197063689,-0.006343052109181152,-5.086732320099255,0.5945792525202649,0.03597031156079404,0.026510993212985938,0.8027888118213402
85.0,-0.1281327543424318,-0.006464433416046323,0.0029909015715467316,-0.05014495450785773,0.8716561207609597,9.759999999999994,0.25396117659222495,0.013016956162117453,0.0881487799834574,253.017235318445,-0.2920828163771712,-5.084495192307692,0.594618255034326,0.03757020485297767,0.024466744267783287,0.8027604120397025
86.0,-0.1106389578163772,-0.012966087675765101,0.0012454507857733658,-0.06877812241521919,0.8809611248966089,9.759999999999994,0.1990824028122415,-0.18386450578990904,0.14402398676592224,253.0640612076096,-0.3965454404466501,-5.141264733250621,0.5948305821461956,0.03854503818858561,0.023967110645988422,0.8025658626004963
87.0,-0.11150496277915635,-0.015660463192721262,-0.0005184036393713813,-0.08018341604631929,0.8914805624483042,9.759999999999994,0.20619442721257236,0.04181270678246485,0.10376602564102563,253.07779673283704,-0.46583824441687344,-5.21445797146402,0.5949227187787429,0.03932269170719603,0.023765211726220016,0.8024642806228286
88.0,-0.11423418870665135,-0.02482334725332366,-0.002740614093485848,-0.09547359236619661,0.9016372127741128,9.759999999999994,0.16293998012870947,-0.10041482579838204,0.10951111077487946,253.0599201996207,-0.5561384131211039,-5.277008563820129,0.5947890266570741,0.04022097382055318,0.023426708812362564,0.8025312833995342
89.0,-0.10879557716084073,-0.028234077029710404,-0.003110233786669664,-0.12702782773219437,0.9048993106290508,9.759999999999994,0.16735117876812408,-0.12777668502491477,0.10278078284815106,253.064780789873,-0.741638567307332,-5.299632132554044,0.5948856483982523,0.04133097087518265,0.02223729568468772,0.802436488105888
90.0,-0.11445020793525909,-0.03145604323554758,-0.002719455996403282,-0.12103387846090446,0.9079124798621254,9.759999999999994,0.21921170759806677,-0.15786823039601364,0.03744099134539733,253.09667970945264,-0.7057216735041774,-5.309695098535086,0.5950538244692876,0.0411925795440036,0.022551482019369823,0.8023081593002884
91.0,-0.1118606646435128,-0.025846877224532626,-0.004792523697126372,-0.1290812633471957,0.9119823536023377,9.759999999999994,0.20178255310778914,-0.030617822955303284,0.06152723530403507,253.11109187085538,-0.7506034922820426,-5.341380287362782,0.5951747406964332,0.04162737312952869,0.022372342819208725,0.8022059800771797
92.0,-0.11641189914203291,-0.03068150312839535,-0.0037117380390393768,-0.11276797422352103,0.9158060769547791,9.759999999999994,0.22183741710688998,-0.3096385485744258,0.15717610805140309,253.0909506013263,-0.6511886028998539,-5.362774437076168,0.5950916565475255,0.04132449952156157,0.02317910361582556,0.802256996044734
93.0,-0.12868195271814473,-0.038086620958375506,-0.004546663669401671,-0.09910625304409726,0.925861339028137,9.759999999999994,0.19235065190513656,-0.2446353639803679,0.15303730658274323,253.10143517477803,-0.5752254973586602,-5.419142922708029,0.5950830910117643,0.04129602243190589,0.023986771772507586,0.8022412192969539
94.0,-0.11660672136675283,-0.04471919373571617,-0.0016012888239481469,-0.10014836461728674,0.9204383500056197,9.759999999999994,0.11410447341800606,-0.24976583867221158,0.2140234535985913,253.10877730321084,-0.5825676257914653,-5.3826945412311265,0.5950749931594921,0.04112743942639842,0.02379513376643812,0.8022568285463263
95.0,-0.1101208272451388,-0.04611648121089508,-0.0005174028698812332,-0.08410644037315948,0.9172372709902217,9.759999999999994,0.2053114813982241,-0.35405778164924506,0.14281031059158517,253.11688865160545,-0.4898233486943164,-5.360972565658836,0.5951381706552772,0.04050180676276647,0.02438247405867146,0.8022292022275297
96.0,-0.11788449290022855,-0.0474053051590424,-0.004053613577610429,-0.03886103930163725,0.9234790753437488,9.759999999999994,0.16343289872990896,-0.3774048368363868,0.19427662882619606,253.12015754374136,-0.23223886328725038,-5.398004008841932,0.5951561268952081,0.039322512098272824,0.02659779868251471,0.8021975452231088
97.0,-0.12241459668052904,-0.04520265257952121,-0.0034039189239818655,-0.010395189389681913,0.9248516728485259,9.759999999999994,0.27621529729122174,-0.4772104829343224,0.1358959949046495,253.1161847626541,-0.06530337941628264,-5.408180191824959,0.5951313220651155,0.03840067636941291,0.027943365735266575,0.802217637212169
98.0,-0.121784009591248,-0.04651871417331688,-0.0061315424674984065,0.035416882095088247,0.9334077404368518,9.758967741935479,0.2516304653253906,-0.35342133116031615,0.20830499981267092,253.0716447023341,0.21175232288037169,-5.459395957438837,0.5948298211663108,0.03732428288572927,0.03020167986133903,0.8024076335777603
99.0,-0.1419158143194335,-0.05831235247836352,-0.004633359559402046,0.05085129819040127,0.9460141620771052,9.754322580645159,0.20258654602675058,0.11847462627852087,0.13851789929189612,252.97268391030684,0.30264555468135323,-5.537839299763965,0.5940899475570419,0.037345456922895356,0.03118352908811959,0.802924145616837
100.0,-0.14592328874901653,-0.061042092840283245,-0.002711644374508261,0.0047403619197482205,0.9465247836349335,9.755096774193545,0.1360395357985838,0.11649046026750591,0.16008802124311566,252.89158389063726,0.030443548387096758,-5.540074252557042,0.5934957001632571,0.03893452669433517,0.029069090335562542,0.8033615779704952
101.0,-0.13107258064516128,-0.05155645161290323,-0.004717741935483871,-0.04282258064516127,0.9340161290322586,9.757548387096769,0.18538306451612901,0.030594758064516142,0.13503024193548385,252.84702620967738,-0.2525201612903226,-5.463054435483871,0.5931902960887094,0.039955678427419365,0.02657785729838709,0.8036242100080638
102.0,-0.1363951612903226,-0.044443548387096785,-0.005540322580645161,-0.06938709677419354,0.934395161290323,9.758774193548383,0.19536290322580646,0.009274193548387098,0.11779233870967742,252.82011088709675,-0.40095766129032256,-5.465120967741935,0.5930072891129029,0.04076931756451613,0.025421585491935482,0.8037543024758058
103.0,-0.13534480723839495,-0.04373328088119592,-0.001747836349331235,-0.11598229740361919,0.9341481117230528,9.758286388670333,0.1994812155782848,0.02326539142407553,0.06387686860739575,252.8128024193548,-0.6791453579858379,-5.464313286782061,0.5930538746262781,0.04220310813021243,0.023462707426239182,0.803708500279897
104.0,-0.13708772619984264,-0.04526180173092056,-0.00018036978756884369,-0.14052340676632571,0.9316345397324941,9.759304484657743,0.20377286585365853,-0.23859411880409126,0.20250295043273014,252.80912298387094,-0.8212259047993705,-5.448159667584578,0.5930491878776551,0.04282723983123524,0.02238358803973249,0.8037083655633356
105.0,-0.14008418568056652,-0.044836546026750614,0.0009541699449252563,-0.11925767112509833,0.9296559795436664,9.759716758457902,0.19903865066876475,-0.24424665617623917,0.22176558811959088,252.7784274193548,-0.7042117427222658,-5.436403422501966,0.5928316969146341,0.04218405685110149,0.023191133318253343,0.8038822962332806
106.0,-0.1266996459480724,-0.036843036978756905,-0.0018058615263571987,-0.1238036978756884,0.9278210070810384,9.759858379228948,0.2350499114870181,-0.17299247639653817,0.170412077104642,252.76320564516126,-0.7253282356412274,-5.42674321400472,0.5927327689687252,0.042208824296616834,0.022931227223446104,0.8039690610788748
107.0,-0.12288119590873328,-0.037328874901652265,-0.003068056648308418,-0.13493391030684493,0.9236766325727779,9.759929189614471,0.15188827694728557,-0.11984903619197482,0.17643341856805664,252.7486649291896,-0.7899980330448466,-5.431667977970102,0.5925436831483082,0.04247946021675845,0.02244401767387884,0.8041061820196695
108.0,-0.12686920684875053,-0.0432830354801244,-0.0008242385073620315,-0.15688511108613384,0.9288605335131694,9.75680491551459,0.18094441946723616,-0.18020733814769024,0.2676451683151624,252.65923069808173,-0.915601700947885,-5.451038505488741,0.5919745141158348,0.04333501312156718,0.021641961123290625,0.8045024188774682
109.0,-0.12123181034805741,-0.05071016447491666,0.0004489153647296846,-0.1622513675021543,0.9393751920122893,9.754625903862724,0.17054449533550636,-0.12112070782286163,0.16858052573901314,252.57465063129894,-0.9472592001985687,-5.489902612303773,0.5913536758644674,0.04390084977823047,0.021668299481098503,0.8049266973494345
110.0,-0.13106702633846615,-0.05975122700535762,0.0005698550073058334,-0.18015548312165153,0.9542280169345472,9.752151661608782,0.28597420478813085,-0.027593570866584236,0.19137068674834212,252.50418212131427,-1.0457621482896857,-5.5559060170094785,0.5908081691011953,0.04497275417481547,0.021307665204750664,0.8052769041984191
111.0,-0.1328655351991308,-0.06050031845940579,0.00010160728335393963,-0.1804152710651531,0.956245401071522,9.750914540481809,0.14669973024615038,-0.1258837248510734,0.2631224008092615,252.40128460904424,-1.047246731107864,-5.573660128882395,0.5901028079479226,0.04511184592926456,0.021334350983177854,0.8057824148261961
112.0,-0.1229528305421303,-0.05686620958375483,0.0008958075755872762,-0.1918787606309244,0.9452194747293092,9.750295979918324,0.2068471113858604,-0.21591688209508825,0.12462768348881645,252.33876681278332,-1.109195749503578,-5.518483290247649,0.5896489906073209,0.04504781505825935,0.020540498125735267,0.8061385599095576
113.0,-0.1097183320220299,-0.043755310778914244,-0.0004563335955940211,-0.20170574350904813,0.9349008654602677,9.753359559402044,0.19051927616050351,-0.1907602281667978,0.19438434303697877,252.3032651455547,-1.1672944531864673,-5.461727970102281,0.589433714040126,0.04492865044059796,0.019813726040125882,0.8063238205767114
114.0,-0.10963099921321792,-0.03819158143194336,-0.002018095987411487,-0.15694256490952008,0.9360420928402835,9.755538945712036,0.31295239968528715,-0.39236575531077894,0.14393194335169157,252.27889457120378,-0.9085636309992131,-5.472578186467349,0.5892997489240754,0.043643932478363484,0.021692938684893782,0.8064377790727771
115.0,-0.11770298977183319,-0.04225629425649096,-0.00037568843430369793,-0.13197324940991345,0.9473790322580646,9.753414634146338,0.10655979543666402,-0.1761248524783635,0.17898308418568054,252.26374409913453,-0.7675636801730921,-5.544097905192761,0.5891905021591266,0.04340156251062155,0.023050345422698664,0.8064957042303305
116.0,-0.11423859166011013,-0.04157572777340678,-0.0010830055074744294,-0.18026081825334384,0.9423790322580647,9.752352478363493,0.18286659126671911,0.10339422698662469,0.1011346872541306,252.18973495279306,-1.0508937352478362,-5.515824154209284,0.588643782511015,0.044651747844020456,0.02083611052989772,0.8068860645869395
117.0,-0.11577241824527426,-0.049449050818051614,-0.0013597409671367183,-0.19301771268333034,0.9516129032258067,9.751176239181746,0.2104669753273215,-0.2214050111965139,0.1358877272085376,252.13484498880348,-1.1245880741996004,-5.553181928221267,0.588272832385987,0.04537661248683653,0.020536076793278058,0.8071190161925599
118.0,-0.1368287740321572,-0.0621564687607174,-0.0007813653694849602,-0.18846873045653534,0.9650180959874115,9.750485837922895,0.17821244124351915,-0.1918689100042365,0.19912502017389902,252.07907670368576,-1.099076098468801,-5.645832702898989,0.5878134665509793,0.045816860579374216,0.02112517521882628,0.8074120077799936
119.0,-0.15116025641025643,-0.07841025641025642,-7.754342431761773e-05,-0.15678432588916458,0.971774193548387,9.750120967741935,0.13706058726220016,-0.2527450372208437,0.19403044871794872,252.0006319789082,-0.9211499689826304,-5.692517059553349,0.5872943300709261,0.04517811810794045,0.0225959209445823,0.8077860037570306
120.0,-0.13805996691480565,-0.06722125723738628,-0.0008331265508684862,-0.16604135649296936,0.9640967741935484,9.750040322580645,0.23118150330851944,-0.2842858250620347,0.21614324855252276,251.94782102977666,-0.9752171215880893,-5.644393610421837,0.5869158244911084,0.04516131238461539,0.02195295090777502,0.8080830889067411
121.0,-0.1276186931348222,-0.057070306038047997,-0.00025930521091811407,-0.16142390405293636,0.9578870967741935,9.75,0.2542752274607113,-0.21656327543424317,0.2285101323407775,251.90742866004962,-0.9460763027295285,-5.6086383374689825,0.5866935440157155,0.044796984160049624,0.021980793365177834,0.808260179747725
122.0,-0.1285,-0.04916129032258067,-0.0025564516129032255,-0.15404032258064518,0.9626854838709675,9.75,0.23054435483870966,-0.23104838709677417,0.11320564516129032,251.88860887096774,-0.8980846774193547,-5.640826612903226,0.5865650806612905,0.04475594691129031,0.022419196443548384,0.8083435039516127
123.0,-0.12492820613690006,-0.048949842643587746,-0.0031624704956726988,-0.15120790715971677,0.9544006687647519,9.75,0.1365066876475216,-0.19551534225019668,0.20815179976396536,251.882431402439,-0.8832661290322581,-5.587190204563336,0.586457201514752,0.04432714426121164,0.022277456096577497,0.8084513196565695
124.0,-0.1181947098272826,-0.044115666329474376,-0.0026952905473755194,-0.16858417631411343,0.9461079764714696,9.750122887864823,0.14334454966093438,-0.027281960679629833,0.16943328275448655,251.87240689745607,-0.9849870391705069,-5.5367930669514065,0.5863551199004251,0.0444839851206212,0.021295760081506875,0.8085453624331236
125.0,-0.1279199355588026,-0.05431992993893074,-0.0019686130156232437,-0.1675622494473793,0.9429168914615413,9.750061443932411,0.17469646837885427,-0.20792021421078266,0.22524083492563035,251.83045748098613,-0.9817324308755759,-5.51844693670151,0.5861219450671481,0.044390001318375116,0.021307104064946993,0.8087259350633359
126.0,-0.11933861601288823,-0.04631376681278336,-0.002954544603049717,-0.17584026450863594,0.942997424225394,9.750030721966205,0.2556986086133902,-0.17862288552321004,0.14647458412948183,251.82047067597694,-1.0311707949308755,-5.517305985631861,0.5860142711712467,0.044652599340639185,0.02093216794952419,0.808801727738657
127.0,-0.10957922146041736,-0.043254542729759114,-0.0019041999175752125,-0.18019058858791362,0.9410591959836647,9.750015360983102,0.18193258027050316,-0.2472806845003934,0.23133008317410364,251.79184861001835,-1.057167444082275,-5.50590601700948,0.5858464437694352,0.0447399530774793,0.020711078444569334,0.8089230380815629
128.0,-0.11757669251807724,-0.04712669064478665,-0.0032279607358285563,-0.17247643400397145,0.9468056835637484,9.750007680491553,0.18777092465625117,-0.0903367474054925,0.08775535292795324,251.7749542214604,-1.0090944747293094,-5.540716205837173,0.5857287819881234,0.0447607508744708,0.02120148238496122,0.8089926676331909
129.0,-0.10980601138960698,-0.051904359147278124,-0.0023167453448728033,-0.18698706492825307,0.950299923195085,9.75,0.1529292411299689,-0.12401341978569555,0.2145525996590611,251.70532945328011,-1.0916488118654226,-5.559624615975422,0.5852059595462888,0.045314710779017275,0.02065562714870181,0.8093515256483925
130.0,-0.10253980742572402,-0.050848225993780694,-0.0016417519013899816,-0.21165374096137293,0.9467824360271258,9.75,0.23595149113933536,-0.12737907909033008,0.12400832677681614,251.61998192274547,-1.2357665036903827,-5.540776853621071,0.5845571668227116,0.04589479377355664,0.019476020566483086,0.8098161362560412
131.0,-0.1063835749878236,-0.0467374770521899,-0.0007594320182833166,-0.21009568768498754,0.9484987448952833,9.75,0.18676894833464464,-0.2177409988385598,0.2463119590873328,251.53882160653401,-1.2239172380203063,-5.552358472893484,0.5839685391279457,0.04594655930613317,0.019558073803978872,0.8102385981172682
132.0,-0.11724450189202354,-0.05265512719643327,-0.00010591585178524622,-0.18725083361432698,0.9519913079315127,9.75,0.19158962758982429,-0.2118701060282492,0.17063335955940204,251.4659145404818,-1.0921808849424899,-5.566501817091904,0.5835376221878912,0.045409788682177515,0.020611716064853326,0.8105527588501371
133.0,-0.12445052639466485,-0.05710291858678956,-0.0014906148139822416,-0.1886625079614852,0.9544820351429322,9.75,0.09589374695590273,-0.025069780075680947,0.13403043160615935,251.43073929414408,-1.1026240118391968,-5.585552011914128,0.5832364863415012,0.04556881011887903,0.02056657429361957,0.8107622740636169
134.0,-0.11243863099921322,-0.04891974822974038,3.304484657749786e-05,-0.20879268292682934,0.938969315499607,9.752643587726197,0.19000786782061369,-0.11871066089693154,0.17963217938631,251.3741591266719,-1.2224306648308416,-5.4919846577498035,0.5829106936431943,0.045525737013375304,0.01923957556687647,0.8110312735059008
135.0,-0.12059697088906374,-0.03758497246262786,-0.0025483870967741933,-0.21236172305271442,0.9313044846577501,9.75287018095987,0.24314024390243902,-0.46115017702596384,0.2060877261998426,251.3396169354839,-1.2423866542092838,-5.444841660110149,0.5826822518916207,0.04534790273170732,0.018892684176829266,0.811214620894571
136.0,-0.13745023603461842,-0.030317859952793083,-0.0014000786782061368,-0.16287726199842645,0.9323438237608183,9.756596380802513,0.25221774193548385,-0.26030438630999214,0.1397337234461054,251.3235383064516,-0.9502569335169158,-5.45174321400472,0.5825227267079067,0.043899488938631014,0.020984596945515348,0.8113523417698663
137.0,-0.15114162077104643,-0.026434303697875694,-0.00033044846577498,-0.1312714398111723,0.9351746656176241,9.758459480723834,0.15602871754523998,-0.17712922895357985,0.17287077104642012,251.2992230527144,-0.7648505114083398,-5.469890833988985,0.582341314630999,0.04303308802517703,0.022326241899291898,0.8114916654453185
138.0,-0.1460861526357199,-0.029853658536585375,-0.002509834775767113,-0.12225255704169946,0.9336652242328874,9.759391030684494,0.232125295043273,-0.25555910700236034,0.15417240361919748,251.26263768686073,-0.7138817859952793,-5.46203038945712,0.5820819796955155,0.042707195892997644,0.02261712925806452,0.8116918324551532
139.0,-0.13738611329661687,-0.023073957513768693,-0.0035444531864673484,-0.127691974822974,0.9356996459480724,9.759774193548381,0.1823736231313926,-0.20857223642800943,0.19770972659323366,251.2409028324154,-0.7437180369787568,-5.47469635129819,0.5819275090177025,0.042924028465774984,0.022461455085365855,0.8117995269750192
140.0,-0.12930538383724854,-0.025110711475778362,-0.0025517964857067923,-0.1519055112210108,0.9329425649095201,9.759999999999994,0.21619881233374544,-0.06247424225394326,0.19811921621520362,251.1799272226593,-0.8829357273987486,-5.45667781274587,0.5814805183402643,0.04353279996253419,0.021345346387921023,0.8121156182953055
141.0,-0.12802405305159043,-0.01670563111161066,-0.005048518227117754,-0.16685362107077295,0.9314083398898505,9.758615263571986,0.19757127870817878,-0.24573358060769548,0.18663828631373872,251.13685090479936,-0.9734554718819077,-5.446695515342249,0.5811898572110448,0.04393426293956764,0.020677108772245326,0.8123153246787305
142.0,-0.11114195796335843,-0.016819152523322473,-0.006960023978119965,-0.14470495672698666,0.9305664830841857,9.75930763178599,0.1668774118616762,-0.4308170357049192,-0.029766587988460533,251.16838072758605,-0.8427794012963171,-5.444309411412087,0.5814459497474803,0.0433078196751714,0.02162108720879697,0.8121393244929
143.0,-0.09078191150575099,-0.03169907459443259,-0.007091903637930388,-0.12689333483196585,0.9283927166460604,9.759653815892992,-0.0012574463302236771,-0.29705940204563336,0.11044921509122925,251.23175883256528,-0.7415022854145592,-5.431343898692443,0.5819258736742722,0.04265930687909782,0.02229975267430969,0.8118071788355625
144.0,-0.08776703757820989,-0.042010040837735574,-0.005237533250908546,-0.16082668315162418,0.9188816454984825,9.759701022816675,0.10888150500168596,0.14285011801730924,0.1544083211569443,251.18624723689632,-0.9386356824397737,-5.375437881682964,0.5815819765971674,0.043277986952530816,0.02059402219081338,0.8120682060778914
145.0,-0.09998950957251507,-0.06056723240043461,-0.005946723614701585,-0.17561687460192582,0.936311790491177,9.754689221085755,0.13828771870668016,-0.16335796710501665,0.0747944063542018,251.17820426360944,-1.02367652017534,-5.462920553744707,0.5814848935712412,0.04438053321052039,0.020465692792027278,0.8120801931088384
146.0,-0.10380828743771307,-0.06820651155820315,-0.001306957401371249,-0.17587688734030205,0.9381881533101044,9.753516915814316,0.23395994904649509,-0.14107119441010074,0.1563930725712787,251.16328584541606,-1.0239055299539168,-5.480855438162676,0.5813975516754709,0.04449144110171968,0.020520084068712294,0.8121328735811697
147.0,-0.09818519351092128,-0.06076617586452362,-0.0034105878385972815,-0.14161346521299317,0.9426542654827466,9.75361132966168,0.21474115806826272,-0.5195569199355587,0.327416779064104,251.0358924824847,-0.821535114832715,-5.503141508373608,0.5804885806505937,0.04366886994260237,0.022041513285152296,0.8127839727805252
148.0,-0.09550590086546026,-0.05405979543666405,-0.0015900865460267515,-0.1362667191188041,0.9376435877261995,9.756805664830837,0.21922944531864674,-0.03834087332808814,0.25020407159716757,250.85743509047992,-0.7898800157356411,-5.478476593233674,0.5791942239575136,0.04335937754838709,0.022039340566089693,0.8137301606215581
149.0,-0.10442879622344609,-0.047494099134539745,-0.00022383949645948125,-0.1464409913453973,0.9341404405979541,9.758406766325724,0.14402660306845003,-0.12254868214004719,0.1993005015735641,250.76189024390243,-0.859052911093627,-5.459807730133752,0.5784728704405979,0.04358338190952005,0.021470517099724622,0.8142474059370576
150.0,-0.11504504327301338,-0.04675511408339892,-0.0011683713611329663,-0.13312372147915025,0.9372476396538159,9.757558221872536,0.314427616050354,-0.34428845397324936,0.16414117820613688,250.6862878638867,-0.7745869394177812,-5.480760719905586,0.5780283119219118,0.04330626399508261,0.02213551829583005,0.814566178815303
151.0,-0.13118174665617624,-0.054792289535798594,-0.0005066876475216366,-0.08449016522423289,0.9672037765538946,9.753738788355623,0.23301042486231316,-0.16535700236034614,0.24899685287175455,250.60238001573563,-0.4958595594020456,-5.650934303697875,0.577353934222659,0.04316203228324153,0.02497122054366641,0.814965590921322
152.0,-0.14516601101494886,-0.06155035405192762,-0.001044059795436664,-0.04818528717545241,0.9877364280094418,9.751806451612904,0.39032995672698667,-0.8063458890637294,0.026347364280094432,250.5428796223446,-0.2780241935483871,-5.781235247836349,0.5769035588579858,0.042896116330448465,0.027179380138080248,0.815225179591267
153.0,-0.13353501180173089,-0.06362332808811959,-0.0027879622344610536,0.006458103855232111,1.0016298190401263,9.75074193548387,0.20669625295043276,-0.5838869492525571,0.23143194335169157,250.57174468922108,0.041529799370574355,-5.871906963021242,0.5770945959160109,0.04177835991974822,0.030094273192564906,0.8150469165658931
154.0,-0.12701435877262,-0.06815656963021241,-0.0025430763178599524,0.0051439811172305306,1.0130218332022034,9.750209677419356,0.27132179386309996,0.3939319433516916,0.4217151848937844,250.2646562745869,0.0295412077104642,-5.929290420928402,0.5748710756011015,0.04238227636034618,0.030150037150865453,0.8165764202490167
155.0,-0.12234223189943827,-0.06224745210692916,-0.004115968016394342,-0.09328472361992939,1.0332730133752956,9.745198799699928,0.37856224726913434,0.09351042028799884,0.2501017784934038,250.00366745649825,-0.543281018425338,-6.050678828243647,0.5730030031317586,0.046230852935611945,0.026423599116974367,0.8177927404060161
156.0,-0.12641501838874353,-0.05616306515653305,-0.004579620514884818,-0.10616635866283641,1.0476789929189618,9.742438109527386,0.2858832086070298,-0.13513896766874645,0.20940867838910948,249.89401999890217,-0.6217831134612921,-6.14561872175361,0.5721335954368469,0.0473143046070664,0.026222156033703547,0.8183595282950615
157.0,-0.13859696631474938,-0.04801072219274333,-0.005535286260589537,-0.08406272299782261,1.0621321793863099,9.741057764441116,0.318394003988802,-0.22861393702084054,0.1327088631914076,249.84143368159113,-0.49295784311931645,-6.221560344354382,0.5717232386271567,0.04728978835782117,0.02751513521984154,0.8186104847022121
158.0,-0.13272360773120107,-0.042494177551356496,-0.0077352352025288566,-0.08531673859231356,1.0682155033531902,9.740367591897979,0.16487424338663065,-0.38153070497589553,0.15237944939196468,249.81574231754803,-0.49751625624176077,-6.251425661293372,0.5715988132915111,0.04755496241689342,0.027591846712801883,0.8186853885571306
159.0,-0.11629335382626141,-0.03892922882288517,-0.007445115634309275,-0.051541925551074175,1.0679551159566891,9.740022505626413,0.24086060713784718,-0.3733971384832271,0.0762290637990508,249.83561014382516,-0.29936788421844135,-6.250398117822138,0.5717068534183756,0.046548017959036805,0.02899279358692808,0.8186211243863546
160.0,-0.11541096249672173,-0.046003596717994845,-0.005646697388632873,-0.02510576598853546,1.063761192911468,9.742643587726203,0.007171424824847325,-0.25792636094563715,0.22329249559776704,249.75077741560824,-0.14447894421340524,-6.217961578809336,0.5711444641614776,0.04551927901464914,0.029975814476939783,0.8190397091201529
161.0,-0.13288943838747141,-0.05635030534637145,-0.0042193248660597205,-0.008952043760068936,1.0567193061331532,9.745131317672627,0.12414367202427784,-0.19624826720617436,0.1595345809448878,249.684938275074,-0.051958759506949906,-6.169833464463677,0.5706278234559214,0.04468867015623243,0.0304909514263984,0.8194250392339365
162.0,-0.1387853958263085,-0.06087774905398824,-0.004650968491251733,0.0006537971600914165,1.0476790865834926,9.746090442471246,0.12162140328200517,-0.26310249709639955,0.210373112659698,249.60948329961408,0.002566056910569107,-6.120444859690533,0.5701525003274885,0.044031432741373486,0.030723722125473002,0.8197848044950169
163.0,-0.12513096174740548,-0.04871104492150914,-0.0033010003371923124,0.008827235772357726,1.044324350904799,9.748206511558202,0.23843143522161026,-0.22295202502716271,0.10936340901427447,249.55594758064515,0.045942276891086875,-6.098340381589299,0.569837404273182,0.04356448504617661,0.031023667245251213,0.8200195638303451
164.0,-0.1300554494024203,-0.04995091978569556,-0.0016634820726087447,0.03125360608444795,1.0465224232887487,9.74586564759657,0.18254982953055338,-0.26143175602262936,0.23376559514443068,249.5025078678206,0.1779813420254018,-6.109805271439811,0.569443996933798,0.04297208201266344,0.03202449151286951,0.8202837569817538
165.0,-0.11245682065115582,-0.0640564235135439,-0.005069873740212057,0.04556329849012777,1.026114795249335,9.748011502004422,-0.10589126484582817,-0.7796858023303735,0.04269931812221346,249.4662667191188,0.26219512195121947,-5.995860027724701,0.5692037256961148,0.041730335990408755,0.032080383301112736,0.8205064610089541
166.0,-0.09988685324641265,-0.0604177438087745,-0.0008523472331497519,0.0674171068899629,1.034029073470458,9.746530291109362,0.2571161627514893,-0.020922314637892903,0.40686233187216664,249.23800157356413,0.3920211869169383,-6.046267936757708,0.5675640023341202,0.04151855303098423,0.03316066041474655,0.8216082440796524
167.0,-0.09330298602525194,-0.0670578097486044,-0.005378966692892735,0.04767786894458806,1.0377737814244499,9.747686860739575,0.27049848263459597,-0.23722649956914316,0.13795614626653177,249.08979150275374,0.28027003484320556,-6.073807650518901,0.5664735304589561,0.04236046346671163,0.03237018785096099,0.8223491017054437
168.0,-0.08858776366565507,-0.0645517215540819,-0.000976658798846053,0.05845341126222323,1.0473715484620283,9.744456333595597,0.25872485107339555,-0.22355522460754562,0.1945632422914091,249.2100216365067,0.3397858828818703,-6.150092259563149,0.567286362894309,0.0424775491723802,0.03319833403169607,0.821741292379079
169.0,-0.0946502941066277,-0.06539309130418494,-0.0042263309729871495,0.08646116668539956,1.0610846727361283,9.742173092053505,0.37399755535573787,-0.2545146303997602,0.08038547637780524,250.42094807238396,0.5021952624480162,-6.227062258813833,0.5758496263126147,0.041823051833239665,0.03521948505204002,0.8156498665782097
170.0,-0.11520456333595594,-0.0639645948072384,0.0007309205350118017,0.12023288749016525,1.0864232887490162,9.740925255704175,0.29406963021243115,-0.156904012588513,0.21571597167584577,251.36874016522424,0.7021488985051141,-6.368509047993705,0.5825510239842646,0.04147220269158142,0.037685794963808035,0.8107832011101492
171.0,-0.13061408339889852,-0.06512627852084973,-0.002008261211644374,0.15020377655389464,1.1012407553107786,9.740380015735646,0.28157946498819825,-0.21168371361132965,0.1554386309992132,251.80245131785995,0.8775890047206923,-6.44639063729347,0.5856533197442959,0.0410275868855232,0.03951287884382376,0.8085164239453188
172.0,-0.12349193548387097,-0.06454032258064517,-7.258064516128999e-05,0.133241935483871,1.0855645161290317,9.740048387096781,0.008064516129032251,-0.04778225806451613,0.24657258064516127,251.98170362903227,0.7756552419354839,-6.35383064516129,0.5869508807903225,0.040862544120967736,0.03842586455645162,0.807660454330645
173.0,-0.1256693548387097,-0.062250000000000014,-0.001508064516129032,0.12204838709677421,1.0714193548387094,9.740000000000006,0.15806451612903227,-0.18664314516129032,0.22741935483870968,252.04188508064516,0.7130040322580646,-6.27172379032258,0.5874005714919357,0.04059512118548386,0.03756910816935484,0.8074023835645161
174.0,-0.11412985938792389,-0.05335649296939621,0.000553970223325062,0.12074813895781641,1.0591315136476425,9.741852770885032,0.115158447063689,-0.24751861042183623,0.277007082299421,251.958494882134,0.7057692307692307,-6.192255996691481,0.586844296878205,0.04014232140425972,0.037130084594499596,0.8078534137845328
175.0,-0.10751555911961105,-0.047943785430410155,-0.0019477395146159896,0.13233669733099324,1.0484609181141433,9.744199398817813,0.14490895897637635,-0.23391985792531622,0.17085073332122896,251.87881901364764,0.768203507988864,-6.120472756410256,0.5862523562261794,0.039341258624336774,0.037196114500928,0.8083192475407714
176.0,-0.11349253565736649,-0.05463042930057094,-0.0027895660594323053,0.1320427585789506,1.053867064092477,9.74209969940891,0.17022505875648086,-0.43022765614597835,0.25507893668421794,251.80346401606852,0.7702255000605217,-6.156637464947851,0.5856928795113981,0.03964256391297484,0.03734399879708085,0.8086950464487885
177.0,-0.11853927858137141,-0.06548015320635306,-0.0026478552263367364,0.23353021185475953,1.0513813047036886,9.739452307461754,0.24426551516933104,-0.9763021441252165,0.058574654594029094,251.72179369198204,1.362982133670814,-6.1532947309378265,0.5851270797810446,0.03656171661412951,0.04149217190737299,0.8090303695016601
178.0,-0.10933377139514038,-0.06261718873835319,-0.0021397878282221313,0.320590374744584,1.061142073242781,9.735916629921356,0.12180153638650883,-0.3738965597738218,0.17567989642143853,251.6455910664211,1.8700579351149766,-6.208749420000403,0.5845663099510062,0.034390581457218364,0.045335961044316295,0.8093271833556684
179.0,-0.11249035255329512,-0.06879884605297668,-0.005531077891424073,0.19290360046457605,1.0243947397999325,9.741955715409691,-0.08947070173466709,0.7965091229253305,0.8922717395376719,250.86797750177962,1.1288542954553968,-5.991094844704207,0.5791067936727735,0.03692342472069236,0.0385890368686074,0.8133903622899104
180.0,-0.10191262972537558,-0.062090217676370324,-0.01511033681765389,0.11243715109962159,0.9981574313438988,9.746036866359447,0.05381963957888427,-0.10516653553632305,0.35663004383500063,250.44930173092052,0.6592976096811659,-5.838625379341352,0.5761954689168634,0.03833761465437788,0.034390691136338095,0.8156149791382864
181.0,-0.09854070660522272,-0.06483102918586792,-0.014500768049155146,0.125099846390169,0.98642089093702,9.748179723502304,0.30481950844854067,-0.3790802611367127,0.14607334869431646,250.33405337941628,0.7318068356374807,-5.769345238095237,0.5754083728110599,0.03750343200460829,0.034576462703533026,0.8162335992857144
182.0,-0.08894908396088567,-0.07021486643437863,-0.02256996740474317,0.1438670338316287,1.001727173953767,9.747161028061893,0.13575971301187664,-0.0768962384324304,0.06322707092278296,250.28198175414934,0.8385539601363755,-5.864104473418006,0.5750009882808813,0.037658599194297704,0.03578028516691019,0.8164821549840771
183.0,-0.08111535723652166,-0.06951725300663145,-0.011887527631036676,0.1134710201940729,0.9863830504664488,9.748860851972577,0.14798761754898654,0.03839543291746281,0.12134708328650107,250.17682224345285,0.6611182140047207,-5.768897989959163,0.5743113209834773,0.03792511726537036,0.03403596638960698,0.8170402154385373
184.0,-0.09573125772732381,-0.06814495522835415,-0.0067087407740436845,0.08314027200179838,0.985231463789292,9.74946498819827,0.18590817129369447,-0.022670563111161057,0.07085979356337341,250.11831703570493,0.48302166460604695,-5.750832443520288,0.5739056449541042,0.038732244803192095,0.03269949881001086,0.8173441165257205
185.0,-0.11348390843355435,-0.07950465296570727,-0.004157572561191758,0.07302440753581588,0.9930343186842006,9.749732494099135,0.08978588288187028,0.14759919794341508,0.11180463091851763,250.07348189608712,0.4300207430911601,-5.815772404555843,0.5735903792671972,0.039374702584155416,0.03252373728696219,0.81754486311634
186.0,-0.11750747442958298,-0.08146648106679578,-0.0053846759063124125,0.03076775807460308,0.985426435877262,9.749866247049567,0.11950727773406766,0.07015019467812544,0.19914992233048884,250.03480501926606,0.18159320845689847,-5.765342250196696,0.5732872742147308,0.04043571460049626,0.030320531890455728,0.8177867642434384
187.0,-0.11343176178660049,-0.07683382759385908,-0.0010213338982025058,0.013868415743710786,0.97614419294317,9.75,0.17840201285077367,-0.27456840464806637,0.19258230950795863,249.89387016078598,0.08002374215739677,-5.7169835229679835,0.5722928028193023,0.04058956154554258,0.029274999354415056,0.8185150323589642
188.0,-0.11720368577134901,-0.07923123323044648,-0.0027569297343097497,0.043200926990659486,0.9809359831749681,9.750503540519276,0.1331132802255442,0.45973586061853167,0.7211928069963083,249.74910856583753,0.24764857446186123,-5.731278936936391,0.5712201751940731,0.039903656850662717,0.030638459433305093,0.8192441542085929
189.0,-0.11501313320825518,-0.07156722951844906,0.00019814803607093008,-0.34841969779499266,0.9060768625552258,9.742638867033836,-0.38276291633884074,2.641511075470556,1.986906887369122,247.95015912162845,-2.046463011156166,-5.302988258790776,0.5581406248067138,0.04823140969146039,0.01094145812794287,0.8278104557131674
190.0,-0.12187714095503238,-0.05510718392543727,0.0002621799915269616,-0.5888692126127215,0.8720942928039701,9.735870967741938,0.009247967479674823,0.8033019629203735,1.4160153019023987,246.29559553349876,-3.446222689584216,-5.110630636083036,0.5460533931647198,0.053740782089572114,-0.0009708809257398775,0.8356081262074684
191.0,-0.09847515584336983,-0.07757090116806875,0.00566059432306482,-0.5354857471403496,0.8531793257882951,9.74241935483871,0.08911454235510098,-2.2801645181464227,-0.6561200044382578,245.97433690915693,-3.1160204714640196,-5.00426791442232,0.5438400975595431,0.0515145527528899,0.0007808203742661734,0.8373067113625854
192.0,-0.08613493312352477,-0.08872856018882769,0.010472069236821402,-0.29270535011801724,0.9112368214004719,9.746839103068451,0.48145898898505113,-1.0329317466561763,-0.40805959874114867,246.65178747049566,-1.7052935680566481,-5.338171223446105,0.5488380886864673,0.047220690811172306,0.01303385350826121,0.834221994656963
193.0,-0.08095551871417331,-0.0898745644599303,0.004815293544640517,-0.22728707242141538,0.932014199542917,9.748403815892999,0.3521820908733281,-0.7548631795361733,-0.08156108332396686,246.95413569883107,-1.3217737837660635,-5.4566263557940875,0.5511027463699467,0.046324402478007565,0.016516784130212427,0.8328416485122138
194.0,-0.07814308193773181,-0.09229212093964256,0.0030044209658686453,-0.13333305233973997,0.9492974223521038,9.749955940204565,0.211801730920535,-0.46084892847776404,0.09626582930575849,247.02346401877037,-0.7730592709152898,-5.554094427897043,0.5516200298744895,0.04442493018255217,0.021075479637686856,0.832569546054494
195.0,-0.07791609531302687,-0.0834693154996066,0.00223560376156757,-0.10154307631785994,0.9498971095125701,9.752516466224568,0.2540090760930651,-0.19672864917013227,-0.03657260406129407,247.08239370246525,-0.5928725975047768,-5.555916964051553,0.552083571567195,0.043608196101354385,0.02242651544939305,0.8323241375207093
196.0,-0.08291693829380689,-0.07814712824547601,0.0030884942489977896,-0.13513139260424867,0.9487216664793381,9.751274362144542,0.2147627009104192,0.15304081900266006,0.07849157955865273,247.10321433254654,-0.7863261492637966,-5.55063317223034,0.5522442082847778,0.04454129087827356,0.020980354619759466,0.8322179488869285
197.0,-0.09312251320669887,-0.08128442171518489,0.0020595893746955902,-0.13841542092840287,0.9490500543254283,9.750617511520737,0.16284948578172417,-0.38050162039638824,0.19035711944101005,247.03641243771307,-0.8063465915477126,-5.554796326477089,0.5517580948780302,0.04467501388917612,0.020825191330336064,0.8325430573466902
198.0,-0.10909581881533101,-0.08563069012026524,0.0012909314000974109,-0.10050955378217379,0.955730864336293,9.750308755760368,0.26146026516428755,-0.10965365198006817,0.18751246909070474,246.97754761670598,-0.5868810530703233,-5.594458455097223,0.5513604515711197,0.04392337233629313,0.02259175762369338,0.8328032100903959
199.0,-0.11512363718107227,-0.0841041924244127,0.0023876962271926865,-0.11977464313813645,0.9511531977070922,9.751774755535571,0.11824795811322168,-0.05378802779963282,0.21770329886478587,246.92317400996592,-0.6969472387696227,-5.564832246824772,0.5510351926306623,0.044260078604023825,0.021605201276834886,0.8330243127211421
200.0,-0.11231988310666517,-0.0772402682552171,0.001785245963058708,-0.11492188378104978,0.9404229890225169,9.7559795436664,0.1833319283653666,-0.315464482409801,0.21707457569967403,247.67016035367726,-0.6660859465737514,-5.5003020681128465,0.5563825872024277,0.04355827778127459,0.0218323376737477,0.8294570152084972
201.0,-0.11114420591210522,-0.06915514592933947,-0.002573151998801095,-0.06705181521861302,0.9346056723240044,9.758151062155779,0.1407660821999925,-0.2912147353040351,0.15011380240530517,248.66420094788504,-0.38954376006893704,-5.466688209508822,0.5635475770079803,0.04170997509047994,0.02401452464725937,0.8246152372777342
202.0,-0.10221479150275373,-0.07032070735453896,-0.004382376081825334,-0.07614158330523398,0.9300140496796675,9.759236821400467,0.20032384511633133,-0.3157525008429808,0.15489537671874415,249.16186401783372,-0.44285292795324266,-5.440861385860401,0.5671133171012701,0.041647628055337,0.023685765697800752,0.8222039146847253
203.0,-0.11982398561312801,-0.06480551496759207,-0.016005320145367347,-0.08565988535461393,0.9620047206923683,9.75448937844217,0.6355545876887339,0.38336798920984605,-0.08283456970514405,249.44171349893222,-0.49991148701809596,-5.629584878798097,0.5690621118609268,0.043206408524596306,0.02434421460926904,0.8207542690919787
204.0,-0.07875148926604474,-0.07071904387246637,-0.007805964557341423,-0.09526109924693715,0.9513918174665621,9.755844217151846,-0.050067906785058625,-0.5062162807687983,0.13076505189015025,249.420355175902,-0.551883359559402,-5.564177765913604,0.5689379314969465,0.04301067277134615,0.023610076447042074,0.8208953209976022
205.0,-0.07639721254355401,-0.06103634183807277,-0.0040480686373683995,-0.11849975647221908,0.9413214941366007,9.755907946498816,0.21404944550597577,-0.3251461166685399,0.09747550672511335,249.38469568393842,-0.6843090835862276,-5.507109137911655,0.5686951712015285,0.04327943351822712,0.02233479738203889,0.8210953779860628
206.0,-0.07992008542205238,-0.06462359971525984,-0.002692012288786482,-0.09537655014798993,0.9488338391218019,9.753179779701021,0.1360471460417369,-0.28195248398336514,0.09496611685586903,249.28786810160727,-0.5495453757820988,-5.553780768798472,0.5680308952152413,0.04292087908248099,0.023474510885354613,0.821542694513881
207.0,-0.08609350602190885,-0.05378231858621317,-0.003896815550041357,-0.10464886824426554,0.9466247654784242,9.75275200730295,0.22518563139260422,-0.07069974429583004,0.047324279035284154,249.23141964988196,-0.6073896676854486,-5.537284895801811,0.5676690751383429,0.04314970002097582,0.02301594075994069,0.8218009799259112
208.0,-0.09412739817224475,-0.05108067542213885,0.007515301902398677,-0.10009459541245538,0.9442639956424381,9.75512197139341,0.16584382376081824,-0.2668518882769473,0.07131838951764208,249.23773603461842,-0.5778631806169179,-5.524085996288003,0.5677507651256231,0.04291446320000404,0.02317429879126067,0.8217528357290848
209.0,-0.09776944259517037,-0.059526962416026154,0.0029755895821985522,-0.09775933547176663,0.9387614234703141,9.757608192620385,0.1387834382376082,0.10451170338316286,0.09708720420020578,249.19112411487018,-0.5645806855090882,-5.490268804595614,0.5673960929506952,0.042639221002834446,0.023094730095079584,0.8220079526009707
210.0,-0.10689888337468983,-0.06608684863523573,0.0029110835401157985,-0.11757754342431762,0.9308771712158809,9.758867038875099,0.1376008064516129,-0.15085685483870967,0.12082428660049627,249.1726814516129,-0.6813068651778329,-5.444332868072787,0.5672465850913981,0.042886337234698105,0.022017098837468982,0.8221326931478496
211.0,-0.10331637717121589,-0.06949503722084366,0.0018668320926385443,-0.1461637717121588,0.9218982630272952,9.759582712985933,0.14284274193548385,0.030846774193548393,0.08392524813895783,249.1233870967742,-0.8534558519437552,-5.3932097808105866,0.5669048288924734,0.043363797661703896,0.0205072190235732,0.8223785747150538
212.0,-0.10320161290322583,-0.0735241935483871,-0.00027419354838709685,-0.16803225806451616,0.9186290322580646,9.759911290322574,0.17847782258064515,-0.05191532258064516,0.24349798387096772,249.06754032258067,-0.9822076612903227,-5.389868951612903,0.5664797383387096,0.04390081530645161,0.019487294814516123,0.8226658007661289
213.0,-0.12206451612903226,-0.07171774193548386,-0.00016129032258064538,-0.14363709677419353,0.9249999999999998,9.759870967741929,0.22011088709677418,-0.19183467741935484,0.20992943548387094,248.96512096774194,-0.8443548387096774,-5.417993951612903,0.5657658252177417,0.04342661179032259,0.020608766798387093,0.8231593464193545
214.0,-0.14600806451612902,-0.07462903225806453,0.008330645161290324,-0.18782258064516127,0.936475806451613,9.75554838709677,0.08528225806451614,0.8973286290322581,0.25367943548387095,248.93175403225806,-1.0987399193548386,-5.47741935483871,0.5654664076370967,0.04518471942741936,0.019052320822580644,0.8232957406854837
215.0,-0.13714400921658987,-0.07682910906298002,0.010019585253456222,-0.5364247311827958,0.9474788786482335,9.733933947772657,0.3405793970814132,1.1517113095238094,0.21901641705069125,248.62920506912442,-3.1394105222734257,-5.554838709677419,0.563003927532258,0.05574312691282642,0.004529052435483871,0.8243488247576806
216.0,-0.11908764190176463,-0.06934187553857106,0.0075153984489153645,-0.6031960398636246,0.9519596399535426,9.731860758308045,0.2812425653778427,0.27210430248023676,0.26293624255366976,248.4262456797235,-3.523577704095013,-5.580192761605035,0.561540382789339,0.057856545998211,0.0017854616018882765,0.8253117695630459
217.0,-0.11075831741036302,-0.06188710614064668,0.006441609531302687,-0.683404668240231,0.9629797216290135,9.727173494810991,0.2677240806826271,0.2671257399497958,0.1881102829605485,248.3068660784534,-3.987999758813832,-5.646502507867821,0.5605876195043273,0.06058925213964443,-0.001346497643784422,0.8258111240221799
218.0,-0.11874724626278521,-0.0709940523022742,0.0029669645198756142,-0.7298371267468436,0.9710392079727249,9.722945618373242,0.0982137588512982,0.17659042373833875,0.2279705120639916,248.20230016672284,-4.264558395151924,-5.695434673672773,0.5597723473258963,0.062250040957111,-0.003138955639672549,0.8262709073067889
219.0,-0.11442527443707617,-0.07173185718032296,0.001467161215390956,-0.7780808137574462,0.9637550110524145,9.720964744670496,0.16734924693716982,0.0731742441272339,0.17609283091678846,248.15181732606493,-4.5478777958862535,-5.657838784609044,0.5593663341118731,0.0633767896519426,-0.005400674733430745,0.8264671970285864
220.0,-0.10578022554419092,-0.059541043797534755,0.0012865759994005466,-0.8040212056498441,0.9480334195047017,9.720582218725422,0.1925695927466187,-0.164137724326552,0.1880128133078566,248.12167959237195,-4.701046232812558,-5.560006181859054,0.5591148173324341,0.06346703722228467,-0.006971766437375895,0.8266253218706678
221.0,-0.11370049829530554,-0.05658798846052979,0.0006904949233824132,-0.7976872353976996,0.9486823273762688,9.720495672698672,0.265836330598329,-0.39368373234423587,0.12459255928964821,248.0914259488217,-4.660318553070324,-5.5606875913229175,0.5588808633947772,0.0632683580682627,-0.006690709355588026,0.8268029389565769
222.0,-0.11386047731445056,-0.054722003671649644,-0.00011502004420965885,-0.7094612416170244,0.9454583942152786,9.728497246262794,0.1201821306807538,-0.4959173972500094,0.2349949421153198,248.07295530328574,-4.144380362294406,-5.543596156007643,0.55891395443539,0.0606223005801581,-0.0030496388280693873,0.8269824584279344
223.0,-0.10712187628788727,-0.05062211981566822,0.00020194072908471,-0.679913828631374,0.9427518639241694,9.72940991345398,0.2679988104604549,-0.342761839196733,0.1659395957438837,248.0345095256828,-3.974917809373946,-5.5321679124049306,0.5587686955741633,0.05966345187329062,-0.0018959313345322394,0.8271621270844101
224.0,-0.1160833239668802,-0.041008392341987956,-0.00041025064628526513,-0.6630440972612492,0.949297328687573,9.729866247049571,0.24047665879884605,-0.3190131973324341,0.211487486418643,248.02544279907085,-3.8798307481922745,-5.566902232962422,0.5586913608109474,0.059488611353639795,-0.0010323047916900828,0.8272354385380838
225.0,-0.10562077104642013,-0.03507946498819828,-0.0007442958300550751,-0.6417324940991347,0.9528890637293469,9.73073957513769,0.29557435090479933,-0.44907553107789144,0.12107592446892212,248.01272619984263,-3.753461841070023,-5.5855920535011805,0.5586333208686074,0.05899239474901652,-2.5296915814319464e-05,0.8273174903320218
226.0,-0.11205732269304261,-0.04370566857742311,-0.001850736203214567,-0.6107214416844629,0.9665676070585588,9.730519276160507,0.09629509947173204,-0.16919139410288114,0.16081403843992356,248.0283227492413,-3.576819433516916,-5.667748023678393,0.5586966108198267,0.05867769341493387,0.0016410171226256044,0.8272975883869466
227.0,-0.12735674946611214,-0.060870143494061696,0.000634820726087445,-0.6035361732419168,0.968716533663032,9.730161290322584,0.1508373609081713,-0.13102075606009517,0.14914226705631112,248.01320248398338,-3.5279110936270652,-5.68013187965981,0.5585445252525566,0.058592880171668346,0.0020693041222884126,0.8274122899881233
228.0,-0.14462644711700576,-0.06856646435127947,-0.00031988310666516826,-0.5855446405155296,0.9698224682477233,9.735116050354058,0.14684373946274024,-0.18925644411974074,0.20588997695852534,248.0010937675621,-3.420598937844217,-5.686397568468772,0.5584546775476,0.05816203500715598,0.002860063375070248,0.8274858227517328
229.0,-0.14079866809036756,-0.06648622194747295,-0.0015289423401146454,-0.5869107939005657,0.9552849556030121,9.73771931549961,0.07155326233561875,-0.06170631017946125,0.2286825966617961,247.94515250927282,-3.425336841070023,-5.599419279907085,0.5580856588760815,0.057567171882020166,0.0023712024979206468,0.8277766944089112
230.0,-0.12311953467460943,-0.058947379266419395,-0.00011891648870405763,-0.6479058296804165,0.9331634258738899,9.735224232887495,0.13718423344947733,-0.005106941478400965,0.18614561088007192,247.88204591435317,-3.7841512588512978,-5.479646697388633,0.5575730225059007,0.05839831313573865,-0.0008715185759806672,0.8280612302519577
231.0,-0.12096836948784237,-0.05504972649956916,-1.3375295043273228e-05,-0.6615335600014988,0.9256254917387887,9.734209658686453,0.18139933638679706,-0.12148108210632796,0.1889829436888839,247.8112706530291,-3.868890145554681,-5.423675115207374,0.5570606707729192,0.05837742994344536,-0.0017556334239350341,0.8284017139316624
232.0,-0.1343583979618598,-0.042643962384324316,0.020338316286388672,-0.6535963433367054,0.9342171518489382,9.732734254992323,0.26137789891723806,-0.14869478475890746,0.08115797459817917,247.77817663257275,-3.820023603461841,-5.474549005282679,0.5568366965823683,0.058504837131242736,-0.0011982844565583905,0.8285528791806228
233.0,-0.1312037765538946,-0.053286126409651205,-0.008244352028773744,-0.6212566033494439,0.9409257802255444,9.735265070623061,0.13516728485257204,-0.4229234573451725,0.22536388670338314,247.78787793638304,-3.629739425274437,-5.513436176988497,0.5569462264917011,0.05787484922483235,0.00040030795062005904,0.8285266951762769
234.0,-0.12840657899666558,-0.050566483084185695,-0.003710239406541531,-0.6165613877336932,0.9373710239406541,9.737632535311533,0.2518662657824735,-0.2753268892135926,0.12936242553669774,248.2090241092503,-3.6011342774718065,-5.487270990221422,0.5599760642508712,0.057624658595781364,0.0007432193008879396,0.8264873004095015
235.0,-0.13715765613877337,-0.05090086546026752,-0.0038889513319096325,-0.5754718819077591,0.9441654490277622,9.738934284964975,0.2248709771083886,-0.41119314562961296,0.2528204731932112,248.8406204338541,-3.3610510097036452,-5.528032623356188,0.5645335950050578,0.056693942008354876,0.00295955323817017,0.8234275609757968
236.0,-0.12294518751639127,-0.0476048106103181,-0.0019444756659548162,-0.5240185830429733,0.9608384848825446,9.739578509609988,0.24874021205649843,-0.3248122026151137,0.2339131167809374,249.15552527069048,-3.0609498520100407,-5.626559514443071,0.5668323853519914,0.05589998470233412,0.005759527248885392,0.8218938219894347
237.0,-0.10910793900565731,-0.04442770971488518,-0.003084185680566483,-0.5714969465362858,0.9507288973811396,9.738947772657456,0.1857566689146154,-0.22181517178075005,0.20332228091866172,249.25916507436963,-3.339226003147128,-5.567396313364055,0.5675481702999138,0.05683978889513318,0.0035103417698849797,0.8213606890032221
238.0,-0.09840804016335093,-0.032402794949608495,-0.0022563785545689557,-0.5860656775692181,0.9416171368626127,9.739508448540711,0.24588812708403582,-0.1248908808212506,0.1360793432243078,249.31017009478853,-3.423870874077404,-5.532786098310292,0.5678755329310627,0.056942838115769355,0.0026829806514555464,0.821137372212057
239.0,-0.1105273687759919,-0.030905698550073066,-0.0008816454984826346,-0.5971104117492787,0.9367755423176353,9.73975422427036,0.015570791652616989,0.08710333071072647,0.20610130755685435,249.29609887227906,-3.4850249147652765,-5.502476958525346,0.5678504789578509,0.05702498730673261,0.002059178894084148,0.8211573049416663
240.0,-0.11035023041474654,-0.040046082949308774,-0.0012811059907834102,-0.6224946236559141,0.922617511520737,9.739877112135183,0.11507296466973885,-0.09711021505376344,0.2059715821812596,249.23239247311827,-3.635215053763441,-5.413133640552996,0.5673691055576038,0.057201192728110604,0.0005388248003072196,0.8214766016958528
241.0,-0.09911258476640064,-0.04196423888202018,0.0016253793413510166,-0.649456914315687,0.9372787456445992,9.735029036004649,0.27346717994829717,0.7176769557154097,0.28363657225281924,249.18107297403617,-3.798448447042074,-5.497957176576374,0.5669199549775767,0.05861285804093139,-0.00023573393672024278,0.8216786683908247
242.0,-0.09935444531864672,-0.05279996066089695,0.00048111723052714325,-0.7609950826121163,0.9503351691581434,9.724704956726994,0.11733625098347758,-0.2592016620771047,0.24849282061369,248.9312868804091,-4.449773800157356,-5.578299567269866,0.5649770607578679,0.06238088261428009,-0.004661294640047207,0.8227013368369394
243.0,-0.09544866247049566,-0.05399567269866249,0.0006585365853658534,-0.7496044453186468,0.9504417781274588,9.72719118804092,0.13413158929976396,-0.22165986428009443,0.1001696498819827,248.83235764162075,-4.382339201416208,-5.571407848151062,0.5643459579461055,0.061975864916797796,-0.004255403517112509,0.8231845268465776
244.0,-0.11387352478363492,-0.06586880409126672,0.0030308811959087346,-0.7336369000786784,0.9505112116443746,9.728434303697881,0.1226605527143981,-0.17834505310778914,0.10704047010228167,248.78616369984263,-4.293639358772619,-5.568415617623918,0.5640200404327302,0.061566374430173106,-0.003592693431943351,0.823446570052321
245.0,-0.12865932336742725,-0.07745869394177814,0.006201416207710465,-0.7235043273013375,0.9671439811172301,9.727167584579076,0.2506392604248623,-0.36145751376868607,0.01707317073170732,248.80762195121952,-4.229278127458693,-5.6691089693154995,0.564163354155783,0.06198441451927618,-0.0026593849079464987,0.8233206635892996
246.0,-0.12176493949271291,-0.07992600502041887,0.021340189577010976,-0.6726622082349856,0.9749956914315687,9.729190363793043,0.2843339046869731,-1.0947224719943052,0.34302901727173957,248.75641227380015,-3.9292078790603573,-5.713721385485744,0.5637892719394553,0.0608392195602263,-0.00027698073316848363,0.8236587923916675
247.0,-0.10409254055674197,-0.08552555168408826,0.012696058596530665,-0.6012209546289009,0.9813019369825031,9.733989359709271,0.12303831347645273,-0.3596153666029748,0.2947688359372073,248.50615656963024,-3.5172199898842305,-5.7522924393990476,0.5620402162844405,0.05910632525611629,0.002761999810441722,0.8249684448897756
248.0,-0.08756030122513206,-0.08477731257727325,0.012234845078865535,-0.6068071353639803,0.9741302311640626,9.734821100745577,0.2686887082724514,0.36533627908283695,0.1373447510396763,248.3369630680754,-3.552709597804503,-5.710391611404593,0.5608833387141358,0.058956557296860355,0.0022075094140440597,0.8257715789907273
249.0,-0.08933160990596081,-0.08810198194147839,0.007630287362781461,-0.7634041437188563,0.9742310141995426,9.721227754673862,-0.061610186954404095,0.5202713461466413,-0.05459471357386385,248.39437919148776,-4.470001592297029,-5.715554868682327,0.5611033693117531,0.06346640280319207,-0.004392536859990258,0.8252476307845342
250.0,-0.08038571053913302,-0.08543572739874865,0.01122269678917987,-0.8767925517964856,0.9495230602075606,9.714343224307818,0.26214828968566184,0.36713803341950474,0.11063537334682103,248.4165296822899,-5.131833998351504,-5.574535892248323,0.561136564718819,0.0656742226879847,-0.009859998186092692,0.8250078251168933
251.0,-0.07448240980105653,-0.08295043273013375,0.010326327226405902,-1.0607894046682405,0.956925930088794,9.693828256715747,0.19040594207785394,1.1618195271814469,0.19181325165786217,248.26040144618037,-6.216123880708853,-5.629175096474467,0.5597689126008765,0.07129552953392529,-0.017559497080289234,0.8253148377707838
252.0,-0.07405885879135288,-0.07700891686336217,0.017143231800981602,-1.162664193923045,0.9432836911318425,9.683888764002848,0.07892056311116105,0.3252641339777453,0.48211709939680036,247.9130992188378,-6.812755235847289,-5.561501301936982,0.5571048630197444,0.07359833353527406,-0.0224320892336368,0.8268192913690005
253.0,-0.07605784721441683,-0.0782087595069499,0.011705256453486194,-1.192100146116669,0.9275750252894234,9.681909819789439,0.006794190925780225,-0.5532377486793302,0.4287985650593833,247.5434111685587,-6.981790444344535,-5.470482793825633,0.5544117425467386,0.07369076972462629,-0.02434486105691057,0.8285869742021653
254.0,-0.09240987598816079,-0.08770192199617849,0.011222059870368289,-1.1355085984039568,0.9147944250871078,9.690820501292565,0.09495335506350455,-0.07984948109849768,0.2609334607170956,247.31345865647597,-6.6481580869956165,-5.385793432243078,0.5528874959285153,0.07146554247214418,-0.022439818692817803,0.8298604892808061
255.0,-0.09967363818976722,-0.0830097094093947,0.010006922529345819,-1.1362087767988631,0.909615231870149,9.690780845171087,0.23912619638426091,0.06287451402518278,0.1485211091033278,247.20362859996024,-6.650814881420704,-5.356957797644265,0.5521183385720972,0.07125981577055937,-0.022692657927881194,0.8303966375501854
256.0,-0.10780456103036748,-0.07440021269053529,0.0076769467092047735,-1.1609855843081651,0.9045353893418404,9.688952971759422,0.22561148528890465,-0.0006831206427980745,0.1470821517192485,247.14820985466145,-6.798214285714286,-5.332737356729292,0.5517377780759778,0.07175859538095239,-0.0239267791087085,0.8305770898986173
257.0,-0.12148215762731893,-0.08146354720548268,0.0035911615266453977,-1.1310427153491667,0.9069220725511042,9.693444995864347,0.14155958289022805,-0.26590415632754344,0.17505797294103745,247.1363985141203,-6.619642857142857,-5.351804546260191,0.5516786878759306,0.07099398959523809,-0.022573029904584662,0.8307176743149001
258.0,-0.14787241521918942,-0.09119106699751861,0.004014474772539288,-1.1250920181968567,0.901048593879239,9.694437551695612,-0.03243641439205956,0.29130867452440035,0.21070486972704713,247.11327414185277,-6.590624999999999,-5.314799162531017,0.5515210436745244,0.07057720882526881,-0.022517771076716295,0.8308568955752685
259.0,-0.13601400068591257,-0.08368483326272468,0.0034743892352074885,-1.2447711271157376,0.8881190058302568,9.679594857673143,0.28952898989287656,-0.2211686613609312,0.1866288658233977,246.98771926506487,-7.292299370574351,-5.240453647945289,0.5503875675018963,0.07337491023472331,-0.028057421578385682,0.831175969110805
260.0,-0.11438709677419354,-0.07078933910306845,0.0027254130605822192,-1.218697875688434,0.8803811959087334,9.684776750590085,0.22660306845003936,-0.2578739673485444,0.19489821007081037,246.916131490952,-7.139609559402045,-5.191194187647522,0.5498894980757276,0.07229443694138474,-0.02722467926081825,0.8316367538931941
261.0,-0.12256643625192012,-0.06885761117979844,0.004837744932748867,-1.2088212880746312,0.875051197032708,9.686949243190588,0.1437186809224083,-0.14806260771421076,0.21714956586489828,246.81319247358658,-7.0828496145704545,-5.158019088831441,0.5491501277700068,0.07176805426216702,-0.02703928446220636,0.8321834320431793
262.0,-0.14284763590723465,-0.07732101644749165,0.0010301037803004756,-1.1901991963583227,0.877041727548612,9.688357686111424,0.1339198489191113,-0.1370851246674909,0.2080898055524334,246.71080490614813,-6.972127133209696,-5.169735350867333,0.5484662153986738,0.07129567225598518,-0.026264314908424194,0.8327045956844537
263.0,-0.1680780038215129,-0.08091454048181035,-0.0034899404293582117,-1.1646566258289308,0.8778981679217712,9.691187291596417,0.14931999550410252,0.008743583979618608,0.1844980517777528,246.6603419692031,-6.823154340414371,-5.174801431194036,0.5481244404136227,0.07066093816754712,-0.02513367480386647,0.8330165421557829
264.0,-0.15639166760331202,-0.07399535423925668,-0.0009358959949046497,-1.1875643475328759,0.8615619497208794,9.690983102918587,0.14336293132516578,-0.14949795811322167,0.20487477052189879,246.63871248735526,-6.9563148626877975,-5.079270634296204,0.5479956610726463,0.07058323133378293,-0.026593119553782178,0.8330653616436254
265.0,-0.1499582256191226,-0.057705780974860454,-0.002265745007680492,-1.202114195796336,0.8512451762766478,9.690491551459292,0.28135888501742157,-0.17095767299838896,0.13149914765276685,246.64390384399235,-7.040706605222734,-5.019941178674459,0.5480151886087069,0.07052642944737926,-0.027478925886253787,0.8330335139414036
266.0,-0.1548139822412049,-0.053193136263159885,-0.002147465437788019,-1.1965640103405644,0.8502884867558356,9.69026113671275,0.19930079427522385,-0.20745944325802707,0.18612687797384886,246.64657749803305,-7.003840245775729,-5.007858454160578,0.548025926735229,0.07036294870525645,-0.027248417150500172,0.8330498443178602
267.0,-0.1600812633471957,-0.054244089768086645,-0.0036111048668090364,-1.1923221310554122,0.8464345659585628,9.690130568356373,0.2404253774680604,-0.19100843917425347,0.12048771121351766,246.64385326514554,-6.984999391180548,-4.9855824528867405,0.5480386860308717,0.07009107628496496,-0.0272185968946836,0.8330635626286391
268.0,-0.14629657937132368,-0.048284515379716036,0.004611591922370837,-1.0975767112509835,0.854920385148552,9.700070810385526,0.21294115994155333,-1.3256924150462701,0.4037877936383051,246.62341168371358,-6.420306002023153,-5.029178140571728,0.5479889844074781,0.06771225085762991,-0.022879403613690008,0.8333851402944066
269.0,-0.127728166797797,-0.04718450039339106,0.0029240755310778917,-1.0001593233674275,0.8536829268292686,9.711035405192767,0.2346675845790716,-0.42946007081038545,0.20958398898505115,246.4008187450826,-5.852635719905585,-5.019595790715972,0.5465245373957514,0.06491046584893784,-0.018908201952006296,0.8346722431502756
270.0,-0.1214455153422502,-0.04110916601101497,0.0006138867033831628,-0.9636949252557043,0.8545519276160504,9.716001573564132,0.18892112509834774,-0.3599700039339103,0.20378392997639655,246.29467569826906,-5.63485936270653,-5.019209775767113,0.5457912009551535,0.06385826238001574,-0.0173827073111723,0.8352794574925255
271.0,-0.12887195121951217,-0.04298603461841072,-0.0005680566483084188,-0.9101176239181747,0.8600178992918962,9.72016207710465,0.1974343528717545,-0.5059930664830842,0.15284962627852086,246.2166674862313,-5.321159520062942,-5.049121016915814,0.5453210241469317,0.06256612082710464,-0.014994759550747444,0.8357345373269081
272.0,-0.13390283241542092,-0.04802871754523999,-0.0024693154996066084,-0.832317859952793,0.8682018095987412,9.726103855232106,0.24374508261211641,-0.6490976593233674,0.1336890243902439,246.71405143587725,-4.867714889850511,-5.091915814319433,0.5490064929138474,0.060758732306845004,-0.011194220540912667,0.8334856559846577
273.0,-0.12463022179760969,-0.03940849911955342,-0.0031517833726724363,-0.7861523734592184,0.8646524015585776,9.729488366865239,0.23871318983927164,-0.4014005774418343,0.1528004523996853,247.8035104880859,-4.597833597935633,-5.076986624704956,0.5569894328916767,0.05940990727009104,-0.008765815770250271,0.8282681219526524
274.0,-0.12259825409314001,-0.03632236521673974,-0.0017219381064778388,-0.7740154078153685,0.8632065115582028,9.730015229852764,0.11212680538383724,-0.11577884399235697,0.23497738001573565,248.39590170844104,-4.528252091060657,-5.062732346577498,0.5612715864060076,0.05904070303571428,-0.008005434636403658,0.8254339431925926
275.0,-0.1101598666217077,-0.04226611966580497,-0.0019657094151586674,-0.7887125622869132,0.8565226106178114,9.730168905248963,0.17006259132291784,-0.21611621192536812,0.22608674272226592,248.6462875477689,-4.614919589000037,-5.020074006687647,0.5631283267611272,0.05915878052090591,-0.008694184193398524,0.8241824587910249
276.0,-0.11820463826758083,-0.04558427934509762,-0.001080514030946761,-0.773637555730396,0.8627125248211007,9.730193323592225,0.2155080364167697,-0.1001109924693717,0.14673485444531864,248.77226171743283,-4.523109381439436,-5.0685975609756095,0.564038430604698,0.05905671831179046,-0.007776899403544267,0.8235957374260983
277.0,-0.12432261811097374,-0.049503390656026394,-0.001224757408864411,-0.7668148439548912,0.8617378517103143,9.730084860065194,0.11881814094638642,-0.25867567719455997,0.17619000786782063,248.82242609868493,-4.484115666329474,-5.059746262785209,0.56439939744633,0.05881781467123748,-0.007481096444494399,0.8233705328869281
278.0,-0.12416207710464201,-0.04592604248623133,-0.0009457120377655388,-0.755466561762392,0.8612368214004721,9.73258851298191,0.2508261211644375,-0.2910601888276947,0.14716758457907161,248.84957710464198,-4.420662863886703,-5.04257474429583,0.5645304302439025,0.058438929708890634,-0.007049276753737213,0.8233103877545237
279.0,-0.13498033044846577,-0.051323367427222676,-0.002791502753737214,-0.7369819040125885,0.8657560975609757,9.734516129032261,0.11341463414634147,-0.18792289535798581,0.2137785208497246,248.8344512195122,-4.306520456333596,-5.057621951219512,0.5644748592022029,0.058046200901652245,-0.006153822901652242,0.8233776164752161
280.0,-0.14583862898182332,-0.059166898666505284,-0.0022867316266214767,-0.7280050636486514,0.8699210595331761,9.735434243176183,0.19285339627589823,-0.025182952046642046,0.09926226573059775,248.8102415320059,-4.256527895458856,-5.093671321793863,0.5643288994378947,0.05800334604797353,-0.005662790185821784,0.8234837179345957
281.0,-0.13216793762230425,-0.057441828562206226,-0.0020426577094555063,-0.7566162218321935,0.8654640702858641,9.732717121588095,0.16160175714660371,-0.08590481197926123,0.19046020446246645,248.84362883051907,-4.425018471726281,-5.069160601888276,0.5645198985041558,0.05865605347323933,-0.006972766815176824,0.8232994782041192
282.0,-0.12591087675765095,-0.05482712985938794,0.00016356492969396216,-0.7730138544251448,0.8627123655913977,9.73135856079405,0.19563172043010751,-0.09572089536807278,0.16454068444995862,248.83681244830439,-4.522240746484698,-5.053074596774193,0.56448456224421,0.059009894721670814,-0.007742555520885028,0.8232864003664183
283.0,-0.12612076095947064,-0.05086517783291978,-0.0005512820512820511,-0.7769545078577336,0.8648279569892473,9.730598635235737,0.16510416666666666,-0.05237153639371381,0.1480717535153019,248.82768041770055,-4.546478236145575,-5.071270161290323,0.5644238541583952,0.05921353944954508,-0.007855815377377997,0.8233160748283704
284.0,-0.12191982748434362,-0.04542030012997757,0.0037293512938674223,-0.7800594351884673,0.8569685099846391,9.732041829138605,0.2926075268817204,-0.6447665573673639,0.21235672929221316,248.8107224093111,-4.5603106906534325,-5.030635560675883,0.5643067763238214,0.05897224270979557,-0.008181744182736617,0.823411088286305
285.0,-0.10214412161402721,-0.04404657000487057,0.0029007062305646094,-0.752644355775355,0.8563809242815933,9.735579408789484,0.15452399685287171,-0.16387001938855797,0.23927377205799708,248.80966442340113,-4.406381540125885,-5.028250510471695,0.5643442617077761,0.05820316945189389,-0.007065531879744107,0.8234517775588961
286.0,-0.1002661009328987,-0.05259940616687274,0.0003456127533625567,-0.7398137199805177,0.8678634558465401,9.734048555692933,0.37328506097560976,-0.675235683376419,0.2379394037315949,248.75106549258174,-4.3282294944925255,-5.095194541231127,0.5638776371856151,0.05830177866241429,-0.006208850427381888,0.8237722330693773
287.0,-0.09779630774418341,-0.05755766925180774,-0.001248220373908808,-0.6677477333183469,0.9015713817391628,9.73718556816905,0.2766657651455547,-0.3569960379903338,0.14502571091379116,248.70597445065752,-3.9024402537372147,-5.30269660185081,0.5636291764638737,0.05765970500134877,-0.002182540087904162,0.8239930040127568
288.0,-0.10327596707539252,-0.06751467483595638,-0.0014441589491449515,-0.651619834401109,0.9003617411321467,9.738514014392106,0.004006527546520783,0.04085916405059453,0.2811986206481934,248.61732577090265,-3.8085889612647064,-5.284970769042435,0.5629640605924957,0.05710313144928652,-0.0016256910815552318,0.8244936325151931
289.0,-0.09819131612171336,-0.07124768997127331,0.003561012204270581,-0.6747521636506688,0.8959557572319905,9.737724187144355,0.2621699632225129,-0.08293917991693045,0.3501397453021792,248.4209444129325,-3.9479362980989148,-5.262196265529797,0.5614968197173074,0.057608566862386315,-0.0028378050410773417,0.8254595370550564
290.0,-0.10450478473276856,-0.0738790621000198,0.001134595495563787,-0.6727158967442209,0.9080215262874953,9.736174296187293,0.30657484710898975,0.035695934000921824,0.2039407935607595,248.22969919309094,-3.9292046988227893,-5.3303237612539025,0.5600682855873638,0.058015318271214145,-0.0024985931838708802,0.8263959113661252
291.0,-0.10969535066693503,-0.08278532176598155,-0.00015260783837074232,-0.6707875313776182,0.9214733909958328,9.733551349509856,0.1667856532948568,-0.320738775721805,0.3192205934758951,248.07054393171464,-3.9171249693956587,-5.41516188062695,0.5589207470855778,0.058557679013655856,-0.0020689250341069587,0.8271408091252341
292.0,-0.10251880043181527,-0.06896543822366742,0.0004705096134660845,-0.6581514368139073,0.9178846105254541,9.735894478846198,0.26772111146253463,-0.5916488921882038,0.1429895256915274,247.96945272903594,-3.8468394319834314,-5.400219610651792,0.558243852051837,0.05807672373184759,-0.001683663709028302,0.8276349929143085
293.0,-0.11697088906372934,-0.0659787943501555,-0.00011614401858304276,-0.6032535311528231,0.9237008729534302,9.73795474129857,0.21823835749878234,-0.35223717732569026,0.20180725712787081,247.90996262785208,-3.525547000861714,-5.423270016110299,0.5578639510617811,0.05669722429845267,0.000731682868007943,0.8279843412374959
294.0,-0.13254692593008877,-0.07001554831216515,0.00029579258926229794,-0.5571181297066428,0.9494885916601099,9.739028511483276,0.31891016634820724,-0.29824308755760365,0.12340184893784423,247.87503512419917,-3.25651788055899,-5.5665767487167965,0.5576178040247649,0.05648435572290286,0.003394549037315949,0.8281593122741745
295.0,-0.11925930088793973,-0.06878648233486943,0.0011741785620621183,-0.5541028811209772,0.9527765913603836,9.739598741148708,0.1893639241691956,-0.3247817616425012,0.2022896294631149,247.85468416320109,-3.236926773069574,-5.583106196845378,0.5574867026222322,0.05654346649769584,0.003621819513693755,0.8282498462860142
296.0,-0.125007305833427,-0.0640234535985913,0.002750739949795811,-0.5509853508673337,0.9554362893859353,9.73994492525571,0.2867305458768873,-0.13863989734367388,0.11075830804390994,247.8316005395077,-3.2130493424749913,-5.596799951294443,0.5573260530931775,0.05655348470832865,0.0038530900636918825,0.8283591729384439
297.0,-0.12730695740137127,-0.06636656550897307,0.00010078303548012417,-0.5639545165036904,0.9522775467386009,9.740000000000006,0.07299745232475366,0.0016133715484620281,0.2462721516616088,247.73105400696863,-3.2931887152972914,-5.578518976434003,0.5566120136709004,0.05677475744857817,0.0031369953268892137,0.8288225684755159
298.0,-0.11795900630209818,-0.06348829803269633,0.0025828234061999822,-0.6126515121811813,0.934560726418538,9.73831957989498,0.08800436171760709,0.15614411006932916,0.14286394987248555,247.64178585478248,-3.5751372784398185,-5.486955063025338,0.5558988970865801,0.05745510834690816,0.000552200498330158,0.8292596768748504
299.0,-0.11462082419559594,-0.06471265900098719,0.0055771259888142775,-0.6480961093932021,0.93073274416165,9.7349816025435,0.1961719197220908,0.041301701732053206,0.17881484744008302,247.52372990895805,-3.783368370402705,-5.461915511543391,0.554988983558651,0.058287461788661454,-0.001125270472801127,0.8298082933721411
300.0,-0.10570144278229837,-0.06260809976013168,0.0008688147646667773,-0.7100000609908576,0.9293356875804318,9.732329510949171,0.1481203815762303,-0.03294867706473657,0.13612260861382594,247.42925283803527,-4.147068724933846,-5.4574280547488785,0.554262009422913,0.05996163466695072,-0.003843286389036284,0.8301654294791467
301.0,-0.10868549715826169,-0.06542914822782353,0.0008836599393750885,-0.7393918479619905,0.9341304716423009,9.731003465152007,0.1704557454694684,-0.05719031020821408,0.14899659148236538,247.3628119028886,-4.319310326274948,-5.476186490002291,0.5537657618979239,0.060970113560855375,-0.004993017765721917,0.8304158598741131
302.0,-0.13386712009012708,-0.05262690411278778,0.013138619149560915,-0.5566087410354332,0.9275959390544501,9.73722216268353,0.08647595261184633,-3.279237927948886,0.7390551688444759,247.19260940017233,-3.246368615237433,-5.434980772632182,0.5526040716094842,0.05547062925036138,0.00263035530450557,0.831406487658948
303.0,-0.14922591884905026,-0.07240050953504926,0.002558128208010194,-0.30468221497883186,0.9223683264021583,9.744439324116744,-0.13126100558240603,0.9193232269304263,0.4855208684575325,246.78538880146866,-1.7748115001311302,-5.403102637593196,0.5497587654348282,0.0481574124751789,0.013055169700086171,0.8335333756140271
304.0,-0.13536527293844364,-0.08561260349930687,0.0018999662807688,-0.45195886253793416,0.8749757970851597,9.747511520737326,-0.19569716852122437,0.47430898992169673,0.3550331806601476,246.39733430744445,-2.6394066586115166,-5.1259248201641,0.5469627215790154,0.05031434385054887,0.0051724089826158635,0.8354311821065903
305.0,-0.11576363755573038,-0.07783290247649019,0.003835412685924095,-0.5584621033307108,0.841186523547263,9.745760368663596,0.19471609109812296,0.36419052770596844,0.29727020578097485,246.08164503016,-3.2644869174066162,-4.928858217657638,0.5446808554450098,0.05186332762944437,-0.0005248241683526284,0.8369136198356564
306.0,-0.10794230264883295,-0.06827128994792253,0.0048693192461878535,-0.6350697613427747,0.8249239069349219,9.743041474654383,0.16996389232325504,0.08980695740137132,0.20818651418081002,245.90271767637032,-3.708024708703308,-4.835422052377206,0.5433613538555693,0.05330383975827058,-0.0043432031567569584,0.8377221641839572
307.0,-0.10364857067925518,-0.06665868644861564,0.003882432280544003,-0.7369626840508037,0.7958720917163089,9.739377880184337,0.0711810629050991,0.7647095462890113,0.31432271177550486,245.64577128058147,-4.30989753100296,-4.665502884867558,0.5413970013786296,0.0548872426901952,-0.009697700330298601,0.8388619004329922
308.0,-0.09376089318496872,-0.054769622719268676,0.004330036341838072,-0.8310862463002511,0.7908853546139145,9.734347158218132,0.20542832790079052,0.04181278333520666,0.23219132853770935,245.48810109212843,-4.861100886066463,-4.63871014574201,0.5401081344000225,0.057286259549735874,-0.01392777620801019,0.8395086169042376
309.0,-0.09099925068375109,-0.05690094039189242,0.003274380877449327,-0.8590246337716836,0.7900374845453519,9.731850998463905,0.12235912854520249,0.04409187553857109,0.22813834719568393,245.37654956258663,-5.023685769547787,-4.629519313626316,0.5393242959018207,0.05796399169068227,-0.015222194547750176,0.8399530989202538
310.0,-0.11255556179985765,-0.073021580307969,0.0006676688771496006,-0.8662582237458321,0.8033984395489112,9.73070660522274,0.2628445683938406,-0.1636129687909782,0.17715340611067404,245.30179385139184,-5.064078422970289,-4.710930767861826,0.538711321206783,0.058736400536529176,-0.015203369968322653,0.8402999606070489
311.0,-0.13543100670638042,-0.08072046757333934,0.0001120602450264132,-0.8266573376793678,0.822138735903488,9.731095238095241,0.20889204226143643,-0.3288830972987149,0.23502327563598216,245.24648664343783,-4.827830542130306,-4.826987561350268,0.5383842316800044,0.05846764667955491,-0.012959661427709716,0.8405671998882018
312.0,-0.14178232362968796,-0.08417743808774494,0.0003670900303473081,-0.8007672249072721,0.8287306582743241,9.731803379416286,0.2799932561537597,-0.2966660110149488,0.17710745195009553,246.10461812970664,-4.679372260312465,-4.866642782211232,0.5446666522032895,0.05812932860859467,-0.01124725343658911,0.8365180748442544
313.0,-0.12799318122213482,-0.06975984414222024,0.00023562249447379262,-0.7976883219062606,0.8250949758345508,9.732007680491554,0.21243092240830241,-0.27997967479674796,0.20744679854632647,246.91586442995765,-4.66120836611592,-4.843191525233225,0.5505655943911432,0.057978135416469984,-0.010817695688921356,0.8326578932808437
314.0,-0.10812719643325466,-0.057322880371660875,0.0010894870930276124,-0.7956970327076542,0.8176104304821847,9.73339565771234,0.2591462243827507,-0.3177534093889326,0.17406663294743546,247.33878390656025,-4.652201350642539,-4.797775935708666,0.5535831807124874,0.05765198888054026,-0.01072526928033794,0.8306953491345213
315.0,-0.10185510097036451,-0.059620527518639256,-0.007040622307144731,-0.7812828200517029,0.8286667415982916,9.733246215952946,0.3786289737177325,-0.7104551862050879,-0.1844114120864711,247.6065624882919,-4.569373688696564,-4.8619337979094075,0.5555236093460154,0.05771255500990035,-0.009664042784150088,0.8294236824177721
316.0,-0.1040162601626016,-0.06956026375931963,0.0011288823948147307,-0.7350164100258516,0.8476236933797909,9.73520778539583,0.2779485594395114,-0.3804796092315762,-0.035552480236783944,247.80071067962984,-4.296329989509573,-4.975523350567607,0.5569915906649433,0.05722554111382114,-0.007077499541268593,0.8285013327613053
317.0,-0.10616496197220036,-0.060191974822974045,-0.0002023903188340645,-0.6812794200292235,0.8513465962309392,9.737722940316965,0.32390318834063914,-0.4015030815630737,-0.028518976434003973,247.97135363980365,-3.9820960248772996,-4.994186476714997,0.5583157446520928,0.05585190737315949,-0.004598861081563073,0.8277277117873438
318.0,-0.11009323367427223,-0.061983084185680576,0.002733674272226593,-0.6362871754523997,0.8458591660110146,9.741955940204567,-0.025149980330448435,0.04797157749803305,0.27549665617623914,247.8872369197482,-3.7223028127458697,-4.9557385916601095,0.5577488911455548,0.05435368909441386,-0.002900406970889064,0.8282130613084189
319.0,-0.13633221872541307,-0.07464693154996066,0.00030310778914240653,-0.6323961447678994,0.843421321793863,9.743129032258068,0.07859829858379229,-0.14709505310778914,0.19108231707317075,247.7519337627852,-3.698916945318647,-4.9375713021243115,0.5567657443076319,0.05408448386900079,-0.00287389808733281,0.8288999959799374
320.0,-0.13318627065302907,-0.07798878835562549,0.0019378442171518488,-0.6742303304484658,0.8155332415420928,9.74270967741936,-0.12756072974036192,0.3938667879622344,0.3555714004720692,247.5486735346184,-3.9453506097560975,-4.778916699449253,0.5553087770005901,0.054110201579661676,-0.0055477896968922115,0.8298430640867428
321.0,-0.11621007081038551,-0.06854681353265146,0.004049567269866247,-0.7538288749016522,0.7758674272226591,9.739983870967748,0.055146046420141606,0.13183762785208497,0.34119295830055074,247.27017850118017,-4.409923288749017,-4.548581333595594,0.5533212218914241,0.054661202632572764,-0.010187180884736429,0.8310818701683715
322.0,-0.1096290322580645,-0.0625967741935484,0.0026935483870967735,-0.8032338709677418,0.7533790322580645,9.73805645161291,0.0861391129032258,-0.14994959677419356,0.267641129032258,247.14873991935485,-4.699395161290322,-4.4233366935483875,0.5523791404516128,0.055099782161290314,-0.012961012233870969,0.8316481567741936
323.0,-0.09581451612903225,-0.05814516129032259,0.0028064516129032253,-0.7990725806451615,0.7474032258064519,9.738935483870973,0.2423891129032258,-0.3761592741935484,0.19964717741935484,247.06149193548384,-4.675504032258064,-4.379989919354839,0.5517343343709675,0.054671010088709684,-0.013034795887096775,0.8321153217661288
324.0,-0.10248387096774193,-0.05839516129032259,0.003241935483870969,-0.7620887096774194,0.7524112903225811,9.741983870967745,0.21738911290322582,-0.4446572580645161,0.20211693548387097,247.02076612903227,-4.45539314516129,-4.401058467741935,0.5514715383225806,0.05381184196774194,-0.011341611862903226,0.832369699814516
325.0,-0.11525098347757673,-0.054708693941778144,0.0013208103855232105,-0.7083505114083399,0.7567409520062947,9.746120967741938,0.28045707120377655,-0.37801190007867824,0.1506306549960661,247.0045866935484,-4.142620230133753,-4.4232604740361925,0.5514095804901653,0.052491828899488585,-0.008937819064516128,0.83252825786487
326.0,-0.13111742722265934,-0.051551927616050375,0.0028821793863099926,-0.6672559008654604,0.7717212824547601,9.74826612903226,0.25416502753737213,-0.32645554681353267,0.17901996459480723,246.9955141129032,-3.904399832808812,-4.514175599921321,0.5513817148983085,0.05195254392151848,-0.006773946322580644,0.8326001644606607
327.0,-0.13048662470495673,-0.05092289535798586,0.0021762391817466563,-0.6720875295043272,0.7786046420141621,9.747214791502756,0.17778078284815105,0.008165322580645146,0.19427493115656963,246.9180959874115,-3.931395062942565,-4.556406127065303,0.5507887719571203,0.05239860087785209,-0.006817980756884343,0.8329660985145552
328.0,-0.11772948746768575,-0.048553613577610455,0.00239149900715597,-0.7166860458581544,0.7756967142482484,9.74360739575138,0.23261158958075756,-0.1249927995391705,0.157773746300251,246.8615057510022,-4.190023088306919,-4.5551243864973205,0.5502572045592051,0.05358010410194447,-0.008780771917228654,0.8332267808406107
329.0,-0.10795402944812857,-0.048017590198943486,0.0037199430519650814,-0.700119328612641,0.7746071896894084,9.745901240118394,0.18693871529729122,-0.3269633256528418,0.19161128751264472,246.8224579446255,-4.095323564122738,-4.560828322280919,0.5500007406945409,0.05311122489813044,-0.008112817172324005,0.8334302922937693
330.0,-0.11089788692817804,-0.057825250084298084,0.0014991757521261846,-0.6944926192349483,0.776242937694354,9.746721741410965,0.16659794031696076,-0.24200532248698062,0.18464059748604397,246.7299693716983,-4.060971511932861,-4.557314614476789,0.5493979872368587,0.05295470078108724,-0.007894664062352478,0.8338432641284143
331.0,-0.10360908171293695,-0.05749653441234874,0.0023974373384286836,-0.663680641414709,0.7846727361282833,9.748360870705483,0.21940448091116854,-0.315567513394028,0.19798106103180846,246.67394205912103,-3.8793600839234195,-4.60159557528755,0.5490107217758795,0.0524273784181934,-0.0063768969326739346,0.8341399948203516
332.0,-0.1059941553332584,-0.06041231126596982,0.002182196245925593,-0.6424736802667564,0.7925960061443935,9.749247311827958,0.184372775467386,-0.25261558203139634,0.24983140384399233,246.62149109250308,-3.753384801993181,-4.646121351766514,0.548577750832865,0.05215977710838858,-0.0052748090957626175,0.8344598257382636
333.0,-0.12073440485556927,-0.06648956577123376,0.0024682102581394475,-0.6121700198568804,0.8037188940092166,9.74978494623656,0.335893184968716,-0.3308584822599378,0.14472176951032184,246.56460019294894,-3.573404190551122,-4.706163594470047,0.5482490134486904,0.051787770107189685,-0.003679877309018022,0.83470316262182
334.0,-0.14186152635719906,-0.07464441197407366,0.002538196395788842,-0.5774008092615488,0.8280998463901692,9.749923195084484,0.21048902251695326,-0.3063972874751789,0.24182870630549624,246.53942152785584,-3.3640801206399162,-4.827880184331796,0.5480804167974973,0.05179139078296055,-0.0015044847422352105,0.8348232786432503
335.0,-0.15360357423850735,-0.08217474054924882,0.0007644899029635453,-0.5458639991008203,0.8381566820276498,9.75,0.2842479674796748,-0.3167355100970365,0.1866305589899217,246.51892351354388,-3.182510490427485,-4.8994143625192015,0.5479557416030498,0.05136009229470607,0.00011053353287625019,0.8349247715328385
336.0,-0.13896538158929977,-0.0703630999213218,0.0005865460267505898,-0.6703375295043272,0.8693870967741936,9.735290322580646,0.5934008654602675,2.2946228363493306,0.3124877065302911,246.42188975216368,-3.91870820220299,-5.093346774193549,0.5470400557124313,0.05622937876947284,-0.004434122422501966,0.8350695519476788
337.0,-0.14527261998426436,-0.08074724626278519,-0.0047704563335955906,-1.0993111723052715,0.8868225806451613,9.685612903225808,0.03705743509047993,2.8186627163650666,-0.17357518686073953,246.46614255507473,-6.445019915420928,-5.2251008064516125,0.5466579848719513,0.06912132489771833,-0.022343425561368993,0.8337903401681745
338.0,-0.12517663257277734,-0.08799055861526356,-0.009784421715184888,-1.4849539732494097,0.8838387096774193,9.633806451612905,0.1567343627065303,1.4900521243115654,0.035112608182533464,246.29731018882768,-8.720468627065303,-5.23336693548387,0.5446782289158144,0.07981163535208498,-0.03907912770810385,0.8335126802977968
339.0,-0.10442938630999213,-0.09340912667191187,-0.0009071597167584567,-1.6534958693941775,0.9026707317073169,9.611210857592454,0.26028594610542877,-0.32976740755310774,0.23008580841856804,245.99545387490164,-9.712540568450038,-5.3615939712824545,0.5421646401738788,0.08528497586644375,-0.045974917709284024,0.8344467584415811
340.0,-0.087213217938631,-0.08655940204563337,0.0037167584579071602,-1.642912470495673,0.9154242722265933,9.616655782848152,0.35814688237608183,-0.813508064516129,0.2018071400472069,245.8464176829268,-9.643703284815107,-5.432460906766325,0.5411462174478756,0.0854558084573171,-0.04522486796597168,0.8352717820617621
341.0,-0.08970279307631787,-0.08324881982690796,0.004493902439024391,-1.5368379228953581,0.9179531864673486,9.633937057435087,0.1467385424862313,-2.432074891817466,0.20173706726986623,245.75573859166008,-9.006892948465776,-5.437727429189614,0.540730604700236,0.08255525639201416,-0.04055338431018883,0.8360792671229346
342.0,-0.08145239968528718,-0.07440952006294257,0.004166601101494885,-1.2783560188827696,0.9102193154996064,9.669454956726984,0.21594831825334382,-0.9629081431943352,0.03942761605035404,245.74057090873328,-7.490467643587726,-5.373948908339889,0.5411023173994884,0.07499025297639653,-0.02971240860562549,0.8369415098568057
343.0,-0.0841778127458694,-0.07026121164437452,0.0017970102281667974,-1.1590731707317072,0.9051943351691578,9.686804091266712,0.17841266719118803,-0.6757081038552321,0.11749606608969315,245.7083398898505,-6.787824547600315,-5.3123524783634934,0.5411984918489376,0.07132393576239182,-0.02478337579071597,0.8374233772509835
344.0,-0.09046982128807465,-0.07090315087482672,-0.00131647371773257,-1.0863368176538908,0.902655052264808,9.697329212093958,0.28317035704919263,-0.37631739163013744,-0.04560479187741187,245.7565434041437,-6.362529972649957,-5.300628020681128,0.5416641586283765,0.06923074053059083,-0.02170419120227792,0.8374254557130867
345.0,-0.08928140571728299,-0.07262515454647633,0.0035130193698250343,-1.0706424637518266,0.9041095500355922,9.699733693005127,0.17959775767112512,-0.41964707204675733,0.048920047956239915,245.86124114870182,-6.268992356974261,-5.311441590798396,0.542477635364917,0.06888203573680267,-0.020903086578434676,0.8369697294389118
346.0,-0.06869862500468324,-0.07325218238357498,0.00732673935034281,-1.0215690307594316,0.8975579408789478,9.70541085009928,0.23168542298902253,-0.27257760106402906,0.19543877149600988,245.8826900921659,-5.979109062980031,-5.275392454385374,0.5426895223832938,0.06724119314340041,-0.018935757257408863,0.8370204475284551
347.0,-0.06913594470046083,-0.06197695852534563,0.00409984639016897,-0.9914201228878645,0.9041466973886325,9.707819508448535,0.2038042434715822,-0.4638008832565284,0.28275249615975423,245.81711309523808,-5.801910522273426,-5.306259600614439,0.5422410054166665,0.06665114746582182,-0.01750807505184332,0.8373898158617512
348.0,-0.07897886928178038,-0.06540744071035182,0.005213180472818551,-0.953253531152823,0.9101380615188639,9.710951256978003,0.11529401296317111,-0.08428168671087632,0.24205607695477876,245.7050492207111,-5.583299379940804,-5.341859147278108,0.5415008567676369,0.06584529358922485,-0.01581104530965494,0.8379642486523546
349.0,-0.09785545689558277,-0.081386797047694,0.006574313438986925,-0.9617949870742946,0.9245697051440558,9.709686598478886,0.15211471095125698,-0.02965653216439999,0.19409983702371586,245.63069714510507,-5.630660850099284,-5.430536042111573,0.5409294408064516,0.06671044254224272,-0.01581610213068075,0.8382632598048029
350.0,-0.09765276685024914,-0.08754055674197295,0.007699599115806826,-0.9774028698812333,0.9163631935858522,9.710008429807797,0.15835862275673449,-0.2005041493387284,0.19533620883443858,245.54029096886592,-5.721796438874527,-5.379726546401408,0.5402540110368663,0.06676048432411676,-0.016751351626016257,0.8386814112541682
351.0,-0.10144696714248248,-0.0925114458057023,0.004963470832865011,-1.002214491776254,0.9134734554718813,9.70653186467348,0.11992431905885881,-0.01896847251882658,0.18173588475516092,245.48147900977858,-5.867037812371212,-5.371386890712225,0.5397684470675882,0.06729916121198157,-0.01794750246277771,0.8389254576263161
352.0,-0.10856603349443635,-0.10246232812558541,0.00633734217526507,-0.9905980292982652,0.9177935633734216,9.708265932336738,0.1764368139073096,-0.3769669551534225,0.2359620283990858,245.42700582593383,-5.80064160203814,-5.389140065939829,0.5393762505499231,0.06712356158525344,-0.01734579221910007,0.8392040714552473
353.0,-0.11465421648899227,-0.10676365412714744,0.006511183545015174,-0.9590084903294975,0.9168501396322006,9.711191409953798,0.1993891991826689,-0.04733427141963728,0.2718902114801013,245.3047992624999,-5.615672759904664,-5.382094619909332,0.5385051078194952,0.06622148551311736,-0.01608469119811345,0.8398563340043692
354.0,-0.11029327661585725,-0.09440464374335342,0.00816589861751152,-0.9293681318681318,0.9389120879120877,9.711655500413567,0.49090231005553586,-0.7780190239867659,0.26843428748670684,245.21346375398795,-5.439440431879948,-5.515850614439324,0.5378366786383079,0.0663563044748907,-0.014200624500708966,0.840301318662295
355.0,-0.09848304383788255,-0.09060401157981803,0.005876344086021505,-0.8814021918941275,1.0181641852770884,9.707472911497106,0.9363833746898262,-0.08457402812241521,0.16897616832092638,245.10728391232425,-5.15798826509512,-5.985685483870967,0.537005310790736,0.06850080966832092,-0.01003533401840364,0.8407111622489664
356.0,-0.09066894127377997,-0.08851571546732837,0.0031559139784946236,-0.9393825475599673,1.049501447477254,9.697232423490487,0.09823200992555825,0.12384201819685689,0.30507780190239864,244.91674679487178,-5.496660463192722,-6.170110887096774,0.5355162792663357,0.07141478530996691,-0.011813414190653435,0.8413935382373865
357.0,-0.08065301902398678,-0.08750785773366418,0.00700537634408602,-0.9702961124896612,1.0439483043837883,9.69561621174524,0.01393455334987588,0.08177988006617037,0.21153587675765095,244.69249638130685,-5.6704068444995865,-6.140625,0.5338429213267163,0.0719736451025641,-0.013390356038875105,0.8423957516025642
358.0,-0.08523387096774196,-0.09940322580645163,0.005717741935483869,-0.989161290322581,1.0153306451612902,9.696935483870963,-0.10619959677419355,-0.05559475806451614,0.26617943548387096,244.52293346774192,-5.7847278225806456,-5.98039314516129,0.5325970561935485,0.07124810917741936,-0.01509025343548387,0.8432151554596774
359.0,-0.08129032258064517,-0.09753225806451613,0.006959677419354839,-1.0044193548387104,0.9817258064516128,9.69827419354838,0.029737903225806453,-0.059072580645161285,0.22081653225806452,244.3939516129032,-5.875806451612903,-5.774949596774194,0.531657114153226,0.07017984702419354,-0.016769261540322572,0.8438700044193551
360.0,-0.0875,-0.09058870967741936,0.004064516129032258,-1.0392661290322582,0.9634516129032256,9.697016129032253,0.16980846774193548,-0.008215725806451617,0.14148185483870968,244.36607862903224,-6.087802419354838,-5.6597278225806456,0.5313660662016129,0.07033642220967741,-0.01885129835483871,0.8440031003870969
361.0,-0.09930976013234077,-0.09100847808105873,0.004009305210918114,-1.0430856079404465,0.9644948304383784,9.698709677419348,0.23207066790736147,-0.08712520678246484,0.13820176799007444,244.34052936310997,-6.1018894747725385,-5.6608754652605455,0.5312629564576096,0.07046330427502066,-0.018977359932795694,0.8440544842433834
362.0,-0.11357620186003348,-0.09092624926869615,-0.004337105852448103,-1.004792017188162,0.9653218644717462,9.702213021243109,0.21221882628255562,-0.2932245329742379,0.09858123903044241,244.37782885346687,-5.87884968427848,-5.667710918114144,0.5315109295412556,0.06947132996736871,-0.017247897028258588,0.8440167208015699
363.0,-0.10595419155981706,-0.07844603554064608,-0.003101348625148783,-1.006239710591009,0.9553840505154434,9.701249559776697,0.2662188601458861,-0.33191132562690384,0.005721831112763448,244.40859688641086,-5.892134615564739,-5.615014253219899,0.5317318892107201,0.06911335322369971,-0.017563227818468773,0.8439008307729048
364.0,-0.10526338610248917,-0.0770415661574198,0.005413035364844963,-1.0455714681987305,0.9556839607415928,9.697657037952865,0.24384531716971725,0.13898385331558033,-0.03468948766942472,244.33910187062477,-6.123562267459789,-5.622476884674466,0.5311843662948761,0.07018722857152727,-0.019311974800363417,0.8441141265437105
365.0,-0.08662323514408488,-0.07833441407792313,-0.007762109382880429,-1.0559498765069182,0.9639239040529365,9.695242366340711,0.4507858814408775,0.17081593334543768,0.0792081672589147,244.39428170832576,-6.181172852848698,-5.678096477349035,0.5315823425199793,0.07084854740525616,-0.01947401713169233,0.8438098294684523
366.0,-0.07992825296916564,-0.07709696152261061,-0.0009218463152373458,-1.0705474129856505,0.9624466299501708,9.693844629275782,-0.05264625716533666,-0.0632244951481773,0.17732498782361095,244.231967938631,-6.267454151212018,-5.669500487055561,0.5303826751950095,0.0711389949279907,-0.020250602392229592,0.844518999176014
367.0,-0.08782276797422353,-0.07776094938368738,0.0015751564197669632,-1.0565649657187817,0.9344228953579861,9.698310422989017,-0.1667789470233412,-0.22043877149600988,0.3173257137237271,244.0754529850886,-6.182196128844929,-5.501848937844217,0.5292942164930126,0.06949852940809634,-0.020480182736334347,0.8453319885069309
368.0,-0.09431076954778764,-0.07478293244914015,0.005238423063954141,-1.1066849406166872,0.9004833370799149,9.696079174628148,0.030761832171893155,-0.06440045333633058,0.27507030693866846,243.81408017918022,-6.473586543685137,-5.300871665542692,0.5273012845214677,0.06934028334460117,-0.02373818935971863,0.8464994866805008
369.0,-0.10301150200442094,-0.07808137574463303,0.0056704507137237264,-1.0873815143681393,0.9068955827807129,9.696999363081183,0.23606037615675696,-0.42877280731332656,0.07174234760780786,243.71778642613614,-6.3555856843130645,-5.336213517665131,0.5266407558671462,0.06905847213817393,-0.022772427246637444,0.846962484550223
370.0,-0.10262373084560336,-0.07793863099921321,0.006111048668090366,-1.101606908695815,0.9009433891573941,9.696401783372668,0.05381729796560638,0.15722528193023863,0.055095818815331,243.67350183582482,-6.4458220935896,-5.300747442958301,0.5263043048979056,0.06919115525383088,-0.023632384847326812,0.847140529163763
