time,linaccel_x,linaccel_y,linaccel_z,gravity_x,gravity_y,gravity_z,gyro_x,gyro_y,gyro_z,euler_x,euler_y,euler_z,quaternion_w,quaternion_y,quaternion_x,quaternion_z
0.0,-0.0014634146341463408,-0.006097560975609759,0.004390243902439024,4.574634146341466,0.6873170731707318,8.639024390243899,1.0472560975609757,-2.7179878048780486,-0.2576219512195122,335.297256097561,27.8125,-4.553353658536586,0.947493390731707,-0.227455697804878,0.08700784853658536,0.2071950036585366
1.0,-0.002392566782810685,-0.014572202864885793,0.010034843205574911,4.675671699574139,0.7167247386759581,8.58157955865273,0.40067266744096014,-0.5855594270228416,-0.1701993805652342,335.604045683314,28.476190476190474,-4.778697251258227,0.9465858734185054,-0.23285911641114979,0.08915130982965541,0.20434022169570265
2.0,-4.977600796416174e-05,-0.013910735025717606,0.010014932802389246,4.6897129583540735,0.7382478845196616,8.571199601791935,-0.3256699021071844,-2.4155881864941096,-0.37346523975443835,335.76845860295333,28.582130413140863,-4.914737846358054,0.9465778934859798,-0.23365217839223493,0.09006759619877217,0.2029431605176704
3.0,-0.022224779191313507,-0.029065319756187598,-3.9542986791992786e-05,4.885711008472212,0.623957539907625,8.467614077735462,-1.0899637837740503,-1.2590574327670188,-0.8572295149861797,336.4167535495953,29.900343030008372,-4.201296266284922,0.9450278960919071,-0.24615992759079489,0.08512974619508593,0.19702709066018415
4.0,0.0058359363360003715,-0.024263557178493232,-0.01501145321173499,5.010566770612514,0.5726369048708171,8.398307887076296,-0.2209502179551856,-0.5370247178519368,-0.19666251493186887,337.203959090818,30.735957072891914,-3.8923322947461605,0.9445642491996171,-0.2541572856391711,0.08222318877335187,0.1901665081996283
5.0,0.009577516330302085,-0.01879226339685967,-0.017284678312435253,5.10553890214714,0.5920376087053123,8.340982275185521,-0.3378118048675932,-0.9758259196767833,-0.6394909648579392,337.93205452386616,31.387899811407554,-4.053984559946607,0.9442506571302494,-0.25987673617296314,0.08274674656849751,0.1838742953004061
6.0,0.030011867078267817,-0.02558370428844145,-0.024837123915125124,5.209003200277421,0.5651971790857122,8.279528453541957,-0.2559132270001298,-1.2155710421507815,-0.15562824721859905,338.40345642813145,32.092404089698384,-3.902465871258755,0.9434083938423719,-0.2663114465702402,0.08148238363062019,0.17966523256787192
7.0,0.0677242655611638,-0.0240310338908769,-0.02491659500240914,5.106441017919986,0.5861509105499372,8.34002386485123,0.36523280428120963,1.3384428424179213,0.1706368992073803,338.1995399764575,31.39430393312614,-4.013511653174618,0.9446835821257493,-0.2601662341073073,0.08187658213395682,0.18161705315647725
8.0,0.059710576598853544,-0.033614514255741634,-0.012567532126934169,5.090944513131768,0.5735309654939866,8.351248735528829,-0.2980651249484845,0.3695089168633621,-0.3653104042561163,338.10671551271963,31.28519093514668,-3.9317525102094337,0.9448239687563225,-0.2593273362614739,0.08125830145835677,0.18245839747087034
9.0,0.048093739462740245,-0.004151774006219328,-0.031747592821550326,5.206435127945749,0.5568892135925967,8.27926454610168,0.008975403694129108,-1.7042050691244237,-0.47035283428871155,338.9189673017122,32.08858557191563,-3.8511202277921397,0.9441775974112997,-0.26666389429864,0.07980165583586227,0.17542720446405155
10.0,0.03945239968528717,-0.016316286388670338,-0.013505900865460264,5.221331235247836,0.5543509047993705,8.271394177812745,0.054612509834775766,0.8036290322580647,0.13912273800157354,338.62714398111723,32.18287765538946,-3.835621557828482,0.9435518256695516,-0.26726591875531075,0.08051734794020456,0.17773940755153422
11.0,0.019317073170731707,-0.015447678992918958,-0.014813532651455543,5.292734854445318,0.540558615263572,8.227557828481508,-0.46411290322580645,-1.0147128245476003,-0.750609756097561,338.71409323367425,32.680123918174665,-3.759962627852085,0.9425284519575137,-0.27158713079779695,0.08039877328560188,0.17680321230055074
12.0,0.031623131392604246,-0.02388198269079465,-0.003924468922108573,5.350328874901652,0.5313808025177025,8.191365853658535,-0.07122344610542877,0.34260424862313144,0.20913158929976394,338.9718872934697,33.07340676632573,-3.7138129425649096,0.9420125340597956,-0.2750563432911094,0.07995230402045633,0.17455944756018882
13.0,0.04521833202202991,-0.00466404405979544,-0.017696302124311558,5.46324704956727,0.5115007867820613,8.117442171518489,-0.30599429583005505,-0.7208202202989772,-1.063771144767899,339.5926903029111,33.8677960267506,-3.6102699645948073,0.9409848122187255,-0.28217758769040124,0.07866486824626279,0.16912711871715186
14.0,0.023442368214004736,-0.010201416207710466,-0.017457120377655386,5.508206530291109,0.5382704563335956,8.084604642014163,0.4570884146341463,0.4533880802517702,0.09544035208497259,339.6298079760031,34.18471921715185,-3.8153729838709673,0.9401536786797796,-0.28454690553914236,0.08043922247403618,0.16870814810287174
15.0,0.02909928584397507,0.0009092174544574226,-0.01263095886541992,5.436392140248946,0.5708075813512477,8.131468780891284,-0.09705158465976724,-0.4628582758377212,-0.6747758175472572,339.04346258498254,33.68278170328229,-4.017082816377171,0.9404875223345135,-0.27970655027753233,0.08278577742994613,0.1737492785372713
16.0,0.04198079949161775,-0.02070196090298372,-0.014608162359539226,5.4657649135548425,0.5679450967338457,8.112976719320542,0.1352861667574492,0.022037620539046537,0.3308851046016663,338.74957846007584,33.878517130161995,-4.004140346032803,0.93958934584861,-0.2811651486714176,0.08370746780623978,0.17605139709711715
17.0,0.04838152877806695,0.016616761483992007,-0.023400855373318003,5.618511489035486,0.6026015806249874,8.002375456434466,-0.33865731984708186,-2.3278672784401544,-1.326442528344328,338.93867531874764,34.96945009733906,-4.3112183585002715,0.9369729442589825,-0.289971336682483,0.08680615137892635,0.1739013020001715
18.0,0.03243683047872663,0.012634600254191124,-0.019265140511206605,5.531592290544493,0.6032662702495512,8.06012026165547,0.16770603224797753,0.2867437309608827,-0.034590387893643215,337.96819928407876,34.35463924025096,-4.288494825394904,0.9369400171078546,-0.28417024203301955,0.08816248430728378,0.18216256209567974
19.0,0.026496641045814923,-0.0023520547116141167,-0.01940273154592588,5.696348564627085,0.5824678125441306,7.945531905021285,-0.2321500080695596,-0.12537813451955862,0.5569235560531783,338.5112417791362,35.52893252335129,-4.197271606245839,0.9347896037353789,-0.29438828777054193,0.08762704495606125,0.17714247589864632
20.0,0.02327065302911094,-0.010123918174665623,-0.009452399685287174,5.7312627852084965,0.5495275373721481,7.925975216365068,0.1045412077104642,0.5725880212431156,0.3474650865460267,337.7837898308419,35.77249459087332,-3.967075629425649,0.9331628280397325,-0.2961114897372148,0.08823683255743509,0.18294465998819825
21.0,0.02651337529504328,-0.0057779307631786025,0.0035979543666404433,5.753117623918175,0.5290202596380803,7.91320397324941,-0.030882425255704157,-0.22533561172305278,0.2889715283241542,336.92371041502753,35.93114304681353,-3.820968971282455,0.9314198819466954,-0.29692863050983476,0.08970668373347757,0.189884340261605
22.0,0.015147128245476009,-0.011520456333595594,-0.015324940991345393,5.860673878835563,0.47899331235247833,7.836479937057435,-0.29402537372147913,-0.2544699055861527,0.13938827694728556,335.89524734461054,36.71103215971675,-3.4957907159716757,0.9276433743107788,-0.3029823673095987,0.09119163744689221,0.19778010672580643
23.0,0.02203293244914016,-0.004550082424787382,-0.0091311303435615,5.912568777865197,0.43933517852459636,7.801594095387957,-0.19643594751039675,-0.43128875369974895,-0.03942504027574838,333.93071371201904,37.083572821831325,-3.2247848057397626,0.9231155287594883,-0.30479668488386535,0.09505179193763816,0.21341988648642798
24.0,0.028821344273350563,-0.010808774493274885,-0.00739817728822449,5.928722921584054,0.425870677381889,7.7841967329811546,0.8378854880858716,2.863614081057285,0.7886470392641713,331.6183816642314,37.224734753755946,-3.1276449107377013,0.9180462328323404,-0.3040018574546195,0.10059223437774903,0.23192378019669546
25.0,0.03112428804065128,-0.0126920841708685,-0.01666636171237931,5.751202983672746,0.47138704536761367,7.913394315477824,0.10328785375786453,0.05548893756540174,0.29833819517597165,329.3923491216881,35.93913324803326,-3.4027882515053847,0.9166872398205215,-0.29113714797384016,0.1057774610900373,0.2506391435604632
26.0,0.013595750854089827,-0.029037024064378462,0.0017376295293335554,5.57891328232755,0.4672180065922404,8.03660630314373,0.2268890937891267,0.6618088537813896,0.06967132680382636,327.3406345379899,34.702635589210885,-3.3255312412597924,0.9152624449008941,-0.27944432765894434,0.10779061695822909,0.2679854227354225
27.0,0.007592525309027604,-0.030891446729278148,3.4825779615636635e-05,5.500412581368337,0.48112670589250095,8.092854685796883,-0.0804480573540598,0.2573403041526932,-0.11777546956425519,326.09478619110354,34.13684592206414,-3.4000541729509033,0.9138612120806595,-0.273551852169362,0.11025976291263145,0.2783600642001267
28.0,0.024340684474254453,-0.03361249720095529,-0.014812544599564522,5.454685535495372,0.48895946983261485,8.124432737104138,0.19280800165198092,0.5381330088619716,0.3100359693581932,325.39794111202013,33.803736811816194,-3.447684983092463,0.9130400200257902,-0.2701202007784438,0.11159107369785826,0.28417294429811285
29.0,0.027213615250502525,-0.027734651432893068,-0.017630505187272424,5.379577228801974,0.4907818592278731,8.175587729685034,-0.017531876436007968,0.12351182307772066,-0.09584255820052573,325.0191662680478,33.27595868914964,-3.43917490696716,0.913422755111243,-0.2655287974191196,0.11125802922107705,0.2876038651466961
30.0,0.03449352930567137,-0.0247277908327256,-0.008281119060252865,5.437477286569028,0.48711711115932294,8.13710669304957,0.5750862748352593,0.34448753194396164,0.04051645533334554,325.1422162923135,33.677603313066946,-3.4271643477071354,0.9127861612697998,-0.26889793922793936,0.11179452247325422,0.2862858714218101
31.0,0.04662408284998079,-0.023486652150842585,-0.015918686988820374,5.3726284375972035,0.5157829945291201,8.178266920388635,0.17356686732658777,0.16787138857885203,0.30191800999030244,324.8084224562238,33.22535107862332,-3.6066828444916106,0.9129734238046949,-0.26453692829667175,0.11287008320564286,0.2893090310546539
32.0,0.047026439536713455,-0.015998243463304848,-0.009851554352002632,5.370333888350136,0.5095500338499259,8.18124518324703,-0.05042152306369277,-0.04097579272866997,-0.1369638903628346,324.51524092913473,33.207964681719204,-3.563559754267835,0.9122982865073828,-0.26421550370852476,0.11317663649503229,0.29163941707414054
33.0,0.06724390243902441,0.021083398898505114,-0.02588001573564122,5.349266719118804,0.49235641227380034,8.196038945712036,-0.058261211644374505,0.6121311959087332,0.7265293076317859,324.3191827301338,33.06298928009441,-3.4353338906372937,0.912177301664044,-0.263127965624705,0.11235595279740361,0.29332464771636513
34.0,0.045779307631786004,-0.023301730920535012,-0.011198072383949645,5.221788355625492,0.5235613690007869,8.274334972462626,0.5759441384736428,1.2148726396538159,-0.23938090086546027,323.8774021439811,32.175175796616834,-3.6230023111723053,0.9130249196172304,-0.2551424015519277,0.11261518288571992,0.29747363064339105
35.0,0.0626294256490952,-0.02301140833988985,-0.016429189614476786,5.132067269866247,0.5654059795436663,8.327581825334384,0.4832464594807238,0.18371852871754518,0.6085587136113297,323.3514825924468,31.562003343823758,-3.882169551534225,0.912992603697482,-0.24905161410228172,0.11421544320889063,0.3020931289925256
36.0,0.05568843430369787,-0.02881333595594021,-0.017017899291896142,5.118691384736426,0.5570586152635719,8.336930959874115,0.012758162863886674,-0.07957562942564908,0.08506712234461059,323.0070208005507,31.47136850904799,-3.821410306845004,0.9123184363758852,-0.24812881766719125,0.1143196521874508,0.3049223356882376
37.0,0.04145318646734854,-0.03427321007081039,-0.016505114083398897,5.126764948859165,0.5539097167584579,8.331938040912664,-0.059945416994492545,-0.22856756490952007,-0.14344020456333595,322.9376905487805,31.528187696695515,-3.802023505114083,0.9120313609744297,-0.2485611633581825,0.11448171543607394,0.3054189343705744
38.0,0.023597560975609756,-0.028479346970889073,-0.0086154602675059,5.164749409913453,0.5547008261211643,8.308795633359559,-0.16545657946498818,-0.4691224921321794,-0.2614378442171518,323.1212898308419,31.78523800157356,-3.8185520751376867,0.9119245471807632,-0.2508057960057042,0.11483060358497246,0.3037834152094807
39.0,0.06596583117904911,-0.020667284852572035,-0.019344404480911168,5.160368944588063,0.5516916188977556,8.311975965681313,0.13423719605859652,0.2585923157618673,0.05269601644749165,322.93465365198006,31.754302948559438,-3.7965516232063243,0.9115047795237534,-0.2504208917438275,0.11499811618764752,0.30528546963219816
40.0,0.0630655277059683,-0.007450086171368626,-0.011977473680266758,5.043898083623693,0.5483477764040312,8.381869178749389,0.3130125791465288,1.028219249934435,0.3748678744707954,322.34653119263044,30.9617551328163,-3.745295874545727,0.9116354247186036,-0.24355999117875873,0.11386701762175455,0.310609306967948
41.0,0.05962108950582594,-0.009439904836836384,-0.027945150050578845,4.9956919373571615,0.5541135963433366,8.410790772170394,0.265914891723802,0.5079316295755124,0.2623679330111273,321.1270854407853,30.633776951968827,-3.767440804016335,0.9089659317945936,-0.23964417963373422,0.11579491341744408,0.32051298511031806
42.0,0.07040662582893109,-0.022773416132778838,-0.03252264808362369,4.9785939736240685,0.5250332696414521,8.423113343449103,-0.2189003901127721,-0.20007182898729908,-0.015560254392866513,319.98893189651943,30.51016874836087,-3.562474476415271,0.9060522969051271,-0.23808705219351095,0.11636933058399837,0.32959466955995464
43.0,0.07346521299314376,-0.012822486980630172,-0.029447004608294934,4.935608257465064,0.5271456670787905,8.448561687460195,0.3354068318908995,0.9474015117455323,0.2585726462103331,319.09258504739427,30.21697154471545,-3.57094268667341,0.9041165468358247,-0.23478496678243604,0.11746494704357274,0.3368868070617436
44.0,0.040434603424375264,-0.014533363305983291,-0.023225806451612905,4.737358660222547,0.5705428796223445,8.555770859091076,0.3861413959761717,0.7653914240755311,0.1940424674984077,318.2258720167847,28.895016110299352,-3.812137049941928,0.9041813266168369,-0.22270585591809972,0.1172617658412948,0.3447478592259563
45.0,0.03336986250046832,-0.017176389044996444,-0.019640890187703722,4.7038861413959765,0.5955913978494622,8.574049305009176,0.12066216140272001,0.5869616631074145,-0.03900776478962946,317.9511246768574,28.668606693267392,-3.975305346371436,0.9038285207929638,-0.2201460368682327,0.11839525681990182,0.34711849183863464
46.0,0.026608594657375147,-0.013050091791240493,-0.010258326776816158,4.719394927128995,0.607764040313214,8.565237345921847,0.17751653178974186,-0.4402268086620959,0.15538594470046083,317.930787765539,28.77333885954067,-4.061084494773519,0.9035621121295567,-0.22072560925630358,0.11938564176389044,0.3471761420450713
47.0,0.0224701210145742,-0.018152186130156234,-0.004415720654902404,4.79955078490877,0.6210171968079127,8.52037315949196,-0.1535208497246263,0.024790659772957163,-0.16851419954291708,317.9150064628526,29.3066342587389,-4.174447847589075,0.9023971663740586,-0.2246738470503166,0.12175613377655388,0.3468762415743134
48.0,0.021868420066689147,-0.0216095313026863,-0.0049419279907084775,4.717556667041323,0.6291356637068675,8.565461953467462,-0.003196302124311573,0.4394704675733393,0.017729524933498178,317.96355161852307,28.757319883106668,-4.207183601213892,0.903665954729122,-0.22024314232531564,0.12036191703383159,0.34690183571634636
49.0,0.028184594057922153,-0.030801693454722577,-0.005932561537596942,4.710031021692704,0.6319242066614217,8.569502866134656,-0.06752557041699449,-0.20037325315649468,-0.10460969989884232,317.9748681671725,28.70765379716009,-4.2286782061369,0.9037881553299987,-0.2197857524998314,0.12037099400693116,0.34690023539043124
50.0,0.03177812745869395,-0.04127773406766326,-0.010643587726199843,4.711403619197481,0.6371927616050352,8.568708103855233,-0.08524783634933122,0.037332808811959106,-0.04999016522423289,318.1125295043273,28.71559795436664,-4.254730527143981,0.9041783390668763,-0.21992999030999213,0.12034531806608967,0.3458151203524784
51.0,0.03778399806330571,-0.047093808630394,-0.01256513143295205,4.718527870241481,0.633789142407553,8.566060158566845,-0.12330879682866307,-0.08990762875991042,-0.06113094877847042,318.1211742722266,28.759772741027657,-4.222778349371582,0.9041350337239602,-0.22037289413248204,0.12027450925465515,0.34567865671732334
52.0,0.04346871028263633,-0.05942337953156207,-0.016221983497750614,4.740385886340254,0.6285397324940991,8.554608364098527,-0.11180192005083822,-0.15054488440355865,-0.007399660069801693,318.1318302517702,28.906366504266778,-4.203983588533156,0.9039146152120983,-0.22161577216537554,0.12042308020718595,0.34541275472215494
53.0,0.05006637717121589,-0.061922547358227914,-0.015062211261070428,4.849878230345579,0.6532509834775766,8.487827392120074,0.3929827929250136,-0.9338483666707015,-0.03546615576267425,318.1182607199056,29.651132701385947,-4.413950881599386,0.9022058031922018,-0.22699572545326213,0.12407224892735379,0.3449555356930995
54.0,0.04072801549355444,-0.06293245778611631,-0.012071919949968729,4.895695212733765,0.6667380015735642,8.4614683774133,-0.12975700538643103,-0.012711825939599353,-0.06146217898283201,318.17052025963807,29.955482509229554,-4.506741864875224,0.9017144647425408,-0.22919766904478603,0.1255151461340152,0.3443405517825254
55.0,0.05227588815590391,-0.06413342008109907,-0.0169919001795477,4.949853900623374,0.6490613690007868,8.431162984930097,-0.24652681111178357,-0.501045134055559,-0.06530032631281649,318.21913601494884,30.326531577195425,-4.4117845831063764,0.901133100899988,-0.23247126350744418,0.12568239444781015,0.3436249927913413
56.0,0.04768585852909221,-0.05913098984676483,-0.015764649132666442,4.990649507324566,0.6416197782023905,8.408895919973023,0.07499297516016634,0.3142631177175827,-0.10235431652991646,318.2296716941104,30.598779199917576,-4.371045015173653,0.9006042626915157,-0.23475592016858682,0.12613705908258405,0.3433234920609194
57.0,0.03932276797422353,-0.061206623955640485,-0.01260409875988161,5.0018086246300255,0.6372050503915181,8.40230279869619,-0.1485922220973362,-0.575277715334757,0.028989172380203057,318.22554653253906,30.676355325765236,-4.341369281780375,0.9004115023094674,-0.23541443952380953,0.12618641182758233,0.3433663647723951
58.0,0.043250573967533706,-0.06943439169897003,-0.01316352084536814,5.102303778035102,0.6454542991148484,8.340223545433396,0.04062324379004159,0.021563633504194823,-0.002624785116139665,318.19739750922054,31.358373260562526,-4.421890544500236,0.8988000709215351,-0.24059223363845317,0.1287156556101482,0.343005755024845
59.0,0.04053409519627295,-0.06687803658231631,-0.014792580549318517,5.144998316652334,0.6645901370813085,8.311962958509664,0.308598169795062,-0.13895615672210737,0.09156067326936264,318.114433225031,31.652776744926648,-4.5739585538806296,0.8978554468350136,-0.2424543734825213,0.13076361697633032,0.34336910399513204
60.0,0.026256707033901337,-0.06200857357196442,-0.005079966420176474,5.129233076126174,0.6444411102775693,8.323440735183798,-0.27315188172043015,-0.38595765012681743,-0.10597961990497623,318.10283709320186,31.5434781686493,-4.427819119958561,0.8981186121584683,-0.241988000001161,0.12944675831788308,0.34354813236978876
61.0,0.027665369739647463,-0.054931921569242495,-0.0019280728283116077,5.176552771250303,0.612355900386246,8.296890368715871,-0.21429350014986326,-0.2844574601838613,-0.06573052779745459,318.1766345604258,31.85865157355323,-4.218881390371548,0.8977186997587516,-0.24517392453319448,0.1286431020433408,0.3426552983030241
62.0,0.029066555837565667,-0.04773208981687932,-0.005580971898026772,5.2158046114316035,0.5953311759995743,8.273602442422451,-0.10288767749428648,-0.25795453654354356,-0.07248219938259826,318.2170471189226,32.133332843228224,-4.104475977443839,0.8972734948471177,-0.2476897870770811,0.12850080503376718,0.34208341642167345
63.0,0.03466501817091905,-0.052707279607358305,-0.007604585815443408,5.242099696526919,0.586465287924768,8.258251095875014,-0.13258073882582144,-0.2873040069686411,-0.06321583117904911,318.2671178955453,32.31628732531565,-4.050373955640477,0.8969672621752652,-0.24934271099201982,0.12858243527949498,0.34166195227840845
64.0,0.03523086433629315,-0.055277434341163695,-0.009961297815743135,5.255868794724812,0.5815621370499413,8.249978644486907,-0.019904181184668995,-0.06859334607170957,-0.051773303735341496,318.29424923195086,32.42029663557004,-4.045804297328687,0.8968511844957103,-0.250168499337005,0.1286490659868495,0.3413431715510472
65.0,0.040622344610542885,-0.05768095987411488,-0.015106608969315505,5.287454366640439,0.5845790715971672,8.228583792289538,0.2318105822187254,-0.746508654602675,0.09421223446105428,318.2697580645161,32.633386605035405,-4.084470889063729,0.896253271119591,-0.2517874450609756,0.12956872933674268,0.3413667976203776
66.0,0.04086742722265933,-0.062000983477576724,-0.01517800944138474,5.348089103068448,0.6062580645161287,8.188192761605036,0.161691089693155,-0.07578186467348541,0.0354764948859166,318.009879032258,33.05409495476003,-4.246754523996852,0.8944889928312352,-0.25436458184756094,0.1324394918493312,0.34296544306038546
67.0,0.03452242328874903,-0.06065774980330449,-0.010536585365853661,5.375992132179384,0.6106774193548387,8.170112509834778,0.009121754523996856,0.02692761605035407,-0.09481215578284816,317.80725806451613,33.2511654209284,-4.274183713611329,0.8934120546978757,-0.2555995461132966,0.13365507898111725,0.34438751853422506
68.0,0.027059795436664057,-0.05751770259638081,-0.006659323367427223,5.294800944138473,0.5989516129032255,8.223182926829267,0.012615558615263568,1.1141030684500393,0.06474478756884344,317.81875,32.68230477970103,-4.1675403225806456,0.8947757219099135,-0.2513823649858379,0.13128254155428792,0.34482280533713616
69.0,0.02637096774193549,-0.043693548387096784,-0.002225806451612903,5.166967741935483,0.5981209677419355,8.303540322580643,0.031199596774193546,0.6911290322580644,-0.020312499999999997,317.7212701612903,31.80398185483871,-4.128729838709678,0.8964661629596774,-0.24443029627419355,0.12874248889516127,0.346325437766129
70.0,0.02542907361455749,-0.045626757650951213,-0.0027834987593052104,5.137599875930521,0.5947423490488006,8.322655707196029,-0.08168941273779982,0.03729321753515297,-0.03691971670802316,317.7144876964433,31.59956704921423,-4.0945564516129025,0.8969185655944993,-0.2428820209123243,0.1279818337954921,0.34657297563130685
71.0,0.03218631100082714,-0.05878515301902401,-0.007089330024813895,5.169400744416874,0.5956534325889163,8.304041563275433,0.03198795492142266,-0.2913836331679074,0.06820848842018197,317.68199183209265,31.816189774607114,-4.098941532258064,0.8963596736803143,-0.24454345750454926,0.12871390047435896,0.3465941158519437
72.0,0.03880037422582665,-0.06507756864169138,-0.012637505295648492,5.203268822247776,0.602636315035607,8.281318480300186,0.027678305745526436,-0.27818775973894977,0.04080479987492183,317.6322528003893,32.05287200669773,-4.156481117230527,0.8956552826218254,-0.2462246142206066,0.12988737772006698,0.3468113493394258
73.0,0.051718735500010105,-0.07307910690149086,-0.021238107486533927,5.250291669188404,0.5967536413887712,8.251961659504929,-0.10246629067562388,-0.4918912589017329,0.013698770905202851,317.6065245856785,32.38167793883274,-4.141799026357199,0.894853628943977,-0.2488011921707871,0.13078292765035607,0.34672634672616465
74.0,0.07176873794969783,-0.08396985298991591,-0.031783992299334554,5.245567301568087,0.6065398391275654,8.254422073992098,0.09693673753469187,0.3166155744661842,-0.12359176278088549,317.58932100059656,32.33947568216598,-4.207711869169383,0.8948521910557058,-0.24831552718965624,0.13118670330252052,0.3469248962526752
75.0,0.07971870668015438,-0.0832392098460155,-0.034508916863362195,5.242839777453073,0.6254074594432579,8.254729056610842,0.2386897737064928,0.48738730986100187,-0.004236505282679541,317.3620863540144,32.321641716777194,-4.334798714922632,0.8941839594242253,-0.24756203672669627,0.132515704061753,0.3486673400440973
76.0,0.07800294106627703,-0.07822788580420367,-0.030412798321531615,5.151684444194672,0.6240737139859877,8.312033588100858,0.15479187741186168,0.5622992066614214,0.0030529953917050757,317.3325860074557,31.697744909332734,-4.296190663519538,0.8954826662309956,-0.24268407733728603,0.13054269279553035,0.34947739172857883
77.0,0.08372216290135252,-0.08769380128133078,-0.03531261473905063,5.144068028548948,0.6198102637593195,8.317436935671198,0.2989734367389757,-0.12310885457644899,0.16743916488704058,317.2449957968042,31.645366357105388,-4.26576842381327,0.8953510312390225,-0.24226694548610958,0.13034560347093593,0.3501980588461934
78.0,0.09119497208796973,-0.08044396987748678,-0.042365591397849484,5.181835450151736,0.6236499194485032,8.293449290022853,0.14839505825933832,0.029438762129556803,-0.130184331797235,316.99025888876395,31.904359147278107,-4.303960136375557,0.8939919933670524,-0.24391355379547416,0.13189455177962606,0.35194389062343107
79.0,0.08802068112847025,-0.07278880521524109,-0.04258678955453151,5.212421565321645,0.6097650518901498,8.275293769435386,0.05502510209433891,0.22684495710164473,-0.06580261136712749,317.02215517402874,32.114986793301114,-4.212982372335244,0.8936499856773816,-0.24586980289082463,0.13175532033835374,0.35151188570188446
80.0,0.09695043273013376,-0.0701778127458694,-0.047677419354838727,5.200465774980328,0.5978725413060583,8.28342722265932,0.23859166011014948,0.21717151848937843,0.041935483870967745,317.044089299764,32.03125491738788,-4.132307238394965,0.8939011034508262,-0.2454388632557042,0.13088997442800943,0.3515001870621558
81.0,0.10739260424862312,-0.064360346184107,-0.05013139260424865,5.191182533438236,0.5939370574350902,8.289865460267505,0.3439221085759244,0.6505359952793076,0.22152832415420926,316.8282700629426,31.967156766325726,-4.098362509834775,0.8933983877812743,-0.24475363214870183,0.13093312613453972,0.3532344263013375
82.0,0.11214712824547599,-0.0784972462627852,-0.05707356412273801,5.153724232887491,0.6100110149488591,8.312017702596378,0.3521243115656963,0.875931845003934,0.053156963021243106,316.2992845200629,31.706709775767113,-4.1953948662470495,0.8923142141573563,-0.24182132979032256,0.13200189467387885,0.3575409318721479
83.0,0.11953225806451609,-0.08219354838709676,-0.060911290322580636,5.041411290322579,0.6238064516129032,8.378524193548387,0.4600806451612903,0.9249495967741936,0.34294354838709673,315.88492943548385,30.939969758064514,-4.255191532258064,0.8926398496129033,-0.2351261752177419,0.13107880600806449,0.36145930121774184
84.0,0.13488813068651773,-0.0907187758478081,-0.06152791563275434,4.971794458229941,0.6348546319272126,8.41975310173697,0.3760688068651778,0.6438779466501241,0.18320280190239865,315.51329094292805,30.468903794458228,-4.3166214330024815,0.8924695704867658,-0.23082624472952853,0.13088751591439207,0.36473219672766755
85.0,0.12058519437551692,-0.09458519437551696,-0.05521153846153846,4.9383165839536804,0.6558184449958644,8.437965260545901,0.32883581472291146,0.44983715880893294,0.10614273159636062,315.2353753101737,30.24239040529363,-4.442761321339949,0.8920380030820925,-0.22837241172766748,0.13172461519913153,0.3670657907791563
86.0,0.12254259718775846,-0.09576033912324236,-0.05438399503722084,4.91802522746071,0.6625059966914808,8.450297146401983,0.308974358974359,0.32945486972704713,0.08308648676592224,315.01955257444166,30.094935122001655,-4.479924007444168,0.8916457595208851,-0.22686680080334987,0.1319969509019851,0.3688697401960298
87.0,0.13320678246484696,-0.1001906534325889,-0.05868796526054592,4.940609387923903,0.6703215467328372,8.43653970223325,0.15912427626137304,-0.04966268610421837,-0.1447218775847808,314.82245269851114,30.249861714226633,-4.54172611662531,0.8906802254015714,-0.22765067917990073,0.13328249966066996,0.3702443439851117
88.0,0.14450819060299785,-0.11165885936774997,-0.06305198813774739,4.899797907966673,0.6795009582602031,8.459048962052893,0.3814700846295064,0.8623103023058767,0.16107729881579214,314.7464157916238,29.9771442963344,-4.591500105912969,0.8909914950912261,-0.22524522177622103,0.13295579943605884,0.37106689812434185
89.0,0.14064710014611667,-0.11335453898317782,-0.059903637930388526,4.849799698400211,0.6863468397587202,8.487506874976585,0.28756831656738224,0.18563051449926946,0.23225051281330786,314.3591983838185,29.643348823105164,-4.62157644430707,0.8904086848125397,-0.22207821953457157,0.13293507354527742,0.37436319033240606
90.0,0.14149733056086322,-0.12144615226106176,-0.05899627215166161,4.864607264621034,0.7021529635457644,8.477675152673186,0.312264316623581,0.5780858365179273,-0.14010814740923905,314.1473564942303,29.743334890506162,-4.731449856693267,0.8894678551183077,-0.22229882197293094,0.13447643611095503,0.37592964552369723
91.0,0.12035753624817355,-0.11853356000149862,-0.06292094713573865,4.910340114645386,0.7001381177175827,8.449953167734442,-0.6020619661121727,-1.532734875519838,-1.2017565026600727,314.26178908620886,30.05510518526844,-4.731649947547863,0.8891525955620341,-0.2249177327982934,0.13515176518143757,0.37473779165432175
92.0,0.1195620246525046,-0.11214754036941288,-0.0686624704956727,5.026469596493199,0.6575602262935072,8.384223895695177,-0.380467667003859,-0.21257399497958118,-0.4559893784421716,315.0326514555468,30.841540687872318,-4.481440373159492,0.8900346626994118,-0.23273555245963057,0.13411362768461282,0.3681075913836125
93.0,0.16692892735378972,-0.12737196058596525,-0.09971282454760032,5.226956277396875,0.6359358959949046,8.26040069686411,0.06756022629350716,-0.3532136300625679,-0.1828776553894572,315.95906274586935,32.220706417893666,-4.3981257727323815,0.8899192970066688,-0.2449514184446068,0.13556555929863998,0.3596689397555356
94.0,0.14699748979056615,-0.10693866846502563,-0.08801693454722567,5.186696264658498,0.6182098834813231,8.289282529691654,0.2702432467873066,1.1465498669963656,0.30089028136825147,315.6667673560376,31.939078247349293,-4.263194990820876,0.889728738545577,-0.24273988250571352,0.13445700828219248,0.3622383859645574
95.0,0.12396688022179762,-0.09205706043235547,-0.06888258214379381,5.197242703533025,0.5856981754149339,8.285270690494922,-0.10396177550485183,-0.026597214416844595,-0.3325161102993518,315.56243560563485,32.00814061856056,-4.045789076842381,0.8893186072192871,-0.24379157800344686,0.13333358784683974,0.362992841739163
96.0,0.1162635345247462,-0.08093214941366003,-0.061442246450114285,5.22095987411487,0.5663570117267991,8.272015098722417,-0.059119881233374555,-0.3176199374320932,-0.26074683413884825,315.62541680716345,32.17142599565396,-3.9207258532838782,0.8891941698420815,-0.24553628380371664,0.13279803858023304,0.36235927842924576
97.0,0.09878460904424713,-0.10121261848563184,-0.05172035517590199,5.229171181297065,0.544454235510097,8.268754861189164,-0.23192649207598065,0.4111737102394065,-0.004878985425798926,315.9237107077292,32.22537793638305,-3.7637087407740433,0.8900692708665092,-0.2467270096921809,0.13122992461039296,0.3600186754243003
98.0,0.12906264283840996,-0.09347806376681278,-0.05771855681690457,5.228105653591097,0.5957015473380538,8.26516263909183,-0.16222603124648757,-0.47709410475441155,-1.3992481079764714,316.6769025607883,32.22916221760144,-4.124197997452325,0.8922883078061892,-0.24661597875246338,0.13216827796924052,0.3541026461574688
99.0,0.1343477576711251,-0.10261998426435877,-0.04789614476789929,5.199347757671125,0.6079905586152634,8.281931549960662,0.2694630212431156,0.31791896144767895,-0.21041994492525562,316.8379376475216,32.022890440597955,-4.200899881982691,0.8932388988977182,-0.24495274844689224,0.13177556503147128,0.35303553595200626
100.0,0.1584287962234461,-0.1358457907159717,-0.07527065302911094,5.168358379228954,0.6143453973249408,8.300851691581432,-0.007159716758457918,1.0110985444531864,-0.03825481904012586,317.27039486624705,31.806483575924467,-4.23497000393391,0.8950391000295042,-0.24367157401652245,0.13050469434107004,0.34984960170298973
101.0,0.1445645161290322,-0.11903225806451614,-0.0628225806451613,5.149798387096773,0.6069193548387095,8.313524193548389,0.3280241935483871,0.3297379032258065,0.018800403225806468,317.2311995967742,31.683518145161287,-4.179183467741936,0.8952308895725807,-0.24277703069354836,0.12984176124999997,0.35030153323387103
102.0,0.1310806451612903,-0.10143548387096774,-0.06826612903225807,5.280282258064515,0.6161451612903224,8.228322580645163,0.062348790322580644,-0.3236391129032258,-0.18739919354838708,317.5751512096774,32.590020161290326,-4.289163306451613,0.8941309281370968,-0.25007314375806444,0.13234804202419354,0.3468281895161291
103.0,0.12148013375295041,-0.09588394964594807,-0.07209697088906372,5.339439811172306,0.584671321793863,8.1939653815893,-0.07700383556254918,-0.05687327891424074,-0.2617451809598741,317.78134097167583,32.997942073170734,-4.085703924075531,0.8939058548760819,-0.25406888643056647,0.13159629493902436,0.3448722314234855
104.0,0.11888119590873328,-0.08989358772619985,-0.06535090479937056,5.338986034618411,0.5922751770259638,8.19473269079465,0.10353437254130607,-0.043078776553894554,-0.23848347757671123,317.9592692761605,32.99156176239181,-4.137635228166797,0.8944721197283636,-0.2540920174451219,0.13158934471951217,0.3434812098931944
105.0,0.12156963021243117,-0.08174921321793863,-0.07014319433516915,5.361440597954367,0.5790609756097561,8.181773603461842,0.020139162077104644,-0.2701785011801731,-0.20069335169158142,317.74606608969316,33.14976273603462,-4.052587775373722,0.8934966229166013,-0.2553156967669158,0.13190189950491737,0.3450151807328875
106.0,0.13774390243902443,-0.09060267505900865,-0.07894630212431156,5.370022226593234,0.5583432336742721,8.177678992918963,0.34041355232100706,0.6536056746656176,0.46822506884343046,317.68857444925254,33.20710193745083,-3.907223642800944,0.8932328843937845,-0.2560710279152242,0.13117025298072382,0.3454195023302518
107.0,0.13534854445318648,-0.0934032258064516,-0.07468056648308417,5.34187372147915,0.5653430369787568,8.195862706530292,-0.056156569630212455,-0.11247787175452395,-0.04467938630999213,317.3633703776554,33.009620869394176,-3.9491369984264355,0.8926933379803305,-0.2540648332985838,0.13163215622501964,0.3481159082985838
108.0,0.15911689333483198,-0.10496956839384061,-0.07581355138436176,5.396603752201115,0.5424579633584353,8.161666882095089,-0.1982398092990147,-0.03810782426660669,0.030357142857142867,317.4033750842981,33.39054087754299,-3.804123639522685,0.8919680615378407,-0.2575056260234255,0.13158382626881718,0.34747378511403654
109.0,0.1365855906485332,-0.11267567719455997,-0.07763218875276309,5.3373171200029965,0.5016064403731595,8.202254074407104,0.5711507975534824,1.4151237776778687,0.9850067087220411,316.88260807716085,32.97501633275261,-3.5000635162601625,0.8913979564866623,-0.2544687438263272,0.1293967222835038,0.3518962306001929
110.0,0.15098122962796445,-0.11061930987973471,-0.07384923757071671,5.268207635532576,0.5194784758907498,8.245866022254695,0.22534047057060433,0.06620911543216801,-0.47510396762953805,316.23242385073615,32.49952933573114,-3.6111493574613163,0.8904433098973437,-0.24966655123712111,0.13021751913978494,0.3573734560023978
111.0,0.15598786107676743,-0.10802720017983587,-0.08636679030384771,5.2847655014798995,0.5536180735079241,8.233476677531755,0.6044434453561125,0.37718894009216586,-0.17390131505001685,316.3135368663594,32.61247611554457,-3.8543994230264884,0.890408578529317,-0.24995823240927653,0.13213036971308678,0.35661574290757186
112.0,0.1386965269191862,-0.10601596043610205,-0.09249810797647146,5.2655345996777925,0.5999396425761493,8.242352028773745,0.461820463826758,0.818103714735304,-0.5175663144880297,316.548477717208,32.47910391143081,-4.171505376344086,0.8913659031411337,-0.2483107963092802,0.13350316420430108,0.3548615886599228
113.0,0.17419118804091266,-0.11647600314712825,-0.09397797010228165,5.18468292682927,0.6294468922108576,8.290935483870967,0.43775078678206136,0.8387736034618409,0.3479592840283242,316.0972708497246,31.92321990558615,-4.3428992918961455,0.8911486731038551,-0.24289674227616048,0.13411381130684502,0.35888222876947284
114.0,0.14127340676632572,-0.10515774980330449,-0.07643430369787568,5.176830055074744,0.6049398111723052,8.29741896144768,-0.08388817859952796,-0.7167019079464989,-0.13869246656176232,315.8609633162864,31.874498426435874,-4.169753147128246,0.8905572184795435,-0.24272914004838708,0.13322631378088123,0.3607992060212431
115.0,0.18321498819826906,-0.08258595594020457,-0.07295515342250194,5.13143705743509,0.6030780881195908,8.323195712037766,0.5954575629425649,1.657876426042486,0.6270984952793076,315.2830091955153,31.558015342250194,-4.147292977970102,0.8893493391359166,-0.23965778113276945,0.1332908284081432,0.3655654911294256
116.0,0.1964986231313926,-0.12333733280881198,-0.0844372541306058,5.076436270653029,0.6027930763178599,8.358311565696305,0.36025398308418566,1.3658081726986624,-0.05673805074744298,315.305491492919,31.175933074350905,-4.123848101888276,0.8903088349832808,-0.23674308560267504,0.13199802021616838,0.36571128612922893
117.0,0.16563216929936048,-0.11478436119348787,-0.06049313078738727,4.983258871472089,0.6168324355948274,8.413733946619864,0.5186227783493715,1.2013096643063204,0.10943533256672516,314.9129213823156,30.544096991062965,-4.192418648752244,0.8903967886809496,-0.23110608090431517,0.1314290870703464,0.36932311997952344
118.0,0.14073898000766608,-0.11896338437329784,-0.062006596864976074,4.960877272085376,0.6197930864048093,8.42781976638625,0.17801713268373376,0.028334808549698387,0.12603454275857895,314.5677067572475,30.394756992777744,-4.204470536020496,0.889615824563921,-0.22946858567875084,0.13177025216066496,0.3721529838544352
119.0,0.1357156741108354,-0.10737468982630274,-0.056236972704714644,4.992625103391232,0.6266573614557486,8.40826550868486,0.22442359387923905,0.1208501344086022,-0.10880117866004962,314.6814438585608,30.60707066790736,-4.259935897435897,0.8895288565140613,-0.23110873815880892,0.13262364035649296,0.37107361321360627
120.0,0.11986993382961122,-0.10701799007444168,-0.056416873449131516,5.0147359387923895,0.6053407775020678,8.397245657568234,0.32944970016542596,-0.1995295698924731,0.3449441687344913,314.3837158808933,30.758903277502064,-4.12170181968569,0.8882812640392888,-0.23236635490198515,0.1326852633314723,0.37325631169148055
121.0,0.10225351530190238,-0.0960533498759305,-0.04549875930521092,5.064299421009098,0.5828961952026468,8.368622828784119,0.11792545492142266,0.11858198924731184,0.07186724565756825,313.9360111662531,31.098730872622003,-3.9874638130686515,0.8861173394148056,-0.2349186567171216,0.13366172609718777,0.37643004260380475
122.0,0.1177338709677419,-0.09741129032258064,-0.06419354838709676,5.007677419354839,0.5629435483870968,8.403435483870965,0.3764616935483871,1.5416834677419355,0.03125,313.6012096774193,30.710030241935485,-3.8337701612903223,0.8858814852177419,-0.23194373346774197,0.1320522184919355,0.3793645549677419
123.0,0.1229154209284028,-0.09002222659323367,-0.059254720692368215,4.9543878835562545,0.5581776160503542,8.435211644374506,0.2574510719905586,0.2753245476003148,0.2063508064516129,313.4477257081038,30.34730650078678,-3.781076662077105,0.8861473678693943,-0.22910064637273803,0.13087575112962235,0.3808823174211251
124.0,0.10630410063317222,-0.08094755722902852,-0.04994552470870331,4.985082574650631,0.5708347757671126,8.416602749990632,0.13782571840695368,0.16842024231014202,-0.3389520929339478,313.5723579577385,30.55853588288187,-3.8802476724364015,0.8861158401489828,-0.23058138845153792,0.13195256710186953,0.37971253047995573
125.0,0.12276898580045706,-0.08109877861451426,-0.0578598591285452,4.9699848357124115,0.5917319040125886,8.42467234273725,0.44940681081638,0.22264258083249033,0.05207133256528418,313.4320459143531,30.45149576402158,-4.0201641587988455,0.885828059848685,-0.2291943552741561,0.1329101919541606,0.38089664900610687
126.0,0.11193864036566631,-0.08202596380802518,-0.05980051328163051,4.997698831066652,0.6208146847251882,8.40627511146079,0.2168729042561163,-0.2324431105054138,-0.39980078725038404,313.2801670623993,30.64139568347008,-4.222770491457794,0.8848704901019538,-0.22989569912594135,0.13528198738107416,0.38187741731910574
127.0,0.1270852721891274,-0.09002202989771833,-0.06446300251020942,5.050269753849612,0.6302909969652692,8.373429058484133,-0.001741926117417844,0.24762888239481473,-0.017341753774680613,313.4104925349369,31.00018311415833,-4.305863633809149,0.8845247927715709,-0.23260737613633808,0.13669832459327114,0.38051809506031997
128.0,0.11051352515829307,-0.09994039189239816,-0.06895399198231612,5.059642388820201,0.6229889663182346,8.368812802068113,-0.21340632141920496,0.17056709190363795,-0.11149345753250159,313.3566912770222,31.063169935558804,-4.255372714585441,0.8842153554275973,-0.23318012945047017,0.13663898735545688,0.38091383744548724
129.0,0.087338175789592,-0.1197052189876737,-0.06232645835674947,5.070481716683526,0.5950236690270129,8.364291193660787,0.2569441127158968,0.1049888070885317,0.09803111301562323,313.1880422590948,31.13587164212656,-4.068714583099172,0.8835404607015098,-0.23410538282431342,0.1358696135317991,0.3821622267834195
130.0,0.0973322468247724,-0.11530422239706264,-0.06585815443407891,5.0687823610955,0.5802019407290847,8.365654153085309,0.32484732681428197,0.4622087033082313,0.07000604136225694,312.89378325090854,31.125425002809934,-3.968132984901277,0.8825923372925332,-0.23399969064160203,0.13573296240624177,0.3844764674628152
131.0,0.11336428009441386,-0.11863444606796297,-0.06433307107264621,5.026712225094601,0.5698567307332061,8.391175002809934,0.2062600689370949,1.2424234760780788,0.5008392341987936,312.5825147053314,30.836910850099287,-3.882328781237121,0.8821765645087859,-0.23163098476242927,0.13483492966932675,0.3871462704702709
132.0,0.10613453973249412,-0.11463901689708142,-0.06820666142145292,4.832290809636207,0.58549563523285,8.501528492750365,0.6062525757746057,1.3196676782436025,-0.1867361657487543,312.27620031096626,29.53254865872391,-3.9376582930575847,0.8837860957650143,-0.22087533530961745,0.13169284843183096,0.39067417635000556
133.0,0.12328953579858379,-0.11220898430182458,-0.06477715334757034,4.67618624255367,0.6622654452811809,8.58208500992844,0.5504580195571541,0.9232325502978531,0.11264588250721216,311.92037929451874,28.489043123150125,-4.406354904274849,0.8845166211167437,-0.21082916700861712,0.13240894116750965,0.39426693731366375
134.0,0.1258048780487805,-0.11179583005507474,-0.06183595594020455,4.664729346970889,0.6939681353265146,8.588100314712824,0.5407995672698662,0.5553820810385522,0.2754007671125098,311.9134908536585,28.41014211250983,-4.614939024390244,0.8846362867690793,-0.20956575303579855,0.1336758929413847,0.39437590355389457
135.0,0.12696223446105429,-0.12315597954366642,-0.07005881195908732,4.67340243902439,0.7091964988198269,8.583065892997642,0.19533585759244693,-0.08604814122738003,-0.0728621656176239,311.68945589103066,28.46811196892211,-4.720751376868607,0.8837317982956333,-0.20942598102143983,0.1350320270906766,0.39606858802006284
136.0,0.13228186467348546,-0.12786014948859167,-0.06234146341463413,4.703866443745082,0.7212968135326514,8.565425255704172,0.21432435090479937,-0.0019153225806451402,-0.1386887785208497,311.8328333988985,28.671164437450827,-4.812602035798584,0.8838012757734066,-0.2108903914085366,0.13610053034402042,0.3947963638794256
137.0,0.140558615263572,-0.14183713611329662,-0.0775940204563336,4.725110936270654,0.70718961447679,8.55546498819827,-0.15787273800157353,-0.21043961447678994,0.2974036191974823,311.6092692761605,28.809490558615266,-4.720938237608182,0.8827825253485444,-0.21201019195594023,0.13631078921085757,0.3963908245003934
138.0,0.1647167584579072,-0.11245279307631786,-0.07078363493312353,4.718456333595594,0.6583391030684501,8.562645948072387,-0.21077153815892996,0.7488321203776553,-0.10862509834775766,311.5731731904013,28.76196892210858,-4.3978412667191185,0.8828595323280879,-0.21261075191817463,0.13385731463296618,0.3967433759166011
139.0,0.15975413060582216,-0.10993214004720692,-0.05999842643587727,4.681946498819826,0.6286070023603461,8.585060188827693,0.3533081726986625,0.11890858575924468,0.20463709677419356,311.47516842053506,28.520539929189614,-4.187684402045633,0.8830583555070809,-0.21127304711172307,0.1317330824738395,0.3977220886821401
140.0,0.15241354763778053,-0.11634183807275861,-0.0673279382563411,4.735309654939867,0.636216327601064,8.554894533737965,-0.03548949083960887,-0.8113034356150012,-0.35119047619047616,311.38156822524445,28.88182814431831,-4.255336536660296,0.8819944134682103,-0.21376726667490917,0.13356488220523774,0.3981308106582744
141.0,0.1705458768873403,-0.11961073020868458,-0.07155145929339479,4.795526581993929,0.6383245288674084,8.520574725562922,0.15637995953692252,0.17509179124049312,0.14265810572852272,311.2976143643925,29.282770877823985,-4.2835740511783,0.8808952978749391,-0.21671128269229334,0.135238314957851,0.39840533714660364
142.0,0.18255891499007157,-0.1347345547188191,-0.07312127683488817,4.694712824547599,0.6465853658536584,8.575392079727248,0.46156007643025737,1.0281134090142745,-0.476576842381327,311.24364954479034,28.6102829605485,-4.313211850436476,0.8820130111142331,-0.21129099217076924,0.13337392477426852,0.3994366692124686
143.0,0.16469446629950169,-0.10730433479450002,-0.08112135176651303,4.698114345659585,0.6920164100258515,8.570321831328913,0.22468013562624103,0.5754350717470308,-0.2941932673935034,311.548604866809,28.629069723876963,-4.616605316398786,0.8829526451174553,-0.21086880615937958,0.13507789005095353,0.3970324749177626
144.0,0.1537595069499082,-0.10906916188977556,-0.08621370499419279,4.639753474954103,0.6735337754299203,8.603807650518903,0.7460438443670151,1.4860112022779215,1.1608793694503765,311.0405544003596,28.23679095949946,-4.477411627514893,0.8819672614178936,-0.20766886549904462,0.13367761990745947,0.4013050639891724
145.0,0.15003259525682816,-0.14609756097560975,-0.07944940242029147,4.460107152223595,0.6569251058409201,8.69832010790154,0.10955706043235547,0.8399142032894983,0.35933273388033415,310.16310554119366,27.05108557191563,-4.3203542392566785,0.8811017247634783,-0.19792460746303991,0.13010309475096477,0.4090806059892098
146.0,0.16077318197145107,-0.13790086546026747,-0.08419047619047619,4.453469783822262,0.6322823798284065,8.703997976846129,0.06938317223033981,-0.34584246562511706,-0.025354286088943884,309.81400753062826,27.013283737964105,-4.154059889101195,0.879990762284178,-0.19780522946401408,0.12943611179562403,0.4118207456035742
147.0,0.1646364317560226,-0.12204642014162076,-0.07235300288486757,4.543123000262261,0.6264425087108013,8.658728972312764,-0.21937403993855606,-0.6088974279719755,-0.7110849630961747,310.00808418568056,27.603920094788506,-4.137455275186392,0.8796122726874601,-0.20265692141871794,0.1309784914664494,0.4098168465372223
148.0,0.16238434303697874,-0.11046459480723839,-0.07390204563335953,4.596483477576712,0.6223965381589301,8.63155782848151,0.34931894177812745,0.14125688434303696,0.27980920535011794,310.23630261605035,27.95829317466562,-4.121179189614477,0.8797762891368999,-0.20566984157828483,0.13164437546656177,0.4077824368469708
149.0,0.16133457907159715,-0.11267210857592447,-0.07988650668764752,4.622509244689221,0.646078678206137,8.616354051927615,0.05439983280881197,0.015686467348544442,-0.2609067663257278,310.1857408044846,28.12982026947286,-4.289980822187254,0.8792428310523208,-0.20639858181274584,0.1335511768465775,0.4079843241740755
150.0,0.1393406766325728,-0.14167073170731706,-0.06006018882769472,4.69963768686074,0.655160306845004,8.573201219512194,0.14290052124311564,-0.14109829858379228,-0.15696547993705745,310.194508507081,28.639582513768687,-4.371300894964595,0.8782588593890637,-0.21011730596282457,0.13583588338296615,0.40746016495397314
151.0,0.1795633359559402,-0.12149252557041698,-0.09519590873328088,4.729630212431157,0.6474547600314713,8.557752163650669,0.11566679779701022,0.4421911880409126,0.057435090479937057,310.25211939417784,28.83535601888277,-4.327296420141621,0.8780999374154208,-0.21188575867191192,0.13606335891738786,0.40679443296144757
152.0,0.1763040912667191,-0.13995554681353262,-0.06902202989771833,4.621376868607397,0.6591286388670339,8.614780881195909,0.6122197088906374,0.5957267899291896,0.23202694728560186,309.6691114280094,28.116463414634147,-4.374800845790716,0.8773694775708103,-0.20545229760503542,0.13503084920298974,0.41190373051298185
153.0,0.1656382769472856,-0.1480776947285602,-0.07193430369787568,4.576624704956727,0.7101544059795436,8.635159913453975,0.4200211447678993,0.45772767505900863,0.004167486231313924,309.41802837332807,27.82013178599528,-4.700652783241543,0.8769590117319039,-0.20175782710306844,0.13681810733162864,0.4140494049221085
154.0,0.17264221085759243,-0.1400401258851298,-0.07373033044846578,4.667121754523997,0.7080908733280882,8.586198269079464,0.025881441778127456,-0.3646021833202203,-0.19438680173092054,309.72235567466555,28.42155782848151,-4.717500983477576,0.8768781541567663,-0.20674613784697093,0.13840238722974035,0.4111909670562548
155.0,0.1693950926756079,-0.13915997292005927,-0.0803708854042779,4.728776462408286,0.711715916784074,8.552448721936585,0.02084171957623553,-0.3712627852084972,-0.39696013942510017,309.87258361846557,28.83600397050482,-4.756694508993101,0.8765975882337658,-0.21002148660146747,0.13981400363475016,0.40968786421623693
156.0,0.1506652882732878,-0.1223140541232869,-0.0668062137485591,4.771862660787148,0.7125102007209119,8.528734195744057,0.2899006001500375,0.1665027537372148,-0.08058569520428889,309.7586019980605,29.126204188242184,-4.775180456699541,0.87562639748431,-0.21204767882787773,0.1411320997363365,0.41030188247397215
157.0,0.15953012643404751,-0.11187693264779608,-0.055865734726364524,4.802583572722449,0.696302307284138,8.512380473167074,0.3064619051104239,0.04519079464988199,0.19087355680383508,309.6322514317604,29.32930488719741,-4.674396876658189,0.8748151695958136,-0.21381732739190895,0.14133424880207857,0.4110690558908019
158.0,0.15099581515587956,-0.09928547467877422,-0.049459411891300355,4.8373841021230914,0.6931792530014037,8.49313958280511,0.15459962551613513,-0.18867548986549776,-0.2872472255694586,309.5823425586361,29.566707443411374,-4.665948063670969,0.8741757917215889,-0.21560987322781916,0.14216662790034612,0.4112174867682252
159.0,0.14435235289658652,-0.09397397258722345,-0.05873206629183428,4.866528400392781,0.6867044966816618,8.477484818939928,0.18799021401691884,0.45970926529541795,-0.279874596262306,309.738260185691,29.757547270092783,-4.632560971253266,0.8743484180055623,-0.2174135847775603,0.14226923557645157,0.40985639701117793
160.0,0.1495834550972238,-0.10768273950020606,-0.057316923307481914,4.824872803566745,0.6911167809373947,8.501649020269003,0.1557992394440073,0.4648565996028624,-0.2800251020943389,309.55397184444195,29.473182908096362,-4.648231613652542,0.8742613509504327,-0.21491593720535013,0.14176571888112097,0.41153456588587906
161.0,0.13873388033419504,-0.09490689745607135,-0.05160177587950994,4.835822374583192,0.7132001049042749,8.492980292982653,0.359444662995017,0.8668755385710539,0.039740221422951555,309.8215655558053,29.54653675396201,-4.799287681240868,0.8750178395509347,-0.2153322410771047,0.14259048073125774,0.4094081021765763
162.0,0.12996882844404478,-0.0940034093889326,-0.054030628301674724,4.738855325765238,0.7141020194072907,8.54694648008692,0.2095462890112772,0.2651155820313963,0.08642695571540968,309.440582148477,28.903038243228053,-4.774422558165675,0.8749329499406915,-0.2099240420806452,0.14094454125469258,0.4129058941567382
163.0,0.1417361282829418,-0.08824435202877373,-0.054377252631973336,4.759998735528829,0.7203956764452436,8.535007277734065,0.2139678402832415,0.1421373309355213,-0.23742067785021168,309.5344471802293,29.04118125023416,-4.82175323610955,0.8749869712036265,-0.21096381300727773,0.1415931993801094,0.41206480868331086
164.0,0.13119103817766287,-0.09038102731257727,-0.05428608894383875,4.79514443070698,0.7073571615900489,8.517199055861525,-0.11029701022816679,0.06298939717507775,-0.30071700198568807,309.4132362032145,29.27327797759544,-4.740251863924169,0.8741056818425685,-0.21288011310778915,0.1420602989487093,0.412796254899779
165.0,0.09897680866209582,-0.08635719905586152,-0.06210969989884231,4.726564759656814,0.7071823835749877,8.555006743846238,0.23246365816192727,1.1656609437638155,-0.02049497021467908,309.54287376831144,28.81636132029523,-4.724948250346559,0.8754718705906486,-0.20952183304990446,0.1401683707103518,0.41224855617249256
166.0,0.11263084934996814,-0.09987523884455432,-0.06392117193061332,4.710680379154022,0.7097062680304222,8.563622569405414,0.13784374882919337,0.0008827882057621528,-0.25044490652279794,309.3319751976321,28.713398242853394,-4.740624180435352,0.8749035596714247,-0.20844797694391365,0.14031231427260127,0.4139600228919861
167.0,0.1286088943838747,-0.1050792401933236,-0.056106927428721295,4.7132355475628485,0.7043771308680828,8.562460379903335,0.535950788655352,0.8263412760855718,0.7269116930800645,309.17818272076727,28.726412929451875,-4.705284552845528,0.8743261093046344,-0.20847789397549732,0.1403845477303211,0.4151382272170395
168.0,0.13293072571278708,-0.12604473418006068,-0.06240200816754712,4.609268442546177,0.7282271177550483,8.61604136225694,0.22181587426473343,0.5461368064141471,0.08873122026151137,308.78062361844815,28.038260555992654,-4.829855100970364,0.87417482137537,-0.20222761509160386,0.1396254687078041,0.41873890700505795
169.0,0.13947795136937544,-0.11804754411599415,-0.07070690494923385,4.647856880596456,0.7250506163126146,8.595983702371587,0.14743429433142258,-0.1328472144168446,-0.07964599490464952,308.7248122026151,28.295448137949123,-4.822878966692892,0.8734860116499192,-0.2042012357495785,0.14055696050181704,0.41894463026570755
170.0,0.12113375295043274,-0.11496616837136114,-0.06494177812745869,4.7252525570417,0.7155145554681352,8.554786782061367,0.292087922895358,0.15516817466561766,0.15949055861526357,308.4468627065303,28.810056058221875,-4.778240558615263,0.8714976196805663,-0.20794876999921322,0.1425214160220299,0.4205716566121164
171.0,0.10885169158143193,-0.14870180959874113,-0.05580763178599527,4.749666404405981,0.6858713611329661,8.543175452399684,0.20637539339103067,1.2201391620771047,0.038685090479937054,308.22502950432727,28.972096282454757,-4.58408487411487,0.8704386042226593,-0.20956099366443742,0.14208163838552318,0.42210408357513773
172.0,0.12681451612903227,-0.09283870967741933,-0.051508064516129035,4.715709677419355,0.6752661290322581,8.562645161290323,0.2998487903225806,0.12797379032258072,0.5200604838709678,307.97822580645163,28.75337701612903,-4.5045866935483865,0.8699714909838709,-0.20784887502419352,0.14118568658064515,0.4242252962580645
173.0,0.11899193548387096,-0.12511290322580643,-0.06194354838709678,4.6758870967741935,0.6896451612903225,8.583629032258063,0.6440020161290323,0.6259576612903226,0.4100302419354839,307.482308467742,28.483014112903227,-4.590171370967742,0.8686160177016127,-0.20488054782258064,0.14175026199193552,0.4282295474193548
174.0,0.13404321753515303,-0.13860669975186105,-0.04995781637717121,4.608287220843673,0.7370976013234077,8.615930934656742,0.3045259511993383,0.46626731803143096,0.136285153019024,307.02367142266337,28.030287169148053,-4.884156586021506,0.8676729189580231,-0.19979898247394537,0.14305845908540116,0.43207965650785785
175.0,0.14808701002642782,-0.13662396356593837,-0.06304362101313321,4.5050215608545665,0.7447620186003348,8.66974516835119,0.34971945671689963,0.7844963901329459,0.25770050333878025,306.661780390718,27.35066372127741,-4.907835447810124,0.8675642914267889,-0.19402795507627246,0.14142756643166596,0.4354514198400815
176.0,0.1748155349109322,-0.12280834291593534,-0.07758898202505599,4.449536055801004,0.719407759890254,8.700913988581576,0.20913638060077872,0.23435394349290883,0.8132891777118765,306.1532341912284,26.98537562539087,-4.723601412929452,0.866336869880389,-0.19127521153823457,0.1396742873799754,0.4396646493862092
177.0,0.15081809771660284,-0.12319814227209977,-0.06789414539040818,4.458671445719242,0.7100105235703189,8.69659255496667,-0.02953079203448007,-0.7072685927696746,-0.40630423986910014,306.0626314005297,27.048484183663177,-4.67048806245551,0.8658916067205324,-0.19182805075318027,0.13964720152024884,0.44029737381023204
178.0,0.15556880308257182,-0.11461212797168739,-0.07296608191179396,4.6697679425216805,0.6440870590201825,8.586378842767513,-0.17839706844427536,-0.10020447687638867,-0.06086501355974211,306.5131465374384,28.452093474320066,-4.287339365329137,0.8650056030465182,-0.20449227102347955,0.14114634662917205,0.4356030708430961
179.0,0.12883781049792065,-0.11680978607021095,-0.05944475665954817,4.691555955190889,0.6312648458281817,8.577825484245626,0.20317710089543292,-0.148966411899142,-0.4152546738601026,306.4875566670413,28.588728410325576,-4.2070337379641085,0.8647327801543592,-0.205790197544116,0.14116503018508114,0.4356853528013188
180.0,0.12008317410363042,-0.11068450039339103,-0.059593495934959356,4.78788468022929,0.6551020943389156,8.523122775467387,-0.15134783260275,-0.846188790228916,-0.8980812820801019,306.76408948709303,29.235367258626503,-4.397348357124124,0.864489822006669,-0.21046629658049532,0.14431132584204415,0.43291439385186015
181.0,0.12000768049155146,-0.0906605222734255,-0.05770353302611368,4.906966205837174,0.6506298003072197,8.45519969278034,0.2127496159754224,-0.4960637480798771,-0.1954205069124424,307.17458717357914,30.046514976958527,-4.402025729646697,0.8644163535637481,-0.2171799623271889,0.14641691755760367,0.4290257701612903
182.0,0.12781555580532764,-0.0942370087295343,-0.09035761117979843,5.063547825109588,0.6268568056648309,8.362139110561614,-0.9313403862725261,-2.0660393484695216,-0.9540165692555542,307.8024158424188,31.110037091154318,-4.276907478176163,0.8645186428695065,-0.22657922326214824,0.14800703967217413,0.4231989650391518
183.0,0.15601195159417033,-0.10971001461166688,-0.08256978007568094,5.085056011389607,0.5987360908171293,8.352584204413473,0.2368377917650144,1.1544165168034168,0.04083071072646216,308.2341753774681,31.245834269978644,-4.092398889138661,0.8659077785583156,-0.22874646972930945,0.14634357478288562,0.4198521684966843
184.0,0.13865804952980404,-0.11550016859615603,-0.06816046607470683,5.007752276048105,0.6343426997864448,8.397652317260501,0.6915563766812783,1.2011281892772843,-0.07071367689483342,307.9434221741411,30.711780422239706,-4.319437731819715,0.8659170361501256,-0.22350922758278066,0.14668140917485295,0.4225880937514144
185.0,0.1668966721712591,-0.08939873134995088,-0.08260410164186718,4.945897879723214,0.6625781205419286,8.43240290446506,0.6297440544637634,1.7829425360896642,1.1407018139217195,307.65998467504176,30.288237265946748,-4.4949833997631,0.8656820630983997,-0.21931974973668159,0.14700151232463549,0.4251618890921197
186.0,0.1335908935019871,-0.12775676329964292,-0.04831499525913374,4.7718028606588785,0.6996319473864714,8.527392584074724,0.6268305291613709,0.5531947890818858,0.023599427061268052,306.7849104278884,29.1221537150235,-4.693266961205593,0.8646123670971374,-0.2086113696209728,0.1458955350303819,0.4328834924321451
187.0,0.15010426879703043,-0.11932795698924731,-0.059791058927959,4.7153156811717,0.7230344166717102,8.558234914967016,0.5990701093425326,0.4219049456313421,-0.05247432871351046,306.4222930410135,28.743602100102887,-4.828651601807581,0.8639885305252074,-0.20477362474986383,0.14623442640441608,0.4359643560320866
188.0,0.16336055296657187,-0.11039961972200368,-0.06683101333494725,4.749557919264056,0.700757963646634,8.541525010591299,-0.11959850158365098,-0.30141475771147286,-0.17238193225604714,306.3460304701527,28.974230239665918,-4.691174738748008,0.8633219589801489,-0.20690896518374388,0.14625200077498535,0.4363481991804807
189.0,0.13495850228973755,-0.11311513244164698,-0.06945582924811879,4.817819282212673,0.6935322076297687,8.504202021424682,0.10910195888559382,-0.5144674595008978,-0.18457806290221712,306.20663418668926,29.43015947467167,-4.66438777259981,0.861923169796526,-0.21032285705961382,0.14793834231087977,0.43693094180395
190.0,0.14884230063144305,-0.1106530694587343,-0.07119849099235412,4.911542536666062,0.7134100748451653,8.448621517480682,0.2300248138957816,-0.20296657184934136,-0.3321491254614779,306.3920736750792,30.059552845528458,-4.82967656196413,0.861327726301761,-0.2148164996662027,0.15096892623684155,0.43487373781335104
191.0,0.16505057596481676,-0.11463023260505556,-0.08064173172749098,4.923215013415644,0.7020291916318666,8.442772599810365,0.10417448405253282,1.1502918911012932,0.22977516189553954,306.2369986786096,30.135539601363757,-4.753926597268454,0.860616071514374,-0.21544441940273157,0.15095426124823982,0.4359639481600194
192.0,0.16482612116443748,-0.1135656963021243,-0.07577891424075531,4.6841011014948855,0.6842230527143982,8.574588906372934,0.08823760818253343,1.6408561172305274,0.36165912667191186,305.4185041306058,28.545485837922897,-4.560085562549174,0.8605352225468136,-0.20290966248465775,0.14529739513217937,0.4437141325397326
193.0,0.14370844104754416,-0.10687033082312389,-0.06557613053089056,4.708973108913115,0.6658461185418305,8.564387668127832,-0.9135108744520626,-1.2210044467236143,-1.415728030984227,305.4763774540107,28.71613910119516,-4.447320609006781,0.8604939485642539,-0.2046864234007343,0.1450378781597355,0.44313533099898855
194.0,0.1819993818140946,-0.11595129444381999,-0.09176387171705819,4.772305102843655,0.6302496721741411,8.531963995354237,0.48094617567719444,0.9534846717994832,0.3695049361207895,305.77906574313437,29.134783260275,-4.22310586901952,0.8609094862579335,-0.20898462429714137,0.1444454988943839,0.44051322432207496
195.0,0.1920773950020606,-0.1372356974260987,-0.0969212374957851,4.783271805102842,0.6321670975235097,8.527500674384624,0.5288825704357274,-0.007651982409800917,0.33781787400247265,305.74080413341574,29.20262565096849,-4.238526914503016,0.8606760282293752,-0.2094283635215054,0.14493231624086772,0.4407152752765071
196.0,0.19222723015248583,-0.14523468584916266,-0.09802877374395863,4.781567157468809,0.6575265070623056,8.526888614139597,0.5508551571690832,0.7599064291334158,0.22551421827582321,305.6700861245364,29.1890808231239,-4.408775898242853,0.8604031410024728,-0.208634429435615,0.14622347315859274,0.4412523371102245
197.0,0.1818295867520887,-0.1351311116106553,-0.08978936720242779,4.704497190064065,0.7023037728073135,8.564813307856578,0.5887635345247462,1.1648174946611216,0.06658283691131839,305.33128126053725,28.675923181034804,-4.682063008130081,0.8599992549465552,-0.203304256889326,0.14688335937237268,0.44424779231986444
198.0,0.1647319976771196,-0.13169382001423702,-0.08036703383162863,4.685574247873815,0.6927686298752391,8.576773013375293,0.31317497002735006,0.40086112828294185,0.21464702521449175,305.0621460066127,28.552343310947506,-4.6135689464613545,0.8592177852958582,-0.2022920930990409,0.1464533912338054,0.4464021949886572
199.0,0.1702626353452475,-0.1323163238544828,-0.08223839496459479,4.612398748641864,0.7240957626166123,8.614193548387096,0.4048356655801581,0.08580256453486197,-0.18588311603162117,304.92391513056833,28.06605105653591,-4.80136797047694,0.8595603031960213,-0.19770386235341503,0.1462456843417257,0.4478936690335694
200.0,0.14235097973099547,-0.12482559664306322,-0.06910306845003934,4.727570342062867,0.7383766063467087,8.54978494623656,0.005053201453673523,-0.8084092016035368,-0.5045919036379304,305.03004992319507,28.830572571278708,-4.933086058971188,0.8584608997969353,-0.2032456043909932,0.14978470946348954,0.44632261324566325
201.0,0.12774905398823574,-0.1285654340414372,-0.07198269079464989,4.795130568356375,0.7462732756359822,8.511670600576974,-0.14410990596081075,0.3354688846427635,-0.4849621595294294,305.41188275074,29.280181053538644,-5.0102586077704085,0.8590548824397737,-0.20690251643625196,0.1512703376703758,0.44299851042298893
202.0,0.13140478063766814,-0.10528324154209284,-0.09403619197482298,4.905997714585441,0.7272093589599491,8.44882844404481,0.23531457232775094,-0.1251170806638942,-0.13912578209883483,305.81069110374284,30.027450732456632,-4.929332452886741,0.8591051506384173,-0.2134702703641677,0.1525948891467161,0.4392321296206586
203.0,0.1562361844816605,-0.10503870218425687,-0.09052654452811809,4.856534187553857,0.7643443108163801,8.475581656738225,0.35027537372147916,0.7927025963808024,0.35294574950357793,305.8494267730696,29.690443876212953,-5.159203476827395,0.8598849897600689,-0.21012349633569366,0.1529609151424825,0.4392603520998839
204.0,0.14324004346034241,-0.11961612528567683,-0.09260788280693866,4.7718980929901464,0.756031321419205,8.524195234348657,0.09171420141620773,0.2748918174665617,-0.023910681503128417,305.52271692705403,29.127160372410174,-5.069250636918811,0.8597652234284214,-0.20567524972960924,0.15091026110782663,0.4422872424425462
205.0,0.12587538870780413,-0.11907579333857854,-0.07420613690007867,4.829340639166761,0.751772170394515,8.49179723502304,-0.21262129556779436,-0.7717510115769359,-0.7993918830317336,305.53738315349744,29.51439108688322,-5.05836752088719,0.8590462850917537,-0.20873836249012778,0.15222972496036116,0.4417917789216215
206.0,0.16339560151361884,-0.12165198006818775,-0.09394807238394959,4.940408321156943,0.6956288074631898,8.431009553782175,-0.03426599790191448,0.5313550213555132,0.1607338381851559,305.95759303229556,30.26181788805215,-4.713512045258701,0.859240636614327,-0.21615749514828972,0.15167469063517663,0.4379386437353977
207.0,0.18894700316730217,-0.15688471625411043,-0.10281977647319894,4.847451295164316,0.6906505729387319,8.485760596340455,0.37080382900603204,0.8894146606245839,0.48412260561036125,305.5666070590994,29.630914482842098,-4.651546581532813,0.8590405287987151,-0.211031528069832,0.1497101103769644,0.4415304166428967
208.0,0.18705414674494142,-0.15157945490124877,-0.09027279146240591,4.693487744356352,0.709490609050011,8.569573846557324,0.3620148177288225,0.9343494674090661,0.08437481086969673,305.41629244084004,28.598924983356532,-4.7304103875406,0.8604434065203251,-0.20267713660749662,0.1468139785715467,0.4436660419948355
209.0,0.1866285682583873,-0.17220672194314995,-0.07419461760374427,4.651986987835139,0.7185549032661542,8.59318818212996,0.28737542617361655,0.8210348831931247,0.019670686316044284,305.05597765236337,28.321477637232945,-4.777646185115698,0.8595896689816417,-0.19989629444694262,0.1467800680119732,0.44665786331370416
210.0,0.21401137303556658,-0.14715922249793217,-0.09180934656741108,4.544100496277915,0.7295425971877585,8.649944995864349,0.28743279569892477,0.8083242866004963,0.28080800248138954,304.94589795285356,27.609258684863523,-4.821125413564929,0.8604754452956991,-0.19416769052874278,0.1446401995622415,0.44817939334449963
211.0,0.20019520264681556,-0.1425392886683209,-0.07983209263854427,4.516606699751861,0.7420132340777504,8.664367659222496,0.4569220430107527,0.0416873449131514,-0.28091656327543424,304.8808622828784,27.42610111662531,-4.895391335814722,0.8605565432526884,-0.19241881526840365,0.14462913830934654,0.4488426523254756
212.0,0.17125806451612902,-0.1314516129032258,-0.07088709677419355,4.550524193548388,0.7565806451612904,8.645475806451614,0.39425403225806455,0.24758064516129036,0.0008568548387096753,304.76612903225805,27.65010080645161,-5.0025705645161285,0.8596655078306452,-0.19361084968548387,0.14641388909677416,0.44946766520161285
213.0,0.15619354838709676,-0.11551612903225805,-0.05883064516129033,4.617782258064517,0.7498629032258064,8.610209677419357,0.3204133064516129,-0.16895161290322575,-0.014415322580645155,304.4954133064516,28.095665322580643,-4.975050403225806,0.8577854283145162,-0.19677660514516127,0.1483413700967742,0.4510427165564517
214.0,0.14479838709677417,-0.09958064516129031,-0.05620161290322581,4.655653225806452,0.7547983870967743,8.589370967741935,0.3561491935483871,0.686038306451613,-0.19017137096774192,304.4499495967742,28.34445564516129,-5.02414314516129,0.857126002282258,-0.19842578552419354,0.14967262514516128,0.45113712410483875
215.0,0.1475894777265745,-0.09525729646697387,-0.06114016897081414,4.655556835637481,0.770858678955453,8.58829608294931,0.29519249231950845,-0.33516465053763445,0.0969206029185868,304.33556307603686,28.344422043010752,-5.124762384792627,0.8566404068175884,-0.19790733545430106,0.1505981049500768,0.45198345979147475
216.0,0.14996438874526996,-0.08468706680154359,-0.06092443145629611,4.723070904050054,0.7410269004533362,8.553754945487242,0.03703431165936083,0.004116263440860191,-0.053783871436064584,304.2112801365629,28.79623369066352,-4.948292261436439,0.8553471497377676,-0.2018224557774063,0.1512395662781462,0.4524758376487862
217.0,0.14818262710276875,-0.0817839346596231,-0.06216815593271138,4.758628292308268,0.7505022385822936,8.533064038439921,0.23954083305233975,0.06203489706268028,-0.02777153347570342,304.12160436804544,29.03133933254655,-5.028495560301225,0.8545209424750011,-0.20323449300524524,0.15282522312038704,0.45288501745017984
218.0,0.13692349481098498,-0.08976984751414334,-0.06005277996328349,4.799424937244764,0.7454525401820837,8.510739200479561,0.1410837805814694,0.2385863329399423,-0.09930243340451837,304.0958144248061,29.305406609437636,-5.003634300887939,0.8539055103709492,-0.20535260434670863,0.15370857871706756,0.45279845933472884
219.0,0.1325208871904387,-0.09177662882619608,-0.052016597354913624,4.742853021617773,0.7504115619497207,8.541229815293544,0.552028305421303,0.15554868682327377,0.18266925180772542,303.68639007530624,28.925277949496085,-5.023800157356412,0.8529792697392381,-0.2018787722593758,0.15315714585066129,0.4562303403714734
220.0,0.1569401670975235,-0.09540444344535612,-0.06596605597392378,4.837762916338839,0.7576212955677943,8.486340714098386,-0.4489762466749092,-1.2907932449140158,-0.5301131467535874,303.9184158517852,29.567597692105952,-5.101377805252707,0.8526195167667004,-0.20679131687085534,0.1556174831096624,0.45380283304671987
221.0,0.12307669251807726,-0.10815855531827206,-0.06321906260537258,4.874314188303172,0.7195462890112772,8.468992544303322,0.13349771458544077,0.5706488142070361,0.1720500355925218,303.9542659510696,29.813401521111984,-4.85679629837773,0.8523733020340192,-0.20956311930875576,0.154779955685437,0.45332936056348583
222.0,0.14654228016934548,-0.12277715334757033,-0.0669675171406092,4.840500917912406,0.7250406504065043,8.488898317785022,0.3696599509197857,0.42404391929863994,0.06308540331947098,303.7630790809636,29.58168600839234,-4.879445552808062,0.8520723238690945,-0.20745683450882318,0.1544352172565659,0.45500793249653426
223.0,0.15369056985500731,-0.12061275336255667,-0.06893522161028062,4.843726162376832,0.7248336517927392,8.487793450975985,0.33431329849012775,-0.13329750665018164,0.10661482334869432,303.68834063916677,29.606975431793487,-4.8787137986587235,0.8517397314030947,-0.20755892456820652,0.15467934966917685,0.45552391687104266
224.0,0.1290318834063917,-0.11783728597654641,-0.06283279007905286,4.889281031059159,0.7239846764827094,8.461773069574015,0.2195789311003709,0.04317817803754076,-0.26848586602225466,303.5932606028249,29.911122897231273,-4.8882828013187964,0.8507573496577497,-0.20969465454872427,0.15603911570772916,0.4559267097175078
225.0,0.1280566483084186,-0.10493784421715185,-0.06432730133752951,4.884062942564908,0.6878394964594805,8.467589299763965,0.09119787568843431,0.4400078678206137,0.10756294256490954,303.5175452399685,29.874105035405194,-4.643656569630212,0.8505882616191975,-0.21019214132966163,0.15432762757199053,0.4565900013579859
226.0,0.14833277134614664,-0.11051058409201603,-0.07530478438424937,4.819786145142556,0.6658158929976397,8.505674871679595,0.006860458581544347,0.9429817166835263,0.15697753924543856,303.2389016897081,29.435768142819676,-4.477001142707279,0.8503774059928064,-0.20713535964257618,0.15202697175197633,0.459119118873328
227.0,0.14382334869431646,-0.09616481210895059,-0.0623219437263497,4.760117305458769,0.6576262785208499,8.540240268255221,0.12277523322468248,0.41789624779888346,-0.0933788542954554,303.15837196995244,29.03972219100071,-4.405298368363868,0.8508497652119814,-0.20429857466314494,0.15017407231815966,0.46014116408497246
228.0,0.13580231164062795,-0.1003129331984564,-0.06930023228803717,4.732352122438275,0.6617911093627066,8.554825090854596,0.27620370630549623,0.6538487926641938,0.009270446967142486,302.81177843186845,28.856284187553854,-4.42211220542505,0.8498092631449363,-0.20238029924345288,0.15020717135577533,0.4628789331164438
229.0,0.12159509759844142,-0.09589604173691507,-0.060554915514592925,4.773064338166423,0.6351874508261213,8.533038037166085,-0.0009127023153872038,-0.10851030075680945,-0.6708171762017159,303.12532765023786,29.1344019285527,-4.256296071241243,0.8505475319501234,-0.20553791312684053,0.14955288676364692,0.46026682204602676
230.0,0.10718671087632535,-0.10222723015248586,-0.05854014461803603,4.722798789854258,0.6819110936270654,8.557753381289576,0.35330729459368326,0.1606193332958675,-0.3502320538758383,303.3163905904612,28.797050738076504,-4.5532617502154284,0.8518853708838936,-0.20212695798257843,0.15004078290523024,0.4591731737202989
231.0,0.1181325259450751,-0.09913204825596642,-0.06389756846877223,4.754790331947098,0.7300607695477876,8.536080991720057,0.5607742310141995,-0.12012716130905549,0.1015736812034019,303.37183296804164,29.009412465812446,-4.886677918118467,0.8516014196738977,-0.20257354604198047,0.15309101288118654,0.45851145687167016
232.0,0.13384586564759657,-0.09504851822711775,-0.05984414222022405,4.837232400434602,0.7667880558989923,8.487032332996142,0.2606192162152036,-0.3842540556741973,-0.3049529804053801,303.4920361732419,29.562420385148553,-5.161508092615488,0.8509332556292384,-0.20590987346296508,0.15683927036791426,0.4570009148690569
233.0,0.12616687272863514,-0.09412760855719154,-0.054378254842456265,4.890498295305533,0.7806106927428722,8.456063467086285,0.08888764002847402,-0.043640646659922844,0.01774708703308228,303.32318243977375,29.91657300213555,-5.27391255479375,0.8495349650286613,-0.20795298373159493,0.15925313031096622,0.45785904907909036
234.0,0.13299614102131804,-0.09841856805664831,-0.0688704057547488,4.86881008579671,0.7506923682140048,8.470635794837213,-0.20550232288037168,0.2827685362107077,0.08942855269566519,302.8703074069911,29.767690888314412,-5.062891049417406,0.8480555092390691,-0.20701387579483724,0.15805343966692892,0.4614102176793675
235.0,0.1578867408489753,-0.11305271439811171,-0.07921490390019108,4.913523846989621,0.7101927616050354,8.448291933610582,-0.1641201622269679,-0.2307636469221835,0.024503812146416386,302.8310034281218,30.07006692330748,-4.798828490877074,0.8473794595683937,-0.210194806213705,0.15745569510490426,0.4614325263888577
236.0,0.17625903862725262,-0.12194110374283466,-0.0888662845153797,4.938954703832753,0.6388943838747142,8.43850848600652,-0.06101073395526583,0.2664826158630249,0.18475094601176423,302.93033466336965,30.240462609119177,-4.3233533775429915,0.8475583573725225,-0.21336561374433333,0.15460087561312802,0.4605609968157806
237.0,0.16240399385560675,-0.1243919298639991,-0.07266063467086283,4.905505413809898,0.6227541118729158,8.459618223371173,-0.2834698493874339,0.18335885691806225,-0.6113928852422166,303.0438794912143,30.017717816867105,-4.208949177625417,0.8485044951009703,-0.21224795304147465,0.1527649029631711,0.45998901402982284
238.0,0.13799539170506914,-0.11294481285826685,-0.05926964145217489,4.89493934284965,0.6009500206061968,8.46778453411262,0.29482901539844897,0.6850022011164811,-0.2022018189651943,303.2439731557454,29.943185905361357,-4.058391639503952,0.8494969417471054,-0.21249150911059905,0.15108497741246113,0.45861901122382076
239.0,0.12508141321044547,-0.09843400397137612,-0.04301577310703983,4.865563373421752,0.5954849949421153,8.485151099621596,0.04810095163163615,0.5640496796673036,-0.17956193098797346,303.2365123075193,29.746381739163013,-4.015826964145218,0.84988561320535,-0.21115050565591398,0.15003574651575435,0.4588830403837998
240.0,0.10492780337941629,-0.09955453149001536,-0.04356374807987712,4.831660522273426,0.5879447004608296,8.505176651305685,0.261107910906298,0.37649769585253456,0.014890552995391715,303.234965437788,29.515706605222732,-3.954781105990783,0.8503337442258065,-0.20964232634408597,0.1487629548141321,0.45916019548694315
241.0,0.12186697763290996,-0.09388417444082275,-0.08138754636394291,4.811632310516654,0.6018181596792928,8.515905174028699,0.40646917500281,0.11511909445131319,0.3282954694466299,302.7887225562924,29.385188476452736,-4.044469577760294,0.8487821460604887,-0.2077169724703083,0.14967958825978794,0.46257080190826483
242.0,0.12878107789142407,-0.10622049567269867,-0.07389850511408341,4.779708103855231,0.651689024390244,8.529557435090481,0.33782700629425655,0.39541453579858377,-0.35166576514555475,302.7987608182533,29.17255237018096,-4.366234756097561,0.8491494881846973,-0.20493181846970884,0.15110434008143192,0.46267722169099124
243.0,0.14110818253343824,-0.10762195121951221,-0.05660070810385523,4.816665224232887,0.6536431943351693,8.508392210857593,-0.09961275570416989,-0.19471380802517704,-0.19261039535798585,303.0796284913454,29.41984534815106,-4.391583890637293,0.8497874640940205,-0.20709582447442956,0.15169475339988198,0.4603508389409914
244.0,0.14253796223446105,-0.11360936270653028,-0.06784067663257279,4.824905192761605,0.6500151455546812,8.503518686073956,0.3696744689221086,1.2180160798583792,-0.4164916896144768,303.1203838021243,29.47280069826908,-4.369985493705743,0.8498336078131392,-0.20762225478560192,0.15167420591365066,0.46000239001888277
245.0,0.13506215578284814,-0.10552163650668764,-0.053705743509047985,4.693450826121165,0.6844437450826122,8.573154996066087,0.9925845790715971,0.7779307631785994,0.6012490165224234,302.63728363493317,28.599498426435876,-4.559313532651456,0.8494886301825335,-0.1996684603839497,0.150512147140834,0.4644478332981904
246.0,0.16640185830429732,-0.12492690419991757,-0.06672286538533588,4.58124659997752,0.7261679592371959,8.630450901052788,0.6665931400097411,-0.21126737477052193,0.6506359821662733,301.9556226818029,27.863434069536545,-4.800657525008429,0.8479977077504028,-0.1922826865690308,0.15052617945198754,0.4702094974340039
247.0,0.1837280731332659,-0.13104331047918774,-0.04954160578472144,4.564006462852648,0.7545198568805963,8.637951650369038,0.4410611254730059,0.30233739837398377,0.15802845528455284,301.2517590198944,27.747437923832003,-4.984317747555355,0.8452852799412911,-0.18978430356382303,0.15252214442308268,0.4754793697988273
248.0,0.18108362369337977,-0.15138617886178862,-0.06837314075905736,4.543487626915439,0.7586103836499194,8.648450929152151,0.5288039507699225,0.857931980817504,0.2522432655202128,300.81127205799703,27.605555067719454,-5.011013543891199,0.843687680388202,-0.18809672059424526,0.15288593542067552,0.4789019653377636
249.0,0.1935502603873965,-0.15734554718819077,-0.08307481922745494,4.461437937881682,0.8073698999662808,8.686933797909411,0.226052321007081,0.4321821962459256,-0.21556423513543893,300.6549351841445,27.066173991233,-5.308818983927166,0.8439153493480949,-0.18268148115656963,0.1531027279843393,0.48056053257652387
250.0,0.1943125023416133,-0.1711354014461804,-0.092005544940242,4.45089599490465,0.8613324716196471,8.68740080926155,0.3857444925255704,0.3885438911992806,-0.36842826233561876,301.07345992094713,26.99539521748904,-5.665571962459255,0.8456926626048106,-0.1813340529779701,0.15465475398430178,0.4774475407453823
251.0,0.21509722378329776,-0.16761043048218502,-0.09341463414634144,4.344106253044098,0.8913086808287436,8.736781686710877,0.25651670975235097,1.2933409201603534,0.2907604623281256,300.8390000374658,26.2951041549586,-5.828242666067213,0.8458582026462103,-0.17507838848900378,0.15336847745756993,0.4798387392454385
252.0,0.21788692817803756,-0.16074201041549585,-0.08622981529354462,4.385435165411562,0.8560497920647409,8.71784852572028,0.41355349181372,-0.7949812202615115,0.36695538758382973,300.6499171068899,26.577544865310408,-5.60751517365404,0.8446088247130118,-0.17782279482166274,0.15326309502941066,0.4809811338681577
253.0,0.1939434640890188,-0.144361020568731,-0.0779843392903975,4.494775954441572,0.8144265857405119,8.666047918774119,-0.13133289311003704,0.07848385223483567,0.23337688734030193,300.3758418099734,27.28786037428347,-5.3656815499606605,0.8422953620377656,-0.18375349054063167,0.1548272160938144,0.4823258726752463
254.0,0.17239031883406392,-0.1260852721891274,-0.0713608332396688,4.582975534824472,0.7782854894908395,8.62363148626878,-0.21487439586377427,-1.3984404855569292,-0.26425433666779063,300.4575685624368,27.875050578846803,-5.151921996178487,0.841646258694766,-0.1891185800352928,0.1555497370392267,0.48115206888524215
255.0,0.13906358524769225,-0.10668795877607835,-0.06610971719075574,4.7800687353559095,0.7058623678969863,8.52109311407187,-0.3839185925535257,-0.4922045172241868,-0.21162430868371074,300.51537027750635,29.188518853949617,-4.730102195208411,0.8395589498641374,-0.20062688977949356,0.15768269876523056,0.47938721826658365
256.0,0.11955382252156443,-0.09535342077277559,-0.057467919177596596,4.896794399149236,0.6596998700224506,8.46017676946709,0.19055447240931114,-0.5250214167552877,-0.0903617216117216,300.8572573260073,29.966117216117215,-4.454400035448423,0.8395840907479618,-0.20798875259234312,0.1582597760348576,0.47608091091220606
257.0,0.09906723384142738,-0.1028810114616566,-0.059482039465910436,4.914998582063097,0.6772769703414863,8.449553822521564,0.06931717476072316,-0.1557710770412383,-0.6196672279333569,300.63966456930166,30.084906726338176,-4.5791441421481744,0.8384304987011698,-0.20809387639755406,0.15996918023325063,0.4775411099852889
258.0,0.10304590570719602,-0.10316170388751034,-0.06086621174524402,4.87282340777502,0.6986968569065342,8.472140198511164,0.5667054383788255,1.4380130789909016,0.010212468982630285,300.7825242969396,29.795943186517782,-4.710208591811414,0.8395566165802316,-0.2056054261457816,0.15946585954673284,0.47679173520616214
259.0,0.14649836591418022,-0.11426790937884565,-0.06159921523532854,4.7608324355948275,0.7210221105933141,8.533282727107668,0.39818970778107277,0.9763217686457262,0.31475783755976516,300.3085848766366,29.04801400572939,-4.821953110815227,0.8389615044921221,-0.19894537512609695,0.1581349211958684,0.48105919353748317
260.0,0.13393882769472856,-0.12642564909520065,-0.0524581038552321,4.681525177025964,0.7206353265145553,8.577741345397325,0.4859645456333595,1.2517776357199055,0.0562377065302911,299.8117648505114,28.516913355625494,-4.796191483084186,0.8378714766837136,-0.19441261596164436,0.1567050698119591,0.4853002813731314
261.0,0.1466397287475179,-0.1301433160990596,-0.06818354501517365,4.626984170694242,0.7700542223970626,8.602729159641827,0.600392747087033,0.9630431957401371,0.24912739781199653,299.7240035850099,28.15993757259001,-5.113977557978345,0.8380586037109043,-0.19037653255935522,0.15758231283416696,0.48627941216525233
262.0,0.16626911693080063,-0.13817089093701995,-0.06833960885691806,4.548827451200779,0.8104524652504589,8.64046489453374,0.47067053267018844,0.9162451177363156,0.17220335272189127,299.34848450788655,27.640905056948036,-5.354893971750777,0.8373375858130643,-0.18504005710589713,0.15779791064062793,0.4895206593891761
263.0,0.1664148964070286,-0.13007680491551454,-0.07629538046532539,4.531976321606535,0.838562062118317,8.647675995653964,0.1944522498220374,-0.2110870705481248,-0.2526788055898992,299.11901951968827,27.527328968566184,-5.537009197856955,0.8365275710351803,-0.1831545190187704,0.15898567907684236,0.4912779339215466
264.0,0.15500131130343558,-0.12987523884455432,-0.07425274437076168,4.531890899554158,0.8469832527818366,8.64691244239631,0.32727089655689184,0.4531021692705407,-0.03271467910531636,299.0426197032707,27.521444494398864,-5.591374433329587,0.8361994821722677,-0.18281831947772656,0.15946633822899103,0.4918272961642501
265.0,0.1562418043535274,-0.12831291446555015,-0.07128844929002284,4.57391161814844,0.8596875351241988,8.623826008767,0.2902581862800195,-0.06502542992019777,-0.05874522310891309,298.9723080813758,27.801438218875276,-5.696134698962197,0.8353644023174477,-0.18442623362163274,0.16140834062511705,0.4920146494275224
266.0,0.13957865947323067,-0.11208579671050165,-0.05469491588925106,4.630931999550411,0.8705319396051103,8.59196215952943,0.1771327413734967,0.08864223895695178,-0.24034131355138436,299.1001133340826,28.183140384399234,-5.78525532951182,0.8351852933561124,-0.18708466825858905,0.1633573037465063,0.4906677565709041
267.0,0.12555250833614323,-0.10725060881945225,-0.05437499531677345,4.61035899741486,0.8627805252706904,8.603481473155746,0.13164268854670114,0.3895463358435428,0.4579272975909482,298.78201968828444,28.051813111161064,-5.728618026675658,0.8340851713539019,-0.18585267705218989,0.16291897122022397,0.49313344851440555
268.0,0.13564988198269082,-0.1030279120302724,-0.056555543066951416,4.618100333445731,0.8665169907459442,8.598542467498408,0.3679269229328238,0.22677892360720842,0.14639602300400884,298.41892187441454,28.101207569967404,-5.7512600221048285,0.8324269203331084,-0.18559816005039154,0.16390140517297963,0.4957017230247649
269.0,0.13722816679779704,-0.11277970102281668,-0.06518253343823763,4.646219905586152,0.8721632572777338,8.583069236821398,0.38069925255704173,0.42878884736428,0.12240116050354051,298.1281053304485,28.284633162863884,-5.795412077104642,0.8308175604146342,-0.18635491600983475,0.16542971369708886,0.49761596987490164
270.0,0.1449311565696302,-0.11240479937057435,-0.059630605822187266,4.63627360346184,0.8807983870967742,8.588418174665616,0.19176583398898506,0.48807656372934694,-0.21076047403619197,297.9726630114084,28.215207022029894,-5.846604543666404,0.830241014236428,-0.18541231693253343,0.1657743832891424,0.4988210948658537
271.0,0.1472397718332022,-0.10831530291109362,-0.06272659323367427,4.71651180173092,0.8731854838709676,8.545144571203775,0.11307041699449252,-0.23345667781274587,-0.11271390637293469,298.1009736428009,28.75286560778914,-5.829602675059008,0.8298067227956332,-0.18966596775255706,0.16760706461231312,0.4973127594006687
272.0,0.13019590873328088,-0.09893587726199843,-0.06334028324154209,4.732116443745083,0.8659221085759246,8.536928402832416,0.21552665224232886,0.13877606215578278,-0.15234313532651456,298.08363739181743,28.854860837922892,-5.789538257277734,0.8295656122183319,-0.19054694353107787,0.16777259247482296,0.4973352347663257
273.0,0.11619382938069012,-0.09185675883256528,-0.05393607395751378,4.7593329212093956,0.8659948484507891,8.521841557079167,0.13214069115057508,0.1419593097860702,-0.0947756851560451,297.9329395325203,29.03824375491739,-5.796306631917125,0.8285893299909989,-0.1916626347903413,0.16882363018312352,0.4981846404720317
274.0,0.12282586827020345,-0.08460943763815518,-0.05523564122738002,4.813738057772282,0.8483723258776368,8.492797253755949,0.30989103302611365,0.19983181362631597,0.173633375950695,297.84419953120903,29.4050378638867,-5.697860116706005,0.8275433657526787,-0.19464391158734215,0.16978910221616839,0.4984313178121369
275.0,0.10804442508710801,-0.09298430182458506,-0.05821007081038552,4.787519697650893,0.8576248922857892,8.50747101082762,0.22085879837773031,0.37880002856768197,-0.13831423747705218,297.6239431713874,29.226557582612116,-5.752296010359297,0.8268963798886326,-0.19278420023082682,0.1697977153686074,0.5002165354372445
276.0,0.11003371923120153,-0.09655351991307931,-0.04807238394964594,4.79903001011577,0.8789831778502115,8.498010190700985,0.32464126484582817,0.20812727136487955,-0.13324482035142932,297.3018620508785,29.306451612903224,-5.898816548649357,0.8252763908264957,-0.19229962844704207,0.17165999904012588,0.5024297189595743
277.0,0.11109868494998315,-0.09730508411074894,-0.05057828481510622,4.8066078453411265,0.885250833614327,8.492706904949234,0.24149057734816975,0.45450128320407623,0.2576055599265671,297.18623787044316,29.355871361132962,-5.94562188565434,0.824657938611517,-0.19231171125341875,0.17237626623524782,0.5031892573358061
278.0,0.09762077104642014,-0.101213217938631,-0.04856333595594021,4.814055074744296,0.8847836349331235,8.488974036191973,0.20759244689221085,-0.11212627852084969,-0.050363886703383126,297.1053501180173,29.404750196695517,-5.9405192761605035,0.8242118158095987,-0.19256834783792287,0.17270310935955938,0.5037205318583793
279.0,0.1161369000786782,-0.10223918174665617,-0.045812745869394184,4.7585444531864685,0.8654854445318647,8.52211487018096,0.3129130605822187,1.0613591660110149,0.3614083398898505,296.5694630212431,29.0301140833989,-5.793538552321007,0.8225688799732493,-0.18958720055232103,0.17102544389299762,0.5080556699779701
280.0,0.11688161956061247,-0.11207633803385181,-0.04150933042829188,4.620493957917246,0.8799574128991909,8.594700437773609,0.3744077699772035,1.469596168976578,-0.28097613932094656,296.453759784341,28.111511605035403,-5.848560592305674,0.8237090169887833,-0.1824286666845004,0.16773109946107445,0.5098794686524643
281.0,0.12242192701083338,-0.11971165446145775,-0.04116143153987373,4.562085688636042,0.9084421210837419,8.623011115818352,0.23371745697916035,-0.07097001149912252,0.03168934969436543,296.4063989716355,27.731842545239967,-6.014794654925458,0.8241274920144548,-0.17890284605114082,0.16734822634265367,0.5106082871657286
282.0,0.12327233250620345,-0.10705252274607112,-0.04991273779983456,4.553495244003308,0.888890612076096,8.63046071133168,0.12551824855252275,0.7774968982630273,0.08401442307692307,296.0902618382961,27.670110887096772,-5.881836745244003,0.822870680950579,-0.17854142427419356,0.16670198911703887,0.5129877874648469
283.0,0.14323697270471464,-0.11480851943755166,-0.046916046319272126,4.512937138130686,0.9047719189412741,8.650359387923904,0.9245282775020678,0.7460569168734491,0.1105303970223325,295.83386579818034,27.400453629032256,-5.971865953267162,0.8221702435680316,-0.1757981857822581,0.16658599102626134,0.5150949531275848
284.0,0.12683776438615146,-0.11817806924258537,-0.05286393713813069,4.468828016069951,0.9553654141557367,8.667973472763796,0.23428674819803852,0.5146243205719012,0.04450290972468392,295.696627599551,27.108467741935485,-6.29042486411438,0.8219494198713815,-0.1721520164800307,0.16771276154903694,0.5163236007690536
285.0,0.14184773893821884,-0.12334845078865533,-0.0459615132441647,4.436848291558952,0.9642927859578134,8.68370520962122,-0.04079429863999101,0.8657708239668802,0.07309913688134577,295.5559284379566,26.89677911093627,-6.333282344704207,0.821657100760097,-0.17019990723293432,0.16736261519129106,0.5175661007432186
286.0,0.12249448315911729,-0.12182115694428833,-0.056060713349068966,4.304307997077666,0.9378640365666329,8.751885551309432,-0.024420801955715412,0.3919721301187666,0.5213972523509798,295.2037835787344,26.033739427616048,-6.1213071587801124,0.8215761115542224,-0.16426426034768277,0.16269439468937097,0.5210293349151773
287.0,0.11224891349143903,-0.1395752126184856,-0.039045895620246525,4.331932421040801,0.9019178562062118,8.74313268517478,0.19672080476565135,-0.024891934547225686,0.12686146547525387,294.7630087740249,26.217410011801732,-5.89070619544041,0.8193684210891685,-0.1659185724675078,0.16257065225931963,0.5240390489892567
288.0,0.12026839898127842,-0.1080299168868872,-0.050261132356259806,4.4434831835136475,0.8870810211263617,8.686129920981989,0.25213947215026755,-1.1343104177612349,-0.12083056696229806,294.84144144158864,26.955766380619544,-5.830392130916004,0.818457197358913,-0.17171030208305993,0.16521589478663656,0.5226864744789681
289.0,0.12417872760873146,-0.10569117889228402,-0.05188443452326496,4.575912941650046,0.8361451338444368,8.622742941833017,-0.18251742813752217,-0.1777109673759904,0.11734945931604851,294.7784659579529,27.82254290706823,-5.530564424642746,0.8167783901284468,-0.17917767084661407,0.1670136509558487,0.5222430960518178
290.0,0.11192975944334516,-0.0994399470947876,-0.05308544906261408,4.776989665534849,0.8203572321651841,8.511475813204171,-0.061960448735877346,-0.54197521505812,-0.22970665357977127,294.8275221026511,29.173362373694466,-5.502158640705472,0.8145236862798018,-0.18924918013987815,0.17247765789877784,0.5203055255999975
291.0,0.09960768066581105,-0.09007402547500987,-0.042860584484100114,4.818219459045945,0.7960322746191775,8.49336182477675,0.17995112889720688,0.039496263438681956,0.18060792419359195,294.66990778618,29.439995506280752,-5.3511481637831055,0.8134313108857701,-0.19157000409826322,0.1728952807353842,0.5211628138188815
292.0,0.11511855315745315,-0.09741702847314618,-0.05315727886675502,4.801009808201179,0.804377270275757,8.503777686581925,0.18414354241870573,-0.06463424436248434,-0.06451999541697272,294.4344326499743,29.321074661086875,-5.3993398175327805,0.8125823975750643,-0.19012667316242823,0.17311921885313664,0.5229940419330441
293.0,0.11501742160278747,-0.0941553332584017,-0.055430669514068415,4.815821812596005,0.7911805477501779,8.497396500693117,0.10923860102656326,0.2895779476227942,0.09538795848787979,294.2932917462815,29.413161271589672,-5.316923307481922,0.8117931806923682,-0.19095577281518114,0.17321016098759884,0.5239204463283503
294.0,0.12279382563410889,-0.09640028474017458,-0.05622007418230865,4.797361844816605,0.7685618747892546,8.510091041924245,0.20272751114607918,1.0157028586414896,-0.010858060769547796,294.2314462271927,29.289311003709116,-5.158668886516054,0.8117953101777752,-0.19061111538533584,0.17172791517065678,0.5245386713032483
295.0,0.1259765464014087,-0.09224982203739088,-0.054559214716571144,4.731769135663707,0.7631006706380428,8.546788055898993,0.2563785545689558,0.13271795736390535,0.10818955827807125,294.0249803304485,28.85134502266682,-5.102717208047656,0.8116719060428608,-0.18735759099359334,0.1697967515949196,0.52652613611517
296.0,0.0959387059308381,-0.13468509984639015,-0.04259825409314001,4.670223670900303,0.7673331834700834,8.58027050316586,-0.04519781948971566,0.7813471769510322,-0.6456249297516016,293.6790912667191,28.43737589449627,-5.11149825783972,0.8107992205470007,-0.18383127496571877,0.16862278684387996,0.5294654051425575
297.0,0.14457045446030495,-0.09382563410887566,-0.07102768723539771,4.650233786669665,0.7464242628601399,8.593172230339814,0.12531611779251434,0.6200943201828332,0.3658677082162527,293.79691188040914,28.306119103817764,-4.965023322468248,0.811626895851785,-0.18364857201865797,0.16686838126222325,0.528812303224308
298.0,0.1364409917810463,-0.08698371892624723,-0.06074804851038545,4.629939135480734,0.7329488338983698,8.604515323081642,-0.4309281806514346,-0.8002023916257809,-0.6085740457326875,293.9338634201233,28.182215087744062,-4.8659266841971816,0.8124974066600883,-0.18341718420220038,0.16546790993517546,0.5279868073429465
299.0,0.1630745665510454,-0.06721305761980564,-0.057105975100046794,4.669266802763408,0.6981372433700759,8.585909735273539,-0.08998405960375114,0.9386564846786608,0.016877531665146273,294.72120398348716,28.43586560838816,-4.643264801391986,0.8156832195742838,-0.18732719621784372,0.16380139310122827,0.5221362059871414
300.0,0.15890156336993655,-0.09399205201997364,-0.0681084556853499,4.735258893120492,0.6725580001272096,8.551640941594282,-0.3338885679608055,0.007044607406206882,-0.6494339721690003,295.2087776408388,28.87273217476843,-4.494921149712515,0.8171306418642463,-0.19184380923008626,0.16386339612968576,0.5181668855506125
301.0,0.1399252112679738,-0.10392914953477046,-0.06220371643433506,4.656276968196753,0.6649933981753275,8.594888920836478,0.3769778245955217,0.8373293454025527,-0.08138004666671891,295.3653496780118,28.344081468973513,-4.422888387602127,0.8188207834388108,-0.18849480015320202,0.16084518965965008,0.5176732215707429
302.0,0.13766183009166927,-0.10945511464974259,-0.0666286275401603,4.638148225209613,0.7109190137255568,8.601444685213114,0.25826898797870196,0.3747172747019507,-0.25637250993933147,295.45348943943304,28.23403026279218,-4.723266999241099,0.8193628869975891,-0.18652556566162967,0.16226414684080254,0.5171461422639598
303.0,0.14713656288636623,-0.11905185268442547,-0.06518478138698439,4.589318459405792,0.7094154958600277,8.628054175564797,0.050066735978419694,0.7716966861488891,0.4133263553257652,295.3384523341201,27.90723277509273,-4.69925138623506,0.8194257560274625,-0.18409081866513055,0.16084927836735227,0.5183548637261999
304.0,0.1815690120265258,-0.12495041399722753,-0.07264100258514106,4.619561162938819,0.7201113483945899,8.611177344423215,0.19957663631935857,0.06856267093776935,-0.010245143494061665,295.45751973979986,28.104340765613877,-4.781569630212431,0.8195870454022705,-0.18537994456850626,0.16206032590644784,0.5172576097934884
305.0,0.18833293057584954,-0.14214119928065638,-0.07487338428683828,4.598856112547301,0.7224057172829792,8.622128891761268,0.09099907272114195,-0.3817683160990596,-0.06838359606234312,295.29756700526394,27.971560345715783,-4.78729253306358,0.8191239696501069,-0.18413612662373086,0.16182390513673145,0.5185371550082051
306.0,0.18811404593308606,-0.16249398673710239,-0.08763830504664494,4.6206780562736505,0.723057697351167,8.61072170394515,-0.06004481847813871,0.22025495485369595,-0.24676740286988122,295.4406433816642,28.110402148664342,-4.794855943951145,0.8195179257121501,-0.1853156551505751,0.1622552275603012,0.517368238278296
307.0,0.16606931175302536,-0.13201888276947285,-0.07510179461241617,4.719747630287362,0.6977231651118353,8.557430744445693,0.4046694110374283,-1.2758172230339815,-0.32545263384661494,295.4950432730134,28.782039591997304,-4.6598127646023,0.8185522115772732,-0.19087131618511854,0.16415195076171746,0.5162393056598853
308.0,0.13100307219662058,-0.10663380914915138,-0.06422412049005283,5.002195946199093,0.7266736727735941,8.387516840882697,0.3783789479599865,-0.06343360121389241,-0.052207438837061165,295.70791207710465,30.693354267356035,-4.957828715671949,0.8157184641670226,-0.20391439172889736,0.17379442411104867,0.5123304640897306
309.0,0.10797989959162262,-0.12287630662020908,-0.041030234910644045,4.978139672548798,0.7250834925630361,8.404863849237572,0.20799848263459592,1.4347712009666178,0.0016057613053089177,295.35100560582214,30.523358880334193,-4.933330172155408,0.8145230324729685,-0.20219082415319772,0.17355632903034732,0.5151006637482484
310.0,0.1168277977595444,-0.08733826945412312,-0.05854703832752614,4.90990972612491,0.7237621951219512,8.446440391892398,0.3036071381739163,0.3673571498819826,0.28351346193473453,294.96217305224604,30.055054313719978,-4.896259799651568,0.8136865967366528,-0.1983614457127496,0.17203593945972429,0.518481844090227
311.0,0.12883728597654637,-0.09094736053351318,-0.06174126109924694,4.964237121126971,0.7086915814319434,8.417147615301037,0.23441445618373236,-0.47274783634933126,0.007860561612528572,295.11528511483266,30.42049590685999,-4.810403085309654,0.8137217883683264,-0.20162018496927803,0.17277065809276532,0.5169615247023716
312.0,0.14025581656738223,-0.07848443295492863,-0.07249889475853283,4.981945749503578,0.6871760518526846,8.409545389831777,0.19110795773856354,0.043531995803828966,-0.0026221385485744233,294.7915135251583,30.535396762953802,-4.670682533438238,0.8121014943569744,-0.2025383767127496,0.17292800039046866,0.5191350534149339
313.0,0.12507882806938667,-0.08055070997714586,-0.06266509310254394,5.021164325053389,0.6506870480686375,8.389430444719194,-0.10647573151998799,-0.29703060020231536,0.12913903562998766,294.59172052377204,30.799640328200514,-4.432888192649207,0.8107499626293881,-0.2051285088589787,0.17287883027559853,0.5202641532495598
314.0,0.12215782473492937,-0.08398503240792778,-0.06538054025701548,5.081970832865009,0.5906188977557979,8.357260462328126,-0.3813013984114495,-0.2255461812970664,-0.4199652972912218,294.8090388614139,31.217335899741485,-4.039737762729009,0.8110068024791317,-0.21009043175443032,0.17168564766336963,0.5182572675492488
315.0,0.12224334981829081,-0.09490990408752013,-0.05907579333857854,5.100055440035967,0.566883013000637,8.348107021093252,-0.1371937755235847,0.3147151076205463,-0.28325172811059907,295.23691518208386,31.341998004945488,-3.881857473024615,0.8127261171758364,-0.21226482483158182,0.1704056591786557,0.5151050844748604
316.0,0.11960151361882282,-0.1027896294631149,-0.05234434828219249,4.979467236147016,0.5873366677906411,8.41801318796598,0.7022952493349819,1.4548625941328537,0.45146889400921664,294.71316525233226,30.52815626053726,-3.986468051028437,0.811914747600015,-0.20512897430691995,0.1684576375651343,0.519803085906785
317.0,0.11967149975647222,-0.12307347045820688,-0.06323457345172531,4.927646210333071,0.6218099359334608,8.44618410700236,0.6646978382226219,0.35339838335019286,0.005056713873590385,294.28083085122324,30.174748510733956,-4.207324800494549,0.8105828493456971,-0.20106199047068302,0.16916690281791613,0.5232543389842643
318.0,0.11445633359559401,-0.10652675059008654,-0.060571203776553895,5.0433929976396525,0.6362828481510622,8.375656569630213,-0.019571203776553858,-0.8840774980330448,-0.30005900865460267,294.5228511014949,30.967097757671123,-4.3419256490952005,0.8101113599370575,-0.20659175835208493,0.17305775866011014,0.5205303804598742
319.0,0.10319118804091268,-0.08731136900078679,-0.060566483084185684,5.148654799370574,0.6090997246262786,8.313371951219512,-0.21971872541306056,-0.31847462627852086,-0.13168273013375292,294.8400398308418,31.68043617230527,-4.183285798583792,0.8101793821329663,-0.21288535720987412,0.17452401810503537,0.5174013331386703
320.0,0.10871656176239183,-0.0863613296616837,-0.05638808025177026,5.155791109362706,0.5671829268292685,8.312431943351694,-0.03107912077104641,0.9688876868607396,0.013594118804091268,295.13967717348544,31.72479469905586,-3.897136850904799,0.811507488534225,-0.2148326499557435,0.1722746051009048,0.5152608874040125
321.0,0.10316876475216366,-0.07727340676632573,-0.06189968528717545,5.12525845790716,0.5712930763178599,8.331748229740363,0.13609854445318648,0.3759761014948859,-0.11885818253343824,295.0251057238395,31.509247147915026,-3.9209726593233674,0.8114121219122739,-0.2130394840302911,0.17175869969158142,0.516384066306845
322.0,0.10744354838709677,-0.0766209677419355,-0.053879032258064515,5.111282258064515,0.5807338709677419,8.339806451612903,0.2057459677419355,-0.08765120967741938,-0.10252016129032258,294.7807963709677,31.418397177419354,-3.9817540322580642,0.8105019355564518,-0.21172037416935485,0.1722161573225806,0.5182188463870967
323.0,0.1037016129032258,-0.07608870967741937,-0.05413709677419355,5.146540322580645,0.5653064516129032,8.31940322580645,0.01003024193548388,0.5234879032258065,-0.008870967741935493,294.9137096774193,31.657762096774192,-3.88976814516129,0.8106509305241936,-0.21403055504032262,0.1723767682096774,0.5169945992258065
324.0,0.11435483870967741,-0.0805483870967742,-0.05395967741935484,5.1231693548387085,0.568258064516129,8.333935483870967,0.011088709677419347,0.013558467741935504,-0.18921370967741935,294.9543850806451,31.50196572580645,-3.905141129032258,0.8111442319032257,-0.21293384197580645,0.17173540676612903,0.5169023572903226
325.0,0.10178225806451613,-0.07665263571990559,-0.0498035011801731,5.164097954366639,0.5452911093627065,8.310597757671122,0.18005015735641228,-0.08788970298977182,0.1413687549173879,294.8433381687647,31.78242648505114,-3.7589275177025963,0.8101140370446499,-0.21538960317446895,0.17221196214811174,0.5173494534891816
326.0,0.11524193548387099,-0.06817309205350117,-0.046018686073957524,5.231992525570416,0.5081213611329662,8.269827104642012,-0.2751462922895358,0.20416502753737215,-0.04451219512195122,294.9291035601888,32.253385621557825,-3.51736698465775,0.8095612657037767,-0.21989555723642804,0.17248911146518492,0.5161613041034618
327.0,0.13927635719905584,-0.06568450039339102,-0.040130999213217944,5.226826121164436,0.49552321007081035,8.274008064516128,0.2991996951219512,0.16612903225806452,-0.30472192171518486,294.87716365066876,32.21617697678993,-3.430500098347758,0.8094211440322581,-0.219925100143391,0.17187395759657748,0.5165929460633358
328.0,0.12147746431381365,-0.0778222809186617,-0.05101442433779176,5.245793244914015,0.5347562286913191,8.259489247311828,0.324125817223034,-0.01887240783410138,-0.21560620855344498,295.03628727848337,32.34485044115994,-3.7097248955640474,0.8098522568083717,-0.21995763818287062,0.17391751366484018,0.5152377466438032
329.0,0.12042844029822787,-0.08903825259450751,-0.054252219849387426,5.253438481135962,0.5432602188003448,8.253941628264208,0.08221099808924356,0.07961309523809523,-0.21723930819377318,295.04963365460264,32.395205078490875,-3.7723799689033752,0.8097971332749615,-0.22008272863598216,0.17452207344897155,0.515088734656195
330.0,0.10754908958075754,-0.07873065827432468,-0.047523247536622834,5.26450969427897,0.5474433048593159,8.246195833801655,0.49025853752201115,1.553939354557716,0.5744066937357162,294.82908254420965,32.470167495597764,-3.805645512532314,0.8086170848542956,-0.22015683540637287,0.1754564167190532,0.5165362903306077
331.0,0.09263571990558615,-0.07133153497433592,-0.03511108613390282,5.1811041174927865,0.5300355925218239,8.299616350080552,0.14269791315424676,-0.0279518376981005,0.020554681353265103,294.28149235697424,31.9000295043273,-3.660707260874452,0.8073052342351357,-0.2158153731475029,0.1730881364561088,0.5211811015368476
332.0,0.09041306058221872,-0.07378929227080289,-0.041544528118092255,5.227908471020194,0.5110838859540667,8.271546963395902,0.23143451912629726,-0.09516199280656401,0.1411044453186467,293.9757432280544,32.22216758457907,-3.532950011239744,0.8053028424952232,-0.21815033648720544,0.1743110386568506,0.5229212859021769
333.0,0.08843924918511858,-0.07132168146566259,-0.041455059757970855,5.257984189427146,0.49945592147165696,8.253730470945262,0.15471975572290286,-0.1594329549286276,-0.01460042711026191,293.7347994174066,32.426319967404744,-3.4610938612266304,0.8038265168728036,-0.21954881952931699,0.17519847405499978,0.5243382220010117
334.0,0.08156798171668353,-0.06829253306357949,-0.03818125960061444,5.322247873815144,0.49158176913566365,8.212943688883891,0.10424628151811471,-0.2073589880484058,-0.05798794537484545,293.5985163538271,32.87212918212131,-3.4263180941141207,0.8023074793256526,-0.2226812778034169,0.17718351029695406,0.524680181813233
335.0,0.10003360683376418,-0.1073628563935409,-0.04436559139784947,5.3683282379828405,0.47987613802405304,8.183504102506461,0.3298497152598254,1.0184163201079017,0.21313832377955116,293.50065986662173,33.18881036679031,-3.3610325109587498,0.8012455349738862,-0.22503631364902027,0.17837166783204078,0.5249006576124537
336.0,0.08318961447678991,-0.06620062942564911,-0.06012903225806453,5.161973642800945,0.4661408339889851,8.311795830055075,0.37170289142407553,1.8623475609756097,0.530340283241542,292.80317171518493,31.769856412273796,-3.2142432140047204,0.8008214505806452,-0.2145114563552321,0.17236326984382372,0.5317137924905586
337.0,0.10568371361132962,-0.0745865460267506,-0.04865224232887491,4.942649291896145,0.4426841070023604,8.444081235247836,0.3731596675845791,1.441721577498033,0.5073269079464988,292.07004081431944,30.281186073957514,-3.003025422895358,0.8002686298379231,-0.20377475514299762,0.16556732508398897,0.5388130111256885
338.0,0.0994386309992132,-0.08391424075531079,-0.05151966955153423,4.884239968528717,0.4469791502753739,8.48016561762392,0.3626130999213218,0.2204071597167584,0.18944974429583,291.5028127458694,29.887770456333598,-3.0199350904799367,0.7983842058221873,-0.2000812779626278,0.16494872209441383,0.5432890454378443
339.0,0.10564378442171518,-0.07626081825334383,-0.045201219512195134,4.954330841856805,0.45256904012588517,8.440444728560191,0.37409274193548386,0.13692958300550745,-0.20098224822974034,291.5130114083398,30.356601593233673,-3.0687303304484654,0.7975826855428796,-0.2031556215580252,0.1674473039897718,0.5426266420973642
340.0,0.10757100708103855,-0.09648446105428798,-0.04721892210857593,5.000513178599529,0.4665595987411487,8.412690204563336,-0.08250147521636503,-1.3237030389457118,0.5191200334382376,291.2792965676632,30.66906594217152,-3.16937204956727,0.795845636577498,-0.20461425804425648,0.1699898763558222,0.5438490537486231
341.0,0.11753973249409913,-0.08999036191974823,-0.052750196695515346,5.101983477576713,0.43592958300550755,8.352998426435878,-0.12864009638080248,0.148726396538159,-0.284496705350118,291.27124926239185,31.353535601888275,-2.984241001180173,0.7945303773459873,-0.21023053585208495,0.17196353330173092,0.5430038286264752
342.0,0.15176475216365068,-0.10257474429583004,-0.0588780487804878,5.069402242328875,0.4590342250196695,8.372437057435091,0.7636457513768686,0.6706026258851299,-0.050013522816679784,291.21396906963025,31.12630187844217,-3.136790666797797,0.7946883942006293,-0.20787849920928403,0.17201927474055861,0.5436864832533439
343.0,0.1452210857592447,-0.11289221085759243,-0.05785837922895358,5.029535798583792,0.5192509834775766,8.393258851298192,-0.022915027537372124,0.5720200629425649,-0.8019472856018882,291.49783634933124,30.856825334382375,-3.5401947285601887,0.7965044956648307,-0.20464984142722265,0.1728638457372148,0.5419951548040913
344.0,0.1401333033606834,-0.13472623730845604,-0.062466524296579375,4.989493087557603,0.5384277097148851,8.416639541418457,0.10538196395788843,0.6839145217489041,-0.49920666142145287,291.49446910943766,30.58205996403282,-3.658993668277697,0.796986118668465,-0.20216470604967968,0.17235920198216628,0.5423808432519575
345.0,0.16451759019894346,-0.11130414746543778,-0.07492401933235923,4.887758045783222,0.62312697163838,8.469261473905064,0.3895542973286875,0.7391592671687086,-0.7415739387808624,292.18308020493794,29.90220626803042,-4.203768592409427,0.8013852841081264,-0.19597275131602415,0.1716799800064816,0.5383247730671012
346.0,0.16600856093814398,-0.09771363006256789,-0.06612991270465701,4.851134839458993,0.6440493424749915,8.489735266569255,0.5068334129481847,0.1363467554606422,0.3769920104154959,292.2826965316024,29.64948109849762,-4.333860898804841,0.8022981618918363,-0.19379243333644303,0.17119894590710352,0.5379421900236783
347.0,0.12624001536098312,-0.09531067588325652,-0.06680760368663595,4.913571428571428,0.6298548387096773,8.454496159754225,-0.06527217741935487,-0.26969566052227345,-0.08344374039938557,291.94130424347156,30.072379032258063,-4.260815092165899,0.7999175555337943,-0.19662573103149006,0.17319554634907836,0.5398226547711212
348.0,0.11100857967105018,-0.08181259600614439,-0.05615488366865236,5.006122850399011,0.5647167584579074,8.40418867783148,-0.029602675059008692,0.21465920160353674,-0.01816389419654566,291.75032548424565,30.703063532651456,-3.842232634595931,0.7979004846148516,-0.20261032871735793,0.173657377632348,0.5404333590708479
349.0,0.1104902401558578,-0.06750496422014911,-0.0638941965456521,5.056075643475328,0.5365143681390732,8.376043422876624,-0.17442443145629613,-0.025504851822711797,-0.1205919130043835,291.9077135082987,31.0441511183545,-3.6614565771233747,0.7980369296970891,-0.20604754791746283,0.17372776496946538,0.5389151424107377
350.0,0.1199494211531977,-0.06549979393803154,-0.05968135326514555,5.021398036791426,0.49511202277921396,8.399523247536623,0.4516702727511147,0.9216273743958638,0.2117614551721554,291.63269219961785,30.80327755610505,-3.3731630043834997,0.7972580458431681,-0.20518148368607397,0.17125975266906446,0.5411911498574425
351.0,0.13639099321868792,-0.0872652579521187,-0.06259259675546064,4.932466299501704,0.505476902326627,8.450994342662321,0.6024528399085834,0.9237217133116031,-0.09680744445693307,291.1357297403619,30.200385897868195,-3.4226750121763887,0.7960163149415532,-0.19997253507114757,0.16967708670934023,0.5454151600062942
352.0,0.14533220935895996,-0.08870405754748789,-0.06569337979094077,4.8867231651118335,0.5519089580757557,8.475133116031621,0.192629069723877,-0.5386623768311416,0.04064197669626465,290.960021168184,29.898484039563897,-3.725704825596643,0.7956998989508073,-0.19624180293649543,0.1705597152878498,0.5469674376191227
353.0,0.1268158757057262,-0.10065889395157687,-0.058839951813201216,4.948973759521359,0.5539792525858614,8.438013914226346,-0.00016461541343520958,-0.4194268883489969,-0.478413729923368,290.8360666624878,30.320181392171946,-3.755275096330368,0.7943176131632932,-0.19892681671225104,0.1729116974385546,0.5472812807279983
354.0,0.14471871676710385,-0.08709813304974595,-0.06955766276734018,4.9374994682736615,0.5387032376225924,8.446640316672575,0.5217213901689708,0.6892096478790027,0.3216408927094411,290.76001307160584,30.236669177596596,-3.650390301902399,0.79413372451477,-0.19866710345840716,0.17198609832352593,0.5479497234631336
355.0,0.18740467328370555,-0.10857671629445824,-0.08393320926385442,4.919254342431762,0.5957156741108354,8.45335318444996,0.7445060483870968,0.8626395781637717,0.0011670285359801635,290.37108276468155,30.105877791563273,-4.030269075682382,0.7924300653802729,-0.19547895227067824,0.17451347549586432,0.5507330492231183
356.0,0.15987572373862696,-0.20983271298593875,-0.07330128205128204,4.837772332506201,0.716821546732837,8.48966852770885,-0.1511088709677419,0.2993137406947891,-0.6083126550868486,290.3227641645989,29.56755583126551,-4.823980303970223,0.7929875035570718,-0.18806739769582298,0.1772640520463193,0.5515959153897849
357.0,0.19012737799834578,-0.1566220016542597,-0.10096112489660876,4.854414392059553,0.7216567411083541,8.480177005789908,-0.07429435483870965,0.3118796526054591,-0.4042571339950372,290.4418760339123,29.677729528535977,-4.85823511166253,0.7933334840446651,-0.18893179954549216,0.17779575087799837,0.5506228262311827
358.0,0.17590322580645162,-0.13574193548387095,-0.08229032258064514,4.919241935483871,0.7253064516129032,8.442677419354837,-0.3155745967741935,-0.5864919354838709,-0.2913810483870968,291.05660282258066,30.112096774193546,-4.907762096774193,0.7954442674193547,-0.19279209247580648,0.17906794358870967,0.5458148584274194
359.0,0.17103225806451616,-0.1643709677419355,-0.10579032258064514,5.053758064516129,0.676024193548387,8.365790322580647,-0.36748991935483866,-0.6913810483870967,-0.5856854838709677,291.39722782258065,31.031199596774194,-4.618497983870967,0.7953927318467742,-0.20112112699193546,0.1807314964516129,0.5422948529354839
360.0,0.18353225806451612,-0.13844354838709677,-0.09984677419354838,5.175274193548387,0.6328709677419354,8.294201612903226,-0.35181451612903225,-0.5111895161290323,-0.31875,292.3522177419355,31.86814516129032,-4.359727822580645,0.79829967875,-0.20968549153225804,0.18103913354032256,0.5345653899435484
361.0,0.16836373035566587,-0.14873986765922248,-0.0947011993382961,5.2855357733664174,0.5892014061207609,8.228223738626966,-0.15413952646815549,0.17901933416046323,-0.3163500310173697,292.6536884822167,32.62438352977667,-4.092803970223326,0.798263072558933,-0.21667563651923077,0.18214750496918936,0.5315228140531431
362.0,0.1442336944461256,-0.15239393068248297,-0.08684833767072164,5.3180785672496915,0.5552370130525126,8.211117573483428,0.4525101689059694,0.8116268484334968,0.20994125612782183,292.57180145983375,32.845985898444596,-3.8687896227985235,0.7975044343869606,-0.21904425564346666,0.18186716710507067,0.531838677624821
363.0,0.12545018055639617,-0.1367731942198897,-0.06685869264488463,5.224903338924385,0.5782072162036755,8.268734669998242,0.37253124612733185,1.2248490424963183,0.05064315110538556,292.48445223721336,32.198249765658545,-3.994819878603563,0.7983923568238567,-0.2137455824649745,0.17998558391870276,0.5332873740011586
364.0,0.11462831608464968,-0.1378503067873642,-0.08607853987082942,5.05135086301058,0.6602084468115152,8.366528625321703,1.1624753004830206,1.728830771248159,0.3949788336172089,291.78002853796147,31.012910165087337,-4.501366592527588,0.797221962109509,-0.20204692864780988,0.17916613955209332,0.5396360730731599
365.0,0.11997466158284413,-0.13747236031736426,-0.060405910376012666,4.961039514904188,0.7101783776150417,8.417729300859119,0.15405740338863855,-0.15219063325868998,-0.6497039840568558,291.7029992463607,30.3996758486727,-4.812255139300773,0.7979703545402974,-0.19621893888291356,0.17860404888540934,0.5409400381037514
366.0,0.11455258326776818,-0.10915035030534634,-0.0676705256453486,4.932788917612678,0.7163760818253344,8.434546326477086,0.5796015042523698,1.647652766850249,0.4941862425536697,291.19149034318684,30.202570857217786,-4.848664109624967,0.7959049486291634,-0.19385541747873813,0.17881266845176275,0.5447807229545164
367.0,0.11869980517777529,-0.1107025214491776,-0.06854321681465661,4.887986006519051,0.6647634783260276,8.465555543066948,-0.2113852749990633,-0.038345088231988456,0.684993537147353,290.7454936823274,29.899854000412123,-4.483977628226743,0.7944449511537783,-0.19263002547422353,0.17587973589985387,0.5483516381143269
368.0,0.14595896556891835,-0.10636508560938142,-0.06926776816155258,4.882464585440784,0.6368479450001874,8.471529691656364,0.5866316712562287,0.21940272470121008,0.10236139991008203,290.4250941913941,29.861673351972573,-4.29570425190139,0.7930644579424804,-0.19269046188073694,0.17505393548832937,0.5506387782545521
369.0,0.15372859765464014,-0.12682514705331385,-0.06477314450563859,4.935749503577985,0.6388494248997789,8.439722752987901,0.7508031733543141,0.8249784571578433,0.6340620433854107,290.19330720092915,30.225258514105874,-4.331005769735117,0.7912584668124085,-0.19472748525045896,0.17728982775242585,0.5517558982746993
370.0,0.1840541755647971,-0.07792626728110598,-0.0824262860140122,4.793775804578322,0.6372031771008955,8.520129631711065,1.040205499981267,0.7278132141920497,0.7682669251807726,288.8591870855345,29.27977595444157,-4.2769308943089435,0.7864446679251432,-0.18625016852272303,0.1746471130470945,0.5621513095556556
371.0,0.19199617848713052,-0.10250252894234013,-0.09283934659623094,4.603873590348807,0.6674620658648982,8.620605260200069,0.5197526788055898,0.7059320089168633,0.4862067269866247,287.81229862125815,28.0137429283279,-4.424235931587427,0.7834081240556742,-0.17516415817597691,0.17120784265164285,0.5708855614885168
372.0,0.20277228279195236,-0.11553313851110864,-0.09653872091716309,4.597397624667491,0.7144222771720803,8.620721216889589,0.7581242272676183,0.6372641995429171,0.07852483046719863,287.55769500955375,27.967124920385146,-4.732687282229966,0.7822061945547187,-0.17298969381533102,0.17345720788112096,0.5726191913817392
373.0,0.18359746731107862,-0.11917987336555394,-0.0925963808025177,4.538464651005957,0.7570218425686561,8.649925068375106,0.22826046232812558,0.7124452062492975,0.11212581019819413,287.3598076130531,27.574854351654114,-4.996377524259113,0.7818556611981566,-0.16872026857105393,0.1736073366288262,0.574420718218126
374.0,0.17131111610655275,-0.11939904836836387,-0.07762241954216777,4.4234082649582245,0.7807828481510621,8.707789142407552,0.35848694316436247,0.3535285770484433,0.2049344816604848,287.009446067963,26.818987439586373,-5.121000524521374,0.7813182113152373,-0.16233039399029636,0.171307972002735,0.577710545653029
375.0,0.14069319246187853,-0.11388692817803753,-0.0758096736727736,4.545203364429957,0.7768545577160841,8.644665692555543,-0.10885176651305686,-0.5288664718444419,-0.3616120602450264,287.35222687422726,27.630744679854633,-5.130661552583268,0.7816567899686786,-0.1684585400896182,0.174704217868495,0.5744146919501705
376.0,0.16719759469484097,-0.14609861001835822,-0.06292019781948971,4.504932711400847,0.7589764340039715,8.667832078228617,-0.17395353302611372,0.08416507436963766,-0.43824650631298934,287.3268910868832,27.354614851448055,-4.99990258888764,0.7820569958675958,-0.16713252111239746,0.1725985567222659,0.5749333304067288
377.0,0.18010801393728226,-0.12566835262822673,-0.09388329399423026,4.561571578434679,0.767652579521187,8.63770252144918,0.37718894009216586,0.19070004870555615,0.09817705406316735,287.729209752351,27.727614645386083,-5.076564197669626,0.783432729170357,-0.1700193013434491,0.1742936212336368,0.5717053012939942
