time,linaccel_x,linaccel_y,linaccel_z,gravity_x,gravity_y,gravity_z,gyro_x,gyro_y,gyro_z,euler_x,euler_y,euler_z,quaternion_w,quaternion_y,quaternion_x,quaternion_z
0.0,0.028571428571428574,-0.09619047619047617,0.052380952380952396,-4.181428571428572,-2.1188095238095235,8.604523809523808,-0.28720238095238093,0.5997023809523809,1.1041666666666667,273.14136904761904,-25.25,13.828869047619047,-0.7038777671428572,-0.08329700333333337,0.23264131095238097,-0.6659153526190478
1.0,0.006190476190476196,-0.0922222222222222,0.031587301587301594,-4.002539682539681,-2.103571428571428,8.691666666666668,0.20287698412698413,-0.30208333333333337,-0.13095238095238093,273.2752976190476,-24.09027777777778,13.597718253968253,-0.7063724576190475,-0.07702200746031745,0.22487047,-0.666674901825397
2.0,-0.012120457939273268,-0.08691056910569105,0.029983407997345286,-3.894607599137215,-2.1101717272274763,8.73949477351916,-0.06897606603617057,-1.1573388501742161,-0.02476356396217024,273.238193753111,-23.39844657375145,13.565398415463747,-0.7070483444151321,-0.0724691919080803,0.2209392199651568,-0.667777477228306
3.0,0.010473867595818816,-0.09037940379403792,0.02400851722802943,-3.7757274487030585,-2.1156736353077816,8.790365853658532,0.16130710414247,0.00543699186991875,-0.04082462253193961,273.22823025551685,-22.647730352303522,13.519950154858691,-0.7079371891498258,-0.06766597762214478,0.21658073790243904,-0.6687695108366242
4.0,0.005697426098684948,-0.08049042748492,0.02256903075943202,-3.803739088082125,-2.1077099022142294,8.780483870967739,0.1457150818628002,0.2378786388670339,0.02351916376306621,273.3307329717883,-22.82482625229478,13.485263056835638,-0.7083585787310327,-0.06922093639466487,0.2173108080330448,-0.6679559090200816
5.0,0.011604473418006071,-0.05331741036304371,0.022359784196920307,-3.8723994979581127,-2.1412781461916,8.739201228878645,-1.7366422670563113,3.3888365928590165,0.6629212562286914,273.2652368775992,-23.277812511708067,13.767665130568357,-0.70714498817504,-0.07062985994080401,0.2215063374650631,-0.6676016734616536
6.0,-0.003910335664859659,-0.04703948032036151,0.02393984719712493,-4.127775135957669,-2.272763910623863,8.581530190239866,-0.22128587711789927,-0.11146835723940329,0.286461440474029,272.4720112368617,-24.91644709539084,14.846692957580053,-0.6995375281357299,-0.0741930015537649,0.2372736422596496,-0.6695866843814824
7.0,-0.014252571451627307,-0.036910770844681154,0.02422012029407781,-3.9207404397333585,-2.353061735012955,8.639675401964936,0.2525307435810975,-7.442142518509552,-1.7152468564742365,272.53749066957175,-23.606113988293373,15.236411978396635,-0.7010515877185337,-0.06336334753140645,0.23231448759717335,-0.6702757197989238
8.0,0.01114279373917454,-0.0372162036756844,0.029053411838620334,-3.366829700590519,-2.431267295515919,8.839369565655954,0.12041368020911683,-0.48265170772055077,-0.27530635506638657,273.2325533599628,-20.15174896896966,15.371672747656225,-0.7088909286901088,-0.040728731385687486,0.2140160238025206,-0.6695724590694068
9.0,0.02826140473740788,-0.04236262583469508,0.037152197658098525,-3.501382592230742,-2.529500681589588,8.772278016502252,-1.008036668943435,2.970677489963485,1.1537364762826998,272.64245685307344,-20.965538135153594,16.081759859272644,-0.7041018766117735,-0.0412647721727808,0.22322324711447822,-0.6719805684166862
10.0,0.02352010329036293,-0.046659807541003434,0.04633262724686801,-3.9282949827513156,-2.4482810627609997,8.608348685670482,1.1429958744376525,3.242529605196796,2.1583822550384313,271.04948783513885,-23.674248522261898,15.84986130444431,-0.6916110433757793,-0.05734439520159776,0.2376277091616938,-0.6786130046883737
11.0,0.02880881195908734,-0.05034225019669552,0.04831156569630214,-4.162138473642802,-2.3118119590873327,8.545426435877264,-0.24438434303697876,0.9975118017309207,0.8528078284815107,269.51885818253345,-25.153860149488594,15.11382769472856,-0.6813494086176239,-0.06794006174744296,0.24235338508811952,-0.6865849818103853
12.0,0.02525334382376082,-0.045226986624704965,0.050210070810385546,-4.258410700236036,-2.279141227380015,8.515999606608972,-0.08985542879622346,0.6764555468135326,0.5763891620771047,268.7171395554681,-25.752510326514553,14.970446498819825,-0.6760863270719906,-0.0710884913379229,0.2452023001129032,-0.690820490221479
13.0,0.017330841856805668,-0.04778658536585367,0.04908221872541308,-4.271918961447678,-2.255420338316286,8.521730723839498,0.4389432533438238,-1.793327104642014,-0.37110419944925255,268.34557803894575,-25.819597020062943,14.815165224232887,-0.6739621506610936,-0.07162381686172305,0.2448185713939811,-0.6932020070297007
14.0,0.027310582218725385,-0.038857002360346185,0.0337588512981904,-4.224314319433517,-2.223270653029111,8.537071007081039,-1.2181795830055075,1.9454735444531863,2.232920682533438,267.83657430173093,-25.564360001966953,14.609397128245476,-0.6710017025281274,-0.07003683102360345,0.24255881186231315,-0.6963979139382375
15.0,0.05864319433516914,-0.015392210857592448,0.05174232887490166,-4.372955546813532,-2.3283933910306853,8.439047600314712,-2.5991099527930763,-0.8708620180959875,2.775255704169945,262.5130704169945,-26.520864476789928,15.43988001573564,-0.6355280221309992,-0.05931272073760818,0.2553756866085759,-0.7240051867997637
16.0,0.056282258064516116,-0.01599193548387097,0.060685483870967755,-4.339975806451614,-2.4182903225806456,8.437959677419357,-1.319858870967742,-0.19642137096774195,1.5133064516129033,257.39193548387095,-26.289818548387096,15.992137096774194,-0.6023654078145162,-0.043277961637096775,0.2589604037983871,-0.7515441399435483
17.0,0.05104032258064516,-0.016129032258064516,0.06254838709677421,-4.354266129032258,-2.466629032258065,8.419927419354842,-0.6233870967741935,-0.04087701612903227,0.8876512096774194,254.46592741935484,-26.37515120967742,16.321875,-0.5830730808709678,-0.035284226677419345,0.2623866907419355,-0.7667410069677418
18.0,0.05490322580645163,-0.020677419354838713,0.06444354838709679,-4.373645161290321,-2.4858306451612906,8.405717741935483,-0.4098790322580645,0.07444556451612902,0.5396673387096775,252.94571572580645,-26.49233870967742,16.477318548387096,-0.572865443935484,-0.03164702437096773,0.2645459571532258,-0.7745913106532258
19.0,0.06375000000000001,-0.02868548387096775,0.06881451612903228,-4.385145161290319,-2.497685483870968,8.399032258064514,-0.1315524193548387,-0.07489919354838709,0.24380040322580646,252.16920362903224,-26.559879032258063,16.555997983870967,-0.5677270714112903,-0.02982271308870967,0.26571236905645157,-0.7785046982096775
20.0,0.0683951612903226,-0.03095967741935485,0.07225806451612904,-4.37715322580645,-2.503177419354839,8.401314516129032,0.08276209677419355,-0.5082661290322581,0.028981854838709672,251.93175403225806,-26.508316532258064,16.579637096774192,-0.5662103962499999,-0.02882503416129032,0.26555156130645163,-0.7797677328225805
21.0,0.10520967741935487,-0.0044838709677419465,0.10585483870967743,-4.188999999999999,-2.5742661290322584,8.469201612903227,1.6782762096774193,1.1624495967741935,-6.146471774193548,258.31078629032254,-25.293245967741935,16.89662298387097,-0.608847932,-0.03406603439516129,0.2575906074516129,-0.74691506675
22.0,0.1076209677419355,-0.030096774193548396,0.09383064516129033,-3.77683064516129,-2.5125080645161293,8.665879032258065,1.4153729838709679,-0.3172883064516129,-2.092741935483871,263.5786794354839,-22.686895161290323,16.16935483870968,-0.6461118639596775,-0.033030897887096775,0.23651246111290322,-0.721946224330645
23.0,0.15032218725413063,-0.08814594807238396,0.15046538158929978,-3.7913900472069244,-2.4482734067663263,8.685698662470495,0.13986526357199047,2.676722315106215,0.20539068646734826,266.79725240952007,-22.77314737411487,15.741071252950432,-0.6668206449488592,-0.04310325409107002,0.23341832058831624,-0.7044837823603463
24.0,0.07262313139260426,0.02285719905586154,0.02712431156569628,-4.0977566876475215,-2.3823664437450827,8.561142997639653,-0.17167953383162868,-1.0945257179386312,2.9366701907946497,265.0124311565696,-24.73358575924469,15.540380359952794,-0.6537199904689222,-0.05318137942309206,0.24460756657671123,-0.7126828374848544
25.0,0.05933499119553408,0.011453177100895441,0.03827375332509085,-4.287396969015772,-2.217426501442434,8.515934978082498,-0.5509523341201155,0.28102175124573814,2.11165906813158,261.522774238039,-25.94879172754861,14.583987463002511,-0.6308659906879941,-0.058915604725946945,0.24852749483866285,-0.7313383354334795
26.0,0.034303248285939086,-0.006896875351241988,0.03855143119403545,-4.426785658086996,-2.1572418605522463,8.464654124985952,-0.5762010134502267,0.26116059720505036,1.355770730302349,259.00204692124686,-26.84923985378967,14.291223282192501,-0.6138932947547114,-0.06061762559050804,0.25361973105623625,-0.7441838165827155
27.0,0.030506462852646965,-0.023472631224008104,0.03861039301637258,-4.518231538720917,-2.1296451238245098,8.428323030234914,-0.281144861563823,0.16828191150575098,0.8075980667640776,257.57567063804277,-27.44349593495935,14.182254786257541,-0.6041727710225171,-0.06180201793638306,0.2572479256894084,-0.7512496087066801
28.0,-0.006674384624030576,0.0177522760481061,0.020945637106140655,-4.556900977857705,-2.1446770072309014,8.402465999775206,-0.15185783597467312,-1.8117333558128208,-2.9626938855794087,256.99967638904496,-27.69421059533176,14.315581563073696,-0.600067053477427,-0.06122544518376982,0.2597742752365217,-0.7539288660567232
29.0,0.07198538833314604,-0.08584848825446775,0.051342212730883074,-4.199304147465439,-2.392303098422689,8.510686186354953,-0.0038891854932374265,-0.3695517683863474,-2.0467482016410026,262.2143100670638,-25.377273472331495,15.666642079727248,-0.635084455967667,-0.05026719527874564,0.25104511608796976,-0.7271735708961824
30.0,0.07505183395151926,-0.09747109512569778,0.05140459330860589,-4.0623940092165896,-2.428563223558503,8.57245522835413,0.567803871155071,-0.08648959387059307,-0.9497373880708854,264.8025035358361,-24.487407857517514,15.79405452680679,-0.6526431428148626,-0.049602460815256086,0.2449944229556592,-0.7141306735202878
31.0,0.07218104417219288,-0.08536175115207371,0.04856693267393505,-3.9514719100071174,-2.4041651867670746,8.634369684537859,0.5820250154546476,-0.6833382507212169,-0.6198496801356264,266.4792321732981,-23.768049682008915,15.543751580588962,-0.6643491687073639,-0.050089740449215096,0.23845292229233633,-0.7059573489030947
32.0,0.06734180060694617,-0.06657525008429807,0.045668202764976976,-3.747222284665242,-2.3729744108500985,8.733606459106063,1.1061242553669777,-1.130327170207186,-0.6241453111535724,267.6165959499457,-22.467184631523732,15.189340508036416,-0.6732794190730957,-0.04613215527181447,0.22835826342400056,-0.7013709927117755
33.0,0.05490614813982241,-0.05859203476827396,0.03656700760555995,-3.5597549735866023,-2.296484582818178,8.83270315836799,0.7260148551946348,-0.15538477389382188,0.0054231763515791565,268.3471254355401,-21.287676557641152,14.56854136225694,-0.679591255808325,-0.04358763768423813,0.21759367063916674,-0.6990773292536807
34.0,0.044271102618860296,-0.049749353714735316,0.038803341950470215,-3.565987598816079,-2.217835225356862,8.852544677981346,0.4454767056311116,0.07843116593608335,0.07675105840920157,268.4139480536511,-21.32383106665168,14.053628798096735,-0.6803433060162603,-0.046907916286201334,0.2147688400097411,-0.6990761969287398
35.0,0.03700460829493088,-0.03663931662358099,0.040350305346371455,-3.5887973474204786,-2.1732497845715786,8.855339627589832,0.27383528155558057,-0.04490043460342437,0.07399966280768797,268.48361339028133,-21.462056498445172,13.775846727361284,-0.6807889562848902,-0.04951083784309318,0.2139633996703008,-0.6987495233220935
36.0,0.0512190626053726,-0.03432437900415872,0.043181446929676695,-3.5931295942452515,-2.1497948372110454,8.859805927091534,0.01010312464875801,0.05868176538908246,0.19948999662807687,268.4369876550148,-21.490027069049493,13.62814759656813,-0.6806296357034207,-0.05051393568551196,0.21321947375804579,-0.6990788680127384
37.0,0.030031246487580085,-0.0440898055524334,0.04633108538458658,-3.8157544115994164,-2.1469194485032412,8.762869131917128,-0.18724289086208834,1.4937881682964294,0.45401820838484885,268.2982538589787,-22.910901614776513,13.76084307444457,-0.6780132613725599,-0.058688794361245356,0.2222161095855532,-0.6980577158356374
38.0,0.04156164999438013,-0.028582031396350828,0.03683072945936834,-3.857979393803155,-2.1442104454685103,8.746601663482075,0.0756678281068525,-0.272014443070698,0.3454350249147653,267.975054325428,-23.170526816155256,13.768487739312876,-0.6757622037072422,-0.059685240852646954,0.22393097899587877,-0.6996664583909182
39.0,0.022070023603461844,-0.020862706530291108,0.022645161290322586,-3.773604642014162,-2.1232399685287175,8.78925845790716,0.04070121951219513,-0.3702891424075531,0.25584185680566485,267.65228658536586,-22.633224331235247,13.574456628638867,-0.6745541438591661,-0.05670638998937844,0.21987807707474433,-0.7023712756361133
40.0,0.031176632572777342,-0.026397521636506688,0.03799685287175453,-3.7158676239181747,-2.1075106215578283,8.817678009441384,-0.07211103461841069,-0.17699154209284026,-0.021670928402832412,267.4695687450826,-22.265545092446892,13.436072728166799,-0.6739317519594807,-0.05477350381687647,0.217044116649882,-0.7040181392759639
41.0,0.03143509047993706,-0.043243115656963024,0.040837136113296625,-3.709066876475217,-2.1095295043273015,8.82066561762392,-0.08802124311565696,0.1805566483084186,0.13906372934697087,267.43523800157357,-22.224380409126674,13.440037372147916,-0.6738014534555468,-0.05437713814634147,0.21686342319590873,-0.7042496503194334
42.0,0.03430527143981118,-0.05625570416994492,0.04303855232100709,-3.9014807238394966,-2.1617395751376867,8.719766325727775,-0.2685385523210071,1.9618853265145555,0.0241443745082612,267.5914142407553,-23.46002163650669,13.923475609756098,-0.6729237769244689,-0.059913161209284034,0.22662192175924467,-0.7014105363044847
43.0,0.03203855232100709,-0.05546852871754525,0.049151062155782854,-4.008112509834775,-2.160248229740361,8.673297797010228,0.41888768686073957,0.07380753343823765,0.043568056648308415,267.7874213217939,-24.13493312352478,13.977055468135326,-0.6732778438634933,-0.06429274586821401,0.2307024319378442,-0.699400004261605
44.0,0.01970220298977184,-0.0496996459480724,0.046486624704956736,-4.043961841070022,-2.1330289142407546,8.665150078678202,0.13346528324154208,0.9956714693154995,0.07719315499606609,267.80396341463415,-24.359003737214792,13.82258064516129,-0.6732199706099528,-0.06666715145416996,0.23114299374311564,-0.6991383539828874
45.0,0.024173682140047212,-0.05414417781274588,0.04135621557828481,-4.214609952793075,-2.147333005507474,8.578409716758454,-0.5546383261211645,-0.06282454760031475,0.02307238394964595,267.8846429976396,-25.46110469118804,14.048286290322581,-0.6721370241477184,-0.07267277677950432,0.23864524691994493,-0.697017144326121
46.0,0.02962313139260424,-0.05127773406766327,0.04061762391817467,-4.092026750590087,-2.19843666404406,8.624676632572774,0.29296813532651445,-0.9310090479937057,0.00024586939417781204,267.7902045633359,-24.666615853658534,14.291129032258063,-0.6724076630456335,-0.06598534776475215,0.23557500595594028,-0.6984687764453186
47.0,0.029835169158143195,-0.04907710464201419,0.041103461841070034,-4.053094413847365,-2.1900877261998426,8.646626278520849,-0.1264309598741149,0.06311467348544442,0.05470594020456333,267.7329514162077,-24.423812450826123,14.207695712037765,-0.672463362781668,-0.06472569688001573,0.2337452958969316,-0.6991999378764753
48.0,0.029393587726199842,-0.048580251770259666,0.04393253343823762,-4.04636073957514,-2.221135916601102,8.642825334382376,-0.169381884343037,0.04314761998426429,0.03914978363493312,267.64673239575137,-24.37700752360346,14.409124213217938,-0.67185565904701,-0.06309628297029896,0.23468533350314713,-0.6996464585338318
49.0,0.03070889063729347,-0.0446288355625492,0.04437352478363495,-4.029059402045635,-2.216604248623131,8.65214653815893,-0.02828973249409915,0.018448809992132144,0.10243779504327301,267.6248782946499,-24.26504106018883,14.364088316286388,-0.6718829513178597,-0.06258779178756885,0.23381610520318646,-0.6999737751298192
50.0,0.03372541306058223,-0.05157651455546815,0.04352950432730136,-4.016682926829269,-2.2129553501180177,8.65925472069237,0.03761924665617623,-0.06680886113296618,0.140558615263572,267.58590184893785,-24.182243312352476,14.319241738788357,-0.6718460695702202,-0.06224164862765539,0.23311059829917385,-0.7002914967826516
51.0,0.04326593233674274,-0.06616325727773407,0.042538945712037785,-4.007164044059795,-2.1854897718332014,8.671502360346189,0.005881195908733279,0.15815302911093626,0.03741640440597955,267.53347511801735,-24.120657946498817,14.14268538552321,-0.6717052146601101,-0.06275596022108576,0.23174990256490952,-0.7008331321372933
52.0,0.053016129032258066,-0.0767016129032258,0.04679032258064518,-4.0511854838709676,-2.1779274193548384,8.65208870967742,-0.2754032258064516,1.0042338709677419,-0.07893145161290321,267.58321572580644,-24.40877016129032,14.12484879032258,-0.6716247555645161,-0.06476927659677419,0.23330786951612903,-0.7001931465887097
53.0,0.05262096774193549,-0.08763709677419354,0.05270161290322582,-4.2244032258064514,-2.220427419354839,8.55483870967742,-0.16154233870967744,1.7696068548387096,0.15206653225806452,267.69203629032256,-25.53432459677419,14.55126008064516,-0.6705215451532258,-0.06991434333870969,0.242017093983871,-0.697706161048387
54.0,0.03718775847808106,-0.08127543424317617,0.046009511993382976,-4.348873862696444,-2.2464662944582297,8.4844505789909,0.2930572787427626,0.7590751654259719,-0.06226220016542598,268.17986197270466,-26.336889991728697,14.829956317204301,-0.6722059386224152,-0.07466453970057899,0.24779743898325063,-0.6935103056823819
55.0,0.02665033085194375,-0.07543610421836228,0.04812572373862698,-4.418057899090159,-2.29239846980976,8.43826964433416,-0.4431891025641026,0.0719770988420182,-0.03954843879239041,268.8204249379653,-26.78664056038048,15.200084005376343,-0.6752030996579818,-0.07693672723738626,0.25202229223759304,-0.6888512721637716
56.0,0.023192100909842844,-0.06933498759305212,0.04739350703060381,-4.463278949545078,-2.3516064929693967,8.398175144747723,-0.48061672870140615,-0.11348221670802316,0.29819453060380474,269.0781560173697,-27.0844241108354,15.641448252688171,-0.6760195380064102,-0.07700940640095119,0.2560574488647643,-0.6865924137270472
57.0,-0.12204507857733665,-0.14257071960297765,0.16558788254755996,-4.312724152191894,-2.396145988420183,8.45931741108354,-1.5297236869313482,4.104902036807279,-3.135000516956162,269.24578163771713,-26.11267576509512,15.821404569892472,-0.678142673095947,-0.07012672223676591,0.2517148929404466,-0.6866342686941689
58.0,-0.1990144747725393,0.22060173697270496,0.1332092638544251,-4.465870140612077,-4.825452026468156,6.438057899090158,6.344840777502068,46.745117349048805,-35.392853081058725,200.72541098014887,-27.194442721257236,37.2588373655914,-0.7490181722253928,-0.16749495721918944,0.3434251855669975,-0.3624568489640199
59.0,-0.05947580645161289,0.2516209677419356,0.15809677419354834,-5.024112903225807,-6.2792016129032255,4.505,-10.575604838709678,4.4071068548387125,-8.631703629032257,117.45972782258065,-30.96985887096774,54.52081653225806,-0.7718825805403224,-0.29480669583870966,0.390879969217742,-0.11854636913709682
60.0,-0.2969758064516129,0.03660483870967747,0.2405645161290322,-4.651016129032259,-4.813951612903226,6.230298387096775,-2.7927923387096776,-27.923034274193547,17.93351814516129,200.78145161290323,-28.421370967741936,38.81073588709677,-0.75737649275,-0.18722627683870968,0.3368218697903227,-0.35148536928225804
61.0,-0.13333870967741937,-0.05267564909520058,0.13715617623918172,-4.650404799370574,-3.674275963808025,7.234087726199842,-1.6180468135326518,-11.226085513375295,10.244030291109363,235.51645235051143,-28.374177566876476,27.955051386703385,-0.7186344116650276,-0.13378131177793076,0.3036541525371754,-0.5140092730371755
62.0,-0.05400206301575394,-0.07981672552284413,0.09148525241066362,-4.917850561725798,-3.0945923142370955,7.57882480833623,-1.9454930710573985,-5.061344871278796,5.445292058532925,250.77158478834644,-30.14941354431596,22.780408640651018,-0.6837595819633276,-0.1124251753447981,0.29962612278537326,-0.6045555902838728
63.0,-0.012392160540135042,-0.09404781988179972,0.07409844839258595,-5.032787692349917,-2.800668009990301,7.802113722028069,-1.0768814440652847,-3.0977136433498624,4.084772307787313,259.69022603402374,-30.90273158037985,20.01077190982197,-0.6587020707901807,-0.09325571385975151,0.2975320993509871,-0.6644944210754534
64.0,-0.0061678544636159065,-0.09101584542477084,0.0624282564543575,-5.118793039723346,-2.6560396501564414,7.910173796497905,-0.4357945526778036,-0.2657419023200923,1.801181516796882,265.56172087991513,-31.481128895028633,18.562467608136792,-0.6452296016652518,-0.0821327455024564,0.29890195126420327,-0.6970695737998235
65.0,0.003874078275666478,-0.08145796205148849,0.05484335718075861,-5.22918251514098,-2.684936819570746,7.837120926573106,-0.11118442720436206,0.2778102299965234,0.03378497063290212,264.67094944467823,-32.23135418000841,18.90616434596454,-0.639021988353869,-0.08262959928417471,0.3053545296637696,-0.7009824031260132
66.0,0.000823742520996102,-0.07536312736720766,0.05431388944797177,-5.158210455052787,-2.6931883153715255,7.882809086417948,-0.18216577772491904,-0.5664204160796298,-0.025692093755146108,264.5018545413792,-31.73799711360767,18.854463958977547,-0.6388245052508921,-0.07922478669952243,0.3024819329829469,-0.7028886969091906
67.0,0.01701416207710463,-0.06787844217151848,0.06192722265932338,-5.1298827694728555,-2.697984657749804,7.899282061369002,-0.128257769472856,1.3075727773406767,0.837067269866247,264.14338857199056,-31.551059697088903,18.85063680173092,-0.6369181563607396,-0.07709400028048781,0.3016966696022817,-0.7051725611549959
68.0,0.011871136338091488,-0.07554163388408079,0.06898279382563413,-5.3094648196021135,-2.6738655070997717,7.785579361957214,-0.796695573882582,1.0387288786482334,0.38518437862950056,263.74446553847736,-32.79663246740474,18.951146395320517,-0.6324142513355532,-0.0836673693306077,0.3093094058876494,-0.7051201556988873
69.0,0.019658686448615636,-0.0780690120265258,0.06691094376381554,-5.383146004271103,-2.765585403319471,7.7031977070922775,-0.15619028886141392,0.24433563748079884,0.0008055149675920414,263.54180482185006,-33.306261942227714,19.746609343973624,-0.6296999677820239,-0.0822367221973699,0.316424359213218,-0.7045839853770934
70.0,0.016292757858454156,-0.07961672473867595,0.0676804915514593,-5.276384174440823,-2.7998658723914422,7.764033944026076,0.22063616949533554,-1.817176201715934,-0.6275968491251732,263.87379875238844,-32.55746318983927,19.818279101569818,-0.6328544574590685,-0.07777849574463302,0.312576020306845,-0.7039788199033381
71.0,0.005270690494923385,-0.06773519163763067,0.06382451013450229,-4.981539844891535,-2.8013570117267994,7.946332471619646,0.5102492413172979,-4.164587314075905,-0.19649413660035214,264.0568098797347,-30.5544003596718,19.417917088157054,-0.6372736783597468,-0.06724144669214341,0.29912040865460265,-0.7066362740901426
72.0,0.009358585290922036,-0.05167022591884905,0.04640571728297929,-4.402193435989658,-2.612480798771122,8.320195196882846,1.4924588344385747,-2.2401991776254166,-0.4975260855719156,264.3125655651718,-26.746574219774455,17.490114879547413,-0.6455008062584766,-0.05409909653235172,0.266707046299127,-0.7125426229852758
73.0,0.007390506163126149,-0.047839721254355407,0.0412788955078491,-4.132160466074707,-2.548540706605223,8.491533850361545,0.5570253081563074,-0.8318651418081,-0.510691806226818,264.7952996796673,-24.95988465212993,16.741433207822862,-0.6515652597843842,-0.04776770224851073,0.25232728598366483,-0.7131577927215165
74.0,0.007293469708890639,-0.048680079427522394,0.04527930763178601,-4.030367914278221,-2.55599003409389,8.550113146753585,0.4899896032370462,-0.33877524259113556,-0.34066024127983213,265.14663884830094,-24.28155558053276,16.64610964370012,-0.654780406501817,-0.044559291153947016,0.247941074648758,-0.7123487148664344
75.0,0.010621557828481511,-0.04028024427709716,0.04193548387096776,-3.9993971750777413,-2.5225308156307373,8.580284740174587,0.23941356637068675,-0.15940532389194853,0.023341201153947055,265.3346540032221,-24.07729431268967,16.374662807687983,-0.6564862194428834,-0.04512590606084448,0.2452362281623019,-0.7118645334521
76.0,0.02478756884343037,-0.03383406391667604,0.045684500393391045,-3.9389550784908764,-2.4972449514817727,8.617856768199019,0.4495897493537147,-0.2637359034880672,-0.2130786126409651,265.4257111479525,-23.68540659772957,16.14194391367877,-0.6577378714090893,-0.04413186990296354,0.2416656017837473,-0.7120364591021318
77.0,0.0071318047281855295,-0.06290697238769624,0.04211850436476715,-4.022672998388969,-2.511298377730321,8.573310666516804,-0.29609699898842307,0.48832939942302644,-0.16334860065190512,265.3610100314713,-24.230076383425125,16.318725178899253,-0.6565244151193287,-0.046501983838559816,0.24579142214098385,-0.7115482849778951
78.0,0.005239968528717543,-0.05728560188827696,0.033674272226593235,-3.846451612903225,-2.5448387096774185,8.64089693154996,0.022226593233674263,-1.4890833988985048,-0.2418371361132966,265.7426730920535,-23.105625491738788,16.40656963021243,-0.6600962235090481,-0.03960466143981117,0.2396226309520063,-0.7106714138788357
79.0,0.008638492375707168,-0.05621557828481509,0.04036641564572329,-3.7580813757446325,-2.5626641939230446,8.676593608332396,-0.4473347757671125,-0.10922455134689579,0.14614242628601398,265.9473277509273,-22.54257052939193,16.454322149788318,-0.6619976790996966,-0.03612356958862538,0.2365992260705856,-0.7101594853268893
80.0,0.0058154434078903,-0.053989734367389755,0.044246375182645854,-3.7360237533250906,-2.6332100708103856,8.66580607695478,0.43442780337941633,0.0391517740062194,0.24428880521524104,265.983559533176,-22.39374227267618,16.89563897943127,-0.6620408825383088,-0.03269721531377618,0.23825559754336662,-0.7097706194346409
81.0,0.006111423326214829,-0.041039301637256005,0.03889363455846541,-3.8038128957326443,-2.4968461279082836,8.676148514480538,0.7034463864223895,0.4240708478513357,0.22352337866696637,266.1207968041662,-22.82539058109475,16.03681484395489,-0.6630912559327115,-0.04067629631636132,0.23582384124461425,-0.7091695408602151
82.0,-0.0003506800044958966,-0.04155258326776816,0.03492750365291672,-3.882494473792664,-2.428752388445544,8.660043085684313,-0.2829745981791615,1.3671064216402533,0.26674253493687006,266.0076102431531,-23.32418699186992,15.652923738338764,-0.6620937632640216,-0.0458725196107302,0.23659267953392527,-0.7095252143036981
83.0,0.0075115207373271905,-0.05546082949308755,0.047035330261136724,-4.0387327188940105,-2.4799923195084483,8.573133640552992,-0.20343701996927804,0.6644585253456221,0.4120583717357911,265.75955261136716,-24.32214861751152,16.125912058371732,-0.6590129890245775,-0.04907151540706606,0.2451025617281106,-0.7092653615668203
84.0,0.018795848787980966,-0.046607283353939544,0.04717901165186769,-4.052611554456558,-2.5225650968491244,8.555240343186844,-0.10019411974073657,0.2603803716608595,0.13561687460192579,265.55196039863625,-24.413770091041926,16.417478035667454,-0.6574032441158069,-0.04751244275916976,0.24733507136057092,-0.7101252424506388
85.0,0.00792480611442059,-0.04428444044809113,0.045914390618560584,-4.05296553145255,-2.5358409201603536,8.552638604773147,-0.1642147634033944,-0.01946419204975458,0.03244937432093216,265.57754509947176,-24.41489195796336,16.510318318908993,-0.657533410160054,-0.047057053475591026,0.24785683168105352,-0.7098956166247048
86.0,0.0014515379716009136,-0.04774729309505078,0.04317908658349258,-4.054343748829194,-2.541006331722303,8.551156045108842,-0.012663912929451862,0.02039334419841895,0.23907894983327713,265.53087370274625,-24.423103293244914,16.54573404893035,-0.6571837316026377,-0.046788506061256604,0.24813438433486945,-0.7101571714671612
87.0,0.009353265145554682,-0.05349346221572816,0.04740905174028701,-4.0566319358585305,-2.537765838672212,8.551312277546742,-0.002155689183619941,-0.10634038627252632,0.158311556329849,265.4400336255667,-24.433306638941964,16.513890449964407,-0.6566030583066953,-0.04682911851065903,0.24807887208141327,-0.710724334142183
88.0,0.015789535798583793,-0.06086270653029111,0.04779976396538162,-4.050980330448467,-2.5368084185680573,8.55492879622345,-0.1396243115656963,0.018464791502753736,0.09157897324940992,265.37518194335166,-24.39056845003934,16.516699449252556,-0.656320756924469,-0.04647704019158143,0.24786423646774192,-0.711082925001967
89.0,0.024413257277734073,-0.08054543666404407,0.049950236034618435,-4.047523996852874,-2.556370377655389,8.55031648308419,-0.13786880409126673,-0.062315597954366635,-0.004982543273013375,265.3460783831629,-24.37012195121951,16.636472265932333,-0.6560674804527931,-0.04557258461585365,0.248426789414044,-0.7111791288621166
90.0,0.03315420928402833,-0.08836546026750591,0.05122108575924472,-4.05222974036192,-2.560737608182533,8.54726711250984,-0.06681746656176239,0.02584824940991345,0.06537667191188042,265.34536782061366,-24.403609362706533,16.666220003933912,-0.6559510723634934,-0.04559402266679778,0.24880901176750586,-0.711147455693155
91.0,0.044346577498033043,-0.08125983477576712,0.050516129032258085,-3.9993760818253343,-2.566474232887489,8.569089889850511,0.07093823760818252,-1.454965332415421,0.06182385916601102,265.2321597167585,-24.064830841856804,16.66117353461841,-0.6556718488292684,-0.0431935349211251,0.24682753488453968,-0.7122249806671912
92.0,0.05816207710464201,-0.06725118017309206,0.04810188827694731,-3.668588119590873,-2.53490538945712,8.717210464201418,0.5340061959087333,-2.3756564712824546,-0.46454809205350117,265.3084517604249,-21.981500786782057,16.20853412667191,-0.658796543372738,-0.03265044511349331,0.2319752771845004,-0.7146495870285208
93.0,0.01803495560301225,-0.06226364692218353,0.038138117717582715,-3.580100895432917,-2.5350634858191894,8.757371361132968,0.15925300194822223,-1.199980213367802,-0.28592467966730356,265.2735339159267,-21.41941782810685,16.13502023153872,-0.6592652294492338,-0.029406362569611474,0.22834104527773408,-0.715629309459537
94.0,0.03353754074407103,-0.04654095013300365,0.046177634783260285,-3.5300111086133903,-2.5774924038065263,8.765038945712039,-0.31870650453336324,2.263822835881008,-0.3954456207148477,266.22761569911205,-21.110008874714325,16.382640918287063,-0.6653188670180867,-0.027913859439801802,0.22776998617938632,-0.710203218046055
95.0,0.026941665730021352,-0.02287924768648609,0.04666779064104006,-3.599184743921172,-2.6356404780637672,8.721431943351691,-0.16798265332883744,0.4198091116855869,-0.05583342699786442,266.514485219737,-21.52990240155858,16.80798302798696,-0.6663291200768051,-0.028739932995766368,0.2325904917387883,-0.707745330304597
96.0,0.03085871642126559,-0.02234048930351055,0.051363006256790696,-3.9159653066576743,-2.664106627702221,8.567852084972461,-0.6483107601813345,2.680596924056798,0.7034463864223895,266.11311397100144,-23.561322168521226,17.27623777677869,-0.6610559120407629,-0.03837901694241506,0.24705869857592438,-0.707107292941441
97.0,0.026585178524596305,-0.02652991645123825,0.05431212768348883,-4.216903450601327,-2.6923397399872613,8.4147649020269,-0.4656789741860552,1.8127727979468733,0.8249210876325352,265.4420661458919,-25.498147783897195,17.743091070023603,-0.6541833497088909,-0.04676268053089056,0.2610434784417969,-0.7079700423427371
98.0,0.02911056161252857,-0.03751264471170058,0.0595474129856506,-4.381862050878574,-2.7034850698737385,8.330470570604323,-0.18291512120190326,0.7548494810984976,0.3149821100745569,264.9512124873553,-26.558807275860776,17.974963470832865,-0.6496279767577088,-0.051190391716308875,0.26863410348919103,-0.7091582526173614
99.0,0.03076692518077255,-0.04038102731257728,0.06163051215765615,-4.418452661945974,-2.703685886628451,8.31490090292608,-0.05533934659623092,0.19280141246112914,0.057643494061668715,264.86346521299316,-26.788697501030306,18.000070248398337,-0.6488704257746059,-0.05234300027986963,0.2701056036682776,-0.7093471974062416
100.0,0.031410213180472824,-0.04470270877823987,0.0644187179198981,-4.400941515866771,-2.7027634783260277,8.326223071447306,0.11028764377505527,-0.02223127646023007,0.11480227417481546,264.7783101045296,-26.667706342962045,17.973333707991458,-0.6485308121988687,-0.05152894255142183,0.26932712016222693,-0.7100607606346708
101.0,0.034182308643362934,-0.046305496234685856,0.06485688059645574,-4.412527631036679,-2.686447491663857,8.325926529541794,0.20017046944662995,-0.22744558090742195,0.47844310816380053,264.6490893465962,-26.74611409276535,17.874594900902927,-0.6476863117487168,-0.05227578215859279,0.26923662521599034,-0.710816066928178
102.0,0.03445693304859316,-0.04366865235472632,0.060841856805664826,-4.4210599078341,-2.6237641901764635,8.341480274249749,-0.03917284852572031,0.007664100258514134,0.7780244277097148,264.0537353415009,-26.798958450414,17.45047956239931,-0.6442518407455697,-0.05361958199730246,0.26750070511071145,-0.7144656273770185
103.0,0.03038514855194635,-0.037268742272676195,0.05802705031658612,-4.428101232625229,-2.6275737139859876,8.336326477089656,-0.6385485744258365,0.5922946873477951,0.5226785245963058,263.45069264920755,-26.845989753100298,17.484114495522835,-0.6404054786658424,-0.05232369367052565,0.26824535928665094,-0.7177250939234199
104.0,0.02175827057809749,-0.031103293244914024,0.05805522460754563,-4.547193810647784,-2.6744768648608135,8.255487392754112,-0.40710866958900005,0.6442836536660297,0.43809476977258244,262.97939333483197,-27.630611910381777,17.947997452324753,-0.6360333473415758,-0.053615359603162105,0.2754872420902177,-0.7187507272394441
105.0,0.02018676707504402,-0.03429672923457347,0.06068378854295457,-4.621755835300289,-2.679284065789967,8.213396725487993,-0.09377365029410664,0.21481983627439957,0.4042607995204376,262.6057224345285,-28.121905089730618,18.06413444606796,-0.6329406717825109,-0.05519171650496421,0.27909686546289014,-0.7199865539462367
106.0,0.026014274474541986,-0.043484770147240656,0.06193866846502567,-4.636009254055676,-2.676565996028625,8.207076242928329,-0.023451725300663157,-0.15271392978906745,0.13261235060507282,262.3785620621183,-28.207981154696338,18.05990900490802,-0.6314377025356489,-0.05526206290685998,0.2796954655978045,-0.7210899791105991
107.0,0.03593632685174779,-0.05153703495560304,0.06811724926005022,-4.62485592521824,-2.6756079390056584,8.213173054587692,-0.037896200966617964,-0.08217423476078076,0.12805381495635232,262.29411974073656,-28.140880821250605,18.03622908939343,-0.6310190780144806,-0.054726606511651864,0.2792349770947324,-0.7216886539518377
108.0,0.03894236821400472,-0.059754130605822194,0.06539044059795436,-4.603591463414635,-2.6508542486231317,8.233710464201417,0.3284372541306058,-0.4259687254130606,0.3266657651455546,262.1042387883556,-28.000700727773406,17.83439098151062,-0.6301681703794257,-0.0545175833074351,0.2774055068097954,-0.7231435939529895
109.0,0.042664044059795445,-0.07100786782061369,0.06473760818253345,-4.583350118017311,-2.6154228953579857,8.255966561762392,0.2810238001573564,0.668440204563336,0.15791453579858378,261.92708743115656,-27.865420928402834,17.571666011014948,-0.6294341824752163,-0.054770701729740356,0.2753202066223447,-0.7245582075216366
110.0,0.04228477764040314,-0.07962536060844477,0.06772079539919823,-4.726327188940093,-2.651446227192687,8.16027712524821,-0.6011484442321381,1.0589096043610207,0.19520080504664494,261.6505402687235,-28.82869483159117,17.998108444794127,-0.6259772827270615,-0.05775311470961185,0.283258552052883,-0.7241562385084861
111.0,0.038124292832790084,-0.0715701547338054,0.07287170769173129,-4.793138810835113,-2.7011976415271066,8.105034412348733,-0.08113209977145852,-1.7053947257502524,-0.38767878217376645,261.730349181372,-29.264024097542244,18.42552083333333,-0.6255271624097543,-0.058308725782717015,0.2879842213978027,-0.7226484927833539
112.0,0.0317979843392904,-0.05069499082087596,0.06331872166647934,-4.458895133190963,-2.722966543029486,8.278652729384437,0.790446686148889,-2.4309317747555355,-0.827308362369338,262.10740511782996,-27.066522891611406,18.201235903488065,-0.6309735838391218,-0.046477344379753475,0.27386981126784316,-0.7240466558053276
113.0,0.033909182870630564,-0.04344011089880485,0.059408040163350946,-4.211771758270578,-2.68035180397887,8.420041961709941,0.22291221760143864,0.4703387846090443,0.03807229028511483,262.5837735566296,-25.462257877187067,17.659587969727625,-0.6364181617357911,-0.0405154847015848,0.26140711200554495,-0.724218418711176
114.0,0.018111161065527716,-0.04585066127158968,0.05347270615563299,-4.217730883069199,-2.643952455884006,8.434316810910044,0.13936228503990108,0.39768906185605635,0.30385125135813573,262.4449896500693,-25.488898411449554,17.399006219324864,-0.6357932231692329,-0.041858184951107116,0.26025312438986925,-0.7252695656655801
115.0,0.022238582293657043,-0.04066202090592336,0.05342025401820841,-4.253174478288562,-2.654304072533813,8.416595106964893,-0.12361844816604847,-0.0030792214604173085,-0.04229187741186166,262.3650856093814,-25.71145470383275,17.498447510396762,-0.6349988699943802,-0.04251087726836762,0.2621254456045109,-0.7253557800565733
116.0,0.01892885242216478,-0.04192349481098499,0.053231800981604294,-4.318786482334869,-2.649702521449178,8.385235097973098,-0.07176576374058671,1.0055777228279195,0.39192283915926723,262.2990661646247,-26.13934238132704,17.530803922670565,-0.6340232312843281,-0.04488690618448167,0.26486989842006664,-0.725101166153385
117.0,0.01846285264695965,-0.044208010190701,0.0534805739762467,-4.474042336368063,-2.616102244202165,8.313567194934622,0.09946821962459257,0.8150134876924806,0.48180917725075867,262.1224825315649,-27.152445580907425,17.458512700910422,-0.6316692159379942,-0.051318142527331315,0.2704778021258476,-0.724637906345772
118.0,0.01798718669214342,-0.05038357498782363,0.05644074781761643,-4.5650242403806525,-2.5972485107339542,8.270523996852873,-0.16563167359784192,0.3582555917725076,0.2295998651230752,261.91106365441533,-27.753162114570454,17.424484845078865,-0.6296011807915778,-0.05481249950867334,0.273868726082125,-0.7249391534993067
119.0,0.017872428908620883,-0.05775669701397475,0.052118879022891626,-4.430297328687573,-2.6887737439586363,8.313039339103069,-0.3442241766887714,-0.9810315274811735,-0.4472083286501066,262.099562118317,-26.866746281518115,17.908569133790415,-0.6315039726223821,-0.046784887555280805,0.27124246498441423,-0.7247907350856093
120.0,0.0166860177587951,-0.04879967030085049,0.04293984863811773,-4.315821363006258,-2.715590648533212,8.364383556254921,0.11710408002697537,-0.6894732775092728,-0.21214665055636728,262.33752201116476,-26.12173368363868,17.973732835974673,-0.6338987464174066,-0.042248681043572725,0.267157132893466,-0.7245069609653066
121.0,0.008837182945562173,-0.05730455958937471,0.04376489266044735,-4.327210070810385,-2.7390928590161465,8.351237617548986,0.06572908471020193,0.08939612135176644,-0.021731927428721265,262.7120223108913,-26.19335649188865,18.146697330092543,-0.6360564856599977,-0.04262125446131655,0.2683373064797966,-0.7221497518418193
122.0,0.000511333408264958,-0.06997486043984864,0.040757446330223684,-4.3397663257277745,-2.732973848862911,8.348259937806754,0.14314680041961708,0.08648233486943162,0.04291427822112324,263.7525837360908,-26.2730391330411,18.12004725375595,-0.6424881310074182,-0.04573546937581958,0.2682379609939305,-0.7162610185015548
123.0,0.002481510621557828,-0.07386467348544454,0.04145239968528719,-4.343307631785995,-2.728237608182532,8.348424862313143,0.017092840283241546,0.0030192761605035284,0.09295830055074746,264.5256294256491,-26.295092446892212,18.080999213217936,-0.6473227222675058,-0.04790815027537372,0.26787024000944143,-0.7119168279543668
124.0,0.00464808362369338,-0.07005267693229927,0.044655614251995074,-4.514198493874339,-2.7577651642875862,8.243886665917351,-0.5992907253381289,1.7764419654565209,0.5453305889625716,264.71208483196585,-27.422256097560975,18.488712487355286,-0.646616408041512,-0.05344320953917052,0.27642456722906594,-0.7088066286132031
125.0,0.013939305383837248,-0.05812704657000488,0.05338602899853885,-4.69044385748005,-2.7890116144018577,8.133961428946087,-0.27540755779101567,1.6671942321381739,0.35071899235697424,264.7469206614589,-28.59100118017309,18.924583426997863,-0.6448550114039189,-0.058778695513094316,0.2853622637215353,-0.7064565883223373
126.0,0.008582555917725072,-0.06250569480349183,0.0603358154434079,-4.978974879172755,-2.8179519126297246,7.945584176314115,-0.6202224649694653,2.251058760443595,0.7868120925592896,264.43819774221646,-30.544369590873327,19.533028338203888,-0.639556117169308,-0.0675539923159492,0.2996026862588794,-0.7044549330360703
127.0,0.017496234685849165,-0.06669678917987336,0.0684494773519164,-5.2354589187366525,-2.845725562923832,7.7688769622719285,-0.48287320632422914,0.761260349930688,0.49532075418680455,263.9355063504552,-32.297103658536585,20.1257010790154,-0.6333103983549138,-0.07465521852028774,0.3126416759647072,-0.7037145049528305
128.0,0.021635607508148816,-0.07024847326814282,0.0745748566932674,-5.296301449926941,-2.7933269828781238,7.7521056723240065,0.0508037587576336,0.3582806470345809,0.7481767028211757,263.27904841519614,-32.700307336742725,19.807588934472292,-0.6289621771475592,-0.07720591994071035,0.31368858339541417,-0.7070071885661082
129.0,0.017412273800157356,-0.07702439024390245,0.07393489378442171,-5.354846577498034,-2.7721005114083397,7.7223400865460246,-0.02470372738001575,0.19173632966168372,0.33162003343823765,262.94731510621557,-33.10468995869394,19.74041601101495,-0.6263405982035799,-0.07928306592427226,0.31577533849724626,-0.7082510892753737
130.0,0.019948072383949647,-0.08357671125098348,0.06810857592446892,-5.391907159716758,-2.7688607395751372,7.698520849724625,-0.12386900078678206,0.18866050354051928,0.11417191188040915,262.78152045633357,-33.36164437450826,19.770712037765538,-0.6249180651219512,-0.08036396754681355,0.3174467101841071,-0.7086712852667191
131.0,0.02364437450826121,-0.09849173878835563,0.07527773406766325,-5.523309992132179,-2.8490527143981117,7.5700196695515345,-0.6345889063729346,2.021257867820614,-0.09036191974822973,262.89825924468926,-34.29434008654603,20.632233477576712,-0.6233310596026751,-0.08246573273485445,0.3268019061424076,-0.7054376173973249
132.0,0.014638867033831627,-0.09312942564909521,0.07164909520062943,-5.698935877262,-2.884320220298977,7.424629032258064,0.15250786782061376,0.5308344807238395,0.1523800157356412,263.23666896144766,-35.5461865656963,21.237315597954364,-0.6227771691915813,-0.08871548041306059,0.3363074380255704,-0.700657851902439
133.0,0.00046262785208497567,-0.08330822187254133,0.06718725413060583,-5.536212234461054,-2.8730594020456337,7.548792092840283,0.7647619984264359,-4.550780635326514,-0.8629081431943352,263.3489353855232,-34.385298239575135,20.83972880605822,-0.6257572541378835,-0.08321581304523998,0.3279463320773014,-0.7025706496624705
134.0,0.03297449010470254,-0.06360334584115074,0.06352435493957917,-4.633193069256995,-2.908503232867317,8.059158970324194,0.40688084412636927,-2.241915467580544,-0.7961886146079202,264.5865063093869,-28.369360890879378,19.890381746908346,-0.6425552825601535,-0.05176751448622627,0.28888897748933307,-0.7056933484116736
135.0,0.02322111602009321,-0.06469280195283345,0.06391943553430572,-4.544939276563983,-2.8862637132078524,8.152579485162097,0.2109253010954427,-0.5649345483064011,-0.17720217020718596,265.00968460630634,-27.695265122859045,19.521224139583207,-0.6468079823002382,-0.05032666373908089,0.28322659582127946,-0.7052586208066434
136.0,0.021246277915632758,-0.06318589743589745,0.06212179487179488,-4.5345066170388755,-2.875928866832093,8.180096980976014,0.15205490074441685,-0.32230795078577323,0.041213037634408575,265.1742168114144,-27.59302496898263,19.37432666459884,-0.6483257083476016,-0.05077919069251448,0.28189702919230764,-0.7049520747801901
137.0,0.021619106699751863,-0.06786311000827129,0.06299234904880066,-4.520067824648471,-2.8417386269644345,8.210665425971877,0.20344680521091812,-0.08612877377998342,0.08771841397849461,265.2682071960297,-27.46821107320099,19.085474824234904,-0.6494505806939622,-0.0517490796002895,0.27967377050744413,-0.7050416541118691
138.0,0.017849875930521092,-0.07197187758478082,0.060669561621174525,-4.5435822994210096,-2.8338693134822175,8.204114971050457,-0.11523728287841191,0.225206782464847,0.1993279569892473,265.30124069478904,-27.61210452853598,19.053044871794867,-0.6495375090082715,-0.0529778171025641,0.28031771477791567,-0.7047279363825476
139.0,0.012540322580645163,-0.0731935483870968,0.0543951612903226,-4.593370967741935,-2.837161290322581,8.176403225806453,0.03200604838709677,0.25826612903225804,0.20302419354838708,265.2784274193548,-27.940776209677416,19.12711693548387,-0.648911754532258,-0.05463379930645161,0.2825838648306451,-0.7043210918306452
140.0,0.007725806451612903,-0.06791129032258067,0.05906451612903227,-4.628322580645159,-2.839403225806452,8.156774193548385,-0.07202620967741936,0.2769657258064516,0.16481854838709678,265.2949092741935,-28.168397177419354,19.193850806451614,-0.6486120402338709,-0.05578317979838708,0.2842050864677419,-0.7038581612338712
141.0,0.008709677419354838,-0.060806451612903246,0.05938709677419356,-4.648887096774191,-2.8445483870967743,8.143290322580642,0.08084677419354838,-0.0017137096774193783,0.18089717741935485,265.2818548387097,-28.30065524193548,19.242137096774194,-0.6483483086290323,-0.05637541798387097,0.2852507560403225,-0.7036265727661293
142.0,0.015786393713813067,-0.04444499586435072,0.06161414392059554,-4.565861248966086,-2.7735277088502897,8.212617659222495,0.04508633167907361,-1.1557407981803143,0.5455580541770058,264.96146350289496,-27.75007883581472,18.647232992142264,-0.6476238464667082,-0.05529093141066998,0.2790530472092638,-0.7068212750973948
143.0,0.009522805151837413,-0.04815490960652251,0.0533351057544606,-4.532180048446177,-2.804638662412856,8.2203746898263,-0.7578403787073141,0.0344255878530072,0.3341065520501004,264.4916572506794,-27.53060177389814,18.83026372149356,-0.6448329040695675,-0.05169314497300012,0.2790319857194552,-0.7096107662193962
144.0,0.006882173622338845,-0.05524444929578682,0.03595610519823738,-4.2888806418470065,-2.856755405163942,8.327889547902922,0.18080640388001717,-0.34221260929930286,-0.5100919344391511,264.61086292412017,-25.946297026799584,18.922235027544577,-0.647473183573041,-0.041108703710142865,0.2704983237107308,-0.7110656830059413
145.0,-0.00865434329635746,-0.07822303109950632,0.03526011865134604,-4.446212402336712,-2.892703931460619,8.23283878316805,-0.2478636471383324,0.31835102061916576,-0.15355187159745576,265.0231253944718,-26.978104830604092,19.35250456254341,-0.6483081728813745,-0.046475604104303375,0.2785257975231842,-0.7068779340598061
146.0,0.015665147860269808,-0.058762821233316914,0.03915482891092648,-4.238539380891859,-2.7981067660375287,8.371011173458063,1.0267666211312945,-1.4032848871558548,0.4100388203456653,264.78295766651394,-25.635266172982536,18.479552492485222,-0.6493268891703339,-0.04205960295115323,0.26606614946896534,-0.7109331503641965
147.0,0.013486006519051366,-0.06356018882769472,0.03993012625978796,-4.195012925705294,-2.7155327638529836,8.424188677831475,0.5038823948147315,0.3912250384024576,0.3727532220598704,264.7525394795998,-25.339540950133003,17.85986147015848,-0.6500951700708102,-0.04356759320782286,0.26102502299632835,-0.7121213675205127
148.0,0.010839608856918065,-0.06429095949945673,0.04277209546289014,-4.313872091716309,-2.670207560600951,8.379642201491135,-0.11372513206698892,0.6507928702558914,0.35585496984002096,264.7120283990858,-26.10464669738863,17.669659248435803,-0.649044062067738,-0.04948627799895096,0.2644113970136001,-0.7114868117526509
149.0,0.014412723389906713,-0.0706623955640478,0.04612247574088646,-4.346755085984039,-2.693223371173804,8.356406466599223,-0.024874957850961034,-0.3763394027949496,0.146284093889326,264.5335810760181,-26.316829642950808,17.855359718631746,-0.6475274251408712,-0.04936006765407815,0.26675119358941224,-0.7120475838267581
150.0,0.01563935408939343,-0.06984732681428198,0.04540013487692483,-4.3232379828406575,-2.6830223670900315,8.371479337604434,-0.09147395189389682,0.8081750402757484,0.23433929039751228,264.4104988572927,-26.16988053089056,17.76307673935034,-0.6470333245884379,-0.04860814117436589,0.26540845599172,-0.7130381637383387
151.0,0.016001835824809862,-0.07167022591884906,0.043901315050016876,-4.339809673672773,-2.691632385448279,8.360754374133602,-0.008640552995391695,-0.7987196058596531,-0.15384750477689108,264.4250824247873,-26.27641691019445,17.83510710539133,-0.646936651908883,-0.048920364818290804,0.26640718264208907,-0.7127527511457048
152.0,0.016328874901652246,-0.06804248623131393,0.04541148701809601,-4.309228953579858,-2.696731707317073,8.376003147128245,-0.035483870967741936,0.021646341463414598,0.07383949645948071,264.5025373721479,-26.078343823760815,17.835837922895358,-0.6476869166671911,-0.04781736186152635,0.2652722640645161,-0.7125922203823762
153.0,0.024034618410700235,-0.07723682140047208,0.046486231313926055,-4.366697088906372,-2.7282454760031474,8.334780487804878,-0.5192564909520062,1.2653520849724624,0.3630114083398899,264.44880999213217,-26.452330841856806,18.118282848151065,-0.646630264047207,-0.048535261960660894,0.2689967531329661,-0.7120892636144769
154.0,0.028637293469708894,-0.08151219512195122,0.0473634933123525,-4.43854602675059,-2.7399583005507475,8.292808025177028,0.2097905192761605,0.09366148701809596,0.21379819040125886,264.34186664044057,-26.918666404405975,18.27411487018096,-0.645224865498033,-0.05044909149803303,0.27257024836349325,-0.7118882608552322
155.0,0.01535719905586153,-0.0740786782061369,0.045288355625491744,-4.50615578284815,-2.724935090479937,8.262488198269082,0.06011752557041699,0.7079538749016523,0.23240558615263573,264.2923337922895,-27.361182140047205,18.24211742722266,-0.6443663276538159,-0.05338676242722265,0.27495114064594806,-0.7115396225928402
156.0,0.021299007444168738,-0.0868221670802316,0.05253039702233252,-4.703265508684863,-2.721061827956989,8.15000723738627,-0.21044122208436725,1.861250258478081,0.20111662531017369,264.3085737179487,-28.673748966087672,18.461804693961952,-0.6424219616178659,-0.060797771962365584,0.28351925195988414,-0.7092402865982216
157.0,0.026254342431761796,-0.0917901157981803,0.05957568238213401,-4.889390818858561,-2.7265349462365593,8.038201199338294,-0.017947425558312663,0.8890172663358147,0.16583049007444167,264.3384098428453,-29.915805934656742,18.728180572787426,-0.6405756899621586,-0.06751625961827958,0.29187094173800665,-0.7069157776579817
158.0,0.034691687344913166,-0.09147973531844499,0.06437655086848636,-4.8881712158808925,-2.731206989247312,8.03860463192721,-0.11308157568238214,-0.4540296732837056,0.07578318858560794,264.2465738730356,-29.9042235318445,18.760486455748556,-0.6400563199528535,-0.06701520173655914,0.29203992689722913,-0.7074264786999587
159.0,0.03346277915632755,-0.08281244830438378,0.06560359801488834,-5.005988833746898,-2.751301075268817,7.9586974772539305,-0.10674240074441688,1.1864932278742764,0.3159661910669975,264.24685044458226,-30.706849669148056,19.066231131100082,-0.6386002467828784,-0.07064609047311828,0.2981551847913565,-0.705836524595947
160.0,0.026755583126550873,-0.07568444995864351,0.06436228287841192,-5.100712158808934,-2.7662795698924745,7.893981803143094,-0.16478753101736973,0.5845016542597188,0.20873914392059553,264.24285566583956,-31.34939257650951,19.306578267162944,-0.6373728049156328,-0.07353720544623657,0.3029958772948719,-0.70461166877378
161.0,0.021975806451612907,-0.07831451612903226,0.0630967741935484,-5.135854838709678,-2.7661612903225823,7.871903225806456,0.014566532258064507,0.17056451612903226,0.15357862903225808,264.1854838709677,-31.58805443548387,19.361239919354837,-0.6367086099516128,-0.07470919608870968,0.30460569371774204,-0.7044182564596775
162.0,0.03475,-0.0732258064516129,0.07203225806451614,-5.154983870967742,-2.765225806451614,7.860774193548392,-0.3913810483870968,1.0417842741935484,0.46169354838709675,264.1254032258064,-31.723185483870967,19.372429435483873,-0.6361384229596774,-0.07532501099193548,0.3054362640645161,-0.7045197510403226
163.0,0.044298387096774194,-0.07088709677419355,0.07568548387096774,-5.1978709677419355,-2.838346774193549,7.804467741935486,-0.29516129032258065,-0.9159778225806451,-0.057963709677419345,263.7987903225806,-32.012449596774196,19.979284274193546,-0.6331069938145161,-0.07312016586290321,0.3104551261693548,-0.705221950717742
164.0,0.05070849724626279,-0.07452517702596381,0.08700236034618411,-5.02927202989772,-2.82656884343037,7.916588512981903,0.8661167387883555,-0.950865460267506,-0.08176140833988985,263.8285368312352,-30.860446990558614,19.63990583202203,-0.6353082937560974,-0.0674499060660897,0.3023015292651455,-0.7073033591154603
165.0,0.06474196574471948,-0.054817799431096055,0.08960643244769917,-5.024770733724709,-2.784640501119652,7.935962577417339,0.07513084664810665,0.2842963848372976,0.026057364481833406,263.9451520229377,-30.828686843087414,19.325874002652867,-0.6363736099706874,-0.06922092940628721,0.3004189480374527,-0.7070314858890989
166.0,0.05449627791563275,-0.052782031108152286,0.08547522645201638,-4.924674115878878,-2.777660730496883,7.999005678952573,0.1944848027497024,-1.752414405929109,-0.28756140430511,264.06088860981663,-30.1514045446751,19.141662537321714,-0.6382058863740141,-0.0660621780441153,0.29557030734189704,-0.7076667986663236
167.0,0.04094168734491316,-0.041149080070205186,0.07253600032278239,-4.7017846385846,-2.7718747200871507,8.132978645927897,0.06768090943936733,-0.8794582110290706,-0.07603876666868406,264.1518152726502,-28.663101465885937,18.8164713896286,-0.6411546247757167,-0.058314115050283444,0.285422384880626,-0.7097976911234847
168.0,-0.03338969920716576,-0.08076366277310418,0.14463975468538806,-4.672592063588129,-2.784227682624221,8.147190542476142,-0.036104470536020505,1.821590106719926,-0.39563764651294153,264.23120120438176,-28.47350158365107,18.861533418063708,-0.6418795301941133,-0.05703294825350523,0.28458646477931776,-0.709633710880389
169.0,-0.3832998850087756,0.28452768867639056,0.16113577034033372,-4.114454961770461,-5.091692912909278,6.575546490750266,-2.980458804898223,29.5928121658698,-36.46788176582138,236.0413726320886,-24.930618809134742,37.28388433295003,-0.7359177445305733,-0.10700211428804295,0.3728189837311222,-0.41493792495632353
170.0,-0.1332900228541456,0.2241987374021206,0.15516318234610918,-3.2985733393278625,-6.808073208197521,5.440194372634968,0.6470261511370872,10.143619689221087,-17.01181589768087,279.8352689108688,-19.792934064853323,50.34657187816118,-0.7970172514275222,-0.12278536396961523,0.4417968413834626,-0.21123415981716684
171.0,-0.29494556217451573,0.17650534824472675,0.23955248023678397,-3.504015229852759,-5.533891049417408,6.535911505751001,1.8212756640815255,-27.330752114476788,26.96763650434604,281.7291263909183,-21.020237685455772,39.84291123412386,-0.7551266950135249,-0.08011270706741973,0.37628965460203817,-0.39409175034131355
172.0,-0.10368476265407814,0.045737889176126825,0.14313626315986663,-3.4485126072458883,-4.1602435277809,7.64542579895845,-0.8476522985275936,-11.3267299838897,13.7923832003297,271.88915036903825,-20.64320136000899,28.754870555617998,-0.6969711875789592,-0.04328803249185119,0.3034480728747518,-0.5639360511768011
173.0,-0.030422239706268017,-1.4611666853986405e-05,0.10792139672548798,-3.7573916301375,-3.5533869094451314,8.029786070210932,-0.27362453636057105,-6.103962946311491,6.546516147765165,266.17601204525863,-22.569953355063504,24.01817091903638,-0.6599064337462065,-0.03164307299651568,0.2843215444782886,-0.6498417270360796
174.0,0.0234080776291634,-0.030514780263010008,0.07820145367352291,-3.7951828331647377,-3.189545539695028,8.329955977670375,-0.06253512419916829,-3.714968294556217,4.520037184818853,263.89536735229103,-22.78709115432168,21.023517992956428,-0.6374964991154319,-0.01847466940541756,0.2666520578134952,-0.7048463197296839
175.0,0.024066539282904365,-0.04373196957776031,0.06643250533887829,-3.864008467273613,-2.9864265108088865,8.476775317522762,0.08246927803379414,-1.3335979356337342,2.313813645048893,260.9254641077516,-23.211960492300776,19.4083305233974,-0.6254489579607359,-0.013442776390543629,0.2583128719242441,-0.7339819498744892
176.0,0.03398448915364731,-0.05236873852609496,0.055339777453074085,-3.9083811022442014,-2.944484695215615,8.487599303135887,-0.13072641527106516,0.6161819527181447,0.2107473024615039,260.0495829586752,-23.49347041137462,19.124080682627103,-0.6213763877679368,-0.013671265458057021,0.2583640922941441,-0.7395157753652539
177.0,0.030967741935483878,-0.05832572777340677,0.05699606608969317,-3.9544846577498025,-2.945985837922896,8.466399685287175,0.14619394177812745,-0.0026258851298190666,0.10352084972462629,259.8938630999213,-23.782159716758457,19.177527537372146,-0.6200054797970103,-0.014820142980330442,0.2604295691927616,-0.7399549573658536
178.0,0.03628560188827696,-0.05290401258851299,0.05499685287175453,-3.914841070023604,-2.927606608969316,8.49129897718332,0.19428107789142407,-0.2413208103855232,0.07917486231313926,259.81011998426436,-23.531097560975606,19.013419551534227,-0.619910752844217,-0.014050898180959871,0.25804076047442964,-0.7408875565531076
179.0,0.039574744295830064,-0.05451652242328876,0.05963453973249411,-3.9468894571203776,-2.909243902439025,8.482616443745084,0.12207169551534225,0.727293961447679,0.16979986231313926,259.77698662470493,-23.738232690794646,18.91741001180173,-0.6195826192112511,-0.015848366678992913,0.258797665669945,-0.7408588658414634
180.0,0.03779445318646736,-0.053673682140047224,0.06166306058221874,-4.001799567269868,-2.8826691581431936,8.467047010228168,0.21508285798583793,0.14937672108575925,0.08363616247049568,259.83688532651456,-24.085697777340677,18.787329120771044,-0.619682419780291,-0.018909561112116443,0.2601864352212825,-0.7402197437256097
181.0,0.04537293469708891,-0.04948623131392606,0.06686506687647523,-4.249005114083399,-2.8925212431156564,8.331406372934698,-0.5832808811959087,3.808231707317073,0.6622442958300551,259.73171223446104,-25.70881687647522,19.14839693154996,-0.6166993749992132,-0.026842544402045632,0.27173196369079466,-0.737996180348151
182.0,0.028271046420141624,-0.05776121164437452,0.07468587726199843,-4.704265735641226,-2.926027734067663,8.0601807631786,-0.26588808025177024,2.270412077104642,0.4921666011014949,259.5664609559402,-28.726040027537373,19.970441581431942,-0.6110055814020457,-0.040828137208890634,0.2937529822199056,-0.7333586020434697
183.0,0.020691974822974035,-0.04101770259638081,0.07350826121164439,-4.764491738788355,-2.976848544453186,8.01356215578285,-0.87477871754524,-2.138382671125098,0.3391276553894571,259.2138252360346,-29.1029897718332,20.380180468135325,-0.6079393491526359,-0.039883865435090475,0.2982749837793076,-0.7343014796306058
184.0,0.023069040125885128,-0.021934500393391034,0.06307828481510622,-4.441243509047993,-3.0335021636506676,8.174339693154998,0.49571941384736423,-2.031401209677419,-0.5467127261998426,258.74559770849726,-26.964968528717545,20.349246410306847,-0.6076681364103068,-0.025341013487804875,0.2856396272161684,-0.7400881839160109
185.0,0.019732100708103856,-0.050890637293469695,0.059676239181746665,-4.343662077104642,-2.9559244689221083,8.261157749803306,0.595289142407553,0.4857862903225807,-0.12582612116443742,259.1349208300551,-26.313129425649095,19.6806967938631,-0.611656166777734,-0.026051110953579863,0.2782810668217939,-0.7397745921959087
186.0,0.01728225806451613,-0.06703225806451613,0.05862096774193551,-4.332750000000001,-2.9156451612903216,8.286895161290325,0.22016129032258064,0.053377016129032284,0.029637096774193544,259.3483366935484,-26.22883064516129,19.36859879032258,-0.613485373362903,-0.027815492741935482,0.27614701813709674,-0.7391655221774194
187.0,0.015333333333333334,-0.07387427626137302,0.05459243176178663,-4.32057382133995,-2.8965483870967734,8.302942928039705,0.2216126447477254,0.11555650330851944,0.07925713399503721,259.4578125,-26.139022435897434,19.218234336228285,-0.6144224124946234,-0.028392920068238216,0.27484109804073614,-0.7389655132954921
188.0,0.016860215053763443,-0.07317907361455749,0.059945409429280394,-4.289137717121589,-2.8705967741935474,8.329148883374693,0.043543217535153014,-0.2670957402812242,0.10364066377171216,259.50892137096776,-25.93745476633581,19.002993176178656,-0.6152202495215053,-0.02848323965508685,0.2724757460163358,-0.7392102053695203
189.0,0.018333333333333337,-0.06851695616211745,0.05376302729528537,-4.235899503722085,-2.8729112903225804,8.354840570719604,-0.15337960090984284,-0.17689464433416047,0.2289120657568238,259.3790826612903,-25.59455903639371,18.96485344292804,-0.6148295010188171,-0.026256193263027295,0.270276244165426,-0.7404261386484698
190.0,0.02127956989247312,-0.07066170388751034,0.05487344913151365,-4.2144658808933,-2.8844919354838714,8.362077543424316,-0.11028355045492143,-0.5214614350703061,0.037263492555831265,259.3212197580645,-25.45176540529363,19.02030474565757,-0.6145609342392472,-0.024836756687965256,0.2697222664940033,-0.7409018207435897
191.0,0.02470430107526882,-0.059814722911497115,0.05166253101736974,-4.088930521091811,-2.9068225806451613,8.416308933002481,0.05924834574028123,-0.7616883788254756,-0.00019385856079404302,259.17247983870965,-24.643171009098424,19.03966346153846,-0.6145040768655914,-0.019357706420595536,0.26495953760587265,-0.742792189468569
192.0,0.025427419354838714,-0.05338709677419355,0.05700000000000001,-4.031080645161289,-2.8823145161290324,8.452556451612905,0.5236895161290323,-0.42510080645161286,0.1606350806451613,259.090877016129,-24.273689516129032,18.81547379032258,-0.6145940473790323,-0.018205605927419356,0.2615199427822581,-0.7439714495887095
193.0,0.019903225806451614,-0.059096774193548404,0.05286290322580647,-4.01524193548387,-2.838024193548387,8.47466935483871,-0.032913306451612834,-0.04032258064516128,0.16935483870967744,259.0431955645161,-24.176411290322577,18.500504032258064,-0.6146502088870969,-0.019360401016129035,0.25930722120161287,-0.7446872833548386
194.0,0.019048387096774193,-0.06558064516129034,0.04553225806451615,-4.00690322580645,-2.838338709677419,8.47857258064516,-0.16108870967741934,0.1885584677419355,0.1967741935483871,258.9277217741935,-24.12711693548387,18.49591733870968,-0.6140086997499999,-0.018835645879032258,0.25897876370161294,-0.7453555197258064
195.0,0.019724358974358973,-0.07488833746898266,0.04197870140612078,-4.052324441687343,-2.8419797353184446,8.456200578990902,-0.14270057899090155,0.41569737386269645,0.21810768196856906,258.84615901571544,-24.42111378205128,18.563978494623655,-0.6130818847282878,-0.02007714830624483,0.26115031138688993,-0.7453299448122412
196.0,0.024253308519437557,-0.08579900744416874,0.0436869313482217,-4.094053349875928,-2.844481803143092,8.436979321753515,-0.06353778949545077,0.24131642886683208,0.17566170388751035,258.80387587882547,-24.687850237799836,18.618934811827955,-0.6124826909689824,-0.021347503132961125,0.26302786747167073,-0.7451321121883787
197.0,0.026937138130686523,-0.09180272952853598,0.04290798180314312,-4.113728287841189,-2.847232837055416,8.427473531844498,-0.08602796732837054,0.07758865798180313,0.16741754549214227,258.77247725392886,-24.813657981803146,18.65611559139785,-0.6121101970490073,-0.021837771191480566,0.26396637565115794,-0.7450920398320924
198.0,0.031815343258891654,-0.09001426799007445,0.044143507030603824,-4.118541563275435,-2.854656741108353,8.42322063688999,-0.057908136889991725,-0.05568651778329198,0.15102228081058724,258.73361765922243,-24.832081007030602,18.7005376344086,-0.6118051526978907,-0.021611851023159635,0.26435131295864345,-0.7452125328595947
199.0,0.033806865177832934,-0.08539826302729528,0.04803143093465677,-4.118686104218361,-2.860747725392886,8.420396608767579,-0.05332402812241522,0.05844706368899917,0.1783085194375517,258.6914056038048,-24.823071753515304,18.731619623655913,-0.6114884250545906,-0.02123592339867659,0.2645413932535153,-0.7454169980467327
200.0,0.030379032258064525,-0.07425000000000001,0.057451612903225806,-4.130620967741934,-2.8674193548387095,8.411104838709676,-0.09566532258064517,0.14455645161290323,0.12661290322580643,258.66053427419354,-24.90695564516129,18.80539314516129,-0.6111197687258064,-0.02123413111290322,0.2654426323629032,-0.7453968168951611
201.0,0.037259244689221094,-0.06605291109362706,0.06273623131392606,-4.134326711250983,-2.862997836349331,8.409647915027538,0.42309697088906373,0.26684574154209284,0.09113763768686073,258.70100560582216,-24.9421493902439,18.788171223446106,-0.6113527530891031,-0.02159330139811172,0.26552221832061373,-0.7451595240653026
202.0,0.021426829268292685,-0.07717033831628639,0.05119787568843432,-4.146156766325728,-2.8347167584579065,8.41318745082612,0.005834480723839464,-0.09493140243902437,0.14756466365066878,258.6539056353265,-25.015809402045633,18.607966168371362,-0.6111149011819431,-0.02301980920456333,0.2650451829655783,-0.7454859853048779
203.0,0.027294059795436663,-0.07007710464201417,0.05105861526357201,-4.136953383162865,-2.8209067663257272,8.422638080251772,0.19238296616837133,0.23597683910306844,0.24497688827694727,258.6486514063729,-24.955031717151847,18.501916551927614,-0.6112021433127457,-0.023268351666797797,0.26413550417230525,-0.7457344683137292
204.0,0.020820416994492524,-0.07355583342699787,0.05505196508186282,-4.152516438125211,-2.8031215859278413,8.421204216777191,0.3090803079689783,0.5943529068787231,0.1706211246300251,258.6278983318347,-25.05844063776179,18.396235973736466,-0.611044522363362,-0.0244915202396969,0.26419703345328016,-0.7457970827857049
205.0,0.014007081038552322,-0.06885748004945488,0.054282080101907035,-4.2541216140272,-2.783636619085085,8.375687572590012,0.007269304259862885,0.2232465999775205,0.21935179461241616,258.4406173897568,-25.71478471207523,18.372096399535423,-0.6090788747699971,-0.02827121157037953,0.2680764087929265,-0.7458595022369712
206.0,0.04758969315499606,-0.07224935371473529,0.05463120527518641,-4.246569068225245,-2.763938687197932,8.386699018395715,-0.1731700292233337,-0.3177630100033718,0.06310823404893035,258.38064012682173,-25.661483622756734,18.231878254842456,-0.6088660804927877,-0.028651048232081977,0.2670297523626316,-0.7464096586755273
207.0,0.03049036191974823,-0.06654560526020008,0.05046666479337607,-4.188225525458019,-2.79178838372485,8.407303089056235,-0.017176084635270317,-0.3932442115319771,0.0605421185980293,258.2780216763141,-25.27903547778277,18.36146430444719,-0.6085610671818777,-0.02532688246379866,0.2654085113465401,-0.7473561237476771
208.0,0.02331104117492788,-0.05792814057172832,0.05071278708178789,-4.1520255891499,-2.786413585103593,8.425873702746244,0.0769126297253756,-0.10554587688734027,0.1684779045371099,258.2322892079727,-25.046786604098756,18.287082958675207,-0.6085619753102169,-0.02421248381926492,0.26365043198625004,-0.7480216363982242
209.0,0.03128455284552846,-0.055848862912592265,0.05666591735041777,-4.163392978906748,-2.7790800644411977,8.424360046457606,-0.03913585103592972,0.8024113933535649,0.23746955902738748,258.1643924918512,-25.127420759806675,18.240234067663256,-0.6081067579185493,-0.024783849322842902,0.26388623369435393,-0.7482972507882057
210.0,0.0286653928290435,-0.06056108800719344,0.059660185081113495,-4.213947248136076,-2.758849724626279,8.405159117305455,0.30691618897755796,0.07082865010677758,0.12909875988160804,258.1385940017234,-25.452433404518374,18.153411262223223,-0.6076121780035217,-0.02723915798164175,0.2654191792356225,-0.7480693549220335
211.0,0.03233576861114234,-0.05266336967517142,0.0603963882956802,-4.222985201004084,-2.7409426023753323,8.40580611442059,0.02718659847888802,-0.19790168034168823,0.1435483870967742,258.16836714622906,-25.51012092090967,18.051844722940317,-0.6077874494951856,-0.028287869577348176,0.265199248592372,-0.7479656674192423
212.0,0.023697388632872508,-0.060113671274961596,0.054646697388632884,-4.179675883256528,-2.714123655913978,8.436252688172042,0.560781490015361,-0.24654857910906297,0.2973406298003072,258.07652649769585,-25.22821620583717,17.822177419354837,-0.6077061286298001,-0.027739499507680496,0.26231741920046087,-0.7490557304969276
213.0,0.021240753869786133,-0.061810055535861996,0.05230798771121354,-4.158104513765802,-2.6393057131040996,8.470749231950842,0.29821280869667965,-0.07428530810587264,0.20456250738508802,257.9382488479263,-25.090592136358264,17.297965777502068,-0.6073568224387923,-0.029728638843997405,0.25876342263845564,-0.7504938574666489
214.0,0.01805605750137615,-0.06842096010467373,0.053721853808399854,-4.143963940596511,-2.60604850958116,8.489390056573374,0.15211092834519274,-0.097380040953015,0.18005466045886973,257.8422115600764,-24.990828621286923,17.06044163186669,-0.6070874287443764,-0.03044752691816314,0.25688685498671393,-0.7513308627285054
215.0,0.036230025678491456,-0.07160986561301275,0.05295155670450716,-4.14431837582821,-2.5815480643143895,8.496303323217562,0.022450433450630164,-0.11168445212013269,0.13553904297905084,257.79904836836386,-24.993887812947605,16.892706415011684,-0.6068925054198073,-0.031348516217146086,0.25608781120073026,-0.7517297642836076
216.0,0.06003129548133483,-0.06800155339022372,0.06162170769173131,-4.26478975627048,-2.6064729568883775,8.4190502791203,-0.9270668339659291,6.7214475204837125,0.8456833079718603,257.71884062043387,-25.80421157160437,17.21128216295899,-0.6050516885432371,-0.03431332541272051,0.26266868565028834,-0.750518829004323
217.0,0.03417969180046285,-0.0875481334820438,0.05268292682926831,-4.737342238668753,-2.6726351521544287,8.087965531452548,0.37768471366032347,-4.332303617900588,-0.8816424183605537,257.69434008654605,-29.0355666199785,18.372579726528386,-0.5993710876873766,-0.047785503189669246,0.28725630500715305,-0.7438185584550858
218.0,0.018999925068375105,-0.08724210408002697,0.030450526394664872,-4.152285676819902,-2.68151195159417,8.40465096849125,0.17974762092090968,-3.5802226171743277,-0.6946282220598703,258.69120806170616,-25.17452441834326,17.752190696302122,-0.6112058366045297,-0.029646914636900085,0.2607784928196583,-0.7450031762675995
219.0,0.006101064029073473,-0.07666196470720467,0.049957757296466974,-4.073019313626316,-2.7123452755610504,8.45815553932037,-0.5529517206174365,0.46898585899741496,0.6233536702446518,259.32433632825666,-24.61993825165786,17.8078420043273,-0.6161974785264976,-0.02715270255841857,0.25790544595349557,-0.7427162832518173
220.0,-0.016122663069948667,-0.0602322880371661,0.03494623655913979,-4.049721254355401,-2.7482020156607097,8.471835450151735,-0.286635710539133,1.1837908845678318,0.29564740923906935,259.4992565377843,-24.43250416807163,17.981408761380237,-0.6175627630337941,-0.02526523463808025,0.25785022083024245,-0.7420972290727212
221.0,-0.006551346895957438,-0.06586115169907461,0.03750537634408603,-4.179756172492602,-2.808257689858004,8.395017571466035,-0.6727389382188752,-1.5212670001123976,-0.09672314637892923,259.65114036566627,-25.239931999550407,18.4980728522723,-0.6172673821105992,-0.027495770368963314,0.2654914552722641,-0.7397553923796785
222.0,-0.004923981866546778,-0.07201004083773559,0.04460634670862838,-4.268292720392642,-2.836359372072983,8.346847888801467,0.575437179198981,1.3351572159154772,0.11019959911580683,259.76700409314,-25.809752585141055,18.7571255292046,-0.6172090726209958,-0.029774367741523353,0.27032814182181253,-0.7381469492386198
223.0,0.001278408452287287,-0.07455340751564199,0.04488381851560452,-4.204864486156382,-2.8021889026263533,8.390716571128843,-0.40172553482447265,-0.9203870218425687,-0.27573737402120563,259.8034569236821,-25.393379556779436,18.456471750777418,-0.6181635042329248,-0.028979929465999775,0.2662337643133641,-0.7388652818927353
224.0,-0.0027033082312389965,-0.08204385373346822,0.04553752201116483,-4.1422793825634106,-2.8208955078490874,8.416786295005807,0.8752923504177439,1.0337581019819415,0.143545225918849,259.8628167031958,-24.99398568337642,18.511278380352927,-0.6189952765415496,-0.026302089892604248,0.2641064704628527,-0.7390592934947922
225.0,0.007906616462477988,-0.078191384736428,0.048111385860402395,-4.196033569367952,-2.738558353002885,8.418084710201942,0.33415096614963846,-0.7755000515154921,0.29016727314450563,259.9336908391405,-25.336865715503354,18.005215943576488,-0.6194640135418399,-0.03156857153363493,0.2634226121210146,-0.7387232819035349
226.0,0.009907084785133568,-0.060605822187254146,0.04152186130156234,-3.9268161552583267,-2.754070285864149,8.539255179648572,-0.08689961035555052,-1.815342718519351,-0.14150603199580383,259.7146135401446,-23.617832321756396,17.867392098460158,-0.6200894495402944,-0.021251187537372148,0.25227031587876064,-0.7423496926975384
227.0,0.01947753924543854,-0.05697482297403621,0.039820726087445225,-3.754061106740099,-2.7667440335693687,8.613396275898245,0.03264677232025777,-0.5887787550110524,0.16080677943876215,259.58965334757033,-22.51276647559102,17.799057968978307,-0.620545403283129,-0.014606901384736429,0.2452425520581844,-0.7445451455147802
228.0,0.018590536135776107,-0.05169401670975237,0.03861620021730173,-3.693893072571278,-2.7705340751564194,8.64080720092915,-0.058129378816829634,0.10300405567419732,0.27839206099434266,259.44958857854704,-22.131815265445283,17.763128254842456,-0.6201056715186766,-0.012155276790678505,0.2427806303493687,-0.7458328088518602
229.0,0.01727376269154397,-0.05796298377730321,0.039067700723090196,-3.71679907084785,-2.761711738039039,8.63529069723877,-0.009647446704881796,0.20261089880484062,0.17299979393803153,259.35993733842867,-22.276732325502977,17.721190663519536,-0.6194682810519649,-0.013090292128058144,0.24345834971615898,-0.746164977316099
230.0,0.023849312502341617,-0.06508770746693641,0.037053913304110016,-3.72854587688734,-2.757307481922746,8.632008841931736,-0.030610505413809903,-0.149555093477202,0.1216247986212581,259.28009160391144,-22.349081150949758,17.70062286913192,-0.6188986002891612,-0.01349217076190476,0.2438076129485594,-0.7465441198633997
231.0,0.035276347832602764,-0.06859420778539582,0.04024214154583944,-3.752896069836275,-2.7471234498520096,8.624391517740065,-0.012330233037353417,0.24391836199467987,0.14551440560488554,259.25703045970556,-22.50609545352366,17.656566351953842,-0.6186244447039827,-0.014669994897081406,0.24452312297309955,-0.7465170476146267
232.0,0.04299222584391743,-0.07381087257877186,0.04453177100895435,-3.779184462927579,-2.756046382675808,8.61034288711551,-0.3255887986587239,0.3222788112097711,0.23072828856168745,259.1393924918512,-22.6696832499719,17.739229281405716,-0.6176041965864523,-0.014905675732569028,0.24601566669268668,-0.7468687035350868
233.0,0.05132330186205089,-0.08591081263347194,0.04328739088082127,-3.844131401970702,-2.7764755722902845,8.574568524970967,0.18352376503315718,0.5504683226555769,0.11411606440373158,259.01374866528045,-23.080761363849238,17.929882497845714,-0.616178519714117,-0.016011073065977297,0.24957700400302535,-0.7468336323627816
234.0,0.04203252032520326,-0.0889880577722828,0.04328423438612268,-3.9087217788767736,-2.764533812895732,8.549005741635757,-0.0349745700798022,0.45073081750402755,0.19417078790603576,259.063555833427,-23.490793127833353,17.907523369300513,-0.6160428504498987,-0.01876252121532539,0.2519579406402813,-0.7460766406034993
235.0,0.03387621295567795,-0.08222721141957964,0.044861826083698646,-3.945204319808174,-2.7863463714360632,8.52555233973999,-0.19832668315162413,0.5617393269266794,0.1642249494211532,259.0501787821738,-23.722817148102358,18.081741621707693,-0.6155541070285491,-0.019108128612285044,0.2543255386377056,-0.7456680745692555
236.0,0.02824547600314713,-0.07621682402307894,0.05245657712337494,-4.175200413997227,-2.796261492637968,8.406175630362295,-0.23877617923644673,2.532731246019257,0.5858965217676371,259.0311647067364,-25.21739233262148,18.39036010499794,-0.61340323333294,-0.02651948377581395,0.26499195592576147,-0.7433314967559851
237.0,0.030397699599115813,-0.07997995579034131,0.0576426510808887,-4.345093102543928,-2.787627290097786,8.323323030234908,0.2768196676782436,0.09767922708028909,0.13954844329549287,258.9766002585141,-26.3132516578622,18.510674244127234,-0.6116554630877449,-0.032486247763290996,0.2722254426061218,-0.7419511790738449
238.0,0.02780637668127834,-0.08733790416245177,0.056661571316174,-4.359434416095313,-2.7760686373684007,8.322845078865532,0.0018746955902738671,0.0024638454909893803,0.09301730920535012,258.9810132628976,-26.393069761342772,18.437455977670375,-0.6116829539563149,-0.03345176113049342,0.2723680071156569,-0.7419153777366152
239.0,0.025846540032220602,-0.0843691881158443,0.05797279982016411,-4.37827739687535,-2.7767125248211,8.314313963508297,0.13309214716571127,0.6698245663332208,0.08781471282454759,259.0043244914016,-26.515919223708366,18.460638885766734,-0.6116791372692667,-0.034125822245026416,0.27322027118961445,-0.741612427845491
240.0,0.023961822337117383,-0.07986752088719046,0.06336484208160055,-4.443206361694953,-2.76496523172605,8.284324566333218,-0.006452549548536968,0.16968805027912023,0.03547403619197482,258.9637082724514,-26.942337070548124,18.449929985762992,-0.6109476400193699,-0.036738465949421165,0.2757286809252557,-0.7411766427032331
241.0,0.02683037353415009,-0.0860266943913679,0.06130300475815818,-4.460418081001085,-2.772094751039675,8.273369656438499,0.04146458544078528,0.09323976246674907,0.04466194129107189,258.9638001807725,-27.05770367352291,18.513429854632648,-0.6107472294305756,-0.037061549003896445,0.27671345179365703,-0.7409669156803416
242.0,0.03172010228166799,-0.0965041306058222,0.05983890637293471,-4.458134539732493,-2.778522029897718,8.271206333595593,-0.12198564122738001,-0.06867869787568845,-0.01013350708103855,258.9605195220299,-27.043934402045636,18.55178501180173,-0.6107098447114476,-0.036744082597954364,0.2768650208200236,-0.7409643908839495
243.0,0.0465302911093627,-0.09267191188040914,0.06150668764752164,-4.345385523210069,-2.8074413847364275,8.318994492525569,0.07433123524783633,-1.9254917387883554,-0.12774881982690792,258.8200334382376,-26.307371164437452,18.6312795043273,-0.6106116700841857,-0.03138160752478363,0.272878824509048,-0.7426848436223445
244.0,0.04830448465774981,-0.07875531077891426,0.059136506687647535,-4.1541679779701015,-2.824239968528717,8.408741935483869,-0.8047649488591659,0.25379130605822187,0.5405217348544453,258.65696793863094,-25.074761506687647,18.555190302911093,-0.6110351104787569,-0.023807831213217938,0.2650596953465775,-0.7453864357332809
245.0,0.023416601101494888,-0.07756412273800156,0.05188532651455548,-4.256726003147126,-2.881329268292683,8.338363886703382,-0.31888522816679776,0.6510154405979544,0.33890760228166794,258.0664855428796,-25.736559549567268,19.05503417584579,-0.606011517717742,-0.023491350992132183,0.2718430000572384,-0.7470765271546027
246.0,0.025457513768686078,-0.0822472462627852,0.05872423288749019,-4.340501180173091,-2.8730879228953583,8.298621951219513,0.8597536388670337,-0.8642161683713612,-0.21897865853658532,258.0947728166798,-26.276878442171515,19.09094463021243,-0.6055724753432337,-0.02671286771085759,0.27524763554189613,-0.7460993600129819
247.0,0.03180210557865947,-0.06177550485182272,0.045008429807800385,-3.8001146453860843,-2.8064366265782477,8.555671574688098,0.6589978831815967,-3.016463882956802,-0.7266096249672174,258.79309973399273,-22.84751180173092,18.175731051665355,-0.6144390363841743,-0.012706002864261361,0.24917850998388966,-0.7475902603701622
248.0,0.012915214866434377,-0.05903488067138737,0.0353366303248286,-3.5968865909857253,-2.7959956539657567,8.658657974598178,0.004385841669476587,-0.5387935071747031,-0.053435615001311276,259.44837913528903,-21.547501966955153,17.901127720954626,-0.6204227430032596,-0.007742667620171595,0.2397847804758158,-0.7461458872346485
249.0,0.0017919898092990136,-0.061753474954104395,0.029396875351241997,-3.5301836574126115,-2.7998200142370084,8.692866359447008,-0.0667832790079053,-0.29436233187216665,0.11322121688958828,259.83288842681054,-21.11283438237608,17.84768227117755,-0.6234682892467125,-0.006164613629912705,0.23687697166513055,-0.7448025730461205
250.0,-0.005638230115020043,-0.059983739837398395,0.025925817691356642,-3.680300325952569,-2.853411187291596,8.615410363043722,-0.8022498220373909,0.5407613989734367,0.4667453448728036,259.81637536997493,-22.05467151848938,18.3218299239444,-0.622032004764977,-0.009075612888913865,0.2452531416901577,-0.7433437209565772
251.0,-0.0025083361432692653,-0.04671492263309732,0.02487478925480499,-3.6577976846127918,-2.9416426510808895,8.598224457682361,-0.686357995204376,-0.18976387171705816,0.32178730658274324,259.4730480311716,-21.90619590873328,18.881804025701545,-0.6195325103171854,-0.003993676440523022,0.24737472281990178,-0.7448603027088156
252.0,0.008202202989771838,-0.05350039339103069,0.028787568843430367,-3.598661683713612,-2.97134500393391,8.614712431156569,0.11084284028324154,-0.45221036585365854,0.009483182533438217,259.28630261605036,-21.53220643194335,19.0202153815893,-0.6185934792391815,-0.0004405863292682923,0.24583688613729346,-0.7462020475239969
253.0,0.010873721479150278,-0.057051534225019684,0.025573957513768692,-3.551911487018096,-2.9563326121164444,8.639529307631788,0.05093676239181744,-0.261003884736428,0.0951772718332022,259.2268698367427,-21.235222020062942,18.880106707317076,-0.6186200306321793,0.0006625125599921322,0.2432922857201023,-0.74703842045594
254.0,0.023937057435090482,-0.07041227380015735,0.037694728560188843,-3.6603540519276168,-2.91698819826908,8.604867033831631,0.723170731707317,2.4859067663257277,0.10714004720692369,259.3314811172305,-21.934697088906372,18.711319826907946,-0.618702142050354,-0.004952405139260424,0.2466760472226593,-0.7457488792950431
255.0,0.02274144842830917,-0.07935791090629798,0.04858116968266457,-3.9534423588475525,-2.852700011239744,8.4914966842756,0.23806760705855903,0.5235594395114458,0.008428402832415416,259.7154319339852,-23.79670581844067,18.552902195496607,-0.6193119255452397,-0.018318262876662543,0.25705521658030794,-0.7413693099950169
256.0,0.022550897306208087,-0.07889217339178,0.04855887752425913,-4.000332509085459,-2.83821074519501,8.478364392491851,0.11750941328537708,0.7564689408414821,0.15761211644374507,259.8423491298565,-24.087746103555503,18.49490605447529,-0.6198900740786781,-0.020721404432037016,0.2585268002807126,-0.7404383927040387
257.0,0.01939503952643213,-0.0806537971600914,0.04981051665355365,-4.0439703458094485,-2.821784365516467,8.464953242666066,0.322080827807126,0.4470041399722752,0.12505409126671913,259.9229202376269,-24.36347867726949,18.424036426136148,-0.620203592129819,-0.023012507511061778,0.25980811518362923,-0.7397299456517833
258.0,0.015017796260911917,-0.06970439473979992,0.04494174066164626,-4.063926417144356,-2.7803034730808136,8.468231613652542,0.2421392042261436,-1.4844376381551831,0.40732831291446553,259.82850960998087,-24.481002491476524,18.163760724588812,-0.6196711650841107,-0.025103439371698323,0.2591456623565995,-0.7403098121793864
259.0,0.01008167547113259,-0.06951388108351128,0.04987842343861228,-3.988379416282642,-2.809329549286276,8.495118953954515,-0.29088456783185346,1.549726499569143,0.15444110374283465,259.8026055130943,-24.01090840545502,18.289861282829413,-0.6199051010156982,-0.021372164170506913,0.25699680578884265,-0.7409781036191975
260.0,-0.0008193773181971471,-0.07205724776141771,0.04513506425386836,-4.156190476190475,-2.790044958974935,8.420063317223033,0.08497246262785207,0.5071021130718218,0.14888913866097186,259.94827376269154,-25.089051552957926,18.325758214379377,-0.6195694834494774,-0.028227196482334866,0.2636321843460342,-0.7386826240830241
261.0,0.0023123899441759377,-0.06550747442958302,0.04416207710464203,-4.140201566070959,-2.7764740923906923,8.43448690569855,-0.0048377730321082155,-0.36203682889363453,0.2170417931137837,259.8306779438762,-24.982821924993445,18.209862406803794,-0.6190557895788842,-0.027946241933610578,0.26239377944850323,-0.739622043075943
262.0,0.008763590723464835,-0.06653265145554682,0.048492525570417014,-4.108193623318721,-2.7770883443857475,8.451157693604591,-0.05948517290472444,-0.0980620808512233,0.1935326982878124,259.6963775242591,-24.77562123000262,18.18272919710764,-0.6185008791663107,-0.026519515018732905,0.2610308932702784,-0.7406514635757371
263.0,0.012265632610243153,-0.0678173916301375,0.05130351054662623,-4.103516840882695,-2.784395863774306,8.450762803941403,0.0015688808961822273,0.15383696751714057,0.13152701285077367,259.6119937432093,-24.745076992244577,18.230203533026113,-0.6179834246076956,-0.025845985391705066,0.2611379745455772,-0.7410904212187626
264.0,0.019711887902289164,-0.06852553295118205,0.05328668839683791,-4.115693117530254,-2.792463864223896,8.44364497396126,-0.12169785695552808,-0.01661515117455323,0.12207743246787306,259.56701673785176,-24.818334129481848,18.28656616462478,-0.6175518128640362,-0.025828072241092508,0.26192773637034955,-0.7411847787093024
265.0,0.02714913266644188,-0.07119628339140535,0.05367755048518229,-4.103775429920199,-2.7862442958300546,8.450762766475595,0.16183498182908096,-0.10704813888576674,0.15560476846127907,259.53337314075907,-24.7340682486606,18.234987683114156,-0.6174384926238995,-0.025565690702896108,0.2611937174363268,-0.74154957581357
266.0,0.021021984506445573,-0.08042798926748573,0.042417766144162705,-4.099424640400251,-2.780452586293853,8.454623968609418,-0.3129624866347919,-0.12656628260606428,0.12943891973814278,259.4701235903488,-24.70388829838205,18.196848458714115,-0.6171036475334433,-0.0254780501789324,0.26079401178445194,-0.7419703090452703
267.0,0.03556793560491437,-0.0821699348383062,0.04893400108939057,-4.1011064980128715,-2.7765957856724963,8.455050969355852,0.25022361506183294,0.4336772983114447,0.09506773386592426,259.432711283766,-24.713370314611954,18.170547557445175,-0.6168631672475438,-0.025616968025146764,0.26075194373073896,-0.7421712622567027
268.0,0.029274133026690075,-0.08436270148681635,0.04940799189009262,-4.1458789767798425,-2.7647133137646516,8.437796137707036,0.05228037558756479,0.25087680808569873,0.04288201799511791,259.4658147292158,-25.000921978706447,18.140648483679314,-0.6168207525089016,-0.027707166585350718,0.2622968308811051,-0.7415861589922381
269.0,0.029951582642377298,-0.08274183461437593,0.05323222175149792,-4.181568520647986,-2.7591026246242616,8.420200488208355,-0.3720704976900886,1.4962045330751075,0.5221466541588492,259.42597692105954,-25.23919586838548,18.145399846678366,-0.6162618355084829,-0.029063371570901157,0.2637866207550687,-0.7414491972098287
270.0,0.020118198874296438,-0.08469507151647199,0.056976457059855976,-4.512799995965219,-2.820910084932116,8.217222982105753,-0.6069243125743913,2.453890032076499,0.45159752062781167,259.1739837398374,-27.427716541588488,18.965618884786863,-0.6111676691586474,-0.03739869197978575,0.28115582692592145,-0.738641461198148
271.0,0.0008855232100708141,-0.08976003147128248,0.05202360346184109,-4.791375688434303,-2.85429897718332,8.045957513768684,2.45869394172038e-06,1.2211595200629426,0.4262440991345397,259.0102478363493,-29.275676140833987,19.544005704169948,-0.6072084078540518,-0.045266778923682124,0.2950947905739575,-0.7360172175684501
272.0,0.04739398111723052,-0.057728166797797006,0.07918332022029897,-4.924107985837923,-2.8602313139260427,7.96594885916601,-0.47717717348544453,1.5893218922108576,1.1524119787568843,258.38978658536587,-30.164967299370574,19.750312254130606,-0.6018122673455939,-0.04797121498426435,0.30167991737745864,-0.7376459475647127
273.0,0.04423328088119591,-0.05225118017309206,0.08433359559402046,-5.220703186467348,-2.8282769472856026,7.782885719905588,-0.04682951416207712,2.0845803009441384,0.4384035700236033,258.14811909913453,-32.209575383556256,19.969258949645948,-0.5971825219994098,-0.059070731935680576,0.3146884417008261,-0.7350874398589691
274.0,0.037738001573564134,-0.06384756097560977,0.08820259638080254,-5.466691384736426,-2.832739968528718,7.61352242328875,-0.37039855428796226,0.5722499508261211,0.04221085759244683,257.91394325334386,-33.90975609756097,20.411692319040124,-0.59280793116011,-0.06681656375570416,0.32676526088630997,-0.7327906852187251
275.0,0.038807379612257664,-0.06507359438358654,0.09076817163953278,-5.402721519498073,-2.847775898242854,7.656764520163813,0.46379201214468724,-1.9382915103189493,-0.32737472008715124,257.7747200241078,-33.44245559220481,20.39703658032238,-0.5926803178805098,-0.06351560184497368,0.3241314540951401,-0.7344319316627124
276.0,0.01968299743791483,-0.0604297948314471,0.0814069024995461,-5.028465401763199,-2.89207913716234,7.880947956384031,-0.23042696796384837,-3.879359169793621,-0.6885545905707195,257.59438695933954,-30.881352697754643,20.149954167423186,-0.5952948968969818,-0.04819044375411548,0.3080280380436361,-0.7400749232632996
277.0,0.018414079364118704,-0.043190703867336463,0.05488490286267628,-4.575603668623535,-2.9448903750327826,8.12563930077266,0.35333490311484994,-0.9949467219935846,-0.4680172146401985,258.0396077941859,-27.872027155328936,19.920944825647076,-0.6022856780291361,-0.03170148200205774,0.28895068994923745,-0.7427926969945531
278.0,-0.0012652262502773903,-0.06739865641832599,0.056105610361314534,-4.380946700558818,-2.930181222134802,8.247365087050376,-0.3674138574512297,-0.7966724414452581,0.2085384766688858,258.14954180031873,-26.563507307994918,19.558009416167362,-0.6050629377172628,-0.025911843300792835,0.2793285068384071,-0.7447299568729651
279.0,0.00041223345235933914,-0.07338304182049266,0.0556177147007202,-4.330056355786883,-2.945306189352215,8.278099538017713,0.1146260767818596,-0.4527274481026447,0.05769665768928161,257.97504135649297,-26.211710380984083,19.577072174645444,-0.6044266318625653,-0.0231258047652666,0.2774703367614538,-0.7462880514663802
280.0,0.004480723839496456,-0.07548308418568057,0.04644905586152636,-4.283825531077892,-2.9597606215578276,8.298561762391817,-0.00288650668764754,0.6334222560975611,0.14761383752950433,257.8725806451613,-25.912058664437453,19.623017063335958,-0.6040992163762785,-0.02071854949429583,0.2759391957976003,-0.7472731965495671
281.0,0.01317738188902626,-0.07553186467348544,0.05255152485856657,-4.311197519763217,-2.928951163313476,8.296509375819562,0.3337645999587876,-0.29663732625229466,0.08463521177550486,257.86513296850995,-26.081656972387695,19.43511524249747,-0.6040351962801129,-0.022867244266925178,0.275977662614814,-0.7472656429821569
282.0,0.014708478513356563,-0.08039929189614475,0.054985144805365115,-4.305987823610956,-2.9221571316174,8.302768554943613,-0.025118953954516493,-0.15678271702071855,0.12237083661159193,257.7991964754037,-26.04670968210258,19.382531682027647,-0.6036809733054771,-0.02281807185553182,0.27552710094902777,-0.7477356075674948
283.0,0.01659892847776404,-0.07965676632572777,0.06406613652542056,-4.299016728485258,-2.860283915926717,8.324688762129558,3.816217076917313,0.9399259113558878,-0.05085726462103331,258.07416550756807,-26.003439420122884,18.940601993649544,-0.6058639468651696,-0.025866612556404777,0.2728630923077161,-0.7467111163447231
284.0,0.05570977108388596,-0.1524761998426436,0.029741073770184714,-4.4703492375707174,-1.210875042149039,8.415848413322843,2.2610565124948483,-0.16206645030159977,5.9053738853920805,255.59580189717508,-27.122749534018954,8.004940921096999,-0.5907249788115186,-0.0958561138208853,0.22844384930718223,-0.7612370975769642
285.0,0.06936963770559365,-0.14284421715184897,0.041306807538121465,-4.3192928327900795,-1.1291665730021356,8.608561500131131,3.1042509647446703,-1.1459070941515865,-2.1443171387359032,252.12817054437824,-26.13989500206062,7.396130718219624,-0.57007213110393,-0.08668969743434116,0.21955408713274138,-0.7824410213094304
286.0,0.04663182346109175,-0.13104192424412722,0.04489303510546626,-4.339335356487206,-1.4260848225993783,8.603409014274472,-1.5662020905923346,-0.5194541231126597,0.7482859390805889,252.449069911206,-26.27448859166011,9.383453223933161,-0.5724883298568805,-0.07461838152823047,0.22919258471844445,-0.7809613916147764
287.0,0.07038514855194636,-0.10886478588288187,0.046459106065715045,-4.380281368251471,-1.6477591697575962,8.57125210745195,-2.328291839946049,0.8536679030384773,-0.1554105316398785,252.3669425087108,-26.545092446892212,10.873866659173505,-0.571588898708928,-0.066215964151212,0.23797989329549285,-0.7809670581952717
288.0,0.059736615338503614,-0.09296954029448129,0.059046495073245664,-4.523773556629576,-1.9193319845640855,8.451833202202991,-1.1757427597317447,1.4843580233037352,-0.13991607658012062,252.6632970851598,-27.487692480611443,12.801796485706792,-0.5718297576066838,-0.0599905222168521,0.25313812785545686,-0.7770975624806112
289.0,0.055174778015061265,-0.0791765014424338,0.0602884867558353,-4.6111449552283545,-2.1285302161777384,8.372445018920235,-0.987814244501892,-0.920031564946986,-0.36430819377318197,252.8273950020606,-28.048981866546775,14.275504851822712,-0.57173713444382,-0.05423405678917987,0.2637895273271889,-0.7746683239402792
290.0,0.04976913566370689,-0.07940335693679518,0.06336296879097825,-4.529774680603949,-2.2285947697725836,8.394970739200478,-0.3216756116293882,0.5660365385335879,-0.05362341238619758,252.84442134052676,-27.51596910007118,14.864517768161551,-0.5722481368536957,-0.04744873654643887,0.2632793333835,-0.775099600221123
291.0,0.03331250234161329,-0.07606983627439962,0.0583371923120153,-4.368238657225282,-2.277668652354726,8.46154066913941,0.1715442471244989,-2.6912152036266908,-0.963317691356637,252.94145873140758,-26.47133771683339,15.0536908508486,-0.5739807761599789,-0.04043385149331234,0.257455436910644,-0.7760336595757369
292.0,0.044634221273088304,-0.07276741223633434,0.03908991794987075,-4.040551271964333,-2.3342749241317304,8.603118879022892,-0.203296523172605,0.8501044359521936,-0.02380085984039565,253.4979962815181,-24.365340376906072,15.170482325502977,-0.5799734006016259,-0.0288158232014162,0.24438804312093965,-0.7761880338752014
293.0,0.019778989172380204,-0.06900256640815257,0.043943726349705906,-4.145407609306508,-2.3715867146229064,8.547583380165598,-0.7131910100783037,-1.458706586489828,0.425230180585216,253.4853289732494,-25.026706450676258,15.501536683713612,-0.5790019520634857,-0.030547557274156072,0.2502463739090143,-0.7751004736924993
294.0,-0.0025605822187254115,-0.04833615263571991,0.03972147915027538,-3.939535601888277,-2.4766597167584576,8.615412273800157,-0.15009588906372937,-0.678402832415421,-0.30413798190401253,253.2184709382376,-23.698889899685284,16.029195761211646,-0.5782584122928796,-0.01901853381372934,0.24439962235542878,-0.7778955440021635
295.0,0.016742722265932347,-0.051433516915814326,0.03893784421715186,-3.99477576711251,-2.4674130605822184,8.595987411487016,-0.05167191188040915,1.1450924468922108,-0.08659520062942563,253.50683516915814,-24.050865460267502,16.010267505900863,-0.57990114677262,-0.021796897568843426,0.24654425792918963,-0.7760228456239181
296.0,0.009644374508261217,-0.04968214004720693,0.04132100708103857,-4.061202989771832,-2.5221416207710465,8.550219512195122,-0.20334874114870183,0.5598151062155784,0.002738985051140834,253.4843036978757,-24.47208890637293,16.425624508261212,-0.5790298708111721,-0.021569506815106217,0.2513735218033045,-0.775198559007868
297.0,0.008268897899897116,-0.04634231071839255,0.04600023199983863,-4.084770128507738,-2.52617884161472,8.539930309265872,0.05031263239121224,-0.01229435231697229,0.03141410205975509,253.44100281930235,-24.621637641469466,16.47132879168432,-0.5785841592599104,-0.02205273195291412,0.2525637972551192,-0.7751796873313059
298.0,0.010254039823276646,-0.05075809477697757,0.04220153220762979,-4.068595921846315,-2.5412396961810817,8.542754297040489,0.0893233106881317,0.338753492606266,-0.0035346877584780797,253.40579350249146,-24.515313313260304,16.557409085063245,-0.5784002814041487,-0.02081772028408884,0.2523522856196918,-0.7754420904429937
299.0,0.01800605216970284,-0.0543306602917146,0.0424515725554278,-4.172043928665094,-2.5041117835744124,8.503905374326697,0.47649129244084,0.5315239237224878,0.2999715674110835,253.43107215447156,-25.184823995339826,16.39783256672517,-0.5779469561899775,-0.025729964416237962,0.2558268000921039,-0.7744869007497226
300.0,0.020416873449131512,-0.050530397022332516,0.04330603804797355,-4.233405913978496,-2.444234491315137,8.490985732009928,0.06954482009925556,0.32405267783291974,0.3931309449958643,253.40082325268818,-25.57899736352357,16.047844292803973,-0.5775280360682382,-0.03012076368176178,0.2566305139964847,-0.7743748715314309
301.0,0.008869727047146402,-0.05970471464019852,0.0470078577336642,-4.173182795698924,-2.440173697270471,8.522117866004965,0.15541253101736974,-0.3911238626964433,-0.018530293631100092,253.27624327956988,-25.186902915632754,15.970897952853598,-0.5771885041873448,-0.028060968651364763,0.25375795918775845,-0.7756538579028122
302.0,0.008298387096774188,-0.04424193548387097,0.04605645161290324,-4.112516129032258,-2.436645161290323,8.55266935483871,-0.19848790322580648,-0.7990927419354839,0.08291330645161289,253.08462701612902,-24.797530241935483,15.893094758064516,-0.576373045282258,-0.025883976072580642,0.2508859946129033,-0.7772634192177419
303.0,0.03402419354838709,-0.045354838709677436,0.047435483870967764,-4.061758064516129,-2.4547177419354833,8.572338709677418,0.04692540322580645,0.15438508064516127,0.0626008064516129,253.0435483870968,-24.47615927419355,15.967237903225804,-0.576392438782258,-0.023463193491935486,0.2492233765967742,-0.7778601364274194
304.0,0.03494354838709677,-0.03311290322580646,0.0498709677419355,-4.029274193548386,-2.4512580645161295,8.588887096774192,0.11945564516129031,0.2053931451612903,0.36028225806451614,253.11063508064515,-24.26547379032258,15.915927419354837,-0.5771154093790323,-0.022724520766129033,0.24762715967741936,-0.7778694394758066
305.0,0.02344913151364764,-0.03551716294458231,0.050032258064516145,-4.057245657568238,-2.4578732423490486,8.574526674937966,-0.0988019540942928,0.06630996691480563,0.16503566997518612,252.97304719809762,-24.439132289081886,15.981725599669147,-0.5759374334375518,-0.022995177564309348,0.24910256409780807,-0.7782669625682384
306.0,0.033417130666343886,-0.031889875728782116,0.04837155782848153,-4.060151743024875,-2.444526609372794,8.576460131332087,0.1554924385704775,-0.2114543300752486,0.11361170792229014,252.91783813976477,-24.456884815862736,15.900069379299563,-0.575594399475267,-0.023523655518877723,0.24880831602854603,-0.7786015510530019
307.0,0.027303168310839433,-0.041279615283745894,0.04635089471242109,-4.058596653150155,-2.420226910972584,8.583760152514678,0.20121021328854727,-0.1321416863362182,0.0753878432084569,252.87105073861687,-24.445865769180333,15.730182926829269,-0.5754061735124474,-0.02441710024568783,0.2479271999816014,-0.7789958641738334
308.0,0.029744326090903585,-0.05704706570638908,0.04419964090459765,-4.002903165284755,-2.395222326454033,8.61706556012831,0.07825127599911234,-0.473984149619722,0.1281677119268091,252.81110500640523,-24.09044800555791,15.518972511801731,-0.5755259328207397,-0.023571106219618106,0.2445658695230588,-0.7799914116312716
309.0,0.03192350057495612,-0.06920724646452421,0.053235933748915665,-3.9344000484173574,-2.3488666707014465,8.660754947648734,0.580151405112066,-0.22325596643063203,0.10859912445278298,252.63583439246304,-23.655601535233714,15.161949252557042,-0.5750354195485485,-0.023051935337287416,0.23999061546510925,-0.7817743559755491
310.0,0.05201815650910852,-0.051233674272226595,0.059045189533781184,-4.181868365308963,-2.3161547741532003,8.547849785147976,-0.0966238980007666,2.6297678488571483,-0.07450006556517177,253.1719867760092,-25.268867765135468,15.154731031491455,-0.5768683557291048,-0.03352238047009219,0.25012671044049706,-0.7766755912713792
311.0,0.03913889729468015,-0.06101180173092056,0.059864058181524744,-4.3177626641651035,-2.334473138453469,8.475577134902863,-0.2532145847202889,0.14484556880308253,-0.10817351822711775,253.95418772317376,-26.13951846163933,15.39798412314148,-0.580999548072263,-0.038781296455345074,0.2566605164075027,-0.7712146543689704
312.0,0.03711014948859167,-0.07275216365066878,0.053134736428009456,-4.318844413847366,-2.37533870967742,8.466434697088904,-0.26080595987411487,0.3602330841856806,0.07033954563335956,254.27060139653815,-26.141432680959873,15.654804287962236,-0.5829696738693942,-0.03783988725216365,0.25792976051003147,-0.7694420729600708
313.0,0.03673249409913455,-0.07276317859952794,0.054273013375295054,-4.343466561762394,-2.3857741935483876,8.451918961447678,-0.02904209284028325,0.3205399291896145,0.12748328088119593,254.43837529504327,-26.30299960660897,15.75351101494886,-0.5838678461927619,-0.03853364044059794,0.25938084025098346,-0.7682927831856805
314.0,0.038202596380802534,-0.0807765538945712,0.05310503540519277,-4.358729346970891,-2.3912891424075533,8.442907553107787,-0.1476642407553108,0.051639948859166035,0.13863345790715972,254.52832907159717,-26.395879228953582,15.809200432730133,-0.584324784421322,-0.038904955725413054,0.26026048567230525,-0.7676625382584579
315.0,0.04364575137686862,-0.09430094413847365,0.05157848151062157,-4.349513375295045,-2.3863377261998426,8.449989575137682,0.12792830448465775,0.029699793469708892,0.19189737411487018,254.52656127065302,-26.330802517702594,15.75903078284815,-0.584438627138277,-0.03884753911369,0.2596231266607002,-0.7677956871921714
316.0,0.04397206923682142,-0.08770692368214004,0.051140047206923694,-4.329055074744296,-2.371309992132179,8.465111723052715,-0.06451367033831629,-0.07494345003933911,0.10459284028324155,254.51040765145552,-26.19634883949646,15.638436762391818,-0.5845854400247836,-0.038759559000393386,0.25818552814083395,-0.7681743755275372
317.0,0.04484205350118019,-0.08241365066876474,0.05453147128245476,-4.301372541306058,-2.3904386309992134,8.47386191974823,-0.13203063532651457,-0.15499729543666405,0.13335955940204564,254.44646562745868,-26.016472020062942,15.74528545436664,-0.5842682444262393,-0.0368934117543273,0.2575870633387097,-0.7687040663082216
318.0,0.03480251770259639,-0.07490361919748231,0.051178009441384745,-4.32522797010228,-2.400830841856805,8.458251180173093,0.05435926435877261,0.2827743902439024,0.13845028520849723,254.42131072974036,-26.170483379228955,15.836736575531077,-0.583842451016719,-0.037186102685877256,0.2590300573280881,-0.7685307193558221
319.0,0.030611526357199055,-0.05931313926042488,0.05521046420141622,-4.341761014948859,-2.404414634146341,8.448585759244688,0.04339717741935484,-0.02439393194335171,0.11325113099921322,254.3803587234461,-26.278834333202205,15.880938975216363,-0.5834369715123917,-0.0374516199598741,0.2599332190082613,-0.7685236771608969
320.0,0.03238781494154026,-0.047279787934788584,0.053917497667099704,-4.283101719027317,-2.344459567635811,8.49419929372587,0.34735910540135034,-0.17928541777212598,0.31998769509450536,254.36068468336597,-25.901547347583847,15.429305173092054,-0.5840473795407983,-0.03801812433852669,0.2552548857848883,-0.769578836138963
321.0,0.02795089016156478,-0.05078751395165867,0.043885971492873224,-4.234948676193438,-2.3185530528973697,8.526156295171358,0.0858347208753408,-0.2524838526704847,0.17238074762593086,254.11169560682853,-25.58033639507438,15.208595594020455,-0.5828689273873346,-0.03697450283625785,0.25223821484346687,-0.7715159291929077
322.0,0.02382438292499954,-0.052791868698882055,0.047337163559182494,-4.215621466342196,-2.312925621649314,8.53801441823871,0.038904771924688504,-0.10752634805042725,0.169018855323587,253.92621562402795,-25.456385742777158,15.155851691581432,-0.5818257529462244,-0.03619743004047354,0.2512314914217334,-0.7726774299434247
323.0,0.02660377289444312,-0.05924172506541271,0.049087149836239546,-4.190822534902018,-2.3133219768356725,8.550254258686625,-0.061020666752053865,-0.12966305600790443,0.1362059264816204,253.8388995114632,-25.296318363127366,15.135582218725414,-0.5814409648657164,-0.0351811918345562,0.25014689408065427,-0.7733713375877627
324.0,0.02486915631346861,-0.07250599235174647,0.04359156862386329,-4.12782590159735,-2.3527971017144536,8.570110606920023,-0.33654888569703395,-0.3869646908678389,-0.18576702102354858,253.86548142370958,-24.89272055056447,15.348883752950432,-0.5819066892393098,-0.03156165365921358,0.24861993170043725,-0.7736622650236218
325.0,0.04103697875688435,-0.06906845003933912,0.04146420141620771,-4.201652635719906,-2.4571817466561767,8.501939024390245,-1.2310557631785997,0.6818130409126673,0.6374803304484657,253.300548288749,-25.372199547600317,16.122022521636506,-0.577012438548387,-0.028221417328481508,0.2556621828442171,-0.7750486457781274
326.0,0.02812903225806452,-0.08577419354838711,0.05114516129032258,-4.281750000000001,-2.5078387096774195,8.447427419354838,0.2075100806451613,0.2372479838709678,-0.07681451612903228,253.13765120967741,-25.894405241935484,16.532711693548386,-0.5750635457903226,-0.028331732104838706,0.26106729837096776,-0.7747225852580644
327.0,-0.25207258064516125,0.13013709677419358,0.17171774193548392,-4.0482499999999995,-4.361427419354839,7.179137096774193,-1.4879536290322581,37.965725806451616,-38.9539818548387,282.2952620967742,-24.44077620967742,31.271572580645163,-0.6678174418225806,-0.055753104741935476,0.3428375737258065,-0.5650726315887097
328.0,-0.10599193548387095,0.2847096774193548,0.27484677419354836,-4.211548387096774,-6.31508870967742,5.195395161290322,-9.161743951612904,6.499395161290325,-8.606905241935483,215.7109879032258,-25.507913306451613,50.11819556451613,-0.7465728757822581,-0.16661470460483874,0.42751514027419346,-0.27199953120161285
329.0,-0.4049838709677419,0.07004032258064519,0.279508064516129,-4.022129032258064,-4.691596774193548,6.702322580645161,2.9964213709677416,-29.842489919354836,18.693951612903227,242.80216733870967,-24.2515625,35.453881048387096,-0.7079863514112903,-0.10288701197580646,0.3451357439919354,-0.47456212177419355
330.0,-0.18553722084367244,-0.013033912324234904,0.14864143920595532,-3.622327543424317,-3.391138751033912,7.856536393713813,0.6923891129032256,-11.90377248759305,9.940102874276262,250.8970921215881,-21.73130428039702,24.256054849048798,-0.6656087969940033,-0.06285984845430108,0.2722343712224979,-0.6151427486954094
331.0,-0.08143717847848453,-0.04995480037926929,0.08959215941414995,-3.6854452429946134,-2.8364976800016137,8.308190305432829,-0.6338021243115658,-5.105053656267021,5.31363547529706,253.89499447739513,-22.10419216773588,19.428501337781675,-0.6354262027256602,-0.0456864863891293,0.25044673786262583,-0.6885318549015009
332.0,-0.02435548931792047,-0.07416445762472512,0.05417658718150456,-3.6466184712219327,-2.4582279902761806,8.617744542960317,0.8524377950432731,-4.016144919203534,3.801248795870402,254.52906686890998,-21.841435801609876,16.211946257993905,-0.6184889439496711,-0.035560326989509575,0.23201742241715084,-0.732461876950357
333.0,0.002664997276523638,-0.08960917609796445,0.03563363190703868,-3.6223696211341756,-2.1939476890798684,8.824510056688656,0.35496656176239194,-1.536075754251649,1.582911352105146,257.39503230345576,-21.684769336682198,13.976706680334482,-0.6091943001442889,-0.02933353650872017,0.22022001646929534,-0.7604547623655209
334.0,0.029352659928584404,-0.08056668482317578,0.02729262240513225,-3.582535617018701,-2.172731909056063,8.857077608989492,-0.1461054287962234,0.1567353083580464,0.05851716798805704,256.9129395388246,-21.427969345760452,13.776634590167241,-0.606952220721338,-0.02751644078258589,0.21760079401690574,-0.7638318620940509
335.0,0.030483084185680572,-0.08960660896931551,0.0334901652242329,-3.7203194335169156,-2.1948198269079464,8.793957513768685,-0.197118410700236,1.2255507474429583,0.13510031471282452,256.92274783634934,-22.30479937057435,14.008605428796223,-0.6059603154382377,-0.031182732151062154,0.22436075914870177,-0.7625059167505901
336.0,0.036154209284028335,-0.08720298977183319,0.034994492525570436,-3.7932871754523996,-2.206402832415421,8.760169158143198,-0.1442663257277734,0.31340479937057436,0.0973249409913454,256.86986132966166,-22.761934500393387,14.131933516915813,-0.6050588494028326,-0.03301378183870968,0.22796375903540517,-0.7620928128992919
337.0,0.034693941778127464,-0.08440401258851296,0.04060110149488593,-3.832867033831629,-2.2269071597167573,8.73809402045634,-0.01742722265932338,0.1749213217938631,0.08709185680566484,256.865497147915,-23.01250737608182,14.28867525570417,-0.6047195025141621,-0.03348892697757671,0.230366077790716,-0.7616357567289537
338.0,0.049215578284815105,-0.07778422501966954,0.04590637293469711,-3.8190495672698668,-2.2294409913453963,8.743995869394176,0.0442220692368214,-0.3328776553894571,0.08691728953579858,256.8558406274587,-22.92204342053501,14.298325629425648,-0.6047798991485053,-0.03292579104976396,0.22980881537057438,-0.7617899359175846
339.0,0.05202202989771834,-0.07609756097560977,0.04530291109362709,-3.796530291109363,-2.231919748229739,8.752383949645946,-0.11600118017309206,-0.04892800944138476,0.14776750590086546,256.77557041699447,-22.78422501966955,14.301927616050353,-0.6043185432494101,-0.03190803593233675,0.228983256664044,-0.7624518911565699
340.0,0.05720467573339328,-0.08143643924918512,0.045985163538271354,-3.744544228391594,-2.225943201828331,8.776438125210742,0.12872316511183546,-0.5947767974223521,0.1114490839608857,256.7197299651568,-22.45482793825634,14.232873440485557,-0.6043502757641153,-0.03033365986250047,0.22652331167996703,-0.7632222594571205
341.0,0.051292345734517256,-0.07122018657974598,0.04292255816567385,-3.6491887152972917,-2.230064441197407,8.81597594694841,-0.050213555130943,-0.6299857629912704,0.09076093065078117,256.5991303248286,-21.853225338128958,14.186302967292345,-0.6042115857435839,-0.026814249551234494,0.22250562979671046,-0.7646326425381591
342.0,0.054576149263796794,-0.07117657637405866,0.044769697650893586,-3.5995589524558844,-2.23782923082687,8.8347110261886,-0.006666573002135544,-0.09970963995354232,0.12214089018770372,256.5012518264583,-21.53885204750665,14.206571035180398,-0.603903990979581,-0.02470672123509797,0.22063864401715938,-0.7654958734760035
343.0,0.06177666629200856,-0.07068663594470045,0.04586635944700464,-3.5925332134427324,-2.229028698812334,8.839888951331908,-0.14785531639878613,0.3943574144842831,0.21704998876025625,256.4485999494211,-21.48987252257315,14.147517421602787,-0.6035914589280281,-0.024667311372859768,0.2200655514381627,-0.765913849967742
344.0,0.05102882994267732,-0.07481935858529092,0.0518371173803904,-4.04395590273875,-2.2568750702483986,8.61616024127983,-0.5180673026488329,4.020802541118729,0.8149569377318198,256.21378261867295,-24.40957157843468,14.688134811359635,-0.598345793204226,-0.0380392620859653,0.24136584993023869,-0.7624745211222697
345.0,0.044136534787006874,-0.0743267299838897,0.05716971076392793,-4.406088550447716,-2.2752155689183624,8.43300638792102,-0.1356897573151999,1.9850748496684272,0.4465049665617624,256.0153734521936,-26.742612210108277,15.106725815818066,-0.5940700019531114,-0.04875544870350493,0.2582146333998352,-0.7597397545288767
346.0,0.04520939642576151,-0.07436094563710614,0.06433082312389944,-4.594471694578698,-2.289063429620471,8.33657577460567,-0.07951322543179348,0.9661009328987298,0.2737313139260425,255.92237926641937,-27.959814169570265,15.358302424038065,-0.5918824782588139,-0.05420828734772021,0.2671239746515305,-0.758236040115245
347.0,0.05114128357873442,-0.0702685924094264,0.06943134389869243,-4.660087932261812,-2.288862950058072,8.305778052527067,0.37657403244539356,-1.0563378104979209,-0.09058811959087332,255.88914990071558,-28.370642726012512,15.403949599115807,-0.5912048347509647,-0.05628291023168859,0.26996466083874715,-0.7577791207971976
348.0,0.04447701472406431,-0.06874562586639693,0.06341354763778052,-4.5715231164062775,-2.2716698699936306,8.362121913753693,0.07238418380727586,0.18927798696189724,0.10006392604248623,255.98438120527516,-27.78846357386385,15.194549543853732,-0.5927232150466075,-0.05425967587115507,0.2652917649709078,-0.7584535107605184
349.0,0.038743115656963034,-0.06135975609756099,0.06291030684500394,-4.535816089693155,-2.2737204956726993,8.382415027537366,-0.06108133359559403,-0.07738001573564122,0.1214029307631786,255.99377950432728,-27.550981018882766,15.174703727380015,-0.5931715308497247,-0.05300978953619197,0.26368869101003156,-0.7587877117612117
350.0,0.04921026750590088,-0.055546813532651465,0.06632612116443745,-4.508573367427223,-2.2698400865460275,8.398126868607395,0.13720126868607396,-0.017218233674272224,0.13686073957513767,255.99537765538946,-27.36969413847364,15.12391940401259,-0.5934289919893785,-0.05224799810680565,0.2622731031945319,-0.7591476081064124
351.0,0.029901652242328877,-0.05238630999213219,0.06060188827694728,-4.47793154996066,-2.2554508261211645,8.418705743509047,0.03996852871754525,0.03975708103855232,0.1651652242328875,255.97414437450826,-27.1647128245476,14.995426829268293,-0.5936161488780487,-0.05177064893705742,0.2603608887206924,-0.7596906967151849
352.0,0.014407946498819829,-0.0723300550747443,0.04522619984264359,-4.457085365853658,-2.24633280881196,8.432102675059006,-0.025304878048780483,0.03866296223446106,0.1132179386309992,255.9812450826121,-27.030650078678207,14.913970298977183,-0.5938567684437449,-0.051450507611723054,0.25914081437608183,-0.759945194345004
353.0,0.018498604398486385,-0.08202243265520212,0.03877397811996554,-4.418928580795024,-2.2275890562361855,8.457198915364728,-0.14099509197856952,-0.05727322646210333,0.02963943838747143,256.01835777977595,-26.783699678730656,14.75183641021318,-0.5945334221121725,-0.051050698966777185,0.2567471148434304,-0.7602529079716478
354.0,0.01790262635345248,-0.08167024465175525,0.03525156419766964,-4.398925639728747,-2.260027415608257,8.458767534000225,-0.18975772498220372,0.04695900537634407,0.14171537222284666,255.88009622859767,-26.656332776029373,14.950502685830429,-0.5936467840948352,-0.048746260745878754,0.25702904613060584,-0.7610069467561817
355.0,0.017441085009928442,-0.07564609793563373,0.03979356337342177,-4.428361620021731,-2.2899913828631364,8.435402944812862,-0.19151352515829306,0.18492656700760557,0.18645564047806376,255.80878151811473,-26.843168109100446,15.182362500468322,-0.5927207439001908,-0.04827208858566559,0.2594574953422502,-0.7609332831167807
356.0,0.021875538571053916,-0.07553744707953991,0.04380315462140798,-4.443606459106066,-2.299692780337942,8.424711700573228,0.0522811996553145,-0.20484198793600833,0.07520559364579821,255.78561125473004,-26.944056517178073,15.2644945861901,-0.5924465012419913,-0.04836224700723091,0.26049690611329657,-0.7607883936000898
357.0,0.02813026862987525,-0.06762991270465699,0.04683582480986102,-4.321674909145406,-2.3174236634071406,8.481990745944326,-0.1310694616162752,-1.8634160391143082,-0.006913613202952307,255.67492553669777,-26.148747471057657,15.27290566108426,-0.5926434625649093,-0.04336013602075606,0.2555738207940879,-0.7625597148070511
358.0,0.04403094676108052,-0.07275710913791167,0.04818702933573117,-4.257003109662433,-2.3141879285152296,8.515854033194707,0.11325915102468997,0.3028595781349519,0.07513066202090592,255.68234142594883,-25.733447135738636,15.201107114757782,-0.5932349942430031,-0.04137517267281106,0.2525781825862651,-0.7632188338795848
359.0,0.04163613202952307,-0.06371323667153724,0.04421153197707094,-4.013696377055937,-2.3129995129444376,8.629886103930161,0.06660953130268629,-1.1004973586602227,-0.1638801468659848,255.69466533663032,-24.171930613315347,15.001369843767561,-0.5951408866011014,-0.0334547251185793,0.24165141448915367,-0.7655363869645198
360.0,0.042587538870780414,-0.06222719268667343,0.04382960548499496,-3.959577535498857,-2.324527293844367,8.655137387134241,0.06357620546251545,-0.31418455659210986,0.07404930500917911,255.76030965493987,-23.8232784459181,15.028846802292907,-0.5959913276538158,-0.03135185659233449,0.23959301871979322,-0.7656944997332434
361.0,0.04952193623318722,-0.06681304559589377,0.04797853208946838,-3.960389082462253,-2.318855307032332,8.657268142819674,0.015900022479487463,0.08037821737664375,0.018943417256753213,255.75969849387434,-23.827055233973994,14.98486989996628,-0.5960113064138473,-0.031639363778464644,0.23940131399168257,-0.7657679188831441
362.0,0.05390075306283018,-0.07862080851223259,0.04706530291109365,-3.979172267805626,-2.32000599452999,8.648630999213214,-0.15968631748529466,0.1210550841107489,0.14793657037952868,255.7173108444794,-23.9441199748979,15.016340479937057,-0.5955885725433292,-0.03206301153669776,0.2403153843691132,-0.7658115972418795
363.0,0.05451843317972351,-0.08953149001536098,0.04712903225806454,-3.9740007680491534,-2.3034254992319507,8.655483870967739,0.13485983102918586,-0.20138728878648235,0.16024385560675883,255.67718413978494,-23.907435675883256,14.899092741935483,-0.5954620036036867,-0.032529164304147457,0.23951756814285713,-0.7661474564447006
364.0,0.05785061443932411,-0.10162826420890936,0.0458993855606759,-3.945541090629799,-2.295264976958525,8.670295698924729,-0.041057027649769595,-0.05703485023041475,0.12162058371735791,255.65282018049152,-23.726063268049153,14.825842453917051,-0.5955082855729648,-0.03186314323502304,0.23799299945929336,-0.766619939109447
365.0,0.05454578322280918,-0.08583340826495821,0.0452850586339965,-3.9600432636469214,-2.3143061706193095,8.658785929714135,-0.3180022057997078,1.884482304428459,0.5963396486643437,255.5971571644,-23.817782445393576,14.955897353040351,-0.5949344597768442,-0.03149030738521411,0.23932322380419435,-0.7666407358327527
366.0,0.037707392004795615,-0.08506796298377729,0.05226802105578661,-4.500050447716458,-2.367871810722715,8.348463873590347,-0.8604578790603575,4.971301070585591,0.9328958028923607,255.2107995204376,-27.398591753774678,15.865408108070136,-0.5873484842071672,-0.046305096312886374,0.2662980563176165,-0.7620590261116951
367.0,0.043861760518526846,-0.0893484976209209,0.06977513956015136,-4.991371998051777,-2.415653647296841,8.04680048518227,-0.22241643953017873,1.9098440836798922,0.4258733046719868,254.88811145376718,-30.685535796242178,16.739080062099582,-0.5803579213858417,-0.059837950104023825,0.29100440060235666,-0.7573386922614926
368.0,0.03576831141583306,-0.08485924094263984,0.07591933610580345,-5.180007006106928,-2.41140373159492,7.943412536060843,0.03140033157244011,0.5732325502978531,0.2502903600464576,254.8110102656326,-31.938124039938554,16.89649530740699,-0.5781939652596008,-0.06611704757895918,0.2995597889378817,-0.755570039961785
369.0,0.0383479392362162,-0.08125332364986182,0.07482632290342754,-5.206260445036212,-2.408304666222841,7.938000726260363,-0.009038032843107602,0.06562859347576105,0.129831018378422,254.7398280679457,-32.0884770471464,16.876111960096026,-0.5776418133151365,-0.06685467653200589,0.3005382539428272,-0.7558280702727511
370.0,0.0312550081704291,-0.08311446670297967,0.07179003005910953,-5.229631402691199,-2.419548871270351,7.924354415057799,0.03862122748088523,0.06070080342552807,0.07383073342209849,254.70942524561724,-32.231345132542515,16.980227498537392,-0.5772297447362464,-0.06704041150990539,0.3019890803569368,-0.7556912457429845
371.0,0.026886355383404954,-0.07723622627045129,0.07236236357400797,-5.2167700679860385,-2.420580100466017,7.932349512800338,0.08720990563658737,-0.2481999523391636,0.08322732579838205,254.7530407109282,-32.14697665753798,16.96563007499647,-0.5776459715679657,-0.0666694747329228,0.3013559689589562,-0.7556757766700759
372.0,0.01121333898202506,-0.07956166152232243,0.06679408501281045,-5.161473743670438,-2.4228868244265573,7.967771530593716,0.24131160604410015,-2.8625828390728074,-0.2951554903266154,254.7491010006254,-31.75390667554318,16.898414835885333,-0.5781930486630152,-0.06468901401565494,0.2986608457778652,-0.7564652971898764
