time,linaccel_x,linaccel_y,linaccel_z,gravity_x,gravity_y,gravity_z,gyro_x,gyro_y,gyro_z,euler_x,euler_y,euler_z,quaternion_w,quaternion_y,quaternion_x,quaternion_z
0.0,0.03153846153846156,0.06784615384615379,-0.02076923076923078,-0.08999999999999993,-9.76999999999999,-0.7899999999999994,-0.05096153846153846,-0.07788461538461539,-0.006730769230769231,359.3125,-0.5625,94.625,0.6779174799999999,0.0029296900000000035,-0.7351684599999994,0.004028320000000001
1.0,0.031658653846153864,0.06959455128205123,-0.020881410256410264,-0.08999999999999993,-9.769999999999989,-0.7899999999999993,-0.08729967948717948,-0.0031750801282051273,-0.015915464743589743,359.3125,-0.5625,94.625,0.6779174799999999,0.002929690000000003,-0.7351684599999994,0.004028320000000001
2.0,0.02742080835830837,0.06558381202131199,-0.028083374958374974,-0.08999999999999993,-9.76999999999999,-0.7851515151515154,-0.0525656635031635,0.20102020375457877,-0.004115285755910756,359.3996212121212,-0.536525974025974,94.59415584415585,0.678064916450216,0.0034723990909090938,-0.7350130974891771,0.0034417495238095253
3.0,0.028057915695415714,0.06646218919968917,-0.02803890831390833,-0.08999999999999993,-9.769999999999989,-0.7770707070707077,0.012392433954933956,-0.003626469017094,-0.024484569250194252,359.4864898989899,-0.5170454545454546,94.54393939393938,0.6782466996767672,0.003964202242424245,-0.7348355414949492,0.0029082351111111137
4.0,0.028186832656590735,0.0667000667343409,-0.0334183303255884,-0.08999999999999991,-9.76999999999999,-0.7734213098729236,0.05363901891119633,-0.012672857216708014,-0.002418091820813595,359.52572091886606,-0.5082478005865103,94.52126099706746,0.6783287953274677,0.004186306891495604,-0.7347553549169109,0.002667293118279572
5.0,0.028181505658320193,0.06749767604707119,-0.0353257904729679,-0.08999999999999991,-9.76999999999999,-0.771388074291301,0.03822614717271975,-0.012640709005376342,-0.007652904471200841,359.5481427174975,-0.5031158357771262,94.50861436950146,0.6783751531476044,0.004314044897360706,-0.7347098919745845,0.002528756236559142
6.0,0.02850719978945787,0.06747080607564476,-0.03225323332581398,-0.08999999999999991,-9.76999999999999,-0.7703714565004897,-0.034768944093540866,-0.02473764474772539,-0.020369130197759232,359.55935361681327,-0.500549853372434,94.50229105571847,0.6783983320576729,0.004377913900293257,-0.7346871605034213,0.0024594877956989275
7.0,0.02807599255583128,0.06853753101736973,-0.03289671215880894,-0.08999999999999991,-9.76999999999999,-0.7700000000000009,-0.028371200372208437,-0.003689128411910667,0.013560406327543423,359.5625,-0.5,94.5,0.6784057599999993,0.004394530000000002,-0.7346801799999999,0.0024414100000000024
8.0,0.03059258684863525,0.06657149503722083,-0.0332548076923077,-0.08999999999999991,-9.76999999999999,-0.7700000000000009,-0.02286270936724566,0.028319827853598014,0.0074625852977667495,359.5625,-0.5,94.5,0.6784057599999993,0.004394530000000002,-0.7346801799999999,0.0024414100000000024
9.0,0.029926566377171233,0.06547681451612902,-0.030696882754342444,-0.08999999999999991,-9.76999999999999,-0.7700000000000009,-0.0541112554280397,0.0169824945719603,-0.010459154001240695,359.5625,-0.5,94.5,0.6784057599999993,0.004394530000000002,-0.7346801799999999,0.0024414100000000024
10.0,0.029196960297766764,0.06633684863523572,-0.03119292803970225,-0.08999999999999991,-9.76999999999999,-0.7700000000000009,-0.03086034429280397,0.00525356699751861,-0.009491315136476428,359.5625,-0.5,94.5,0.6784057599999993,0.004394530000000002,-0.7346801799999999,0.0024414100000000024
11.0,0.02897068858560796,0.06562748138957816,-0.031500930521091826,-0.08999999999999991,-9.76999999999999,-0.7700000000000009,-0.004116586538461538,0.013769773573200991,0.010398573200992555,359.5625,-0.5,94.5,0.6784057599999993,0.004394530000000002,-0.7346801799999999,0.0024414100000000024
12.0,0.028333979528535995,0.06544153225806451,-0.031963864764268005,-0.08999999999999991,-9.76999999999999,-0.7700000000000009,-0.01807876473325062,0.005938857009925558,0.004454869727047146,359.5625,-0.5,94.5,0.6784057599999993,0.004394530000000002,-0.7346801799999999,0.0024414100000000024
13.0,0.02734491315136478,0.06538709677419352,-0.03270068238213401,-0.08999999999999991,-9.76999999999999,-0.7700000000000009,-0.018379730148883375,-0.006953706575682381,-0.003316919975186105,359.5625,-0.5,94.5,0.6784057599999993,0.004394530000000002,-0.7346801799999999,0.0024414100000000024
14.0,0.02876426799007446,0.06579776674937964,-0.02970766129032259,-0.08999999999999991,-9.76999999999999,-0.7700000000000009,-0.028746316687344915,0.01381533033498759,0.01614551023573201,359.5625,-0.5,94.5,0.6784057599999993,0.004394530000000002,-0.7346801799999999,0.0024414100000000024
15.0,0.028136476426799024,0.06579962779156326,-0.0258538306451613,-0.08999999999999991,-9.76999999999999,-0.7700000000000009,-0.023693877946650125,0.02140828551488834,0.022604392834987594,359.5625,-0.5,94.5,0.6784057599999993,0.004394530000000002,-0.7346801799999999,0.0024414100000000024
16.0,0.028135545905707215,0.06670998759305208,-0.02480241935483872,-0.08999999999999991,-9.76999999999999,-0.7700000000000009,0.005719796836228287,-0.02039585918114144,0.0009198588709677415,359.5625,-0.5,94.5,0.6784057599999993,0.004394530000000002,-0.7346801799999999,0.0024414100000000024
17.0,0.029750155086848654,0.06601008064516126,-0.02340989454094294,-0.08999999999999991,-9.76999999999999,-0.7700000000000009,-0.009229121433002481,-0.007158227357320101,0.00045992943548387073,359.5625,-0.5,94.5,0.6784057599999993,0.004394530000000002,-0.7346801799999999,0.0024414100000000024
18.0,0.029057071960297783,0.0659367245657568,-0.019820719602977675,-0.08999999999999991,-9.76999999999999,-0.7700000000000009,-0.021188740694789085,-0.01818393300248139,-0.0015818858560794043,359.5625,-0.5,94.5,0.6784057599999993,0.004394530000000002,-0.7346801799999999,0.0024414100000000024
19.0,0.029287841191067015,0.06501302729528535,-0.019165942928039713,-0.08999999999999991,-9.76999999999999,-0.7700000000000009,-0.01540206265508685,-0.005664547146401985,0.0036290322580645163,359.5625,-0.5,94.5,0.6784057599999993,0.004394530000000002,-0.7346801799999999,0.0024414100000000024
20.0,0.03049007444168736,0.06620254342431758,-0.01938446029776676,-0.08999999999999991,-9.76999999999999,-0.7700000000000009,0.0021702465880893296,-0.005298154466501241,0.018501861042183623,359.5625,-0.5,94.5,0.6784057599999993,0.004394530000000002,-0.7346801799999999,0.0024414100000000024
21.0,0.03011600496277917,0.06671169354838707,-0.020739376550868497,-0.08999999999999991,-9.76999999999999,-0.7700000000000009,0.004993311879652605,0.016178466191066998,-0.00681606699751861,359.5625,-0.5,94.5,0.6784057599999993,0.004394530000000002,-0.7346801799999999,0.0024414100000000024
22.0,0.03084429280397024,0.06673790322580644,-0.02017059553349877,-0.08999999999999991,-9.76999999999999,-0.7700000000000009,-0.012230536600496278,0.0014423076923076924,0.0006242245657568238,359.5625,-0.5,94.5,0.6784057599999993,0.004394530000000002,-0.7346801799999999,0.0024414100000000024
23.0,0.030370037220843686,0.06533917493796525,-0.01839050868486353,-0.08999999999999991,-9.76999999999999,-0.7700000000000009,-0.0026103055210918115,-0.006257754342431762,-0.016003024193548387,359.5625,-0.5,94.5,0.6784057599999993,0.004394530000000002,-0.7346801799999999,0.0024414100000000024
24.0,0.029789236972704733,0.06607033188585607,-0.01768284739454095,-0.08999999999999991,-9.76999999999999,-0.7700000000000009,0.019530765353598014,-0.0037569789081885853,0.006460336538461538,359.5625,-0.5,94.5,0.6784057599999993,0.004394530000000002,-0.7346801799999999,0.0024414100000000024
25.0,0.029551799007444188,0.06418718982630273,-0.01717897022332507,-0.08999999999999991,-9.76999999999999,-0.7700000000000009,0.012443781017369726,-0.010748487903225806,-0.023608095533498758,359.5625,-0.5,94.5,0.6784057599999993,0.004394530000000002,-0.7346801799999999,0.0024414100000000024
26.0,0.030892524813895796,0.06539136166253101,-0.015219758064516135,-0.08999999999999991,-9.76999999999999,-0.7700000000000009,-0.002850690136476427,-0.028761340725806453,-0.006825759925558312,359.5625,-0.5,94.5,0.6784057599999993,0.004394530000000002,-0.7346801799999999,0.0024414100000000024
27.0,0.02915058933002483,0.06496944789081883,-0.016344447890818865,-0.08999999999999991,-9.76999999999999,-0.7723821339950379,0.010957855148883375,-0.014672185173697273,0.019786174007444167,359.5625,-0.5,94.51488833746899,0.6784057599999993,0.004394530000000002,-0.7346801799999999,0.0024414100000000024
28.0,0.030384227667493813,0.0643556916873449,-0.015646169354838715,-0.08999999999999991,-9.76999999999999,-0.7763523573200999,-0.07576331808312654,0.010033634460297765,0.0038524542493796523,359.5625,-0.5,94.53970223325061,0.6784057599999993,0.004394530000000002,-0.7346801799999999,0.0024414100000000024
29.0,0.031221332431009864,0.06480652680652679,-0.014586510263929623,-0.08999999999999991,-9.76999999999999,-0.7783374689826309,0.0015507509963155128,0.004543809684938716,0.011244618956312505,359.5625,-0.5,94.55210918114145,0.6784057599999993,0.004394530000000002,-0.7346801799999998,0.0024414100000000024
30.0,0.03046178284081511,0.06593676216256861,-0.015280848184073997,-0.08999999999999991,-9.76999999999999,-0.7793300248138965,-0.040508743608541994,-0.002907995901947515,0.0029703243664937215,359.5625,-0.5,94.55831265508684,0.6784057599999993,0.004394530000000002,-0.7346801799999999,0.0024414100000000024
31.0,0.029481511767802105,0.06476738852545304,-0.016077148657793826,-0.08999999999999991,-9.76999999999999,-0.7798263027295291,0.0018610128111136194,-0.005207099687946462,-0.013046475533874727,359.5625,-0.5,94.56141439205956,0.6784057599999993,0.004394530000000002,-0.7346801799999999,0.0024414100000000024
32.0,0.02899844443191219,0.06473349499962402,-0.016201443717572758,-0.08999999999999991,-9.76999999999999,-0.7800000000000007,0.018642364439995486,-0.0030767997123843896,0.015719506048387098,359.5625,-0.5,94.5625,0.6784057599999993,0.004394530000000002,-0.7346801799999998,0.0024414100000000024
33.0,0.02963282953605536,0.0658794646214001,-0.013734716896007224,-0.08999999999999991,-9.76999999999999,-0.7800000000000007,-0.02337863749154071,0.0018962891946762914,0.011042183622828784,359.5625,-0.5,94.5625,0.6784057599999993,0.004394530000000002,-0.7346801799999999,0.0024414100000000024
34.0,0.02922881419655615,0.06650680502293405,-0.015620121813670208,-0.08999999999999991,-9.76999999999999,-0.7800000000000007,-0.01294176253853673,0.01237781036168133,0.017622565606436574,359.5625,-0.5,94.5625,0.6784057599999993,0.004394530000000002,-0.7346801799999999,0.0024414100000000024
35.0,0.02914294307842697,0.06520625610948191,-0.016604105571847515,-0.08999999999999991,-9.76999999999999,-0.7800000000000007,0.05039946612527258,0.01578878111136176,0.008919843597262953,359.5625,-0.5,94.5625,0.6784057599999993,0.004394530000000002,-0.7346801799999999,0.0024414100000000024
36.0,0.03346477178735244,0.06307488400277772,-0.0026425870145035234,-0.09311195445920294,-9.76999999999999,-0.7839468690702094,-0.18421130182278192,-0.09443282444942785,0.14153206455151426,359.3736954459203,-0.5232447817836812,94.58479601518026,0.6781560611005693,0.003474486660341557,-0.7349011551802658,0.0035235957305502852
37.0,0.029958192345289125,0.060445066634819945,0.012862479708779526,-0.0956224483928468,-9.76999999999999,-0.8129411764705892,-0.11124360301305274,-0.044268587200276,0.1296767116501462,359.321958915531,-0.5438804554079696,94.73493833017078,0.6771153363567365,0.0033316734523604185,-0.7358617333965842,0.0037905752015410295
38.0,0.03370614331904655,0.0605078931188988,0.035676897422627966,-0.09749608771999654,-9.76999999999999,-0.8274383301707791,-0.10960753351645192,0.041265210121946366,0.1510976610359912,359.313197199701,-0.5541982922201139,94.81000948766604,0.67659497398482,0.0035233651107955933,-0.7363420225047436,0.0037838311714901212
39.0,0.03341112506495271,0.06175752050115525,0.04631335704804226,-0.09890933418257886,-9.76999999999999,-0.8346869070208741,-0.023990093190580316,0.03712713304141835,0.07419818609741857,359.3088163417859,-0.5593572106261859,94.84754506641366,0.6763347927988619,0.003643928200559086,-0.7365821670588231,0.003774158650261193
40.0,0.033932432436765615,0.060814244121545354,0.04547744736091899,-0.09961595741387003,-9.764920634920628,-0.8383111954459216,-0.024996740242145092,0.014684672117621221,-0.004887594099268186,359.30662591282845,-0.561936669829222,94.89601075645311,0.6761141990620019,0.0037042097454408323,-0.7367917473338147,0.0037693223896467292
41.0,0.03201174171265961,0.060224025409000626,0.040551587119279364,-0.09987202045266551,-9.762299027137729,-0.8400000000000012,0.004950518903840227,-0.028997720255078106,-0.032727814923172685,359.3114308406647,-0.5625,94.92210701484895,0.676007705202254,0.003763101872246032,-0.7368946323860721,0.0037330859552598002
42.0,0.0315536295492498,0.061864212117990036,0.04237024033150581,-0.09997022332506193,-9.760988223246283,-0.8400000000000012,0.007151922394712088,0.004866742907418819,-0.022323561606724357,359.3125,-0.5625,94.93081157194061,0.6759830793753211,0.0037826351712158795,-0.7369195095801325,0.0037235337816377235
43.0,0.031122394567965894,0.06068859655934685,0.03814886224937944,-0.0999999999999999,-9.760332821300558,-0.8400000000000013,-0.006257702370659954,-0.008218085899721946,-0.03360030159888827,359.3125,-0.5625,94.93516385048643,0.6759707664618546,0.0037841799999999985,-0.7369319481771628,0.0037231400000000067
44.0,0.030278446813461663,0.060684751439096254,0.03766549340857819,-0.09999999999999988,-9.760005120327694,-0.8400000000000014,0.00910470245409752,0.0031844930358993747,-0.014815025108252002,359.3125,-0.5625,94.93733998975935,0.6759646100051215,0.0037841799999999985,-0.7369381674756779,0.0037231400000000067
45.0,0.029183002208574157,0.05985850475180619,0.038466643273669526,-0.0999999999999999,-9.759999999999994,-0.8400000000000013,0.036154373756490644,0.07176473755737621,0.009529571419248295,359.320060483871,-0.5625,94.93699596774194,0.6759648521774204,0.003815189838709676,-0.7369379877419349,0.003688685000000005
46.0,0.028313651261799945,0.06764103946982636,0.04886142022135717,-0.07949624392399461,-9.769544851966405,-0.7466018559434385,0.5082350828342272,0.9354830629756576,0.006461523554049903,280.8279903612461,-0.4507015024304021,94.37648793084401,0.67945614885495,0.0048673013577110015,-0.7336736741184263,0.0012949312538665515
47.0,0.03604741648786976,0.06224017746624741,0.0195103997178557,-0.09156547770938486,-9.775095006628355,-0.684259583128466,0.2462657712981922,-0.04036309988463538,0.02789307255928121,202.9166786199688,-0.5275003423101579,94.00638060785727,0.6817660257314277,0.008245744822426605,-0.7314734779860647,-0.0010138632735664974
48.0,0.0035468987430522098,0.07195168344772274,0.008766594498632551,-0.07800496107691465,-9.777296607256822,-0.6789039851126203,0.015071044318116608,0.3152147213891968,-0.010974222828046762,96.52991189062955,-0.4536023216927134,93.96835607453795,0.6819410118621295,0.012436123271428354,-0.731218098204502,-0.005820818697715149
49.0,-0.010624943920779045,0.06807175542699906,0.00028546981550519766,-0.06799384809865722,-9.774536536249942,-0.702387022088341,-0.08965106141865431,2.6535011004547626,0.08213920857826662,44.43778931650969,-0.39355774876094096,94.10808478420219,0.6808481284390155,0.021356971081420678,-0.7317688786888024,-0.014769961747767159
50.0,0.01659697024391155,0.06949902735507657,-0.0012808762033585121,-0.05704351903140743,-9.772429558447545,-0.7158530092520553,-0.026984888908251885,2.872948256880607,0.14362791802121216,19.283510543671515,-0.32883532599337373,94.17872212160378,0.6800548312045549,0.03104816411765926,-0.7318659082041679,-0.024518922470545764
51.0,-0.013364253622090972,0.06644416679287192,-0.011476349134231921,-0.06468221515472762,-9.771077792922398,-0.7369025442980461,-0.2420821974859912,-0.3563847241153011,-0.004378533747286584,10.138309133474682,-0.37792480690595187,94.30188929274573,0.6788057278299005,0.04309282983366146,-0.7319074812717703,-0.0350800675695391
52.0,-0.026500391236306726,0.06857646776717652,-0.020581427633903793,-0.0631657327477409,-9.770377606138613,-0.7660523625624718,-0.004034624413145532,1.2561130672926448,0.03838887942349437,6.798084598541068,-0.3723307587460245,94.47600995759504,0.6774610650417108,0.048915607949543125,-0.7326171308925868,-0.04043544089063052
53.0,0.007679990972611964,0.06691012403749928,-0.028645394398862076,-0.07826745418749048,-9.770045433893674,-0.7628186385867384,0.12613371298845147,0.032669252389733616,-0.061601437106722126,6.975840508473569,-0.45698882972089333,94.45636295370791,0.6775685998565342,0.05113033136961661,-0.7324302319771019,-0.04149436606491255
54.0,0.013244811479036563,0.06556660222774555,-0.03453623649974907,-0.08462895653490832,-9.76999999999999,-0.7514990512333966,0.06659508230067734,-0.10400839970245254,-0.034044982524283375,6.942543152919201,-0.4810642694719869,94.385127183351,0.677974708156345,0.051267355964226775,-0.7321039534510683,-0.04129726215103874
55.0,0.013826706814787103,0.0664840179597509,-0.036598315382491024,-0.08799548185168352,-9.76999999999999,-0.7458660130718955,0.04026998738689781,-0.10240742565767788,-0.04594834251662197,6.898018888287558,-0.4941863686069612,94.34948563468626,0.6781780926736023,0.05117336079797362,-0.7319527871511617,-0.041032375110017574
56.0,0.015237726167250183,0.06640733156052062,-0.04234485661597669,-0.08928895956383454,-9.76999999999999,-0.7467255692599619,-0.10324090236389877,0.02360307480556966,-0.03722708344469092,6.845164798086431,-0.49831126226046984,94.35567639709222,0.6781824216078588,0.05090037999128074,-0.7319928348659034,-0.04071399636101233
57.0,0.01298660226553965,0.06600948407222125,-0.0543310476683342,-0.09008064516129025,-9.76999999999999,-0.7541301355586224,0.14414412896756942,-0.4900029109884423,-0.141117689286125,6.711435692312115,-0.5046072681271923,94.40928946725319,0.6779968385155757,0.05014350662947073,-0.7322648457176845,-0.0399191375544822
58.0,0.01374228459712331,0.06718873498813013,-0.06530119745845553,-0.0841013824884792,-9.771990783410129,-0.7393429208560257,0.17232069216066193,-0.19722978634268956,-0.15648829706919426,6.565216101103198,-0.4763650328166457,94.3245684087418,0.6786002022656489,0.048763829068801494,-0.7318369087231009,-0.03909801051490713
59.0,0.011981277108383516,0.07176898081857155,-0.05720569622561676,-0.07649700804732093,-9.775617442740202,-0.7035449483312387,0.36683790272753847,0.024037031178679294,-0.2062977282920598,6.379758387576153,-0.4366659059124153,94.11680093523272,0.6800035634977886,0.04700090695413171,-0.730697866492629,-0.03810211848717192
60.0,0.0095550771397997,0.07044838619092349,-0.06571513099122028,-0.06776463305591855,-9.777970011692673,-0.6814350051829886,0.2700313214785335,-0.1953626491128936,-0.17380958258585621,6.320694950611898,-0.4038168239239496,93.98884401600345,0.6808471270987706,0.04613006477979542,-0.729981043618523,-0.037818629352767134
61.0,0.0069574780860288815,0.06996209632126821,-0.0723384122698037,-0.06339844556021737,-9.77914629616891,-0.6693011719463327,0.1259745821102345,-0.11240851709676938,-0.12368339512357326,6.276274894660787,-0.3873922829297167,93.92404650396946,0.6812998172515026,0.04562146255118807,-0.7296011927996849,-0.03759807246872231
62.0,0.0059103128455559855,0.07117850661615707,-0.06923127847116772,-0.06121535181236677,-9.779734438407027,-0.6675147110953565,0.04717900659763924,-0.08475081280058411,-0.07569494780616591,6.257394534329416,-0.37907309649907145,93.91717965472179,0.681394404485966,0.0453866562340496,-0.7295405606398222,-0.03750755171578836
63.0,0.006462278333125712,0.07171172223699909,-0.07508729123949394,-0.06195036547467939,-9.77996629754452,-0.6673918339724791,-0.06519785181918065,-0.19236842413524524,-0.016509671920119682,6.1803062428664255,-0.36896985016267636,93.91015254555667,0.6814315174525206,0.044815727210238014,-0.72956810578891,-0.03703835850794305
64.0,-0.002259953755921497,0.07164666516279419,-0.10288548481088801,-0.06598240469208211,-9.779999999999985,-0.6724862395668854,0.10580682758102114,-0.07679025443642379,-0.022901862922024212,6.057473776223776,-0.3715786901270772,93.93970705034212,0.6812898204944351,0.04419644401195581,-0.7297725763044218,-0.03630383940442891
65.0,-0.0050995700088442035,0.07411523064748873,-0.11711508081971789,-0.0681524926686217,-9.779999999999985,-0.6713746334310859,0.1034408020295117,-0.09489252766722524,0.011775662733324026,6.0242393695014655,-0.3732893450635386,93.93961158968719,0.6813400606243882,0.04398992934261978,-0.7297607838966282,-0.036074191425953084
66.0,-0.005086928304670241,0.07349697636592799,-0.12360270945452397,-0.06923753665689147,-9.779999999999985,-0.6708486070381241,0.06552943094651764,-0.053456848511031975,0.007053405963436206,6.008087426686217,-0.3741446725317693,93.93956385935972,0.6813643325702581,0.043882958058406675,-0.7297554480773468,-0.03595583522910557
67.0,-0.008113100609068351,0.0726143836002707,-0.126685147289986,-0.06978005865102638,-9.779999999999985,-0.670034838593307,0.09604401534845083,-0.03255804735139412,0.025583364608062188,6.000011455278592,-0.37457233626588465,93.93459317759974,0.6813967921536643,0.04382897242654078,-0.7297329720347057,-0.03589665713068181
68.0,-0.010786755583126554,0.07296652708850287,-0.11768519339083856,-0.06999999999999998,-9.779999999999985,-0.6774514368919613,-0.05313573914884398,0.016605262736815157,-0.010974202348950335,5.998172883064516,-0.375,93.98128730238736,0.6810530706711623,0.043870318368695635,-0.7300539659587022,-0.03588176195732526
69.0,-0.012807692307692313,0.07282650951199335,-0.10613090314703218,-0.06999999999999998,-9.779999999999985,-0.6839298515104966,-0.01050184134861554,0.01866679467485919,-0.02708173323092678,6.0,-0.375,94.02342149897594,0.6807561712352785,0.043944333161162356,-0.7303324680574765,-0.03592104271505375
70.0,-0.01327111150498248,0.07464583579502934,-0.10330390129583678,-0.06999999999999998,-9.779999999999985,-0.6872875064004094,-0.055550262909133875,0.012294079128756548,-0.00973040736145575,6.0,-0.375,94.04497687852023,0.6806037991660261,0.04397810744079626,-0.730475426125513,-0.03593617334677418
71.0,-0.013943248060183551,0.07227825288510772,-0.09801671491590844,-0.06999999999999998,-9.779999999999985,-0.6911896589074011,-0.0038762480798771107,-0.0015917941825199884,-0.006850315343258893,6.0,-0.375,94.06865779409883,0.6804621849626655,0.04400729724397133,-0.7305987623108958,-0.03594392618951611
72.0,-0.01908887953444406,0.07029171220804284,-0.07103344706368898,-0.06696876600102408,-9.776559139784935,-0.7163270363149398,-0.23176083269329237,-0.021565226328331168,-0.12135270503466067,6.017409114183308,-0.3709037378392217,94.20699594774065,0.6795602464265449,0.04398128895736711,-0.7314281095425452,-0.035974803860247026
73.0,-0.016031334928512355,0.06920583594273108,-0.04119716708023159,-0.06332309267793142,-9.773118279569882,-0.7497058568671476,-0.21495425707245264,-0.012168701873843002,-0.08565745130765291,5.976950524833589,-0.37295186891961085,94.39342677931387,0.6783469628554093,0.043617595897534334,-0.732588412162906,-0.03571168731822835
74.0,-0.014875546496514243,0.06641491393910746,-0.0216368899917287,-0.06150025601638509,-9.771397849462355,-0.7663045413367999,-0.186751952124936,-0.014495389243373114,-0.013405842589310327,5.956217197900665,-0.3739759344598054,94.48602790578596,0.6777443511051238,0.04343394972296069,-0.7331647180169374,-0.0355786831752432
75.0,-0.014800056126669035,0.06592581925243213,-0.011925144747725394,-0.06058883768561192,-9.770537634408592,-0.7746038835716261,-0.1170577378490685,-0.04054484102367167,0.02087927473512151,5.945850534434204,-0.3744879672299027,94.53232846902202,0.6774430452299809,0.04334212663567387,-0.733452870943953,-0.03551218110375062
76.0,-0.014296754992319517,0.06517745135688682,-0.007398233486943165,-0.06013312852022534,-9.770107526881711,-0.7786840757808506,-0.04700000800051204,-0.020024281554019457,0.020230294738863286,5.940667202700973,-0.3747439836149513,94.5550755248336,0.6772944369226825,0.04329583649401557,-0.7335953268714807,-0.035478930068004344
77.0,-0.013672541504194734,0.06650266478593089,-0.0065990340304856445,-0.06000000000000005,-9.76999999999999,-0.7800000000000007,0.016374794140671157,0.012976407413151364,0.017253327289869627,5.937531502016129,-0.375,94.5625,0.6772460899999995,0.043273960761088665,-0.7336425800000008,-0.0354614607610887
78.0,-0.014127097365000597,0.06658550578006221,-0.006696694434597661,-0.06000000000000005,-9.76999999999999,-0.7800000000000007,0.031546142030013,0.004487825682382134,-0.005186970427645831,5.9375,-0.375,94.5625,0.6772460899999995,0.043273929999999954,-0.7336425800000008,-0.03546142999999999
79.0,-0.014427307235774978,0.06581039401906336,-0.003502306161580355,-0.0560117302052786,-9.76999999999999,-0.7758553274682312,0.005033747334654592,0.4052329768685615,0.06884497321115264,6.103677908113392,-0.342741935483871,94.53708455522971,0.6773606440566957,0.04397747353861191,-0.7334402027565985,-0.036399329980449646
80.0,-0.008775389932647995,0.06758223452175063,0.009986536313149219,-0.07747800586510259,-9.76999999999999,-0.7722971652003917,0.0028156655172784204,-0.06711618354763521,0.013517080477765956,6.081683773216032,-0.45222385141739985,94.51704545454545,0.677502403431085,0.04546618028347993,-0.7332254161681333,-0.036256853890518054
81.0,-0.0005123552522746074,0.06776650030077447,0.018425384427400562,-0.08938416422287382,-9.76999999999999,-0.7770220317317091,-0.1071647774268742,-0.019662310136100484,0.05111953318858561,6.009591886608016,-0.510386119257087,94.54473550642905,0.6773732779016466,0.04593836743950668,-0.7333249516920074,-0.03586108036709525
82.0,0.0026594551282051295,0.06590061987743437,0.01941120337995339,-0.09533724340175943,-9.76999999999999,-0.7820842168584103,0.06152307034363486,-0.19365559675539518,0.03289537453473945,5.954191104594331,-0.5439337544176254,94.57545398150236,0.6771492666009478,0.04604651405970372,-0.733543376764118,-0.035523130478833
83.0,0.015868250029540357,0.06896175867143609,0.014390437519469784,-0.09153037285295343,-9.772138248847915,-0.7630513250190674,0.21999324600131054,-1.372340831211799,-0.11719691598723858,5.2610529255690555,-0.5327387666097343,94.46390786632722,0.678063985913377,0.04121434899759379,-0.7331186471746858,-0.03136866409195106
84.0,-0.01539123942910757,0.06327821453908408,-0.005588473704883244,-0.07334657535078291,-9.775108395111186,-0.7296916491643,0.21092327202951328,-0.19244458790391472,0.004124670911136538,4.788566806615544,-0.4244894160304399,94.26107623967897,0.6794790334953855,0.03671614691889552,-0.7321633807747501,-0.02859925501614001
85.0,-0.021138171786138124,0.06546025923585529,-0.019356873140884374,-0.0660647832765645,-9.777715487878165,-0.7085701647581029,0.11192852262277227,-0.0872643835827567,0.024524785639792646,4.6191887063380745,-0.39682743040036167,94.15425066401573,0.6803099517062614,0.03502320608652499,-0.7315262796846527,-0.027609853747072942
86.0,-0.023229135520860634,0.0675266556725182,-0.026135012252824327,-0.06238723034795969,-9.779019034261655,-0.6978061741904658,0.05537493128657224,-0.0604436061834379,0.0004447749538913602,4.53640886929807,-0.38288952165179374,94.06789766451408,0.6807626808059841,0.03418524086460245,-0.7311702478646592,-0.02712529484624119
87.0,-0.023311838231894342,0.06797052386603576,-0.030156836151226066,-0.06054845388365729,-9.779670807453401,-0.6923398116609896,-0.02886495371155259,-0.025003130635143263,0.005534112042702504,4.495623789487745,-0.37578098911373803,94.02419386947788,0.6809940281225948,0.033770256596072946,-0.7309869614137195,-0.02688739236853003
88.0,-0.019688456471065173,0.06887710664744323,-0.017410913537140752,-0.059841047218326365,-9.779929873772776,-0.686526839219686,0.09791391331319452,-0.164721925602448,-0.02725537450511153,4.396319435590122,-0.35941550852139914,93.99604383461326,0.6812470580334383,0.0330854199192486,-0.730816542374295,-0.026324044394151896
89.0,-0.01817926159861644,0.06564663696518533,-1.6392209940598382e-05,-0.0618768328445748,-9.77788856304984,-0.6986803519061584,-0.17363670435747047,5.727639296189413e-05,0.06009914984209339,4.337732160312806,-0.36229227761485827,94.08189713512294,0.6807574055909466,0.032896158631476054,-0.7313017347072719,-0.025985283773216034
90.0,-0.01310327844198812,0.06536053932626512,0.016465749304458994,-0.06609970674486804,-9.773782991202335,-0.72208211143695,-0.08802802959809007,-0.023676386617414835,0.02835912827092263,4.257575757575758,-0.40090420332355814,94.233504398827,0.679873946520039,0.03294627608993156,-0.7321487846749759,-0.025537333176930608
91.0,-0.011717892322731037,0.06316165924129633,0.023582750582750597,-0.06821114369501466,-9.771730205278581,-0.7370087976539589,-0.05679317112658846,0.005050764507669753,0.005075966120572976,4.218986389954132,-0.4202101661779081,94.31030058651027,0.6794115572922772,0.03297278871494094,-0.7325934581439397,-0.0253162658291601
92.0,-0.0026025923001729476,0.06254208023159634,0.03812202045266562,-0.07059628543499509,-9.770703812316706,-0.7589393939393938,-0.2623243523949169,-0.20371497622001652,0.012139893037070457,4.157147153921348,-0.43328445747800587,94.43863025415445,0.6785832581622675,0.032690094787578006,-0.7333818776154695,-0.024846758984961276
93.0,0.006864690504679985,0.06058858442282354,0.04912476134197733,-0.07390029325513195,-9.770190615835768,-0.7797155637723662,-0.29942129260699557,-0.1009975121229285,0.04687730127224341,4.046976930269356,-0.4424380551659654,94.5562417654809,0.677816771982447,0.032181301934355956,-0.734119698735271,-0.024145798275365588
94.0,0.008203903754613781,0.062127668045488874,0.05721591460783257,-0.08065493646138802,-9.76999999999999,-0.795416135407369,-0.22980927459199285,-0.04001103346381879,0.17675145079762453,4.056805063800155,-0.47341844107271874,94.65274236049132,0.6771952647031324,0.032715790554177004,-0.734669659035492,-0.02417668740386495
95.0,0.01440185107085528,0.061303249345325064,0.05222186859423886,-0.08565004887585526,-9.76999999999999,-0.7986153257682002,-0.21013523205406093,-0.053035380643199716,0.14939513064074775,3.8963460802871746,-0.5199753495686175,94.6751615028263,0.6771285094483407,0.03205820705128207,-0.7347976177007094,-0.023128322976126017
96.0,0.01495526796718943,0.0637769348463598,0.05129207573632538,-0.08814760508308889,-9.76999999999999,-0.8001141144970029,-0.1182732611883208,-0.011908509180160651,0.07297610130052276,3.8160700624760935,-0.5432538038165667,94.6863710739938,0.6770952549661061,0.03172001776881722,-0.734861458689064,-0.02259371319525903
97.0,0.015088186513502088,0.0612807776219417,0.04646785046416884,-0.08935483870967734,-9.76999999999999,-0.8004114071996251,-0.06559958967808723,0.0025393799116186916,0.058712018438745295,3.7772615708274895,-0.5547861150070126,94.6891654978962,0.6770047761620084,0.03156017157258067,-0.7349677050219283,-0.022337626216397836
98.0,0.013807480173714401,0.06280067219285311,0.044688630881740986,-0.0898924731182795,-9.76999999999999,-0.8002571294997654,-0.006317254471510256,0.007385730880756301,0.024143967287484993,3.7604312762973353,-0.5604838709677419,94.68890252454418,0.6769688818397699,0.03149234643145164,-0.7350121837615489,-0.022224707313435003
99.0,0.012718822620032304,0.06165951543975737,0.041643340866123126,-0.08999999999999991,-9.76999999999999,-0.8051612903225804,0.016928491115739096,-0.007152650077297255,0.0037330312216904945,3.75,-0.5625,94.6875,0.6769274483088521,0.03143369450604842,-0.7350587613023944,-0.02215640604334676
100.0,0.014234395308992088,0.06163892950687304,0.04153255592973335,-0.09196620583717346,-9.76999999999999,-0.8077419354838713,0.05803616816091614,-0.17968434595198707,-0.0113040773071015,3.682411674347158,-0.5625,94.6875,0.6769122282046054,0.031094587603686663,-0.7350970298268237,-0.02179173689708141
101.0,0.01486417346094766,0.062253436527630074,0.04577131828744731,-0.09614439324116733,-9.76999999999999,-0.8090322580645166,0.046580458072393555,-0.09081873547599353,0.013564191185158928,3.554915514592934,-0.5625,94.6875,0.6769236362570406,0.03041329396313367,-0.7351376517884115,-0.021060189738863297
102.0,0.015175302296270047,0.06187044586238134,0.04704848556461458,-0.09823348694316425,-9.76999999999999,-0.8096774193548393,0.0045690308795147475,-0.04547337183425893,0.008598211824018275,3.4911674347158215,-0.5625,94.6875,0.6769322312544803,0.030072647142857175,-0.7351550872715735,-0.020694416159754238
103.0,0.016833308716373244,0.06261512367560754,0.04585178620662491,-0.09927803379416272,-9.76999999999999,-0.8100000000000005,0.056208212710228835,-0.020441400557327977,0.0069045649690810985,3.4592933947772657,-0.5625,94.6875,0.6769365756272401,0.029902323732718925,-0.7351637425067542,-0.02051152937019971
104.0,0.016388718714226008,0.06229659569676478,0.04951230149201013,-0.09980030721966196,-9.76999999999999,-0.8100000000000005,0.05253528781673292,-0.0010500647227526787,0.010844922362872414,3.443356374807988,-0.5625,94.6875,0.676939732329749,0.0298171620276498,-0.735167116057347,-0.020420085975422445
105.0,0.016083504262386944,0.06225172846794204,0.050295065236532446,-0.0999999999999999,-9.76999999999999,-0.8100000000000005,0.026827679750660367,0.008035515513687665,0.02139948371087809,3.4375,-0.5625,94.6875,0.6769409200000001,0.029785160000000033,-0.7351684599999994,-0.02038574000000002
106.0,0.015372901324741863,0.06180378762106779,0.047244306811814615,-0.0999999999999999,-9.76999999999999,-0.8100000000000005,0.015902499149523734,-0.007055200912511007,0.01564555838769711,3.4375,-0.5625,94.6875,0.6769409200000001,0.029785160000000033,-0.7351684599999994,-0.02038574000000002
107.0,0.015428630032818386,0.0619614183943008,0.04715395621548067,-0.0999999999999999,-9.76999999999999,-0.8100000000000005,-0.023187985271752178,-0.002487017729928761,0.021271599595773634,3.4375,-0.5625,94.6875,0.6769409200000001,0.029785160000000033,-0.7351684599999995,-0.02038574000000002
108.0,0.01561155397816429,0.061745371058586455,0.046615695662586915,-0.0999999999999999,-9.76999999999999,-0.8100000000000005,-0.04760614356738185,-0.0002969867490874257,0.021822977315709494,3.4375,-0.5625,94.6875,0.6769409200000001,0.029785160000000033,-0.7351684599999994,-0.02038574000000002
109.0,0.014325027769519192,0.0625350164346002,0.04455394564606973,-0.0999999999999999,-9.76999999999999,-0.8100000000000005,0.024811652461886595,0.02124848893554994,0.02278063538001916,3.4375,-0.5625,94.6875,0.6769409200000001,0.029785160000000033,-0.7351684599999994,-0.02038574000000002
110.0,0.013440235658953147,0.06228061305600978,0.04282888814561551,-0.0999999999999999,-9.76999999999999,-0.8100000000000005,0.01738314477933039,0.008009577129065292,0.031063326762590222,3.4375,-0.5625,94.6875,0.6769409200000001,0.029785160000000033,-0.7351684599999994,-0.02038574000000002
111.0,0.01330944535288969,0.06303229729283319,0.040261673521298905,-0.0999999999999999,-9.76999999999999,-0.8100000000000005,0.04449717039955073,0.004351310741952,0.004952575029318005,3.4375,-0.5625,94.6875,0.6769409200000001,0.029785160000000033,-0.7351684599999995,-0.02038574000000002
112.0,0.013789598206741815,0.0625145877723271,0.039063519062738625,-0.0999999999999999,-9.76999999999999,-0.8100000000000005,0.07683840549914302,-0.012248922392571587,-0.0029092283742387804,3.4375,-0.5625,94.6875,0.6769409200000001,0.029785160000000033,-0.7351684599999994,-0.02038574000000002
113.0,0.015293869566957503,0.0637726351756984,0.04396052789562155,-0.0999999999999999,-9.76999999999999,-0.8100000000000005,0.06182377756543665,-0.023029912375930522,-0.01818380793244217,3.4375,-0.5625,94.6875,0.6769409200000001,0.029785160000000033,-0.7351684599999994,-0.02038574000000002
114.0,0.01341578398982796,0.060768366038950056,0.042180676774231665,-0.0999999999999999,-9.76999999999999,-0.8100000000000005,0.09234832071436194,-0.03472169141902005,-0.06732963118076282,3.4375,-0.5625,94.71924603174602,0.6768659150640037,0.029785160000000033,-0.7352144603686639,-0.020378740143369198
115.0,0.01436858227909217,0.060761047138778654,0.044754292880203383,-0.0999999999999999,-9.76999999999999,-0.8100000000000005,0.07571455094217841,-0.033155106542203314,-0.03685501976344848,3.4375,-0.5625,94.73563108038914,0.6768404136610336,0.029785160000000033,-0.7352229595391713,-0.020382240071684606
116.0,0.014632262003229753,0.0612884319981094,0.04442709441096537,-0.0999999999999999,-9.76999999999999,-0.8100000000000005,0.08361039721926819,-0.004984811335617786,-0.0201184568120052,3.4375,-0.5625,94.74382360471068,0.6768276629595487,0.029785160000000033,-0.735227209124425,-0.020383990035842313
117.0,0.01837568435149081,0.05545066761195792,0.03272719484816259,-0.09959677419354829,-9.770322580645152,-0.8006451612903227,0.4685576799992122,0.011062184902910709,-0.08298881897672221,3.439012096774193,-0.5609879032258065,94.6879400281618,0.6771751923668712,0.029761532983870992,-0.7349079152880191,-0.02040603074372762
118.0,0.0339758092343997,0.048071361784545505,0.02447835270152941,-0.08678295932678817,-9.77734221598877,-0.6855656848994859,0.4495697289843941,-0.6442454925810905,0.12264524059974621,3.5644832573632534,-0.49535778985507245,94.00796311833523,0.6814391179132158,0.029609899273609172,-0.7309141610147436,-0.021329533244701583
119.0,0.022245113407329545,0.05569512298697777,-0.01874508390216545,-0.07352404705181653,-9.778832398316958,-0.6678888963604807,0.22237484723739415,2.8014270787064737,0.21116431975767952,4.28313922037407,-0.4264101145475097,93.90308063575509,0.6818691701432262,0.0333198281078607,-0.7301162253776452,-0.025670760361242134
120.0,-0.01972748981198828,0.06255988561744405,-0.03775671797496797,-0.06081018345321404,-9.77957748948105,-0.6618158702611125,0.32061829198300473,0.5565934875009043,0.0893059632726795,6.565453640173406,-0.3508839532301383,93.86538629697795,0.6813579194582555,0.0469028479657886,-0.7290705359078138,-0.039265987863492474
121.0,0.011389377084858043,0.06695023048325258,-0.053481565234474816,-0.06569156259805622,-9.779950035063099,-0.6520947430265598,0.3740585535655274,-0.50829566905949,0.07167795004028775,6.071770512912894,-0.3926573112323055,93.81371144410765,0.6819287373145875,0.0442428715803907,-0.7290026339264635,-0.03638298578056666
122.0,0.006228962735977409,0.06968479266098113,-0.05378211326239869,-0.06737451113773778,-9.78012622720896,-0.6487590650616666,0.24319737154082824,-0.19155332848135798,0.049715613124982586,5.804991229238706,-0.39294848928550763,93.79985912427156,0.6821270361497336,0.04259749881186875,-0.7290758256502277,-0.03476975025167446
123.0,0.0013147873733437977,0.07288353705045317,-0.0582151673031361,-0.06861011671893902,-9.779999999999983,-0.6505412903615948,0.11729282916792357,-0.26998057218406796,0.004104162123713614,5.688659763116951,-0.3888897212885951,93.81330906190203,0.6820861970121357,0.04187109183336436,-0.7292315959397808,-0.034034642060896104
124.0,0.011948366107456386,0.06897159618762162,-0.051233730619413956,-0.07505874295305948,-9.779999999999985,-0.6403195131592745,0.24746477776661882,-0.7918771294285732,0.08993077540304886,5.077062816756417,-0.4333577755672265,93.750511754574,0.682686660157052,0.0384801554272226,-0.72901703370369,-0.030426335225686017
125.0,-0.009880493392043204,0.08232892134947384,-0.01730661672140297,-0.05693022822995349,-9.782580645161278,-0.5997174900773979,0.03697434059357098,0.11524831462627289,-0.019961269012955987,5.122976384687678,-0.32960442487714214,93.50429827684563,0.6842333095899171,0.03735174396492563,-0.7276342910342297,-0.03079083680794913
126.0,-0.012159794120191072,0.06751978084806382,-0.020921002149820407,-0.06290180164506821,-9.780674049109278,-0.6536310127324885,-0.16156518887509702,0.21122610724091687,0.013731450231124317,5.20249685868953,-0.34983471123491194,93.81278346678103,0.6822653756278902,0.03832052342444644,-0.7294167905508169,-0.031171756507007778
127.0,-0.007236651092353601,0.06679668477887062,-0.00873923091361988,-0.0664509008225341,-9.780337024554631,-0.6827832483017284,-0.11773445935690335,0.1127167582575552,0.0317050648333041,5.287173328538312,-0.3620393314239076,93.97393205597116,0.6812198419243279,0.039136262150731266,-0.7303393286423434,-0.03160591382558051
128.0,-0.005254050036740001,0.06522092303459659,-0.002764193996549771,-0.06822545041126704,-9.780168512277308,-0.6973593660863484,-0.06738032276815767,0.09717676772942427,0.023785459704418047,5.328856703369841,-0.36833638125447576,94.05450635056621,0.6806974554171981,0.03957571359980354,-0.7308006177327058,-0.031841524214843056
129.0,-0.002985184411159374,0.06591691313020152,-0.00066103437967906,-0.06893720338400164,-9.780084256138647,-0.7049557741247685,-0.0022919166022951493,0.08874789524991136,0.023114859833233692,5.366352568952472,-0.37006714698397414,94.09673550450512,0.6804185238898132,0.03988635896071768,-0.7310392290134113,-0.03205681459556196
130.0,-0.0005640207770082587,0.06667043813192103,-0.0004019457612681013,-0.06996629754453537,-9.779961482908025,-0.7098603755416473,-0.035938585029258174,0.031240307071960294,0.027715264017999335,5.372231584015406,-0.3749097255657198,94.1245486278286,0.6802408164564271,0.04001250793888417,-0.731199024833894,-0.032085532254002194
131.0,-7.738833746898263e-05,0.06693734491315134,-0.0014520006203473943,-0.06999999999999998,-9.779999999999985,-0.7100000000000006,-0.006101213554590572,0.026476232940446646,-0.0037831498138957836,5.375,-0.375,94.125,0.6802368199999995,0.04003690660786286,-0.731201169999999,-0.032103136406250024
132.0,-0.0005028916193068118,0.06869564956375568,-0.003417613863763708,-0.06999999999999998,-9.779999999999985,-0.7100000000000006,0.0016782523212999275,-0.005775890748819339,0.005645536500440244,5.375,-0.375,94.125,0.6802368199999996,0.04003905999999996,-0.731201169999999,-0.03210449000000003
133.0,-0.00035814556151444804,0.06857114984391258,-0.0025227027135195715,-0.06999999999999998,-9.779999999999985,-0.7100000000000006,-0.0008823378592011529,0.03523240202013127,0.01301197420555511,5.375,-0.375,94.125,0.680235365945409,0.04004051397518607,-0.731201169999999,-0.032107397950372235
134.0,-0.0030725234161433435,0.06762058836281651,-0.0037637951495261596,-0.06562072336265885,-9.779999999999985,-0.7100000000000006,0.01598856439151379,0.20850075853083788,-0.02032800299986174,5.522605083088954,-0.375,94.125,0.6801759526794497,0.040926616782314414,-0.7311725342228738,-0.0330543456956162
135.0,-0.004252395540636956,0.06777298779379944,-0.008195181624942293,-0.06264907135874881,-9.779999999999985,-0.7100000000000006,0.07111582197430272,0.13900560359977632,0.004243920607083977,5.610092864125122,-0.375,94.125,0.6801433824687575,0.04145940097180235,-0.7311553527565985,-0.033618984299420986
136.0,-0.004868133254189447,0.06780957081997663,-0.007029352599071642,-0.06116324535679378,-9.779999999999985,-0.7100000000000006,0.07013452389037717,0.06903754125398245,-0.006927357314324016,5.653836754643207,-0.375,94.125,0.6801270973634113,0.04172579306654631,-0.7311467620234608,-0.033901303601323374
137.0,-0.003401560804786612,0.06865380676670996,-0.006626514166836748,-0.06042033235581627,-9.779999999999985,-0.7100000000000006,0.009863842474729573,0.043296622732106604,0.0008844705921318822,5.675708699902248,-0.375,94.125,0.6801189548107383,0.04185898911391829,-0.7311424666568921,-0.03404246325227457
138.0,-0.004236760551276681,0.06911598526921103,-0.006147003981681402,-0.06004887585532752,-9.779999999999985,-0.7100000000000006,0.02931157384282384,0.012978956527343623,-0.0043499483267628435,5.686644672531769,-0.375,94.125,0.6801149289736077,0.041925541700879726,-0.7311403189736077,-0.034112952204301036
139.0,-0.0031749133483004455,0.06813710169758555,-0.005944609378077122,-0.06000000000000005,-9.779999999999985,-0.7100000000000006,-0.007399442795108117,0.008182677537516246,0.003770133596242467,5.6875,-0.375,94.125,0.6801147500000007,0.04193114999999996,-0.7311401400000006,-0.03411864999999996
140.0,-0.004520340994131318,0.0673549347158218,-0.004919092668084603,-0.06000000000000005,-9.779999999999985,-0.7100000000000006,0.02959988670044113,0.0010181574697703723,0.006880094172180866,5.6875,-0.375,94.125,0.6801147500000007,0.04193114999999996,-0.7311401400000006,-0.03411864999999996
141.0,-0.003157587931781481,0.0684669738863287,-0.002202449879869234,-0.06000000000000005,-9.779999999999985,-0.7100000000000006,0.01268905825357438,0.01228583244712277,0.009371676710386388,5.698252688172042,-0.375,94.125,0.6801057487096782,0.04195915245775726,-0.7311401400000006,-0.034157152488479246
142.0,-0.002515813935168774,0.06875729646697387,-0.0039046043562172587,-0.06000000000000005,-9.779999999999985,-0.7100000000000006,-0.02260932391980779,0.026552222419157903,0.009078119461183976,5.72513440860215,-0.375,94.125,0.6800787448387102,0.04203965961597539,-0.7311401400000006,-0.034263908986175116
143.0,-0.0037181850407656866,0.06905839142935916,-0.0035834022608216146,-0.06000000000000005,-9.779999999999985,-0.7100000000000006,0.01916941145771791,0.006340282701169798,-0.015290640139430461,5.738575268817204,-0.375,94.125,0.6800652429032263,0.04207991319508445,-0.7311401400000006,-0.03431728723502306
144.0,-0.002806353145062822,0.0681825495293237,-0.0011260585292843348,-0.06000000000000005,-9.779999999999985,-0.7100000000000006,0.003088289958249636,-0.005774431102052068,0.013188013263618103,5.745295698924731,-0.375,94.125,0.6800584919354843,0.04210003998463899,-0.7311401400000006,-0.034343976359447026
145.0,-0.004167444562605854,0.06716075367285042,-0.0029575702075702068,-0.06000000000000005,-9.779999999999985,-0.7100000000000006,0.014835087907164523,0.013055712488676199,0.013371301917168853,5.748655913978494,-0.375,94.125,0.6800551164516133,0.04211010337941625,-0.7311401400000006,-0.03435732092165901
146.0,-0.003801179295326018,0.06925403027282576,0.00018102693063671237,-0.06000000000000005,-9.779999999999985,-0.7100000000000006,0.05843809959172374,0.00043662769603358773,0.01587488423080417,5.75,-0.375,94.125,0.6800537100000003,0.04211425999999997,-0.7311401400000006,-0.03436279000000002
147.0,-0.0038864767444372027,0.06859374900738063,0.0005844650782215817,-0.06000000000000005,-9.779999999999985,-0.7100000000000006,0.008979004432958647,0.004108812839952278,0.0410618120750795,5.75,-0.375,94.125,0.6800537100000004,0.04211425999999997,-0.7311401400000006,-0.03436279000000002
148.0,-0.0010935314536623813,0.0679975340324673,-0.005816738733558124,-0.06130958112662496,-9.77784304285025,-0.7140057775637938,-0.08748319000597217,-0.3178949061569243,-0.04576850130363456,5.711482908040443,-0.3769258545979779,94.15581367356765,0.6798863260423689,0.04189139394318728,-0.7313206875589795,-0.03410842389504093
149.0,-0.010525818931690847,0.06755646379973688,-0.001284061774729535,-0.05815234677054607,-9.775871668052686,-0.7156783531025219,-0.013703308916312901,0.5602883961977098,-0.010343811700088005,5.712168628995784,-0.34614865554923335,94.17510869406632,0.6798077358706467,0.04154747838899345,-0.7314122649622854,-0.034116760183102085
150.0,-0.0086892409651082,0.06913947187541417,0.010804691161040318,-0.05915097469429594,-9.772774543703758,-0.7218153336340094,-0.005898881775019111,0.0075581586123946165,-0.02315433833107396,5.781575198088355,-0.3498216396025736,94.22064808242354,0.679519826853042,0.04201211919917182,-0.731635049119759,-0.03451325069697412
151.0,-0.006386764082970333,0.06890376299285794,0.01639870354097802,-0.059575487347147994,-9.771225981529293,-0.7262302474621656,-0.010591220283971574,-0.028804167311908838,-0.036567413702477666,5.896835986140951,-0.3624108198012868,94.23734017024402,0.6793354039103923,0.042842371373779456,-0.7317341132695572,-0.03520490059042253
152.0,-0.0053537030712618415,0.06821417212918329,0.018906353941704895,-0.05978774367357402,-9.770451700442061,-0.7284377043762436,-0.006122901550174372,-0.021491733547393622,-0.01833071755223139,5.952450251134992,-0.3687054099006434,94.24568621415426,0.6792535298584221,0.043265866654631654,-0.7317836453444563,-0.035539896908114474
153.0,-0.005977934446728277,0.06808298231299634,0.019394866373302566,-0.05985294742658001,-9.770131964809375,-0.7294162522844141,0.024871799639506514,0.00796410678401387,-0.01782668922066713,5.981461042755748,-0.3717925219941349,94.2488963088104,0.679217823581113,0.04348457885933314,-0.7318027692706878,-0.03571534400774043
154.0,-0.004369710136365116,0.06844276192873668,0.025452565151460677,-0.06000467508181398,-9.76999999999999,-0.7299158485273483,0.01704855866628307,-0.0431831469989999,-0.019910412059013914,5.9953431802244035,-0.3743279569892473,94.25037985039737,0.6791998110109869,0.043601200040614754,-0.7318122904955593,-0.03579883257816151
155.0,-0.005251169305604791,0.06794155933672062,0.026504971395092378,-0.06000000000000005,-9.76999999999999,-0.7299999999999991,-0.005415331196581196,-0.011103656787880578,0.004992019489247313,6.000126008064516,-0.375,94.25,0.6791985739112907,0.043639616925403205,-0.7318115200000006,-0.035828316789314495
156.0,-0.005755144944661075,0.06677895939186261,0.02462253338059791,-0.06000000000000005,-9.76999999999999,-0.7299999999999991,0.0072099691303320335,0.025169887795895858,0.025285218253968254,6.0,-0.375,94.25,0.6791992200000004,0.043640139999999966,-0.7318115200000006,-0.03582763999999998
157.0,-0.0049048677576903395,0.06754208515498836,0.026089182323053302,-0.06000000000000005,-9.76999999999999,-0.7299999999999991,-0.009453328089920832,0.001713355808617905,0.02420433369274095,6.0,-0.375,94.25,0.6791992200000004,0.043640139999999966,-0.7318115200000006,-0.03582763999999998
158.0,-0.004124220873212809,0.06759464728819566,0.02386896392138329,-0.06000000000000005,-9.76999999999999,-0.7299999999999991,-0.0034945851919138205,-0.00344759756932136,0.009918027061424238,6.0,-0.375,94.25,0.6791992200000004,0.043640139999999966,-0.7318115200000006,-0.03582763999999998
159.0,-0.004025316081767694,0.06865619461183976,0.024666336799401327,-0.06000000000000005,-9.76999999999999,-0.7299999999999991,0.006647994702430186,0.0040883231911457716,0.0037776879258734106,6.0,-0.375,94.25,0.6791992200000004,0.043640139999999966,-0.7318115200000006,-0.03582763999999998
160.0,-0.003162101729349388,0.06911805968485207,0.02213081508184267,-0.06000000000000005,-9.76999999999999,-0.7299999999999993,-0.01185050036750739,0.005624166398262392,-0.018852271061476966,6.0,-0.375,94.25,0.6791992200000004,0.043640139999999966,-0.7318115200000006,-0.03582763999999998
161.0,-0.00026678322213380705,0.06917274629674972,0.018441239594172744,-0.06326375711574954,-9.76999999999999,-0.7299999999999991,0.051171109865642404,-0.3899565834072963,-0.017229929091173407,5.790322580645162,-0.38875711574952565,94.25,0.6792738049715372,0.04244398910815937,-0.7318624803795074,-0.03453929844402276
162.0,0.00691505478362,0.06748885773091755,0.0090831968843729,-0.06800759013282734,-9.771821631878547,-0.7238519924098672,0.18254157070606597,-0.3530757922966273,-0.047402285169400746,5.448292220113851,-0.4065464895635673,94.21489563567363,0.6796099033017078,0.04051587943074003,-0.73173832626186,-0.032508575787476277
163.0,-0.009197669406456728,0.0697836756757621,-0.0015067134258925112,-0.06608371803222973,-9.776072106261847,-0.699347758361891,0.2756083590771543,-0.06374939410209311,-0.04480678812213417,5.3693074003795065,-0.39606934492622276,94.08800872298848,0.6804963166821487,0.03987897957574554,-0.7309615141757062,-0.032099786969327936
164.0,-0.00683856019950628,0.07021449602646665,-0.009504132147189436,-0.06304185901611489,-9.778197343453495,-0.6837061372454623,0.2199185463965176,-0.10697017239223763,-0.051140260143573285,5.329814990512334,-0.38553467246311135,94.00771403891359,0.6810870060581964,0.03952291462658243,-0.7304516357379776,-0.03191607993627689
165.0,-0.004527211652533808,0.07003312714046521,-0.013838046286005736,-0.06152092950805747,-9.77925996204932,-0.6758853266872478,0.10430265311005703,-0.057695162092589104,-0.02391195943273671,5.310068785578747,-0.3802673362315557,93.96756669687616,0.6814031904484532,0.03934488215200087,-0.7301865198044728,-0.03182422641975137
166.0,-0.0038581361114992767,0.0708500475014395,-0.017811240244897393,-0.06065847234416159,-9.779791271347234,-0.6719749214081405,0.06981480995914285,-0.015578496530767908,0.008235665490101327,5.306748102466793,-0.3772037582486052,93.94749302585743,0.6815589518632212,0.03929324563008012,-0.7300523693258609,-0.03181856033511289
167.0,-0.005342368859942282,0.07032758692652771,-0.023907427296931398,-0.06012999518536355,-9.779999999999985,-0.6702118440057785,0.03257549103119637,0.06987078080000564,-0.006970171004836387,5.342197900665642,-0.37533100625902743,93.93855320173327,0.6816124951951865,0.03945900040121969,-0.7299724676497007,-0.03200656638871695
168.0,-0.005608964512190318,0.06997368939304424,-0.027497656465398417,-0.06000000000000005,-9.779999999999985,-0.670000000000001,0.05270885028949546,-0.0028284887155854907,-0.02515557918783725,5.391865079365079,-0.375,93.9375,0.6816003183173809,0.03969666408602151,-0.7299408502740561,-0.032249124029697894
169.0,-0.004638229154358187,0.07077096380322187,-0.027225255031706662,-0.06000000000000005,-9.779999999999985,-0.670000000000001,0.036683209263854426,0.0401335223915869,-0.008204340462404976,5.4166986687147975,-0.375,93.9375,0.681589621044546,0.039816671397849474,-0.7299288375985669,-0.03236975636968765
170.0,-0.0029284335735948637,0.07143642916223561,-0.02462901256449645,-0.06000000000000005,-9.779999999999985,-0.670000000000001,0.021557810469100793,0.0030576726141242246,-0.006654333569656149,5.429115463389657,-0.375,93.9375,0.6815836211674338,0.03987667505376346,-0.7299231492831546,-0.032430072539682525
171.0,-0.004883315609122061,0.07061196778132262,-0.0334332978849108,-0.06000000000000005,-9.779999999999985,-0.6721774193548391,-0.027631553034778843,-1.526251526251651e-05,-0.006471368013706723,5.435323860727086,-0.375,93.94758064516128,0.6814974359869423,0.039906676881720456,-0.7300034904480286,-0.03246023062467996
172.0,-0.008026710900133068,0.07158272647175168,-0.06898306181896646,-0.06463768115942031,-9.783740065451138,-0.6088540205703601,0.6261229186895385,-1.8194840777502068,-0.2777464700884669,4.844232117812061,-0.3946353436185133,93.56432620383356,0.6839992634659884,0.036340371168770466,-0.727926633731884,-0.029057526292660105
173.0,-0.015772401411327228,0.07457100102706873,-0.0853049822631368,-0.0379760384612701,-9.786260981208958,-0.5413624941561477,0.22315390962438852,-0.9096348669185091,-0.16369291764858143,3.5910345711833536,-0.2268975947750727,93.16545330413152,0.6867365815909625,0.0262613557119731,-0.7259674862135588,-0.0216492175854249
174.0,-0.03203917107495277,0.07370281185494437,-0.0946710285713582,-0.03616069475245669,-9.78313049060447,-0.5815446246871819,0.27483596809492666,0.16824580548396534,-0.15833073119328794,3.29557658350439,-0.2122391199681815,93.39872522891585,0.6853130050364681,0.024204678966043475,-0.7274968726798345,-0.01986962543407868
175.0,-0.031324486281893264,0.07308911529471784,-0.08819360981917784,-0.037757766731067066,-9.781565245302229,-0.615052709365923,0.3060579693142127,0.03701575711543181,-0.14509157333547773,3.398796356268324,-0.2291034309518327,93.59912998418497,0.684038534302353,0.025028130800639592,-0.728687311955302,-0.02044600398751082
176.0,-0.031279682657075675,0.07501481974413311,-0.08407160329668567,-0.03855630272037225,-9.780782622651106,-0.6321357296829611,0.1920127296167838,0.03821238964642558,-0.07599525743386788,3.450406242650291,-0.23753558644365827,93.70348384289893,0.6833786965286965,0.02544761072290043,-0.7293007714363207,-0.02072498425181995
177.0,-0.03029065724162585,0.0756627561620552,-0.08208778410565487,-0.03881064317879296,-9.780274434280198,-0.6426901182309144,0.08727050136530545,0.07896602585239867,-0.045792214526947525,3.4947508071596474,-0.24113805970149255,93.76779498362805,0.6829692635378404,0.025769120022506774,-0.7296736753722044,-0.02097113606232888
178.0,-0.03009718225586349,0.07351987109980468,-0.08008577939033343,-0.03984345351043646,-9.779999999999985,-0.6490869945993278,0.06404479569950396,0.02035987859784112,-0.012018037932708234,3.5468157020872866,-0.24848790322580644,93.80642698146255,0.6827181130183182,0.026188959236096897,-0.7298889134877395,-0.021272390775507258
179.0,-0.030691533528617313,0.07371278797078744,-0.08102616385810972,-0.04000000000000002,-9.779999999999985,-0.6499751861042176,0.027948535604541715,0.0010767532794555418,0.004182092467813722,3.5625,-0.25,93.81222084367243,0.6826797951215877,0.026305665374689806,-0.729918127538462,-0.02136287556327547
180.0,-0.030596505273111693,0.07435637429182564,-0.08190829245329764,-0.04000000000000002,-9.779999999999985,-0.6499999999999992,-0.08653678028942241,0.01226786578857176,0.0031296357805609236,3.5625,-0.25,93.8125,0.6826782199999997,0.02630614999999998,-0.7299194300000005,-0.021362300000000035
181.0,-0.030855208281717145,0.07537627182333217,-0.08460333977503592,-0.04000000000000002,-9.779999999999985,-0.6499999999999992,-0.022776328652775717,-0.011617453194423796,-0.016974118601655024,3.5625,-0.25,93.8125,0.6826782199999997,0.02630614999999998,-0.7299194300000005,-0.021362300000000035
182.0,-0.03036616020844691,0.07447257011545513,-0.08581165452653486,-0.04000000000000002,-9.779999999999985,-0.6499999999999992,0.014885517189229135,-0.02075368307442644,-0.030504468415010817,3.5625,-0.25,93.8125,0.6826782199999997,0.02630614999999998,-0.7299194300000005,-0.021362300000000035
183.0,-0.03212360429777185,0.07414656731579206,-0.08784534339229969,-0.04000000000000002,-9.779999999999985,-0.6499999999999992,0.04872615073171134,0.08145153547891582,-0.019095480175247342,3.592237903225806,-0.25,93.8125,0.6826929866935485,0.026537000403225784,-0.7298918667741938,-0.021591675887096796
184.0,-0.03353058466709613,0.07600668636341112,-0.08912558532778356,-0.04000000000000002,-9.779999999999985,-0.6499999999999992,0.04878425122433642,0.022190387926762797,-0.005109004395636159,3.641885080645161,-0.25,93.8125,0.6827486072177421,0.02692560616935482,-0.7298111451612909,-0.02198102407258066
185.0,-0.033854386035545005,0.07566591358621147,-0.08935797955585287,-0.04000000000000002,-9.779999999999985,-0.6499999999999992,0.062146541894810295,0.0011985605788447876,0.011590403076119452,3.666708669354838,-0.25,93.8125,0.6827764174798391,0.027119909052419334,-0.7297707843548394,-0.02217569816532259
186.0,-0.05263174736298196,0.06918605771992326,-0.09196086417609686,-0.03961482908040444,-9.780539239287418,-0.6357486759749634,0.6139299207879203,-0.4037761146612276,0.035265807806114616,3.6184560438733753,-0.24277804525758306,93.72294776119402,0.6833324402035688,0.026713969651390224,-0.729274311915022,-0.021872911802930918
187.0,-0.016873989400897016,0.10917572215233233,-0.07612124109982521,-0.046043973679987166,-9.786004386668797,-0.5309746964104208,0.9759357745260646,-2.889148041969631,-0.5166092875971987,112.66485078179332,-0.27327074305889903,93.10105721393035,0.6873696734709602,0.014769434521035612,-0.7258153186994464,-0.010335511277809547
188.0,-0.046275193246563914,0.08552919456094582,-0.0667119793072956,-0.018887502514686905,-9.78925389710541,-0.47672087841874966,-0.17258524377115664,-0.8286153214590316,-0.21276049305745895,152.95736216501922,-0.11806426748583296,92.78481131936863,0.6894248953989784,0.005868831197684153,-0.7240773471953048,-0.00402803979599956
189.0,-0.02817936858701022,0.079999174357922,-0.07798472460236192,-0.019637299644440227,-9.787502524589566,-0.5176461534950892,-0.25664205328144574,-0.5012961957376918,-0.07334685497231502,260.99570297191053,-0.11951600471065843,93.02446211129721,0.6878573562017936,-0.004277211447240871,-0.7255540516483435,0.0056201003462398496
190.0,-0.015619142178809775,0.07054114183845919,-0.06249706660225622,-0.030822234051610803,-9.783751262294775,-0.568984367070125,-0.04159422612548991,-0.5630728430525377,-0.12179187506680267,315.15074127090145,-0.17893362959547257,93.32484306281705,0.6859798667568107,-0.007639973304265597,-0.7273905488886878,0.009611204635485517
191.0,-0.023856754527055348,0.06907172643198838,-0.0422066459636221,-0.03542315361704278,-9.781858779919647,-0.5979202047194632,-0.005330093322735326,0.1769523844438804,-0.11572261061958333,342.69352482418446,-0.20121151869759185,93.4939543913026,0.6849636856485062,-0.006529851459547336,-0.7284410307057786,0.008847600986495764
192.0,-0.028183817611709967,0.06715011052782213,-0.034044951246019965,-0.03751668433540312,-9.780750178490281,-0.6171343855138536,0.011221842099513036,0.07927760351226279,-0.10822052830006304,353.2043332966289,-0.19250764106922602,93.60954439995237,0.6843146109649341,-0.004712913260175612,-0.7291093922480505,0.007210467217518238
193.0,-0.025069873367417915,0.06652257911670524,-0.027533606926962738,-0.03951254480286741,-9.78017972350229,-0.6267998142925926,0.0020188038303108093,0.07120825882110186,-0.042929266876065145,358.87768771828263,-0.193482353019847,93.6675050486813,0.6839889152871013,-0.003820392359301801,-0.7294438647769101,0.006496021034929042
194.0,-0.02423898174259273,0.0674502296505185,-0.026254002644228946,-0.04006272401433694,-9.779999999999985,-0.6295058979297066,-0.010588140327548127,0.024003386963034293,-0.02045336871709043,358.9611508867911,-0.19149924102605254,93.68405494369549,0.6839071187841037,-0.0032106822649043587,-0.7295378635935241,0.0059503915128562256
195.0,-0.02423194606842899,0.06539402163529509,-0.03267001207480264,-0.04000000000000002,-9.779999999999985,-0.6298940779971115,0.0025464316283406296,0.019758189897287753,-0.004052289197254892,358.9986365993095,-0.18867356764564275,93.68668753009146,0.6839003992778045,-0.002959272826000568,-0.729550545970149,0.00570360693250338
196.0,-0.023704077060931916,0.06675483230926779,-0.03085541474654379,-0.039672299027137745,-9.779999999999985,-0.6300000000000003,0.03401417690732207,0.09630516353046595,0.029356878840245775,359.01774813588065,-0.1875,93.6875,0.68389893,-0.0028473064554531513,-0.7295532199999998,0.005587542323348696
197.0,-0.029854047274410187,0.0666663601855134,-0.026109104828862903,-0.03554830832250189,-9.779999999999985,-0.6300000000000003,-0.036686440239867654,-0.07449354450992557,0.028188965632262003,359.1224741998872,-0.1875,93.6875,0.6838771198957816,-0.0023456121399720357,-0.729581329975186,0.0050487328686340555
198.0,-0.02550429565953761,0.06697194405057305,-0.02492497735239672,-0.037774154161250954,-9.779999999999985,-0.6300000000000003,-0.0855772461745244,-0.046281792803970226,0.03206299049293001,359.0297668281539,-0.1875,93.6875,0.6838017562034744,-0.002883812235928945,-0.7296457900446655,0.005609147364527943
199.0,-0.024450402979636864,0.06866782243294338,-0.026955300523848924,-0.038887077080625485,-9.779999999999985,-0.6300000000000003,-0.03084619723354603,-0.0008566394403087957,0.010508434078242545,358.9826253495608,-0.1875,93.6875,0.6837558347146407,-0.0031587666018354395,-0.72969401340943,0.005894724166134936
200.0,-0.024183366812399083,0.06879711686163296,-0.02631031155224705,-0.03944353854031275,-9.779999999999985,-0.6300000000000003,0.02104048505258183,-0.013974186655638269,-0.008464910985072276,358.9590546102643,-0.1875,93.6875,0.683732873970224,-0.0032962437847886866,-0.7297181250918122,0.006037512566938434
201.0,-0.026084987593052125,0.06799999999999998,-0.028967121588089347,-0.03973200992555834,-9.779999999999985,-0.6300000000000003,-0.02279388957816377,-0.005656792803970224,0.005261321339950373,358.9468052109181,-0.1875,93.6875,0.6837213935980155,-0.0033672637766749367,-0.7297301809330033,0.006111360054590566
202.0,-0.026360111662531032,0.06754590570719601,-0.027714330024813914,-0.04000000000000002,-9.779999999999985,-0.6300000000000003,-0.03853714330024814,0.016479916253101738,-0.001199984491315136,358.93756203473947,-0.1875,93.6875,0.6837163349776683,-0.0034175762233250606,-0.7297353304168743,0.0061641865210918054
203.0,-0.024061382390011436,0.06734296348812475,-0.027484247607231494,-0.04000000000000002,-9.779999999999985,-0.6300000000000003,0.01511418269230769,0.008472588399503723,-0.003221944665997085,358.9375,-0.1875,93.6875,0.6837158200000006,-0.0034179699999999985,-0.7297363300000008,0.006164549999999994
204.0,-0.026581559681358082,0.06676081176887627,-0.025821528270116995,-0.04000000000000002,-9.779999999999985,-0.6300000000000003,-0.04093856622208437,0.015960859956575684,-0.02526171674987199,358.9538771712159,-0.1875,93.6875,0.6837158200000006,-0.0033510888883374664,-0.7297363300000008,0.006097669047146396
205.0,-0.025969711292291954,0.06791669620701876,-0.027893123006026248,-0.04000000000000002,-9.779999999999985,-0.6300000000000003,-0.0165787841191067,-0.03393300248138957,-0.04395961341525857,358.97794665012407,-0.1875,93.6875,0.6837158200000006,-0.0032585217022332476,-0.7297363300000008,0.006005101781637709
206.0,-0.02801959510024028,0.0681018354405451,-0.02802056993186027,-0.04000000000000002,-9.779999999999985,-0.6300000000000003,-0.018546048485564612,-0.023250472645633933,-0.017697194158887708,358.98998138957813,-0.1875,93.6875,0.6837158200000006,-0.0031612348936153464,-0.7297363300000008,0.005907815015242813
207.0,-0.027420920477372105,0.06860651266296426,-0.026857856748985796,-0.04000000000000002,-9.779999999999985,-0.6300000000000003,-0.02015027423293552,-0.04077984067903422,0.0009885863464492491,358.99599875930517,-0.1875,93.6875,0.6837158200000006,-0.003037586962936707,-0.7297363300000008,0.005784167023750438
208.0,-0.02835971779116942,0.0687848231517586,-0.026055656485091984,-0.04000000000000002,-9.779999999999985,-0.6300000000000003,-0.017635620987435503,0.0360616925637087,0.010638942430777107,359.0050558312655,-0.1875,93.6875,0.6837158200000006,-0.00296345751372642,-0.7297363300000008,0.005710037544133285
209.0,-0.015793280620706007,0.06860458890264498,-0.02388275954138678,-0.038382282137698606,-9.779999999999985,-0.6337746750120369,-0.11564278919821017,0.6883219929060534,0.012322915532265707,342.5918542368801,-0.20242537313432835,93.69905512758785,0.6836429422725088,-0.0016125303202497517,-0.729806385965335,0.0044197643507118784
210.0,-0.05452154092371057,0.07055321732728795,-0.02759814800104323,-0.02407074125058488,-9.779999999999983,-0.6533321353251915,-0.08387622408002285,5.668519065228583,0.39425054546774574,168.7845686450189,-0.13180957434544677,93.81867511036367,0.6821921313407069,0.020776775532742,-0.7296648714038396,-0.017504265500700396
211.0,-0.052656045336912094,0.07139518391443184,0.003158225351143934,-0.024911336095533247,-9.78203543843706,-0.6156415333600058,0.5040749736425427,1.699512880659552,-0.08289152158039986,83.51609168280022,-0.14238990757254166,93.59724929984336,0.6827667384509077,0.04291035124664332,-0.7273051157405386,-0.038304851303605204
212.0,-0.03194143792703259,0.07484198519838337,0.015929343090318515,-0.027589308600762016,-9.782713571753083,-0.6071894302744727,-0.45358527303535945,-0.37607561292163194,-0.003961761814265469,39.4511333990038,-0.1552675344314321,93.55113041029034,0.6832192279074816,0.04506683679843687,-0.7272052875154307,-0.04014151557346159
213.0,-0.02919060851470844,0.0665293303154142,0.010916182180970386,-0.0336450516823352,-9.781356785876532,-0.6471688151839871,-0.3032592151613216,0.12903866034610306,-0.02286626104972273,17.209482409237754,-0.19429166810398157,93.78200805226999,0.6819198162772563,0.0453197206714543,-0.7287255628671119,-0.03972330875929392
214.0,-0.01992620109282496,0.0665707155509024,0.015662931988633753,-0.042034369846945134,-9.78067839293826,-0.6677919621943481,-0.22937823613875008,-0.18957721423102777,-0.00283107117352421,6.561871790691447,-0.2490804425345049,93.89568325097852,0.6812960669459108,0.045590005103530395,-0.7294678835971508,-0.03922194421412557
215.0,-0.014210435673802133,0.06713507643480184,0.01865836285937822,-0.04665098774037395,-9.780339196469122,-0.6791935731008086,-0.16598900797955574,-0.25170416997155837,0.011797863916959975,6.372016654091748,-0.2847798850564392,93.9489632747396,0.681008822609711,0.04483508708152442,-0.7298889493428729,-0.03805660906980697
216.0,-0.011140166985889289,0.06694537346711257,0.015642290855474594,-0.048709410271822566,-9.780105990783394,-0.6863777951828439,-0.08416551891306448,-0.10924381252221366,0.04541418726201335,6.2259901534884,-0.3011955990479833,93.98439190542977,0.6808245750486079,0.04411573692558732,-0.7301710134151886,-0.03716643634998752
217.0,-0.009723181291203734,0.06703285058404271,0.01836364414765538,-0.04966806919121079,-9.779999999999985,-0.6896451187895785,-0.03538153057788401,-0.0019497352421616165,0.0143577592736078,6.197686897020698,-0.30916634791108843,94.00008765778401,0.6807272892086353,0.04403443554804714,-0.7302782939011421,-0.03698889013812738
218.0,-0.008422090454348522,0.06651145270500108,0.01668787842981392,-0.04999999999999994,-9.779999999999985,-0.6898973607038119,-0.025069956924795633,-0.004096015991177285,0.0029341178534726927,6.1900659824046915,-0.312133431085044,94.0,0.6807263230498524,0.04401956530791794,-0.7302828657233614,-0.03694187185728247
219.0,-0.00896550044937142,0.06568914239881982,0.013911951847435725,-0.04999999999999995,-9.779999999999985,-0.6899999999999997,-0.0005702630702630676,-0.0022066195453292236,-0.017666428553525328,6.1875,-0.3125,94.0,0.680725099999999,0.044006350000000055,-0.7302856399999988,-0.03692626999999997
220.0,-0.009383455254423,0.0671419834645641,0.014334368140819759,-0.04999999999999995,-9.779999999999985,-0.6899999999999997,0.03462541043186205,0.00679454953648502,0.005224793128018932,6.1875,-0.3125,94.0,0.680725099999999,0.044006350000000055,-0.7302856399999988,-0.03692626999999997
221.0,-0.009217782217782222,0.06644320016900662,0.012760236179591022,-0.04999999999999995,-9.779999999999985,-0.6899999999999997,-0.024010185602927538,0.0034825725349918895,0.020300051650858103,6.1875,-0.3125,94.0,0.6807250999999991,0.044006350000000055,-0.7302856399999988,-0.03692626999999997
222.0,-0.009793301680398459,0.06635685551008132,0.011912986654922143,-0.04999999999999995,-9.779999999999985,-0.6899999999999997,-0.018969230813988876,0.004270925087457345,0.024269821800063734,6.1875,-0.3125,94.0,0.6807250999999991,0.044006350000000055,-0.7302856399999988,-0.03692626999999997
223.0,-0.009853903265193592,0.06626174228996809,0.010880735751703497,-0.04999999999999995,-9.779999999999985,-0.6899999999999997,-0.005705195901768482,0.019787635639450157,0.00831742462286817,6.1875,-0.3125,94.0,0.6807250999999991,0.044006350000000055,-0.7302856399999988,-0.03692626999999997
224.0,-0.008623591909882235,0.06608270067745872,0.011073437315372803,-0.04999999999999995,-9.779999999999985,-0.6899999999999997,-0.011339787284847769,0.013710677483358934,0.02522935314013943,6.1875,-0.3125,94.0,0.6807250999999991,0.044006350000000055,-0.7302856399999988,-0.03692626999999997
225.0,-0.012207806754177724,0.06696957265404843,0.007485701574411254,-0.04999999999999994,-9.779999999999985,-0.6899999999999997,0.010396589157929882,0.021750837508145975,0.003352992913224769,6.1875,-0.3125,94.0,0.680725099999999,0.04401160028348,-0.7302856399999988,-0.03692865631476047
226.0,-0.010404384146319633,0.06759997708384803,0.012454699422441363,-0.04999999999999995,-9.779999999999985,-0.6899999999999997,-0.003947709996097094,0.028260896809283904,-0.014290906226390097,6.1875,-0.3125,94.0,0.680725099999999,0.044071979012707735,-0.7302856399999988,-0.036958962512218946
227.0,-0.009068197035938974,0.06716599350470315,0.01249533978566237,-0.04999999999999995,-9.779999999999985,-0.6899999999999997,-0.0007331602089666613,0.006476912424493067,-0.011611954353889838,6.1875,-0.3125,94.0,0.680725099999999,0.0441021683773216,-0.7302856399999988,-0.0369741156109482
228.0,-0.010020450875289588,0.06662890245954761,0.013989605376702156,-0.04999999999999995,-9.779999999999985,-0.6899999999999997,-0.03323723767272154,-0.00034404999122741083,0.0033906729471245584,6.1875,-0.3125,94.0,0.6807250999999991,0.04411726305962853,-0.7302856399999988,-0.036981692160312815
229.0,-0.008860121061733967,0.06647530829385667,0.01086265884652982,-0.04999999999999995,-9.779999999999985,-0.6899999999999997,-0.02231793743890518,0.0031899132453567934,-0.004403761561019626,6.1875,-0.3125,94.0,0.6807250999999991,0.04412481040078199,-0.7302856399999988,-0.036985480434995124
230.0,-0.00830738213399504,0.06692199131513646,0.010047766749379655,-0.04999999999999995,-9.779999999999985,-0.6899999999999997,-0.012686104218362283,-0.0008636398883374692,-0.005897177419354839,6.1875,-0.3125,94.0,0.6807250999999991,0.04412841999999998,-0.7302856399999988,-0.036987300000000015
231.0,-0.008848322600338732,0.06627879076568592,0.010562660010240659,-0.04999999999999995,-9.779999999999985,-0.6899999999999997,-0.008577533577533578,-0.007119017155559493,0.015965360244594114,6.1875,-0.3125,94.0,0.6807250999999991,0.04412841999999998,-0.7302856399999988,-0.036987300000000015
232.0,-0.009303040821185986,0.06631548592536494,0.011257625215286508,-0.04999999999999994,-9.779999999999985,-0.6899999999999997,-0.014095439870389467,-0.009188346096108193,0.01788385925230683,6.1875,-0.3125,94.0,0.680725099999999,0.044128419999999974,-0.7302856399999988,-0.03698730000000001
233.0,-0.00866865750736719,0.06652719860784377,0.013285062607643257,-0.04999999999999995,-9.779999999999985,-0.6899999999999997,-0.0014876140884205408,0.00457291364549429,0.01319470180357277,6.1875,-0.3125,94.0,0.680725099999999,0.044128419999999974,-0.7302856399999988,-0.036987300000000015
234.0,-0.007919936694130245,0.0672747655570236,0.011193399790173987,-0.04999999999999995,-9.779999999999985,-0.6899999999999997,-0.017694799600041534,-0.0063906523583942935,-0.013897376145360015,6.1875,-0.3125,94.0,0.680725099999999,0.044128419999999974,-0.7302856399999988,-0.036987300000000015
235.0,-0.008669645766419962,0.06658279220779217,0.008030943071265654,-0.04999999999999995,-9.779999999999985,-0.6899999999999997,0.01184894015035144,0.009971547269934366,-0.009848812142158915,6.1875,-0.3125,94.0,0.6807250999999991,0.04412841999999998,-0.7302856399999988,-0.036987300000000015
236.0,-0.008377321603128058,0.06707019794721406,0.008753054740957968,-0.04999999999999995,-9.779999999999985,-0.6899999999999997,0.0034843139051808406,-0.003390762463343109,-0.014068991324535679,6.1875,-0.3125,94.0,0.6807250999999991,0.04412841999999998,-0.7302856399999988,-0.036987300000000015
237.0,-0.008955334987593057,0.06692625620347392,0.007439050868486353,-0.04999999999999995,-9.779999999999985,-0.6899999999999997,0.017928524348635237,-0.0005195409429280397,-0.01577669432382134,6.1875,-0.3125,94.0,0.6807250999999991,0.04412841999999998,-0.7302856399999988,-0.036987300000000015
238.0,-0.008115180294615783,0.06761487381346251,0.010108494328252395,-0.04999999999999995,-9.779999999999985,-0.6899999999999997,0.04671292808893615,0.008161268475028554,-0.0029097785335184534,6.1875,-0.3125,94.0,0.6807250999999991,0.04412841999999998,-0.7302856399999988,-0.036987300000000015
239.0,-0.007673672653511366,0.06709330074047815,0.01070460386387806,-0.04999999999999995,-9.779999999999985,-0.6899999999999997,0.023395720403028872,0.010800014277836858,-0.0022979316830123286,6.1875,-0.3125,94.0,0.6807250999999991,0.04412841999999998,-0.7302856399999988,-0.036987300000000015
240.0,-0.008612312866345128,0.06736095266740427,0.009963738882085658,-0.04999999999999994,-9.779999999999985,-0.6899999999999997,0.019360964276538873,0.018675720420932115,-0.01425094073153549,6.1875,-0.3125,94.0,0.680725099999999,0.044128419999999974,-0.7302856399999988,-0.03698730000000001
241.0,-0.008762921666147474,0.06675459307717374,0.008023224087740219,-0.04999999999999995,-9.779999999999985,-0.6899999999999997,-0.023010860107634302,0.01626205335882755,-0.011465998159546548,6.1875,-0.3125,94.0,0.680725099999999,0.044128419999999974,-0.7302856399999988,-0.036987300000000015
242.0,-0.0078566469372921,0.06504230894553474,0.008829229909875072,-0.04999999999999995,-9.779999999999985,-0.6899999999999997,-0.03317106280815958,0.01566049318065447,0.002595164691938885,6.1875,-0.3125,94.0,0.680725099999999,0.044128419999999974,-0.7302856399999988,-0.036987300000000015
243.0,-0.00762197032358323,0.06683467607661156,0.010003767737638707,-0.04999999999999995,-9.779999999999985,-0.6899999999999997,-0.030672832991381377,0.0011066162779872456,0.00014501627404853168,6.1875,-0.3125,94.0,0.6807250999999991,0.04412841999999998,-0.7302856399999988,-0.036987300000000015
244.0,-0.011279892598440987,0.06636049165887874,0.010060234120717996,-0.0505474095796676,-9.779999999999985,-0.6899999999999997,-0.019719734790299304,-0.22985358335660758,0.02846703028154641,6.173814760508309,-0.3149437927663734,94.0,0.6807279636559131,0.044063506608015626,-0.7302899359139774,-0.036902340312805496
245.0,-0.022510542001063186,0.06567721844437058,0.01451276248426586,-0.05705271297471586,-9.779999999999985,-0.6782137698603754,0.21761278583430427,-0.28531112368396466,0.009349805025659623,6.086771968602734,-0.34212825170336003,93.94222436206067,0.6811492220927616,0.043799748763805595,-0.7299285728582886,-0.036413049718270835
246.0,0.00939185425110094,0.0703746444051493,0.027023967463541524,-0.06144504848912549,-9.78212107821475,-0.6283225278820217,-0.25472985970438555,-0.8145383431619047,0.0578458670983989,5.063782029374279,-0.3608978642520335,93.66002070953232,0.683230334285444,0.037450933484863475,-0.7285402073394405,-0.030392006233417344
247.0,0.0032154064898768497,0.06558728662382701,0.03005654611317494,-0.07940373866581507,-9.775899248784789,-0.6807931424988858,-0.24102976322505804,-0.6461202374609334,-0.024934395672811933,4.4871210905884675,-0.47616762282810404,93.97090219537336,0.6813759345241259,0.03522632615419646,-0.7305451455293029,-0.02687966047913752
248.0,0.013214843243337531,0.06531857727493279,0.027667110805726997,-0.09325545934331342,-9.772788334069809,-0.711203022862346,-0.1877495330173157,-0.40506454120705354,0.009936348149346054,3.9143136670424123,-0.5556241339946972,94.14674142026732,0.680339179572157,0.032561473056286594,-0.7317699837323937,-0.02341167828327323
249.0,0.014667050165168283,0.06538656136473911,0.02931498257783907,-0.10257836505777602,-9.77123287671232,-0.7264079630440763,-0.1431324644558719,-0.1348544846797731,0.009626654035572342,3.567463529513386,-0.5952760210540446,94.23466103271431,0.6798390025548957,0.030984856120029915,-0.7323822685866272,-0.021401271873796923
250.0,0.015726584598898356,0.06451713905798528,0.02658486434917657,-0.10704508045859437,-9.770455148033575,-0.7343787528268046,-0.1079632638193585,-0.07948582350354716,0.023837390941344558,3.396544716128864,-0.6142906345039121,94.28042632762342,0.6795757944647371,0.03022592573213822,-0.7326997707328902,-0.02042184569857395
251.0,0.01665803379304176,0.06460059339112255,0.023397381357089395,-0.10924282303972588,-9.76999999999999,-0.7397390891840607,-0.04863750906389931,-0.034378075251552634,0.008245474083133615,3.341693701413968,-0.62363614800759,94.31122509487668,0.6793857378267123,0.030040739799343533,-0.7328962619307406,-0.02011264505432453
252.0,0.017308678653696875,0.06392457006082133,0.02395720698829441,-0.10984911550468274,-9.76999999999999,-0.74,-0.023818251911546653,-0.008196226791765293,0.019110755098251844,3.316304630593132,-0.625,94.3125,0.6793811768782518,0.02991846557329606,-0.7329101600000005,-0.01997372673257023
253.0,0.01758566086691088,0.06521402600535664,0.02499733398322109,-0.11000000000000011,-9.76999999999999,-0.74,0.042810016764149826,-0.009965899356020325,0.009848791861140651,3.3125,-0.625,94.3125,0.67938232,0.02990584563004034,-0.7329101600000005,-0.01995776161290322
254.0,0.019982617964472815,0.06434511008704556,0.027096604336523708,-0.11000000000000011,-9.76999999999999,-0.74,-0.026182906475245182,0.017444547220252862,-0.002196755976997913,3.3125,-0.625,94.3125,0.67938232,0.029907230000000014,-0.7329101600000005,-0.01995849999999999
255.0,0.02039593303202175,0.06358765607152701,0.027666936222379784,-0.11000000000000011,-9.76999999999999,-0.74,0.05131562266138879,0.030770453924435778,0.014697340629800307,3.3125,-0.625,94.3125,0.6794063234408605,0.029907230000000014,-0.7328861565591398,-0.01995849999999999
256.0,0.01914720971533683,0.06525675533475242,0.023281628017304483,-0.11000000000000013,-9.76999999999999,-0.7400000000000001,0.03403170546887446,0.02213253565564591,0.002597037852213587,3.3125,-0.625,94.3125,0.6794258262365593,0.029907230000000014,-0.7328666537634405,-0.01995849999999999
257.0,0.018426060645608082,0.0657533530504161,0.020849368894626488,-0.11000000000000013,-9.76999999999999,-0.7400000000000001,0.01363791346940119,0.005559207683666036,-0.004080286855924795,3.3125,-0.625,94.3125,0.679435577634409,0.029907230000000014,-0.7328569023655911,-0.01995849999999999
258.0,0.018277546451836303,0.06390149042098968,0.02266661993118422,-0.11000000000000013,-9.76999999999999,-0.74,-0.05480480257051032,0.0035472837425774353,-0.005599386604141058,3.3125,-0.625,94.3125,0.6794404533333336,0.029907230000000014,-0.7328520266666663,-0.01995849999999999
259.0,0.01767475337480153,0.06514925637674795,0.017055394332837766,-0.11000000000000011,-9.76999999999999,-0.74,-0.020407984411806027,-0.016852288649803093,-0.00010118213581742676,3.3125,-0.625,94.3125,0.6794428911827961,0.029907230000000014,-0.732849588817204,-0.01995849999999999
260.0,0.017617458612643987,0.0650285452390652,0.018558419132624727,-0.11000000000000011,-9.76999999999999,-0.74,-0.01319618370615903,0.015599393309507055,0.008005924549090774,3.3125,-0.625,94.3125,0.6794433600000003,0.029907230000000014,-0.7328491199999996,-0.01995849999999999
261.0,0.01798221670802317,0.0640457647191518,0.01773203342356569,-0.11000000000000011,-9.76999999999999,-0.7400000000000001,-0.0009887667775772598,-0.0011935519117978795,0.0012208683453643126,3.3125,-0.625,94.3125,0.6794433600000003,0.029907230000000014,-0.7328491199999996,-0.01995849999999999
262.0,0.018867038875103402,0.06660104613128805,0.0180818976050831,-0.11000000000000011,-9.76999999999999,-0.7400000000000001,0.0041504677278366795,-0.008490696551432439,-0.0007465757528761561,3.3125,-0.625,94.3125,0.6794433600000003,0.029907230000000014,-0.7328491199999996,-0.01995849999999999
263.0,0.018272694375516964,0.06604439713512295,0.01690334799608994,-0.11000000000000011,-9.76999999999999,-0.74,0.0009719363297992327,0.00417562528197609,-0.0067146437232122715,3.3125,-0.625,94.3125,0.6794433600000003,0.029907230000000014,-0.7328491199999996,-0.01995849999999999
264.0,0.017672327336641862,0.06569961792240017,0.016119167794571027,-0.11000000000000011,-9.76999999999999,-0.74,0.05490594335100383,0.008601460283667945,-0.004427421117189263,3.3125,-0.625,94.3125,0.6794433600000003,0.029907230000000014,-0.7328491199999996,-0.01995849999999999
265.0,0.018390095119933843,0.06446523234829685,0.0163609951876081,-0.11000000000000011,-9.76999999999999,-0.74,0.004298989820663204,0.009073285585382361,0.010119328755921498,3.3125,-0.625,94.3125,0.6794433600000003,0.029907230000000014,-0.7328491199999996,-0.01995849999999999
266.0,0.018269075682382143,0.06488104838709675,0.015767834987593057,-0.11000000000000011,-9.76999999999999,-0.74,-0.025329074906947892,0.005804125310173698,0.013588031172456577,3.3125,-0.625,94.3125,0.6794433600000003,0.029907230000000014,-0.7328491199999996,-0.01995849999999999
267.0,0.016995657568238225,0.06523232009925557,0.014177109181141446,-0.11000000000000011,-9.76999999999999,-0.74,-0.021243021091811413,0.0016652450372208437,0.021233328163771714,3.3125,-0.625,94.3125,0.6794433600000003,0.029907230000000014,-0.7328491199999996,-0.01995849999999999
268.0,0.018773263027295296,0.06610251240694788,0.01453272332506204,-0.11000000000000011,-9.76999999999999,-0.74,0.02123332816377171,-0.016304474255583127,-0.002084948821339949,3.3125,-0.625,94.3125,0.6794433600000003,0.029907230000000014,-0.7328491199999996,-0.01995849999999999
269.0,0.021260080645161293,0.06502892369727045,0.020360654466501246,-0.10777667493796528,-9.771826302729519,-0.7188784119106699,0.5424094680521092,-0.1165269269540943,0.006928989609181142,3.3125,-0.6165632754342432,94.19785980148885,0.6802231554540945,0.02969640804466502,-0.7321299056277913,-0.019927481995037216
270.0,0.013294232649071362,0.06441657267463718,0.018200015038724714,-0.09950417324610869,-9.776074441687332,-0.6640628618693132,0.09499868411158738,-0.019824798857056923,0.09397981051206858,3.306634897360704,-0.5924336416271899,93.87981333182945,0.6822546174924433,0.029164139100533875,-0.7302528704678547,-0.01992819263974735
271.0,0.009338183322054291,0.06575295134972553,0.01587047898338221,-0.09959079630047363,-9.778198511166238,-0.6384023986765919,0.008533771336190703,0.040459809008196096,0.019004483419806,3.305535190615836,-0.6087168208135949,93.7342615046244,0.6832584021333188,0.029117788985750796,-0.7293301051532822,-0.01987099019084142
272.0,0.00925718099105196,0.06588143845401909,0.006776430558688625,-0.09963410782765611,-9.779260545905693,-0.6258364350703058,0.0561434365365817,0.05451960673734867,0.013022713173922852,3.309017595307918,-0.6168584104067976,93.65960904015338,0.6837547281336569,0.0291029817509399,-0.7288747807751526,-0.019851741224452976
273.0,0.008476753085624055,0.06741687031606385,0.002328268058106769,-0.09965576359124736,-9.779791563275419,-0.6145106394501555,-0.03180460612416257,0.11739283342105923,0.058629892173238954,3.3107587976539588,-0.6209292052033988,93.5923013198719,0.6841457058179803,0.02911107822570038,-0.7285022997987383,-0.01985261660813023
274.0,0.0017942078083207124,0.06920223168408651,0.006384977701509961,-0.09973607038123156,-9.779999999999985,-0.6211411758044824,-0.06086198048143612,0.08143214872045516,0.011200802166023944,3.3116293988269794,-0.6232282502443793,93.63340252097812,0.6838177926881459,0.029232222298954426,-0.7288080640581777,-0.0199380269715589
275.0,0.0013600710445468515,0.06890726668045216,0.005792007611564063,-0.0999999999999999,-9.779999999999985,-0.6258394051065423,-0.0174577403723069,0.03901317376619796,0.021121774870514788,3.312247983870968,-0.625,93.66210082060636,0.6836025372385004,0.02930613364703344,-0.7290083658120796,-0.0199802252892985
276.0,0.0019795186891961086,0.070484619323329,0.006199535231793298,-0.0999999999999999,-9.779999999999985,-0.6281339162629488,0.022213360116585923,0.016395387766355508,0.011939225648903068,3.3125,-0.625,93.67602898893222,0.6834952828379997,0.029336221059907866,-0.729108024430737,-0.020003123128520206
277.0,0.0005207767143251014,0.07014801685769427,0.005908700618378038,-0.0999999999999999,-9.779999999999985,-0.6292729134664621,0.0258709480483674,0.0006759817243688218,0.016763657489463943,3.3125,-0.625,93.68305171530977,0.6834418295852522,0.029351003271889435,-0.729157664418842,-0.020014279790066543
278.0,0.0006062467997951867,0.0694566938437906,0.0060767261412422715,-0.0999999999999999,-9.779999999999985,-0.6300000000000003,0.01676070345425184,0.012922427035330262,0.027113119855055337,3.3125,-0.625,93.6875,0.6834106399999988,0.029357910000000036,-0.7291870099999992,-0.02001952999999998
279.0,0.0002869943676395291,0.06907077868368189,0.003749281184765056,-0.0999999999999999,-9.779999999999985,-0.6300000000000003,-0.012409040332427427,0.01240879416282642,0.015122937098743551,3.3125,-0.625,93.6875,0.6834106399999988,0.029357910000000036,-0.7291870099999992,-0.02001952999999998
280.0,0.0002899779432037499,0.06972405372405369,0.004243067864035607,-0.0999999999999999,-9.779999999999985,-0.6300000000000003,-0.0013168227381937054,-0.011701241187128283,-0.011957565284178188,3.3125,-0.625,93.6875,0.6834106399999988,0.029357910000000036,-0.7291870099999992,-0.02001952999999998
281.0,0.0007367019181535312,0.06879904683130487,0.004234771948481627,-0.0999999999999999,-9.779999999999985,-0.6300000000000003,-0.005556694089960218,0.00561177453818583,-0.003017116172358108,3.3125,-0.625,93.6875,0.6834106399999988,0.029357910000000036,-0.7291870099999992,-0.02001952999999998
282.0,0.001013512249399346,0.06892805939580132,0.004015649001536099,-0.0999999999999999,-9.779999999999985,-0.6300000000000003,-0.00825291280180393,-0.0074143360559691205,0.012046032484540548,3.3125,-0.625,93.6875,0.6834106399999988,0.029357910000000036,-0.7291870099999992,-0.02001952999999998
283.0,0.0050079968194887544,0.06948388081452596,0.0025562115975422423,-0.0999999999999999,-9.779999999999985,-0.6300000000000003,-0.002676394366162511,0.14349351435414942,0.017483934356414196,3.33366935483871,-0.6169354838709677,93.6875,0.6834027651612895,0.029463737258064535,-0.7291870099999992,-0.020131263709677407
284.0,0.0027447319705384225,0.07031793296309423,-0.005975422427035329,-0.0999999999999999,-9.779999999999985,-0.6415930521091813,-0.04830358373705148,0.1975965846429556,0.011688132655874591,3.5399581265508684,-0.5887096774193548,93.75003101736972,0.6829942705409426,0.030567191351116626,-0.729477798526054,-0.021284106254342412
285.0,0.005802729528535981,0.06975062034739452,-0.015000000000000006,-0.0999999999999999,-9.779999999999985,-0.6461191066997515,-0.010198898883374689,0.1961325217121588,-0.0036445409429280394,3.7352008374689825,-0.5745967741935483,93.78328163771712,0.6827673352704717,0.031652831320719596,-0.7295893423275435,-0.022406087240074424
286.0,0.006895850565205405,0.06974371775178226,-0.020841368309110254,-0.0999999999999999,-9.779999999999985,-0.6483821339950366,0.043667733196463034,0.07108385705915948,0.012933627752176139,3.8464310638957815,-0.5675403225806451,93.7999069478908,0.6826584620438383,0.03226948420874689,-0.729640191647643,-0.02303992603939204
287.0,0.006424952417798413,0.0690542810322987,-0.019806340121896842,-0.0999999999999999,-9.779999999999985,-0.6495136476426792,0.0448817734260551,0.03274586273273351,-0.009055878831828363,3.902046177109181,-0.5640120967741935,93.80821960297766,0.6826250284412739,0.03257781065276054,-0.7296656163076928,-0.023356845439050852
288.0,0.0061681213701895304,0.06889190478413941,-0.022866259390973243,-0.0999999999999999,-9.779999999999985,-0.6500794044665004,0.12214549473101763,0.04004572719453052,-0.014831521922117655,3.929192191377171,-0.5625,93.81237593052109,0.6826085577287014,0.032728666772952844,-0.7296783286377178,-0.023511813460452835
289.0,-0.03148838837122526,0.0773269208859414,-0.007688261660296007,-0.10148582600195498,-9.77968719452589,-0.6505474095796672,-0.23509237783187442,-0.9008273883013738,-0.12041203887669158,3.8594255941471163,-0.574718963831867,93.81298875855327,0.6826210781769306,0.03244001648949168,-0.7296870536143697,-0.023113034576154677
290.0,0.02780642911061638,0.06364425752384302,-0.009722850730193439,-0.08620406702187708,-9.77468230694036,-0.7290015557666618,-0.2202134779322934,-2.365296133950778,-0.26070880936337987,160.81574404884833,-0.49546091308358464,94.2698093497446,0.6798894615316726,0.014387447708341931,-0.7327167486444179,-0.007222857071165994
291.0,0.004090421613482989,0.06603320442461005,0.019374661129054283,-0.06729558189803529,-9.772179863147594,-0.7484982964937528,-0.13296678662458145,-1.0115926886619462,-0.10401942693542185,265.61830936933734,-0.3796008039363332,94.37812737958694,0.6792436681843637,0.005434078027868236,-0.733614891064144,-0.00018107009141426133
292.0,-0.008129086799918236,0.06401035871594707,0.03384966146983411,-0.05784133933611439,-9.770928641251212,-0.7752168901823601,-0.19824718103341454,-0.45378346711973483,-0.06867529619403766,318.07578774918477,-0.3097600793875214,94.53533385108379,0.6782896729631496,0.0012915724816760545,-0.7346505810965881,0.0030040458413896466
293.0,-0.016047925609147782,0.06139453194087449,0.05533516233879704,-0.05100278110500736,-9.77030303030302,-0.7953454929895185,-0.149161657288645,0.17887138772744743,-0.017409683588409164,344.46070057058455,-0.2689746144738194,94.6582766518371,0.6775385377181338,1.6909036536952212e-05,-0.7354195757828982,0.0037248833947906186
294.0,0.00291656913980976,0.05189242653126945,0.06969530909866711,-0.04525755839364985,-9.76753490611458,-0.8231082157759193,0.24815369339358184,0.9972417880263418,0.14070686980906938,327.3916916721994,-0.2521392874385408,94.81457382255559,0.6765503239602471,0.0008612058266094689,-0.7363705750951302,0.002605706220527449
295.0,-0.02646146863845233,0.062082521531311045,0.08605751304580089,-0.05872126680127346,-9.773928743379862,-0.7281097578231011,0.19599512001129224,0.5228358424226554,-0.036507988427415886,159.45145367081253,-0.3404143256490915,94.2562428782625,0.680107371893437,0.008175263329321171,-0.7329773749871018,-0.0032251167584389034
296.0,-0.016681670479839747,0.06434564455391027,0.08318365538747673,-0.05967832646026529,-9.777125662012503,-0.6741515779114753,0.012642928078433549,0.38904076879385263,-0.017625187536514167,74.60013891526188,-0.35935108342007926,93.94075208805222,0.682113373599023,0.01106227292994369,-0.7310937122139813,-0.005744912834968006
297.0,-0.01285411892878564,0.06305325281805814,0.07622567264691213,-0.060000453552713315,-9.778724121328825,-0.6442179260525118,1.0898872723539774e-05,0.19549948738209802,4.7602316550406434e-05,32.21817996670352,-0.3691916707422977,93.7661012204374,0.6832038518801564,0.012804627999750072,-0.7300700685591077,-0.007241560835326747
298.0,-0.012281921448287065,0.06416289694852541,0.08034553194324845,-0.060227499503629406,-9.779523350986985,-0.6321527185538824,-0.07533319041840711,0.09067438177697743,0.006160921206685574,11.022320066440713,-0.37429524886088494,93.6958233549471,0.6836571520153475,0.013650912118154605,-0.7296294010284947,-0.007962643572599837
299.0,-0.010562000685626441,0.06298900745355976,0.08425918869670845,-0.0604122572145013,-9.779999999999985,-0.6276146356370762,-0.08274362939312266,0.010303187518243166,0.013138537156063057,1.37013632113562,-0.37672393641888735,93.6715455243681,0.6838144335449876,0.014028076771643505,-0.7294698572619603,-0.00827737919121085
300.0,-0.009935044288582273,0.06542040368002905,0.0876321656433519,-0.06000977517106554,-9.779999999999985,-0.6287523856072246,-0.0021887852435459113,0.03297563536734972,-0.016608910477601945,1.3721590909090908,-0.375,93.67935475143136,0.6837814559286415,0.014018759164222875,-0.7294996612724016,-0.008285327311827961
301.0,-0.009274183225145768,0.06219304874221626,0.09030039599953753,-0.06000000000000005,-9.779999999999985,-0.6395385304659496,-0.09569244689724658,-0.007635908052954098,-0.025759390536478202,1.375,-0.375,93.74647577444955,0.6833948266205836,0.014069589354838718,-0.7298508999116744,-0.008300780000000006
302.0,-0.008853452774823746,0.06154433514514159,0.09526045974634685,-0.06000000000000005,-9.779999999999985,-0.6452531362007163,-0.1006227783193509,0.0015598075199889719,-0.018598898021781086,1.375,-0.375,93.78251208077316,0.683171393471582,0.014085339032258073,-0.7300535059235793,-0.008300780000000006
303.0,-0.008281781726338183,0.062595949525385,0.09963314452124934,-0.06000000000000005,-9.779999999999985,-0.6480131528417812,-0.03203034224959628,0.021943842867481977,-0.01695163105823388,1.375,-0.375,93.79995419706862,0.6830628177035327,0.014093213870967753,-0.7301523400944063,-0.008300780000000006
304.0,-0.014178540545476032,0.06487507642447157,0.10196565889307822,-0.06109481915933532,-9.779061583577699,-0.6597299390797371,-0.46457046957298975,0.26438511715099416,0.031634365158810726,1.4566226783968719,-0.3803763440860215,93.86445046119314,0.6826227701909648,0.014679461280547411,-0.7305510757265776,-0.008814359276637344
305.0,-0.0061909570060410665,0.059255852330818246,0.08171459909669812,-0.0627282364765327,-9.77807690719093,-0.668560768324512,0.5715117786449,1.70473349344885,-0.12646477909994494,2.170922652237963,-0.3754164773587763,93.91044380489518,0.6822136452596124,0.019227387871077882,-0.7306922123488209,-0.013136898525188276
306.0,-0.009208933426107445,0.06770978650306225,0.05862869494582352,-0.03991932041909325,-9.784999380446894,-0.5342539892335441,0.7672149843946754,1.1605782469083241,0.09723895103836037,3.712079908581499,-0.2361805240042405,93.12641550672558,0.6869156416171713,0.027045609155893324,-0.725710374342379,-0.022534758063139346
307.0,0.008471582635144647,0.08324936429616117,0.043851970231797585,-0.04203598915093691,-9.788024451695502,-0.48730191510745813,-0.7006031375863271,-0.5648155929334939,0.13329711330620006,4.0742078325279145,-0.24834355595941238,92.85201113818786,0.6885895558472046,0.02943907316495256,-0.7240159851107624,-0.02473837282984319
308.0,-0.01901092970334224,0.0671411656645641,0.018120242471446463,-0.07122075955242696,-9.781431580686455,-0.5986601741435906,-0.1526411646811465,-0.18491798788822872,0.1360056108891865,3.937046312577321,-0.41581924341749416,93.50045833407088,0.6845164959881184,0.03089748109860531,-0.727863744707455,-0.023765040672986112
309.0,0.02853518835976006,0.06490029360222051,-0.0008112202627529961,-0.0928247435275792,-9.780745115856416,-0.6115572447970555,0.02406898697688982,-0.8342417407671838,0.01692484126772017,2.8081214039454947,-0.5380309847701006,93.57644944620282,0.6842285969660851,0.025338448333645125,-0.7285328585644109,-0.016981379541972902
310.0,0.025202693610208906,0.06905672423094983,-0.005699812067559351,-0.10215067253616586,-9.780417991821885,-0.59971050650715,0.059828328458563375,-0.5357677703940766,0.02881571284369477,2.1374423816288477,-0.5856187409084488,93.50122121944923,0.6848584287215355,0.021802813272823317,-0.7281899380638085,-0.01296953584252736
311.0,0.020538648031819588,0.07129233303778294,-0.013209969641230838,-0.10755193781283537,-9.780022716946828,-0.5977948261749746,0.058310347782212175,-0.2492701868780924,-0.0021826138189522497,1.7601398641447281,-0.6136862446023388,93.48628473512215,0.6850460544675374,0.019831658680936858,-0.7281585958901509,-0.010706937555520837
312.0,0.018712888629397174,0.06897203571254804,-0.011041712714862623,-0.10983003523990252,-9.779838709677405,-0.5962054548866698,0.06769690816773358,-0.07144678797904604,-0.00782841414067695,1.5842526899097107,-0.6251643399295201,93.47513918718852,0.6851610535581667,0.018893445342285764,-0.7281180088310366,-0.009653617005838565
313.0,0.017748149383823013,0.07091458928484543,-0.01206693930674007,-0.11009013282732459,-9.779999999999985,-0.5911971974894179,0.001446380351147903,-0.02820611288353224,0.012070815971136177,1.5062536491023208,-0.6258598197343452,93.44501487009197,0.685371991133922,0.018416161300175125,-0.7279509979823389,-0.00919180484162896
314.0,0.014469425735554774,0.07025093790617981,-0.01577730267044784,-0.11000000000000011,-9.779999999999985,-0.5900198511166257,0.008105780308401277,0.00026186291307259135,-0.008033021805703259,1.5003101736972704,-0.625,93.43765508684864,0.68542319462531,0.018373458014888305,-0.7279063604665017,-0.009157178312655088
315.0,0.013052530845845109,0.07033302518457954,-0.013914906037857395,-0.11000000000000011,-9.779999999999985,-0.5900000000000003,0.036632634811208556,0.027276132769271426,0.0001698334499859594,1.5,-0.625,93.4375,0.6854247999999998,0.018371579999999964,-0.7279052700000006,-0.00915527
316.0,0.011922047060639679,0.0716172337461359,-0.009590478763345572,-0.11000000000000011,-9.779999999999985,-0.5900000000000003,0.05467885230014523,0.012259732017390057,0.0009434678261096051,1.5,-0.625,93.4375,0.6854247999999998,0.018371579999999964,-0.7279052700000006,-0.00915527
317.0,0.010926461318338276,0.07125024513727685,-0.004994932162010727,-0.11000000000000011,-9.779999999999985,-0.5900000000000003,0.025179287901224687,0.002057605384015048,0.0011037743636436402,1.5,-0.625,93.4375,0.6854247999999998,0.018371579999999964,-0.7279052700000006,-0.00915527
318.0,0.011450133820971497,0.07042598982414278,-0.004175093449156926,-0.11000000000000011,-9.779999999999985,-0.5900000000000003,0.017504958530745473,-0.0023741650979310315,-0.012303935590835629,1.5,-0.625,93.4375,0.6854247999999998,0.018371579999999964,-0.7279052700000006,-0.00915527
319.0,0.01108428990075713,0.07096040274617278,-0.0079194399657459,-0.11000000000000011,-9.779999999999985,-0.5900000000000004,-0.039693621285062486,0.007273208909687838,0.002016805006041478,1.5,-0.625,93.4375,0.6854247999999998,0.018371579999999964,-0.7279052700000006,-0.00915527
320.0,0.010188346823427473,0.07176271958328409,-0.011267212178502507,-0.11000000000000011,-9.779999999999985,-0.5900000000000004,0.04307592609003899,0.018985199668163377,-0.00417825202351412,1.5,-0.625,93.4375,0.6854247999999998,0.018371579999999964,-0.7279052700000006,-0.00915527
321.0,0.009920476141242274,0.07218408932017803,-0.008956186734412544,-0.11000000000000011,-9.779999999999985,-0.5900000000000004,0.026810915898617508,0.015463443506538265,0.0187390377599551,1.5,-0.625,93.4375,0.6854247999999998,0.018371579999999964,-0.7279052700000006,-0.00915527
322.0,0.010940820827917606,0.07157099531293079,-0.008973901098901102,-0.11000000000000011,-9.779999999999985,-0.5900000000000004,-0.0018925211213517649,-0.00035054551183583485,0.025738816515026193,1.5,-0.625,93.4375,0.6854247999999998,0.018371579999999964,-0.7279052700000006,-0.00915527
323.0,0.009484274685887592,0.07087002245066759,-0.007842458840442714,-0.11000000000000011,-9.779999999999985,-0.5900000000000004,0.0004145649936980588,-0.022908050730631378,0.021690157400842888,1.5,-0.625,93.4375,0.6854247999999998,0.018371579999999964,-0.7279052700000006,-0.00915527
324.0,0.009164820394659108,0.06936358265390521,-0.005825991324983262,-0.11000000000000011,-9.779999999999985,-0.5900000000000004,0.02136863682352594,-0.01977455787939659,0.023205869791051242,1.5,-0.625,93.4375,0.6854247999999998,0.018371579999999964,-0.7279052700000006,-0.00915527
325.0,0.00935055535861988,0.07077050100437193,-0.002920556146362598,-0.11000000000000011,-9.779999999999985,-0.5900000000000004,-0.034158801547914446,-0.0028308273267950677,0.03444189658907401,1.5,-0.625,93.4375,0.6854247999999998,0.018371579999999964,-0.7279052700000006,-0.00915527
326.0,0.010083466264917882,0.07203661526645397,-0.0024019654180944504,-0.11000000000000011,-9.779999999999985,-0.5900000000000004,0.006408502451849228,-0.02579506626885659,0.010017164175430306,1.5,-0.625,93.4375,0.6854247999999998,0.018371579999999964,-0.7279052700000006,-0.00915527
327.0,0.010091656327543427,0.07205133374689825,-0.001866625310173697,-0.11000000000000011,-9.779999999999985,-0.5900000000000004,0.028381862593052108,-0.01818587158808933,0.009536871898263027,1.5,-0.625,93.4375,0.6854247999999998,0.018371579999999964,-0.7279052700000006,-0.00915527
328.0,0.009188508064516134,0.07263608870967742,-0.002923387096774193,-0.11000000000000011,-9.779999999999985,-0.5900000000000004,0.007087953629032259,-0.006363407258064517,-0.012632308467741934,1.5,-0.625,93.4375,0.6854247999999998,0.018371579999999964,-0.7279052700000006,-0.00915527
329.0,0.00912802419354839,0.07239919354838707,-0.0063961693548387115,-0.11000000000000011,-9.779999999999985,-0.5900000000000004,0.013514364919354838,0.002110635080645161,-0.030903477822580645,1.5,-0.625,93.4375,0.6854247999999998,0.018371579999999964,-0.7279052700000006,-0.00915527
330.0,0.008765120967741938,0.07285786290322578,-0.006174395161290322,-0.11000000000000011,-9.779999999999985,-0.5900000000000004,0.033297631048387094,-0.018334173387096774,-0.03279359879032258,1.5,-0.625,93.4375,0.6854247999999998,0.018371579999999964,-0.7279052700000006,-0.00915527
331.0,0.008099488213399507,0.0719318393300248,-0.0044837158808933,-0.11000000000000011,-9.779999999999985,-0.5900000000000004,0.0044941260856079385,-0.00344825915012407,-0.002296254652605457,1.5,-0.625,93.4375,0.6854247999999998,0.018371579999999964,-0.7279052700000006,-0.00915527
332.0,0.007244868594666984,0.07388246632399859,-0.002790133030052385,-0.11000000000000011,-9.779999999999985,-0.5900000000000004,0.0229806399917287,-0.012303556658395366,-0.0038658012574343216,1.5,-0.625,93.4375,0.6854247999999998,0.018371579999999964,-0.7279052700000006,-0.00915527
333.0,0.007667053152940252,0.07254623188191736,-0.0010018413486155423,-0.11000000000000011,-9.779999999999985,-0.5900000000000004,0.015295063499448577,-0.008262913441844892,-0.00446956297510733,1.5,-0.625,93.4375,0.6854247999999998,0.018371579999999964,-0.7279052700000006,-0.00915527
334.0,0.008364776576470126,0.07261132158611996,0.0010262970676277123,-0.11000000000000011,-9.779999999999985,-0.5900000000000004,0.023949825096498484,-0.00025670873705147847,-0.013071475035940762,1.5,-0.625,93.4375,0.6854247999999998,0.018371579999999964,-0.7279052700000006,-0.00915527
335.0,0.010398656898656903,0.07117333293946196,-0.0020139528929851514,-0.11000000000000011,-9.779999999999985,-0.5900000000000004,0.016646419216983732,-0.003500039387136161,-0.007008510083106857,1.5,-0.625,93.4375,0.6854247999999998,0.018371579999999964,-0.7279052700000006,-0.00915527
336.0,0.009255927763992283,0.06950426858088148,0.0008400439166568196,-0.11000000000000011,-9.779999999999985,-0.5900000000000004,-0.003096844351884674,-0.0070254342431761785,-0.007522727608413092,1.5,-0.625,93.4375,0.6854247999999998,0.018371579999999964,-0.7279052700000006,-0.00915527
337.0,0.009200416518964909,0.07038577484343614,-0.000691089152782701,-0.11000000000000011,-9.779999999999985,-0.5900000000000004,0.02550130900685336,0.0023676592224979327,-0.013762003845169167,1.5,-0.625,93.4375,0.6854247999999998,0.018371579999999964,-0.7279052700000006,-0.00915527
338.0,0.009710334692189534,0.0706488329099216,0.00012064156721414815,-0.11000000000000011,-9.779999999999985,-0.5900000000000004,0.012142369419335147,0.01315850368269723,0.011577287100220567,1.5,-0.625,93.4375,0.6854247999999998,0.018371579999999964,-0.7279052700000006,-0.00915527
339.0,0.009620548459518286,0.07044806694923758,-0.000814988139389804,-0.11000000000000011,-9.779999999999985,-0.5900000000000003,0.0013890705382315688,0.0002097474188720288,0.006150916735594154,1.5,-0.625,93.4375,0.6854247999999998,0.018371579999999964,-0.7279052700000006,-0.00915527
340.0,0.009773053386086689,0.0690168374448421,0.00209374662509418,-0.11000000000000011,-9.779999999999985,-0.5900000000000003,-0.032742189296641036,0.0027491044786667838,-0.008486266197959747,1.5,-0.625,93.4375,0.6854247999999998,0.018371579999999964,-0.7279052700000006,-0.00915527
341.0,0.010234866525254146,0.07001812765148482,0.0010699541743376293,-0.11000000000000011,-9.779999999999985,-0.5900000000000003,0.006329435108660849,0.02138567910529897,-0.006116237593052109,1.5,-0.625,93.4375,0.6854247999999998,0.018371579999999964,-0.7279052700000006,-0.00915527
342.0,0.009641002771075616,0.0701502328605606,-3.2173572756297826e-06,-0.11000000000000011,-9.779999999999985,-0.5900000000000003,-0.003845981130385396,0.02332039771637196,0.004425360146126274,1.5,-0.625,93.4375,0.6854247999999998,0.018371579999999964,-0.7279052700000006,-0.00915527
343.0,0.010145720968821909,0.07087948052496698,0.00178585833463565,-0.11000000000000011,-9.779999999999985,-0.5900000000000004,-0.020340661603831477,0.01999254751311528,0.001638858733112765,1.5,-0.625,93.4375,0.6854247999999998,0.018371579999999964,-0.7279052700000006,-0.00915527
344.0,0.00951614872582615,0.07019260186498087,0.0009189437354759938,-0.11000000000000011,-9.779999999999985,-0.5900000000000004,-0.010040257961124897,-0.002409423433868997,-0.017325731923766196,1.5,-0.625,93.4375,0.6854247999999998,0.018371579999999964,-0.7279052700000006,-0.00915527
345.0,0.008487602898893226,0.07029291228484774,0.0015749340265469296,-0.11000000000000011,-9.779999999999985,-0.5900000000000004,0.008922663358147228,0.0007016449052739369,-0.014255927763992279,1.5,-0.625,93.4375,0.6854247999999998,0.018371579999999964,-0.7279052700000006,-0.00915527
346.0,0.008988100161487262,0.07062311926424827,0.004471621568395762,-0.11000000000000011,-9.779999999999985,-0.5900000000000004,-0.010061443932411674,0.009459097689944462,-0.012186256843514907,1.5,-0.625,93.4375,0.6854247999999998,0.018371579999999964,-0.7279052700000006,-0.00915527
347.0,0.010246738252786644,0.06907756065618967,0.004793414470833826,-0.11000000000000011,-9.779999999999985,-0.5900000000000004,-0.00791090629800307,0.013034080334987591,0.004947578183465279,1.5,-0.625,93.4375,0.6854247999999998,0.018371579999999964,-0.7279052700000006,-0.00915527
348.0,0.009557297205482694,0.06967198762259244,0.003769664027728544,-0.11000000000000011,-9.779999999999985,-0.5900000000000004,0.003072196620583718,0.0002896877707865607,-0.001000156317696641,1.5,-0.625,93.4375,0.6854247999999998,0.018371579999999964,-0.7279052700000006,-0.00915527
349.0,0.00931241876403167,0.07129516719839299,0.003336444917090079,-0.11000000000000011,-9.779999999999985,-0.5900000000000004,-0.003000192012288786,-0.011558155106542203,-0.016062074126590255,1.5,-0.625,93.4375,0.6854247999999998,0.018371579999999964,-0.7279052700000006,-0.00915527
350.0,0.009776556776556781,0.07096520146520147,0.004131001614872584,-0.11000000000000011,-9.779999999999985,-0.5900000000000004,0.008177323348694317,-0.009369338099176809,-0.01641348123202962,1.5,-0.625,93.4375,0.6854247999999998,0.018371579999999964,-0.7279052700000006,-0.00915527
351.0,0.009170152428216949,0.07054788491078812,0.0035631966599708543,-0.11000000000000011,-9.779999999999985,-0.5900000000000004,-0.008584149385560675,0.008620182460908267,-0.011070923923746503,1.5,-0.625,93.4375,0.6854247999999998,0.018371579999999964,-0.7279052700000006,-0.00915527
352.0,0.009641439205955338,0.0715828163771712,0.0058312655086848655,-0.11000000000000011,-9.779999999999985,-0.5900000000000004,-0.017099294354838708,0.012971076302729529,0.003045517990074442,1.5,-0.625,93.4375,0.6854247999999998,0.018371579999999964,-0.7279052700000006,-0.00915527
353.0,0.00959231360037812,0.07013104346370475,0.005902201740911419,-0.11000000000000011,-9.779999999999985,-0.5900000000000004,-0.020015981022785456,0.009231806220213478,-0.014753728854031273,1.5,-0.625,93.4375,0.6854247999999998,0.018371579999999964,-0.7279052700000006,-0.00915527
354.0,0.010220903984008826,0.06928283163968646,0.007165850614439325,-0.11000000000000011,-9.779999999999985,-0.5900000000000004,-0.006282002048131081,0.009602222234530701,-0.022233815271869704,1.5,-0.625,93.4375,0.6854247999999998,0.018371579999999964,-0.7279052700000006,-0.00915527
355.0,0.01002728666942377,0.06930875452952064,0.006730606758832566,-0.11000000000000011,-9.779999999999985,-0.5900000000000004,-0.0140406986047107,0.018016206883394382,0.004775859501161921,1.5,-0.625,93.4375,0.6854247999999998,0.018371579999999964,-0.7279052700000006,-0.00915527
356.0,0.01068148607664737,0.06916798613572805,0.00879877112135177,-0.11000000000000011,-9.779999999999985,-0.5900000000000004,-0.023747919866871477,-0.007042173776044745,0.0019784035409035412,1.5,-0.625,93.4375,0.6854247999999998,0.018371579999999964,-0.7279052700000006,-0.00915527
357.0,0.009128584229390684,0.07051203277009727,0.006447772657450078,-0.11000000000000011,-9.779999999999985,-0.5900000000000004,-0.03163202444956477,-0.002288146441372248,0.0032302067332309267,1.5,-0.625,93.4375,0.6854247999999998,0.018371579999999964,-0.7279052700000006,-0.00915527
358.0,0.009894553251408094,0.07035714285714281,0.007080773169482847,-0.11000000000000011,-9.779999999999985,-0.5900000000000004,-0.014959957437275986,-0.0027361751152073736,0.011703749039938555,1.5,-0.625,93.4375,0.6854247999999998,0.018371579999999964,-0.7279052700000006,-0.00915527
359.0,0.00906102667493797,0.07075744416873447,0.007139267990074442,-0.11000000000000011,-9.779999999999985,-0.5900000000000004,-0.0800485615694789,-0.027318548387096773,0.02171652062655087,1.5,-0.625,93.4375,0.6854247999999998,0.018371579999999964,-0.7278766782779164,-0.00915527
360.0,0.008284334227167216,0.07097152905627149,0.007547911830625149,-0.11000000000000011,-9.779999999999985,-0.5900000000000003,-0.07559361367365725,-0.020312296761186264,0.019735223600216123,1.5,-0.625,93.4375,0.6854247999999998,0.018371579999999964,-0.7278594747841198,-0.00915527
361.0,0.007751038081325545,0.07090411130232928,0.0056993591411190255,-0.11000000000000011,-9.779999999999985,-0.5900000000000003,-0.04482175643360282,-0.008155770356399583,0.007867233775914513,1.5,-0.625,93.4375,0.6854247999999998,0.018371579999999964,-0.7278508730372215,-0.00915527
362.0,0.008993966621307936,0.06977665242535817,0.002700990054430481,-0.11000000000000011,-9.779999999999985,-0.5900000000000003,0.00543690404126311,0.007971635991155048,-0.010258041378171776,1.5,-0.625,93.4375,0.6854247999999998,0.018371579999999964,-0.7278465721637726,-0.00915527
363.0,0.010201542864003849,0.07099746858240613,0.007976386776594895,-0.11000000000000011,-9.779999999999985,-0.5900000000000003,-0.017148415612743134,0.00502562685103658,0.016904216361162253,1.5,-0.625,93.4375,0.6854247999999998,0.018371579999999964,-0.7278444217270479,-0.00915527
364.0,0.009961573481149448,0.07106409089089889,0.0061192267669895155,-0.11000000000000011,-9.779999999999985,-0.5900000000000003,-0.010992562084767468,0.008001887306891858,-0.009718567397742735,1.5,-0.625,93.4375,0.6854247999999998,0.018371579999999964,-0.7278442400000007,-0.00915527
365.0,0.00890814606179461,0.06971979058272632,0.008172836788601619,-0.11000000000000011,-9.779999999999985,-0.5900000000000003,-0.0043744027905627154,-0.006225783313655649,-0.010611004662611062,1.5,-0.625,93.4375,0.6854247999999998,0.018371579999999964,-0.7278442400000007,-0.00915527
366.0,0.011190464159929567,0.0700892299687825,0.006843474845913713,-0.11000000000000011,-9.779999999999985,-0.5900000000000003,-0.006991258854958777,0.010448726286720562,0.00433411460417834,1.5,-0.625,93.4375,0.6854247999999998,0.018372072258064483,-0.7278442400000007,-0.00915527
367.0,0.0041410990154486516,0.06626549312059196,0.009732501311845746,-0.09974910394265238,-9.78050179211468,-0.5831899641577062,0.25730256165675,2.101172503824364,-0.0435388678771223,2.4896953405017923,-0.5721326164874552,93.39852150537635,0.6854864934767024,0.0238383022580645,-0.7274544017921152,-0.015092526845878133
368.0,-0.00820794998140135,0.06711128983864949,0.013308083964928857,-0.08005481762597513,-9.785412186379919,-0.5367278094033314,0.5087782695891399,0.5500808512407471,-0.13442178396045576,4.187447290744254,-0.4519818680160236,93.13006008855155,0.6867986542525828,0.032960355246679306,-0.7254969906493782,-0.025307957398271134
369.0,-0.00868402553329024,0.07768029186447116,0.0010538487313866774,-0.07858501249962353,-9.78617153097797,-0.5219261166832325,-0.358367759065992,-0.5149676574775898,0.0033880005424419546,4.0902674241739705,-0.4532374777868136,93.0492178322942,0.6873637095041716,0.032258440913662235,-0.7250851631587905,-0.024735845662269204
370.0,-0.012901094303009713,0.06819480989616805,-0.020645479786265557,-0.07604625454604075,-9.783085765488977,-0.5906382060017701,-0.2455173643126416,1.064059481994089,0.09909312828995373,4.290363153250093,-0.43780115597655084,93.45008313241243,0.6847747875280964,0.03345584236959804,-0.7274288400619034,-0.02584110770846309
371.0,-0.0005926545993226937,0.06810312719666087,-0.026881533773588193,-0.0836872638954112,-9.78154288274448,-0.6259168259610364,-0.07658599181002099,0.1070314087508395,0.02078429688928426,4.644707193323338,-0.48491101442091294,93.65489213546618,0.6833931287166097,0.036330671437408146,-0.7285588998791492,-0.027886444338102515
372.0,-0.002399925314549684,0.06917029119689674,-0.03261556699707808,-0.08684139180433639,-9.780755760368649,-0.644300258858654,-0.006767285951881183,-0.014972155770706546,0.007864017413486907,4.847877230174214,-0.4920914839129654,93.74096253278685,0.6827374312758678,0.03782797833967182,-0.7290643072222809,-0.02907750627971433
373.0,-0.0033869415544055424,0.0687557654592959,-0.040977008959984615,-0.0888737319552991,-9.780216589861736,-0.6548375108335012,0.06442441866513812,0.03552422557620732,0.008896861216662376,4.911871489849915,-0.4986103766813404,93.79177811174446,0.682369541491824,0.03837697747865945,-0.7293720887700589,-0.029446574683974797
374.0,-0.0036033530096656486,0.0690102432007181,-0.04128855568326931,-0.08962811021728084,-9.779999999999985,-0.6598427185503908,0.00681858414055677,0.0224760144778118,-0.023854180758796306,4.9734328647406265,-0.4999532298153246,93.81551751209344,0.6821884411353132,0.03881594394900715,-0.7295082646039235,-0.029808603480236236
375.0,-0.004237911782503814,0.0719850433142653,-0.04079172830121596,-0.09006166982922192,-9.779999999999985,-0.6599667931688797,0.003497101807111297,-0.026079820321992995,0.004885634605748458,4.996442125237191,-0.501126660341556,93.81359701138518,0.6821876237571162,0.03898704097722962,-0.7294966778130931,-0.02994613919354837
376.0,-0.005405483405483406,0.07284965930127218,-0.04433773395063717,-0.08999999999999991,-9.779999999999985,-0.6599999999999993,0.021154248976829625,-0.0037422255164190647,0.010776454728067632,5.0,-0.5,93.8125,0.6821899400000004,0.03900146000000001,-0.7294921900000002,-0.029968259999999976
377.0,-0.004006711926066766,0.0718280554570877,-0.04165646002742777,-0.08999999999999991,-9.779999999999985,-0.6599999999999993,-0.004776473526473526,-0.005306286455480004,0.01760907103649039,5.0,-0.5,93.8125,0.6821899400000004,0.03900146000000001,-0.7294921900000002,-0.029968259999999976
378.0,-0.010292701026571992,0.07414716555845588,-0.03985071290716452,-0.09007820136852387,-9.779999999999985,-0.6598435972629513,-0.0073216434103530875,-0.33830807968912807,-0.02398810866552802,4.9555229716520035,-0.5048875855327468,93.8125,0.6822080780254156,0.038758036187683274,-0.729503167438905,-0.029700493431085023
379.0,0.0015647699075118536,0.07184153883750656,-0.04116633769456349,-0.09254154447702828,-9.779999999999985,-0.6573411534701848,-0.03061672870140612,-0.03509891486201966,-0.012644277765245506,4.676686217008798,-0.5347018572825024,93.8125,0.6823030617986312,0.03721491657869014,-0.7295654536559137,-0.028027306920821116
380.0,0.0012637745319196982,0.07267511185051506,-0.03962535247011053,-0.0912707722385141,-9.779999999999985,-0.658670576735092,-0.04055650330851943,-0.03603580978832993,-0.0019797071208361534,4.677052785923754,-0.5496089931573802,93.8125,0.682309504770283,0.037194634740957966,-0.7295603211827955,-0.02798972152492668
381.0,-0.00018705133965929736,0.0709474974925352,-0.041941228224169166,-0.090635386119257,-9.779999999999985,-0.6593352883675456,0.04202563852424024,-0.03402286767332129,-0.005384814738677902,4.677236070381232,-0.5570625610948191,93.8125,0.682312726256109,0.03718449382209188,-0.7295577549462363,-0.027970928826979463
382.0,-0.0010829409924102936,0.0722080462028433,-0.0387649301790821,-0.09031769305962847,-9.779999999999985,-0.6596676441837724,0.024927792897355854,-0.021863955936536575,-0.010018322381745898,4.677327712609971,-0.5607893450635386,93.8125,0.6823143369990219,0.03717942336265884,-0.7295564718279568,-0.027961532478005854
383.0,-0.0010992371023588496,0.0727242577055272,-0.03555886037883957,-0.09015640273704784,-9.779999999999985,-0.6598387096774185,-0.020229832313599223,0.013867427375491893,-0.008082085130732372,4.678763440860216,-0.5625,93.8125,0.6823145755571841,0.03718449512707721,-0.7295554872238512,-0.02796520200879764
384.0,-0.001563792549224391,0.07112752474719175,-0.03790161982773846,-0.08999999999999991,-9.779999999999985,-0.6599999999999993,-0.013765331601569893,0.0037720567962503445,0.010621714032874282,4.6875,-0.5625,93.8125,0.6823120099999993,0.037231449999999985,-0.7295532199999998,-0.028015139999999987
385.0,-0.00160075483540624,0.07058733557458843,-0.033980586588807205,-0.08999999999999991,-9.779999999999985,-0.6599999999999993,-0.025748980937261374,0.02766146264130135,0.022292866941995452,4.6875,-0.5625,93.8125,0.6823120099999993,0.037231449999999985,-0.7295532199999998,-0.028015139999999987
386.0,-0.0019007936507936508,0.0693363316790736,-0.03562973137973138,-0.08999999999999991,-9.779999999999985,-0.6599999999999993,0.03203315781440781,0.010806537772263577,0.006740215989207925,4.6875,-0.5625,93.8125,0.6823120099999993,0.037231449999999985,-0.7295532199999998,-0.028015139999999987
387.0,-0.0012407194060419866,0.06783938172043008,-0.032803699436763964,-0.08999999999999991,-9.779999999999985,-0.6599999999999993,0.0022991471454173063,0.010094646057347669,0.013667874743983614,4.6875,-0.5625,93.8125,0.6823120099999993,0.037231449999999985,-0.7295532199999998,-0.028015139999999987
388.0,-0.0015476116625310174,0.06997758995037219,-0.03072565136476428,-0.08999999999999991,-9.779999999999985,-0.6577766749379645,0.025498701147642678,0.004599294354838709,0.00596938973325062,4.6875,-0.5625,93.8125,0.6823502980397017,0.03722078693300246,-0.7295168725260541,-0.028015139999999987
