time,linaccel_x,linaccel_y,linaccel_z,gravity_x,gravity_y,gravity_z,gyro_x,gyro_y,gyro_z,euler_x,euler_y,euler_z,quaternion_w,quaternion_y,quaternion_x,quaternion_z
0.0,0.12374999999999999,-0.007000000000000001,0.04025000000000002,1.0537499999999997,1.1542499999999989,9.676250000000005,0.178125,0.2234375,-0.1828125,96.6875,6.159375,-6.79375,0.6622207645000004,-0.08026886025,-0.0010421767499999997,-0.74499511675
1.0,0.12474999999999999,-0.010499999999999999,0.04091666666666668,1.0027499999999998,1.1479166666666665,9.681583333333336,-0.004166666666666666,0.5161458333333333,-0.3505208333333333,96.78437499999998,5.866666666666666,-6.757291666666666,0.6617294316666669,-0.07829437258333333,0.0006006870833333334,-0.7456380210833333
2.0,0.10666156462585033,-0.009125850340136053,0.04243367346938777,0.9945119047619048,1.147746598639455,9.682583333333337,0.037329931972789124,0.039232568027210896,-0.26246811224489797,96.96456207482993,5.816156462585034,-6.759077380952381,0.6605747049999999,-0.07802901491666667,0.0007839173214285716,-0.746685666314626
3.0,0.1052420634920635,-0.005592063492063491,0.0427357142857143,1.069838888888889,1.1729484126984124,9.67067222222222,0.18658730158730158,-0.9058581349206349,-1.0966517857142857,97.4409623015873,6.264206349206349,-6.908402777777778,0.6572834949999999,-0.08154456229444446,-0.0016540287166666664,-0.7491629464134921
4.0,0.11776858304297329,-0.010384830092540556,0.04144961784871306,1.2217395095725152,1.180616265782473,9.650687188565431,-0.05527050316586114,0.12029681119103813,-0.2623452779026639,98.1716694063542,7.151445243715109,-6.965906930238657,0.6521799809795439,-0.08690753426521111,-0.007770733958103856,-0.7529272726705725
5.0,0.1081235716159005,-0.0016806133153497447,0.03757364842081601,1.0152113165486494,1.2062781368251467,9.665655848413323,0.11347288177662884,3.482980452212356,-0.3642586686523548,98.49095370396388,5.931137895264321,-7.1074445154733805,0.6503215424077498,-0.08093040628671648,0.0009627760133752938,-0.7550587556009234
6.0,0.11449323742085347,-0.003739500206061969,0.048831179049117684,0.6483596905323892,1.1960301974448315,9.69546905323892,-0.005435938143943643,0.5461273228803716,0.18616703664156453,98.48527019875613,3.7870155202128055,-7.024059959349593,0.6508662681514554,-0.0683072756473905,0.01474067757120378,-0.755591964102881
7.0,0.11325660334944364,-0.017714604173691507,0.04472664943239295,0.6383157899666553,1.1886602600127383,9.7024273069574,0.14671559467610806,-0.6480672909407665,0.8512440405942078,98.08818521458545,3.7365617155595516,-6.97902786753962,0.6536006059497677,-0.0676637899511914,0.01511322506824398,-0.753450304966187
8.0,0.1508034168820951,-0.041750927278858034,0.03899696526919186,0.7184123112659697,1.3402786707129741,9.674082125060885,1.158871670225919,3.0741146360196323,2.771518957701098,96.46190054700085,4.19947805440036,-7.8867333558128205,0.6636181370983477,-0.07581306972885993,0.01829463073803904,-0.7434194116716495
9.0,0.15417301712187625,-0.05909939680041961,0.04551605410063317,0.4484173129519313,1.284345247461691,9.697969652691922,-0.816937240080926,-0.1439938790228914,1.6723062080851223,91.43602642276423,2.6215148598778613,-7.539821241242366,0.6954333970220674,-0.06300540862000299,0.028960894514611667,-0.7134166977718706
10.0,0.18043164362519198,-0.0447711213517665,0.050229646697388636,0.4407192780337942,1.183201996927803,9.713308755760373,-0.2977606566820276,0.7817564324116744,-0.048943932411674274,86.73596870199692,2.5765961021505377,-6.942775537634408,0.7242634505499231,-0.05817638627995392,0.028086098371351773,-0.6844595076259601
11.0,0.1785867895545315,-0.03470046082949308,0.04910138248847927,0.34130568356374813,1.1312672811059905,9.726543778801847,-0.1161674347158218,0.14064900153609827,-0.29997119815668194,82.8480222734255,1.9955357142857144,-6.629128264208909,0.7475126066205837,-0.05158291067588327,0.03140361930107527,-0.6598624191705069
12.0,0.18002173017121878,-0.0319572140421865,0.045798021805102854,0.42721441684462935,1.0986038364991944,9.727106889962911,-0.13438518601775878,-0.9660325577910156,-0.8384099509197857,80.1775212150163,2.5021695047019596,-6.438847598441422,0.7630259510570978,-0.053276594034693356,0.02875169415252332,-0.6426056586457982
13.0,0.22750327825858901,-0.0034938743396650523,0.01581150949758346,0.7682999887602562,1.0403847738938217,9.703721104492153,-0.4726359072346484,-1.8951800232288036,-1.63085403319471,79.33339772769847,4.511622597504776,-6.11386797047694,0.7675691507680489,-0.06473270974822976,0.01578940195796336,-0.6368546354351656
14.0,0.18524521374245997,-0.027106702633846617,0.03262710276872354,0.933813832377955,1.052280169345472,9.692867258626507,-0.00921893147502903,-0.8208583885954067,-0.8435263759319621,78.91423490127758,5.47151661608782,-6.189629697276235,0.7697672385641225,-0.07148253844872803,0.011162460048143568,-0.6339068381727925
15.0,0.16934303697875686,-0.03753568618635496,0.031659173504177435,1.0627402495223106,1.0456331722303394,9.682969727623547,0.07857985837922897,-0.6846947472930951,-0.6865001311303436,78.1147835412686,6.222989490839608,-6.157914887040575,0.7739683952382824,-0.07631225591023191,0.007305473084747666,-0.6283891001386235
16.0,0.14982690794649883,-0.03310853845865648,0.03053388782735754,1.1661788617886182,1.060130755685437,9.6718425686561,0.044624124236634075,-0.28616387546363947,-0.5072988085871641,77.56395882507212,6.8296499756472215,-6.251369843767562,0.7767573037866694,-0.08085374715297292,0.004945670074556966,-0.6244736078164924
17.0,0.13458693941778127,-0.04302161777378144,0.03384286838260088,1.1329242066614218,1.056890712225095,9.676798546326477,0.0992937694353902,0.6313574800494549,0.2321147577835225,76.80258326776816,6.633427466187104,-6.230695740137125,0.780973680614814,-0.07934795046082949,0.006364774470795398,-0.6193923140301976
18.0,0.12760818253343825,-0.044024577572964685,0.039407665505226494,1.1561159192237083,1.0491259225956315,9.675389831778503,-0.028441234873178213,-0.19737692480611446,-0.2181283016747218,76.49447613427748,6.767908658349256,-6.186502472743621,0.7826107303900192,-0.08001156212655952,0.005522708494248997,-0.6172836906815031
19.0,0.12644767899291898,-0.03716964519875615,0.036780937394627414,1.2022829792814056,1.042832040762804,9.669335356487206,0.14134094825971302,0.5189600427110261,0.09451570754186807,76.42546879097824,7.0412861545090095,-6.155382432280543,0.7829252718275825,-0.08171313019388557,0.003878666969390431,-0.6166846948765501
20.0,0.118882769472856,-0.037710464201416216,0.0401652242328875,1.1340519276160503,1.046443745082612,9.677143981117233,-0.07523603461841072,0.42918961447678994,-0.33698859166011014,76.40524193548387,6.644030291109363,-6.168371361132966,0.783184252163651,-0.07908345837922895,0.006190866593233673,-0.6166819314791502
21.0,0.12144610542879622,-0.029491738788355634,0.04166325727773408,1.1157104642014164,1.0515625491738785,9.679230527143982,0.16057238394964596,0.35102281667977975,-0.10907749803304483,76.55837922895358,6.531717151848937,-6.199596774193548,0.7823863680786785,-0.0784740768512982,0.0069037250023603475,-0.6177696343697874
22.0,0.1239291896144768,-0.02887175452399686,0.03635877261998427,1.1426058221872544,1.0664563335955939,9.67440283241542,0.11101494885916599,-1.0000688434303697,-0.5513276947285601,76.77101691581433,6.694394177812747,-6.284284028324154,0.7811290823634935,-0.08007718318174666,0.006431233199055862,-0.6191358327269865
23.0,0.11245869394177813,-0.049098347757671114,0.04148308418568058,1.2281927616050354,1.0621313926042486,9.664908733280885,-0.04007671125098347,0.04227478363493309,0.01411782061368999,76.92301829268293,7.192540322580646,-6.266591266719118,0.7801140259488593,-0.08335976070653028,0.0034565830432730133,-0.6200076560165224
24.0,0.12207041699449252,-0.05424311565696302,0.03605389457120379,1.3015330448465776,1.052911487018096,9.65529464988198,-0.017820613690007866,-0.1788822777340677,0.06119935090479936,76.99245426829268,7.625592545239969,-6.219108969315499,0.7795537749744297,-0.08603591469866247,0.0007027855389457119,-0.620364802691975
25.0,0.1324828874901652,-0.05004051927616052,0.037220495672698674,1.3869466955153424,1.0372346577498037,9.645542682926823,0.0341168371361133,-0.06618189417781277,0.024010375688434303,77.06066950236034,8.13109879032258,-6.1349773800157354,0.7789912110946107,-0.08897291604327301,-0.0026748420377655383,-0.6206561876127066
26.0,0.12038217938630999,-0.04808811959087335,0.03604819040125887,1.4373082218725413,1.0170645161290321,9.640477576711245,0.07773529701022817,0.1640157848151062,0.0795535011801731,76.99860346184107,8.425794158143194,-6.01964865263572,0.7792035821477183,-0.09034213393312351,-0.0050448551024783635,-0.6201868824618412
27.0,0.11631372934697087,-0.028234067663257287,0.039172305271439826,1.4452014162077105,1.0176823367427223,9.639377261998419,0.14877065302911094,0.4343073859166011,-0.2921235739575137,77.1148775570417,8.470778422501967,-6.0291293764752165,0.7785453958963415,-0.0907109547753737,-0.005316618942171518,-0.6209677648652636
28.0,0.08916089693154995,-0.027076711250983484,0.040771636506687664,1.481350708103855,1.0408210070810386,9.631043469708889,0.10004056845003934,0.18219905586152635,-0.17249827891424072,77.51227748819827,8.681911388670338,-6.169479002753738,0.7762269747989772,-0.09288136291994491,-0.005868783108182533,-0.6235215082673092
29.0,0.09316915814319435,-0.026143194335169165,0.040535011801730934,1.509921321793863,1.0438379228953578,9.626775767112509,-0.012303304484657752,-0.07019079464988198,-0.32201022816679775,77.81029701022817,8.853304484657748,-6.186024783634933,0.7745335592462628,-0.09410613602045632,-0.006941324481510622,-0.6254257376538159
30.0,0.09358536585365854,-0.028206923682140048,0.04171046420141622,1.4818678206136897,1.0474925255704168,9.631237608182532,0.07086939417781274,0.2946646341463415,-0.22251180173092053,77.93891129032258,8.686934500393392,-6.209062745869394,0.773920710811959,-0.09309995897560974,-0.0059847389331235245,-0.6263458221754523
31.0,0.0940042466057415,-0.04473651879198692,0.045830519074421525,1.3911453327684642,1.0475872722871147,9.64361039157538,0.09620667655187717,0.767175364138877,0.013958446811515271,77.83948656166152,8.149370385220601,-6.195238266355988,0.7747043857110089,-0.08945590729227944,-0.0029885255742096873,-0.6259087494247917
32.0,0.12678219898381188,-0.03561748198038521,0.04177779747134587,1.3634013352239158,1.070901837409902,9.645503633463312,0.05769341545551223,0.4535808445586671,-0.009059656741108351,77.90232870288314,7.986565601736972,-6.329551245125841,0.7744053708692543,-0.08908341638526526,-0.001214972700933475,-0.6263550888977016
33.0,0.12040398304816086,-0.03801438615148293,0.04349216388122762,1.31205826005885,1.075083589830049,9.652203527982644,0.17290896185836194,0.8701710035145813,0.03142979987492183,77.87909695864063,7.687601373842522,-6.349425381610914,0.7746602812735335,-0.08716033624947764,0.0005920292559455364,-0.6263206007717266
34.0,0.1085937106428845,-0.045774994019879944,0.041116656291518616,1.121244216575452,1.0807216729638052,9.675199620010202,0.048269119992910316,1.109853769853278,0.22365279332849158,77.57405870748711,6.5602665602493495,-6.3673704160218225,0.7767745255405827,-0.07963558374491977,0.007165163325946805,-0.6245911591250449
35.0,0.12553072628918419,-0.04884314217123029,0.04051397330704964,1.0371704953845,1.0723245461593218,9.685539326134133,0.020883551931939033,0.41072325589438086,0.13957337247069743,77.35174709567904,6.066070780124674,-6.317127748333492,0.7782099705767429,-0.07601781671923408,0.009686368130715337,-0.6232588470221999
36.0,0.12846097935633735,-0.049247873815143686,0.041523322468247734,0.993393353564872,1.0663855981416956,9.691940878947957,0.09557411674347158,0.4188593533400771,0.14887063991607657,77.11515187703719,5.810547797010228,-6.27270779476228,0.7795917291816716,-0.07403939474092391,0.010991822243190588,-0.6217691648899254
37.0,0.12297088906372936,-0.048334382376081834,0.044796223446105454,1.0305830055074743,1.071194335169158,9.687274586939418,0.0659274193548387,0.013385129819040109,0.04624311565696303,77.12947974036192,6.027955350118017,-6.304887883556255,0.7794142481054287,-0.07572770159166012,0.0099922425263572,-0.6218184352045634
38.0,0.12831707317073168,-0.0528123524783635,0.04399291896144769,1.0794763965381589,1.0691652242328877,9.682059795436665,0.05182680959874114,0.2253147128245476,0.0018538552321007047,77.1339865263572,6.319873623131392,-6.298131392604249,0.7793006490590086,-0.07762036509874114,0.008348228829661682,-0.6217529224181746
39.0,0.12285483870967742,-0.05239516129032259,0.03762903225806453,1.155266129032258,1.0706290322580645,9.67290322580645,-0.08331653225806451,-0.6421370967741935,-0.31421370967741935,77.33079637096773,6.763256048387096,-6.310685483870968,0.7780647521935484,-0.08072239049193548,0.005833041169354838,-0.6229205220564515
40.0,0.1197983870967742,-0.05995161290322581,0.04023387096774195,1.0298790322580647,1.0754516129032259,9.685645161290317,0.06481854838709677,1.195211693548387,0.1420866935483871,77.17414314516128,6.0297883064516125,-6.326058467741936,0.7791468952741936,-0.07580541770967741,0.010124994193548386,-0.6220816828225806
41.0,0.11343961447678994,-0.06353599527930764,0.04498210070810386,0.8667763571990561,1.0565220298977183,9.702941778127455,0.06981338512981904,0.42588512981904003,-0.0314737411487018,76.97688581825334,5.072945761211644,-6.204221577498033,0.7805759496481117,-0.0686326664738395,0.014667585156176239,-0.620995943631786
42.0,0.11724350904799372,-0.054302714398111726,0.042366050354051936,0.9891843036978758,1.0566101494885918,9.691824350904799,0.05871729937057435,-0.14528914240755314,-0.08327965184893785,77.22647644571204,5.793708202202989,-6.214634146341464,0.7789848579675452,-0.0735927635175059,0.010629116453186467,-0.6225143933869
43.0,0.11944433516915816,-0.05565538945712038,0.04396931549960663,0.9738703776553898,1.0683776553894573,9.69268233674272,0.18588586742722266,-0.021233280881195915,-0.01117107592446892,77.07273923092053,5.69947506884343,-6.286450137686861,0.7798614753345792,-0.07335031219826907,0.011722560686270651,-0.6214716516974823
44.0,0.12183910306845003,-0.058472856018882774,0.042121754523996864,0.9343182533438239,1.1002452793076318,9.692393587726196,0.1189761998426436,0.7590910208497246,-0.1128688040912667,77.12797747836348,5.466597413453973,-6.471047649488591,0.7795534563729347,-0.07277592559913454,0.014225705693941776,-0.6218705090342249
45.0,0.13856119752264517,-0.05488861990356876,0.04525142730335492,0.8510162399887029,1.10931608464968,9.699665879884604,0.12067761605035404,1.1801005921039358,0.006150895721116018,77.12153500675825,4.9760593818717345,-6.518723395670682,0.7797279658258388,-0.06968654109340515,0.017253947394117286,-0.6219324432046642
46.0,0.13205793943795513,-0.05940261050253182,0.05073035566583954,0.7733838084286551,1.095459773245375,9.708421452924206,-0.012689319433516921,0.5709954180031874,0.03523024723113236,77.01022659071194,4.524108565837519,-6.43376669390143,0.7805065488783008,-0.0661635501289213,0.01922759927534346,-0.6212964427872258
47.0,0.13207775020678247,-0.06213482216708023,0.04975227460711333,0.6926517783291979,1.087321546732837,9.715360215053767,0.055796370967741926,0.7630104942100909,0.17781870347394543,76.79436388544252,4.047415219189413,-6.3760985318445,0.7818106524501655,-0.06259580765612077,0.021566970705334983,-0.6199602944722913
48.0,0.13091613710181765,-0.06338173051705703,0.04667570457342292,0.6813675886138514,1.0783776301720833,9.71861913191713,-0.011634539732494106,-0.1844572086384636,0.0203136347818193,76.68357491577396,3.9776267677379007,-6.323137287165365,0.7824721985322227,-0.06182335290211625,0.021635599241436175,-0.6192139540742652
49.0,0.11230149892069641,-0.058527607980794455,0.04598144001291131,0.7399973269583813,1.0530754201214467,9.715619066351959,0.03596331628638867,-0.3791372884262341,0.3977606972099497,76.427175439791,4.325145504246606,-6.17555062135609,0.783816242302205,-0.06334641804940588,0.018902619744537913,-0.6174424901273176
50.0,0.11497128245476006,-0.04428992918961449,0.04399134539732496,0.8202999606608969,1.0499506294256489,9.70971616837136,0.09228338906372933,-0.15233330055074745,-0.14011113296616837,76.43876499803304,4.793981117230527,-6.16136654209284,0.7836034899614479,-0.0664738192324941,0.016229729548780488,-0.6174560391892212
51.0,0.11417918961447679,-0.033886900078678214,0.04341502753737217,0.8781459480723841,1.0426487018095987,9.704579858379224,0.07015883162863887,-0.21895898898505115,-0.14757572777340677,76.44123229740362,5.134490558615264,-6.1227699645948075,0.783510291029111,-0.06858662662431157,0.014120109008261212,-0.6173976465784815
52.0,0.11395076992244577,-0.0318825821437938,0.04230774418343264,0.8730687497658387,1.0322241204900533,9.70612940691619,-0.029866340714098383,0.45122279045371094,-0.19777499906335472,76.46813438986925,5.105714941366003,-6.0578303548012435,0.7833962425483496,-0.06804964086860738,0.013837870372410174,-0.6176087291692332
53.0,0.1217374770521899,-0.03272147915027538,0.04564171443557755,0.9366690644786634,1.028013075568544,9.699285526956654,0.08829919261174178,0.8546073582855643,0.19201345959312127,76.7361711344648,5.475131130343561,-6.041411196658049,0.781798190331535,-0.0704755936612341,0.011488509920197818,-0.6193355817454573
54.0,0.1324816417519014,-0.035255310778914244,0.045885373346821044,0.9167688359372074,1.046237064928253,9.699827657262746,0.017644875613502677,-0.45431020756060103,-0.3770459846015511,76.77708930444719,5.359762654078154,-6.145828533026114,0.7816161759997563,-0.07029509877396874,0.01280567730077554,-0.6195719235989285
55.0,0.13370235089260118,-0.03921750407113975,0.04278725147314705,0.8624679998396811,1.0627779290205828,9.703571816299021,0.0949596352158597,-0.6229951079886696,-0.8981798272412179,77.11838164653315,5.0447383568453095,-6.2428757736581355,0.7798164216760717,-0.0687042534687365,0.014990459168108664,-0.6219839024035483
56.0,0.12179069157533284,-0.035922308103158204,0.04257008502996831,0.901050820196338,1.0677854698866354,9.69969681444751,-0.04997481948884434,0.40343380161242404,-0.3599062058633125,77.80910321765981,5.267333656149229,-6.273560822696963,0.7759615308459082,-0.07046027129811633,0.01353056345310195,-0.6266230419433256
57.0,0.10827311357456088,-0.033952874107028505,0.042898507727977306,0.9067018366089776,1.041191543530482,9.702864967112852,-0.05763769448459676,0.43236288166118186,-0.28480878930534026,78.0507203782653,5.299149809229311,-6.11706285674206,0.7746745959840048,-0.0698630986250613,0.01215289773232071,-0.6283386659943297
58.0,0.09669262437560608,-0.027258311093452815,0.04453297122189957,0.8969922393490355,1.0265112863581747,9.706701300760725,-0.009430406382083329,0.22933428261246497,-0.25384832706434446,78.23356871447827,5.24012790000636,-6.030584039738157,0.7737730581471481,-0.069053206646632,0.011831843682596606,-0.629556698799008
59.0,0.0829639361059777,-0.02978572517693884,0.04823265398231093,0.9126589835612211,1.0185554071444687,9.705145300262346,0.15574899822516602,-0.09623470763161174,-0.03670976542044918,78.2248685429197,5.338174689578318,-5.987971012788041,0.7738257641239281,-0.06943733909278887,0.011004640403060695,-0.6294707647079225
60.0,0.10434618410700235,-0.03639623843243042,0.049926529541793135,0.9237661009328986,1.0213039601363751,9.702585403319468,-0.057149881982690776,0.24967428159304633,-0.006333127271364878,78.2313249316249,5.399802836162002,-6.002303210820127,0.7737543710657151,-0.06992137110078303,0.010743024200029972,-0.6295174787545611
61.0,0.10097954366640441,-0.044127458693941794,0.054473249409913466,0.9206687647521637,1.0145283241542091,9.704067663257273,0.03654602675059009,0.0857002360346184,-0.08652389850511408,78.23604937057434,5.381545043273013,-5.962480330448466,0.7737779076219513,-0.06959254000354052,0.010591906958693945,-0.6295320796522423
62.0,0.09703973249409911,-0.03728402832415423,0.05058438237608184,0.9334500393391034,1.0055135719905586,9.703571990558608,0.04925255704169945,0.3261900078678206,-0.08707587529504326,78.24324596774193,5.461745180959874,-5.9110444531864665,0.7737402916866642,-0.06982826478147128,0.009791353420338317,-0.6295633104162079
63.0,0.10841502753737214,-0.030561369000786792,0.04661073957513769,0.9340395357985839,1.0153333988985052,9.703044059795431,0.272307730133753,0.20644177812745867,0.10563040912667192,78.0898185483871,5.465550009834776,-5.968475855625492,0.7745527344602675,-0.07016301771734854,0.010246712625491736,-0.6285094464742329
64.0,0.10340833988985051,-0.03036624704956728,0.04273819826907947,0.8615684500393391,1.0182952399685286,9.709018686073957,-0.06946547993705743,1.3868410700236034,-0.22807459677419353,77.99571695515343,5.033082956333596,-5.981034864280094,0.775165851029701,-0.06730900714575137,0.012778134867230525,-0.6280035217124311
65.0,0.09838945712037767,-0.027455743509048,0.044334775767112526,0.7625816286388669,1.023460857592447,9.716338512981906,0.02290150472069237,-0.36585488788355625,-0.1672108575924469,78.09513916207709,4.454778471675846,-6.012118902439024,0.7747480022033832,-0.06358077359638079,0.0160952632848151,-0.6288203995672699
66.0,0.09200118017309206,-0.03367545239968529,0.04599803304484659,0.8475125885129821,1.017250590086546,9.71027812745869,-0.03807041699449253,-0.12110788749016521,-0.22463365460267506,78.31697482297403,4.954531372934697,-5.978085660896931,0.7734063269323368,-0.06680694497560974,0.012984096174665612,-0.6302022094287963
67.0,0.0939171911880409,-0.03815243902439025,0.05089280094413848,0.9510930369787569,1.0099628245476004,9.701087922895358,-0.061098544453186465,-0.48497369197482293,-0.01326096577498033,78.34719708890637,5.5613776062155775,-5.93722339693155,0.7730577289555469,-0.07067086201101494,0.009308851667191186,-0.6302542469362705
68.0,0.10517230527143982,-0.04049960660896933,0.04824075531077892,1.0674618410700236,0.9986467348544457,9.69017702596381,-0.0326662077104642,-0.14306648308418565,-0.8136113296616837,78.80827596380801,6.239383359559402,-5.882749803304485,0.7702871873406767,-0.07491106948937844,0.004809056494885915,-0.6331744567584578
69.0,0.10363257277734066,-0.048967348544453206,0.047279307631786005,1.0852769472856019,0.9879071597167586,9.689313532651456,-0.028159421715184894,0.11281963021243115,0.037775373721479155,79.1553919158143,6.3479814122738,-5.819546616837136,0.768377865389457,-0.07529670731353265,0.0035661891561762386,-0.6354917664988198
70.0,0.10530566483084185,-0.053661487018096005,0.04454838709677421,1.0712183320220299,0.9709598741148704,9.693154012588511,0.0495512883556255,0.503867525570417,0.5539978363493312,78.88611452596382,6.264888621164437,-5.710815794649882,0.7699423333556255,-0.07415513233890637,0.003538155593036979,-0.6337516833634932
71.0,0.11758831628638866,-0.049407356412273826,0.04317741935483872,1.115157553107789,0.9607863886703386,9.688637490165226,0.05771415224232887,-0.38062672108575923,-0.099966807631786,78.77564294846579,6.527580399291896,-5.649863542486232,0.7704542748310388,-0.07558181601219513,0.0017717604860346186,-0.6329752911333597
72.0,0.11931431943351692,-0.0376996459480724,0.041209677419354857,1.1839779701022821,0.9491270653029114,9.681540519276165,0.05191655192761605,-0.29668936860739575,-0.13287150865460268,78.78260474036192,6.933170239968529,-5.587910601888277,0.7702930408147131,-0.07795944899803303,-0.0009149029223052713,-0.6328858466150671
73.0,0.0966168371361133,-0.023200629425649103,0.03729032258064518,1.2672147915027538,0.945200629425649,9.671738001573566,0.08465283241542093,-0.35552714398111723,-0.8131343430369787,79.02875196695516,7.42913552321007,-5.578078284815106,0.7687042646734854,-0.08114089132966167,-0.003964413102281667,-0.6343811552147917
74.0,0.09788985051140836,-0.02036506687647522,0.03699842643587728,1.2821652242328876,0.9557852084972462,9.668880802517705,0.04692417387883556,0.3934549567269866,-0.4580915617623918,79.66191237214792,7.513771144767899,-5.63801140833989,0.765159371043273,-0.08203899419118804,-0.004479365586546026,-0.6385294422926828
75.0,0.10012903225806452,-0.017387096774193554,0.038467741935483885,1.2842258064516132,0.9499516129032257,9.66886290322581,-0.01244959677419355,0.1305443548387097,0.05912298387096773,79.8421875,7.525252016129032,-5.6010080645161295,0.7641704927419354,-0.0819271459516129,-0.004901516524193548,-0.6397464872258065
76.0,0.09689516129032258,-0.015064516129032259,0.0398467741935484,1.275790322580645,0.9541935483870965,9.66958064516129,0.18714717741935485,0.9615927419354838,0.11486895161290321,79.7523689516129,7.4723286290322575,-5.632762096774194,0.7646653206048386,-0.08175422884677419,-0.0043538248951612915,-0.6391792535887099
77.0,0.08890437788018432,-0.021359831029185865,0.04213940092165899,1.173857910906298,0.9672584485407064,9.680523809523807,-0.04535570276497694,0.3639424923195084,-0.3909154185867895,79.97118615591397,6.873389496927803,-5.700184811827956,0.7636730655841013,-0.07815856855337941,-0.0006564372277265752,-0.6408104602826421
78.0,0.08821543778801844,-0.026866743471582175,0.03871274961597543,1.2057269585253458,0.9804973118279567,9.675505760368662,0.2435315860215054,-0.6603470622119816,-1.2089741743471583,80.5157450076805,7.065161770353302,-5.7831893241167425,0.7605114047849462,-0.07988593862557604,-0.0016207856363287254,-0.6443180700046083
79.0,0.10199078341013826,-0.03067933947772657,0.040437019969278044,1.2188191244239635,0.9880752688172039,9.673579493087555,-0.0017473118279569683,0.9751440092165897,0.6975038402457757,80.75273137480798,7.138856086789554,-5.827078533026113,0.7591468657392473,-0.08061468141359449,-0.0019229315157450076,-0.6458416846394008
80.0,0.10473162301899516,-0.03862615675695928,0.04714219212468624,1.226266859615601,0.9764276816155253,9.673178515229854,-0.06354453514293205,-0.5508905740699113,0.15118479777827734,80.58442897418605,7.1810804086583495,-5.759254992319509,0.760104550805009,-0.08052509670217489,-0.0024676934690251394,-0.6447399184690907
81.0,0.10967629538046533,-0.033026788055898995,0.04419609606234313,1.3221697201303808,0.9597259375819565,9.662157806002021,0.05570253081563074,-0.5092910531639878,0.14184743921171933,80.48042013225432,7.744597664006594,-5.668942012288786,0.7604602117815369,-0.08375760353253905,-0.006218006722415797,-0.6438884711619647
82.0,0.12396487580083175,-0.026261473905061644,0.03893214941366005,1.3821593608332396,0.9549105878385973,9.655160316211457,0.10717154190551122,0.21363884361769886,0.06162552452137426,80.40559985107339,8.097193225244464,-5.64801267281106,0.7607063186419203,-0.08596853138531715,-0.008300704889625718,-0.6432955300479564
83.0,0.12560916601101493,-0.015716758457907164,0.0417364280094414,1.3456449645948072,0.9574529897718335,9.659737608182535,0.019402783241542088,0.1986636998426436,-0.10611600118017307,80.38579243705743,7.882842004327301,-5.665020161290323,0.7609228851174269,-0.08461570372875689,-0.006951964827301338,-0.6432433249748231
84.0,0.12502124311565696,-0.020527930763178607,0.03894767899291898,1.3710979543666402,0.9571589299763972,9.655654996066087,-0.021847954366640443,-0.023849331235247816,-0.18733526750590085,80.40310287175453,8.031050845790716,-5.6631589299763965,0.7606984715774979,-0.08559204432140048,-0.00782605158025177,-0.6433776380558613
85.0,0.11352557041699449,-0.008143587726199846,0.03875393391030686,1.3523310385523204,0.9678280881195912,9.657371164437452,0.08390784815106214,0.6500049173878836,-0.400143833595594,80.54281815499607,7.925635572383949,-5.722536388670338,0.7599832743214006,-0.08521293482395753,-0.006899138480920534,-0.6442822849681352
86.0,0.09394846577498032,-0.007916404405979545,0.039356805664830866,1.3083514948859165,0.9734956726986624,9.663098741148705,0.011493164830841854,0.5895185877261998,-0.23211177222659324,80.7377827498033,7.667984116837136,-5.749218135326514,0.7590108212061368,-0.08364479678402834,-0.005387228958103855,-0.6456464116190008
87.0,0.09588198269079463,-0.01874586939417782,0.043803501180173114,1.2922478363493313,0.9648788355625495,9.66612470495673,-0.04616443745082612,-0.0887576219512195,-0.05159569236821401,80.78851175255704,7.57368705743509,-5.701957120377656,0.7587818466323761,-0.08274563413571992,-0.005226613092840283,-0.6460360092283636
88.0,0.09907002360346184,-0.021921321793863108,0.04183320220298979,1.3392368214004713,0.9544232887490167,9.660925255704168,-0.015017702596380803,-0.2101298190401259,-0.12534421715184893,80.8041601101495,7.850452399685287,-5.6406963021243115,0.7586319564169945,-0.08423822535011802,-0.007215037756097559,-0.6459992909488592
89.0,0.10598426435877265,-0.022547600314712833,0.039427222659323385,1.3714335169158138,0.9511785995279307,9.65568528717545,0.08069433516915814,0.17329858379228955,-0.32345594020456336,80.85550747442959,8.042977970102282,-5.624095200629425,0.7582932139386311,-0.08538744407395751,-0.0084666381447679,-0.6462319939874115
90.0,0.09456963021243117,-0.031059008654602677,0.04695515342250198,1.3245153422501967,0.9537498033044846,9.662495672698661,-0.03513473642800943,0.5831087726199843,-0.014870180959874135,80.95156372934697,7.760169158143194,-5.637386900078678,0.7578473011793865,-0.08361594067191189,-0.0068287249897718335,-0.6470028896852871
91.0,0.10219433516915816,-0.037976396538158944,0.041929189614476794,1.2732734067663258,0.9374870180959871,9.671436664044062,-0.027997147915027533,0.24800599921321795,0.18543469708890636,80.79651357199056,7.458511998426435,-5.533696400472069,0.7588738026888276,-0.08104533524154209,-0.005687122653029111,-0.6461386829024389
92.0,0.08820967741935484,-0.030774193548387105,0.04303225806451613,1.2612661290322582,0.9302258064516129,9.674483870967746,0.21496975806451613,0.46859879032258056,0.051209677419354824,80.6188508064516,7.388004032258064,-5.490171370967742,0.7599223959274193,-0.08034515429032259,-0.00545122735483871,-0.6449999403064516
93.0,0.0970776947285602,-0.02997226593233675,0.041516129032258084,1.2402578678206138,0.9320190794649881,9.677125491738792,0.08601494885916601,0.3228142210857592,0.04776381785995278,80.58910429779701,7.2657516227380015,-5.502404602675059,0.7601615450615655,-0.07957083489496458,-0.004678140587136114,-0.6448245157212822
94.0,0.09600255704169947,-0.020288552321007083,0.04119354838709678,1.2178829661683712,0.9295538945712036,9.679812745869398,0.03947924862313139,0.44956235247836346,-0.11465135719905585,80.62048460857592,7.133153029110936,-5.4816962529504325,0.7600616591477183,-0.07859811588296617,-0.004033681378245476,-0.6450702555582217
95.0,0.09490853658536585,-0.023591856805664838,0.04424193548387099,1.2174697088906372,0.9261156569630213,9.680341856805668,0.034104543666404405,-0.02521882376081827,0.013390047206923689,80.61127557041698,7.128874901652242,-5.464966070023603,0.7600988650053108,-0.0784899286229347,-0.0041331850399291895,-0.645038027142014
96.0,0.10350668764752163,-0.022187057435090488,0.043846774193548405,1.2381622738001572,0.9221062155782848,9.678622541306062,0.06740509441384737,0.16188655586152634,-0.0307545731707317,80.61854101101494,7.249669305664831,-5.4415052124311565,0.7600183840953973,-0.07917647658969315,-0.004976763636900078,-0.6450419712081038
97.0,0.10409205350118017,-0.022839496459480732,0.0448225806451613,1.2331093627065304,0.9187950432730134,9.679871754524001,0.05804730527143981,0.1044059795436664,-0.10930369787568844,80.74712332808812,7.222037273800158,-5.423928009441385,0.7592956816888278,-0.0788723108029111,-0.005022866616837136,-0.6459278944669551
98.0,0.1065967741935484,-0.023080645161290325,0.044991935483870975,1.2590000000000001,0.9249758064516131,9.675306451612908,0.2232358870967742,-0.17701612903225808,-0.19637096774193546,80.89264112903226,7.379183467741935,-5.461693548387097,0.7583793885564516,-0.08009884710483872,-0.0057598481290322585,-0.6468446789596773
99.0,0.10866129032258064,-0.016653225806451614,0.041838709677419365,1.2981129032258063,0.950491935483871,9.667951612903229,0.16567540322580643,0.0159274193548387,-0.12101814516129032,80.96310483870967,7.6058971774193544,-5.614465725806451,0.7578251988709678,-0.08246730686290323,-0.006110111185483871,-0.6471852945483871
100.0,0.10148617511520736,-0.014277265745007681,0.04399347158218127,1.3573828725038402,0.9638183563748081,9.657746543778803,0.03407258064516129,0.28562548003072197,-0.07667770737327188,81.15365063364055,7.954365879416282,-5.696212557603687,0.7565743930360982,-0.08522028756989247,-0.007709344778801842,-0.6482659191620584
101.0,0.08859045183769809,-0.017869750103030987,0.04156666104679481,1.3289952324753664,0.9540223764564835,9.663005057884682,-0.04196130015735641,0.42299628151811475,0.038961869169382934,81.11746691300438,7.786810570510658,-5.6387558657412615,0.7568803044649414,-0.08377816900819565,-0.007099123148842306,-0.6481143017495974
102.0,0.09539603237046194,-0.019910681503128396,0.04004542729759096,1.300033906560264,0.9446926398411449,9.66761543216815,0.03206874508261212,0.21689128592034765,-0.13480333960885693,81.13837055327639,7.617624035255329,-5.582155150612566,0.7568557092848899,-0.08233939601619458,-0.006532876618775992,-0.6483350412860891
103.0,0.0952302742497471,-0.016156953654790005,0.04084529429395678,1.2648072758607767,0.9384874489528305,9.672662554793753,0.002727920928402833,0.15181761876662545,0.053137644711700585,81.06961370405755,7.409215243434116,-5.543496930144993,0.7573445889085739,-0.0807716207943876,-0.005538127692452512,-0.6479647832882058
104.0,0.09783691131842193,-0.01694541231126597,0.03695893746955904,1.2661294443820013,0.9379130793151249,9.672762729009783,0.037578678206136897,0.18203280131879657,-0.0806388389344723,81.00864757783523,7.41657838784609,-5.540977295717658,0.757666282813158,-0.08079108373590349,-0.005579461906710126,-0.6475892640715224
105.0,0.08984933123524783,-0.024143981117230533,0.03605704169944926,1.2487667191188039,0.9349004720692371,9.675597954366644,-0.011956628638867033,0.41563237608182524,0.09801583398898506,81.09833300550747,7.31447678992919,-5.521007081038553,0.7572179908666404,-0.07999623409913453,-0.005180410282848151,-0.6482213798084187
106.0,0.10058556254917386,-0.02872029897718333,0.03728501180173093,1.3246233280881192,0.9300938237608183,9.665269472856018,-0.013624852478363493,-0.4745943154996066,-0.1949191089693155,81.21802960267506,7.766576514555467,-5.493538552321008,0.7563530081752559,-0.08280340212824547,-0.008031025755114083,-0.6488287664620378
107.0,0.09328874901652241,-0.032456923682140065,0.039436860739575155,1.330993115656963,0.9356477183320222,9.66462667191188,0.169724872147915,1.0600818745082612,0.0985837922895358,81.23401480133754,7.7979555959874105,-5.523029356805665,0.7562250619948859,-0.08318410503992918,-0.008006326147718332,-0.6489329930415028
108.0,0.08412844217151849,-0.027730133752950442,0.03943843430369789,1.3159760031471284,0.9354311565696303,9.66580763178599,-0.006177468528717547,-0.34835513375295035,-0.08415617623918176,81.15710808418568,7.715009097167584,-5.52166724036192,0.7566920383353659,-0.08261767221577496,-0.007511714725609756,-0.6484352657614085
109.0,0.08525432730133753,-0.029192564909520068,0.038946892210857606,1.390179386309992,0.9295572383949648,9.655904405979538,0.05394866247049567,-0.28382056451612897,-0.2330362411487018,81.31382154799371,8.152991001180173,-5.4959406963021245,0.7556147276530293,-0.0853218602403619,-0.010304063761014951,-0.6493134663880803
110.0,0.09669000786782062,-0.028073564122738003,0.042693154996066116,1.4041388670338313,0.9353910306845004,9.653515735641228,0.08069679386309991,0.1537396734854446,-0.06575285208497246,81.37647029897718,8.238156471282455,-5.5324375491738795,0.7551982451774195,-0.08608518730841856,-0.010572501574744295,-0.6497068534000786
111.0,0.09650236034618412,-0.02073151062155783,0.034402439024390254,1.4041772226593234,0.930826907946499,9.654251966955158,0.1116111821400472,0.33823883752950434,0.036768538552321005,81.41437598347757,8.234405733674272,-5.50300083595594,0.7550133293904409,-0.0859222258548387,-0.010759702209087334,-0.6499507267755704
112.0,0.10092053501180173,-0.014176239181746656,0.03833831628638869,1.3631329661683713,0.9249457120377658,9.660412273800162,0.02442958300550747,0.29953776553894573,0.05515342250196695,81.42578678206137,7.990312745869394,-5.465991345397325,0.7550698453202205,-0.08410931658064516,-0.009617536624704957,-0.650141585166011
113.0,0.0947891424075531,-0.012915814319433517,0.042144767899291904,1.369392604248623,0.9201644374508264,9.65983005507475,0.10861526357199054,0.3796026750590087,0.011472265932336741,81.4447039732494,8.02307730133753,-5.437514752163651,0.7549644822478365,-0.08421567513690006,-0.009968669071597167,-0.650255439671125
114.0,0.09980055074744296,-0.017195908733280883,0.0396805664830842,1.328659323367427,0.9233701809598746,9.665933910306848,0.100875295043273,0.7608625098347758,-0.009158634933123527,81.46583153029111,7.780008359559402,-5.449038650668765,0.7549534779775768,-0.08268697713021242,-0.00850197163335956,-0.650482098587726
115.0,0.10507258064516128,-0.01848387096774194,0.044000000000000004,1.2761290322580643,0.9214758064516133,9.673419354838712,0.061693548387096765,0.3942540322580645,0.03160282258064516,81.4469254032258,7.473235887096774,-5.433114919354839,0.755190498185484,-0.08056197626612904,-0.006840269225806452,-0.6504889213064515
116.0,0.1045241935483871,-0.015467741935483871,0.038991935483870976,1.2101290322580645,0.9274758064516131,9.680983870967744,0.1681451612903226,0.3436491935483871,-0.019203629032258057,81.31381048387097,7.090171370967742,-5.468598790322581,0.7561035152741935,-0.07823053111290323,-0.004319467516129032,-0.6497282465403226
117.0,0.096286866359447,-0.0111605222734255,0.04142588325652842,1.1271440092165899,0.9930506912442396,9.683536098310292,0.753081797235023,0.946051747311828,-0.5293706797235024,81.27667770737327,6.595994143625191,-5.851742511520737,0.75635653934255,-0.07715357729761904,0.0010241295264976956,-0.6495330014600615
118.0,0.10198361807350792,-0.01759757034206287,0.03659187553857106,1.0605730864336294,1.0956929302011915,9.680084532239333,0.43262616612341237,0.43208185811696825,-0.5268405080364167,81.7935260832303,6.205263127084035,-6.453049658592784,0.7533384501272151,-0.07807605911173242,0.0068312288481229624,-0.6528715621112267
119.0,0.10923167921771382,-0.020532951182046386,0.040732110074556974,1.0347463189839272,1.1450823030234911,9.678043347945007,0.3328182954928628,2.9914109624967766e-05,-0.3571788594470046,82.08680102843655,6.059233156775692,-6.741907033269641,0.7516296114184462,-0.07877894895919035,0.009387557310469821,-0.654754957700873
120.0,0.10225696864111497,-0.020266475591023195,0.04307170019856882,1.0366392885242217,1.1809242160278746,9.673344254617664,0.11923172839159267,0.510574432861264,0.11135512672811063,82.3913339819602,6.0674946025813945,-6.952052306957402,0.7498147893180941,-0.08007856140298228,0.010506343231847813,-0.6566728767536623
121.0,0.08842283915926716,-0.02128646360196321,0.04215278558315538,1.0135414184556593,1.1805709789816792,9.676422127308834,0.0157398561312802,0.5520866115919223,0.2397753456221198,82.2168111442059,5.9304458900003745,-6.950169298639992,0.7508545709775956,-0.07914452958858792,0.011400543966730358,-0.6555922781187666
122.0,0.09142800944138472,-0.013241542092840284,0.0432084972462628,1.0104343036978758,1.1824421715184892,9.676316286388673,0.052311172305271436,0.4476494885916601,0.02560483870967742,82.0746066089693,5.913557238394965,-6.958797206923682,0.751671272819827,-0.07905369919905586,0.011662089785208496,-0.6546673210102281
123.0,0.07335721778876775,-0.014104005095350494,0.049226293507174716,1.0115129069723876,1.1794701210145742,9.676500655651722,-0.0732306770072309,-0.4048937375894497,-0.10878585009928439,82.20400509535048,5.917172572215353,-6.941715020980855,0.7509391527450077,-0.07899564174332173,0.01141783919536548,-0.655516289563598
124.0,0.09600422427035328,-0.015153609831029188,0.04515284178187405,1.0344708141321046,1.1895906298003074,9.67241858678956,0.19625576036866357,-0.046481374807987724,-0.10213373655913977,82.22535522273425,6.050549635176651,-7.005714765745008,0.7507443457657452,-0.08022659503917051,0.011059038581797236,-0.6555978615145928
125.0,0.10310906298003072,-0.015119047619047619,0.042979262672811075,1.0943056835637484,1.1832457757296473,9.666432795698928,-0.2007176459293395,0.2457277265745008,0.009727822580645154,82.46077188940092,6.400597638248847,-6.972700652841782,0.7492951263337175,-0.08233488629032257,0.008645534068356374,-0.6570093346962365
126.0,0.09829902401558577,-0.017275495485369604,0.041095846914690363,1.0496172398935972,1.1580774512007797,9.674353396275901,0.005518070229665439,1.185822409707392,0.05972536388670338,82.32061386562886,6.134696562043385,-6.81560755498108,0.7502683201551555,-0.079725541513572,0.009294969505460642,-0.6562133049288619
127.0,0.10143580233037354,-0.021972425162039642,0.039447117005732286,1.0075062005919602,1.1321314675358738,9.682265407815368,-0.046056489078715665,-0.09869665804952976,-0.10862018095987412,82.23029181184668,5.88904686973137,-6.664356196845378,0.7509055165251586,-0.0772340552769473,0.009774167345472255,-0.6557757838958824
128.0,0.09509040500543255,-0.028546888464276356,0.03923123899441762,1.043295342999513,1.1389543666404407,9.677573564122739,0.0969554344160953,-0.30386061781124724,-0.07525383087932262,82.22753549885729,6.101464679105316,-6.709967076917312,0.7508225883693382,-0.07886574699408039,0.008819862176576373,-0.6556993335017046
129.0,0.0959553407515642,-0.027040725338128967,0.038306095687685005,1.1247413734966845,1.1467790266381925,9.667229178374736,0.057214276347832604,-0.35015899554156826,-0.23604281405717284,82.4008645236222,6.582553576111797,-6.763580888689071,0.7496489832046385,-0.0823055234425087,0.006250000285676819,-0.6566410835496235
130.0,0.10298151062155783,-0.02498190401258852,0.04115184893784424,1.1357226593233678,1.1358552321007078,9.667631392604251,-0.04540715971675846,0.3510277340676633,-0.0651308025177026,82.48662716365067,6.650066384736428,-6.699358280881196,0.7491544706766327,-0.08235081766286388,0.005365475192761605,-0.6572134882977971
131.0,0.10246505376344084,-0.02397347420478814,0.04009617474054927,1.1593380446592487,1.1242585890375032,9.666161243490318,0.017037109887227897,0.12587283634933127,-0.051355677007230906,82.60300528502117,6.784929552564535,-6.6346335726462105,0.748469232853209,-0.08286457720429172,0.0040589844546851,-0.657945044829465
132.0,0.108002688172043,-0.02214802742497471,0.03930615188640366,1.1016246674909147,1.1104438106477839,9.674600783035482,-0.006955235378966699,0.6311319826907946,0.2690802260125135,82.32516695702671,6.4456653811209765,-6.543501262129556,0.7502211953782174,-0.08014875876746844,0.005662511404761903,-0.6562570340477971
133.0,0.11181182795698924,-0.01890465887377768,0.043015979169008296,1.015505882132554,1.1043388408077628,9.684639101195156,0.04286814843954891,0.6305861526357199,-0.16467863699374322,82.15406533335207,5.943775230883069,-6.498187123000262,0.7514023282213669,-0.07662412594825035,0.00843529218625192,-0.6552945756327695
134.0,0.12568817204301075,-0.017303135888501745,0.04270960248772996,0.9241158442920834,1.0913307107264618,9.695589711887898,0.011252622606871232,0.9294059795436664,0.03681390730958001,82.07358004570828,5.405985397699599,-6.415625819564648,0.7520596144574576,-0.07264195130073808,0.01104344386328725,-0.6549507984736427
135.0,0.12145698924731184,-0.013576036866359449,0.04761443932411675,0.8336251920122888,1.0850430107526878,9.704378648233483,-0.023219086021505374,0.24879032258064518,-0.0712173579109063,82.00814132104455,4.876089669738863,-6.3756384408602145,0.7526025118801845,-0.0689123950122888,0.01387527838325653,-0.6546782874193546
136.0,0.14180169561621175,-0.017535980148883374,0.042102150537634414,0.8394437551695617,1.0785430107526879,9.705264474772534,-0.05679151157981803,0.17204559553349877,0.13613523573200992,82.06056658395369,4.910092276674938,-6.336560432175352,0.7523101894483044,-0.06892504824110834,0.013408891136269646,-0.6550421784057072
137.0,0.15268713813068652,-0.022243796526054592,0.04275268817204301,0.8420202646815549,1.0759005376344084,9.705354011579812,0.15439154259718776,-0.030257444168734493,-0.16681141439205954,82.04963813068652,4.927752791563275,-6.325462675765095,0.7523638611435071,-0.06896023403184451,0.013253911765715467,-0.6549845220738215
138.0,0.14546050454921422,-0.021698511166253102,0.04204569892473119,0.8258165839536806,1.0824059139784943,9.705612489660874,0.07885907775020677,1.4349720843672458,0.12113058312655087,82.0548089846981,4.819219137717122,-6.361723273366419,0.7523382755717534,-0.06849537865301902,0.014083114064309347,-0.6550222175490076
139.0,0.1607600516451815,-0.024438555347091932,0.040608903750327836,0.8445470606629144,1.0838344479412534,9.703480910448059,0.028717009370776085,-0.5524994515221207,-0.046031384282515284,82.01936026044504,4.939753771258246,-6.373510756470778,0.7524989125245667,-0.06932831526140329,0.013475515453574817,-0.6547575678971433
140.0,0.14458262220339324,-0.02376127216607154,0.04413519538421193,0.9138763037382236,1.0793954891161812,9.697900270330244,-0.07749891565292824,-0.5233687511347818,-0.19572111602009323,82.0834557006395,5.350587816982388,-6.350343964978111,0.7520530880617522,-0.07186523402861669,0.010912362599427064,-0.6550500649074624
141.0,0.13415971675845792,-0.023240558615263574,0.04665322580645163,0.9889754130605823,1.0677202989771828,9.691696105428797,0.005106707317073175,-0.2836140342250197,-0.08275472069236822,82.16155954956727,5.788906372934697,-6.28353166797797,0.7514954992513767,-0.07435702029327303,0.007922440967348546,-0.6554584366372935
142.0,0.124595987411487,-0.020995279307631787,0.04250000000000002,1.071088512981904,1.0607956333595592,9.683255310778915,0.03959972462627852,0.028228265145554682,-0.14238542486231315,82.25353683123524,6.272174960660897,-6.247108575924469,0.7508208202950432,-0.07730469519099135,0.004822332854642015,-0.6559237695847758
143.0,0.12420928402832415,-0.022675059008654606,0.04225806451612905,1.082552321007081,1.0533453973249407,9.683151848937845,-0.009333202202989773,0.3362411487018096,-0.09825924468922109,82.35970692368213,6.339565302911094,-6.202586546026751,0.7501800506797794,-0.07752610640597954,0.00408079771361133,-0.6566482604657752
144.0,0.11850983477576713,-0.020066089693155,0.043592446892210875,1.0704586939417782,1.0507191188040912,9.685874901652241,0.11261309992132179,0.507213808025177,-0.05316679779701023,82.40751868607396,6.264840676632572,-6.187032848151062,0.7499518715586153,-0.07697162734539734,0.004361434664830842,-0.6569813989315503
145.0,0.1282863886703383,-0.026183320220298983,0.04734775767112512,1.0301955153422502,1.0540833988985048,9.689051534225019,0.010014260424862316,0.36313680173092056,-0.15819728560188825,82.48131146734855,6.026460464201416,-6.20113345790716,0.7496059362010228,-0.07549737382533439,0.005780533192368214,-0.6575324992147916
146.0,0.14496144767899288,-0.028209677419354845,0.0396298190401259,1.0046020849724626,1.0542014162077107,9.69198052714398,0.052459923288749016,-0.14902758654602669,-0.39051681746656175,82.69475191778128,5.873281372934697,-6.204028570023603,0.7484189440957907,-0.07453819168056647,0.006555569680369787,-0.6589805869913457
147.0,0.1303436270653029,-0.027604838709677428,0.04125845790715973,1.0239824940991347,1.0566732887490167,9.689155586152635,0.05070072777340677,0.5630114083398898,-0.2225265538945712,82.9322801927616,5.990672944531864,-6.22114230920535,0.7470197366245082,-0.0753750910660897,0.005823590529701023,-0.660478899560189
148.0,0.10848642800944137,-0.0254962627852085,0.04198170731707318,1.0021819433516916,1.0552692761605036,9.691566876475216,-0.01544182730133753,-0.11000196695515341,-0.1570281766325728,83.05599921321794,5.866090922501966,-6.2125417977970105,0.746336111778914,-0.07452046314280096,0.006420342198662469,-0.6613386717531473
149.0,0.11281726986624704,-0.02970810385523211,0.04242486231313927,1.0271876475216364,1.057556254917388,9.688281864673488,0.03268464791502754,-0.32480084579071594,-0.19237067269866245,83.07950801534224,6.01237583595594,-6.22770948072384,0.7461287810088513,-0.07555744415892998,0.005632098417584578,-0.6614524143611329
150.0,0.12279425649095199,-0.03775255704169946,0.04267151848937845,1.0653760818253342,1.0540267505900864,9.684950432730137,0.007651455546813533,0.09642260031471281,-0.1328137293469709,83.14155192761605,6.237020554681353,-6.205527143981117,0.7457117012018095,-0.07691424209166012,0.004155997117230527,-0.661783448104642
151.0,0.11932474429583002,-0.045360149488591656,0.04700609756097562,0.9066644374508261,1.0462651455546814,9.700045633359561,-0.1081825334382376,2.0021107887490164,0.42717594413847365,83.00082120377655,5.30020775963808,-6.146193941778128,0.7468117941500787,-0.07041997892073171,0.00933389765302911,-0.6610929810334382
152.0,0.12383348463757589,-0.04540825919425448,0.04570848715931329,0.8181239887833123,1.0216515967641069,9.711629929996576,0.0005199822469688711,0.2514411729104884,0.12438847868627573,82.6961896548246,4.786193235691662,-6.000614547398576,0.7487682370124878,-0.06626281251423269,0.011565256424943009,-0.6593161940591095
153.0,0.13340376041477534,-0.04852002259476689,0.04564968024370071,0.8383578244467309,1.0002829187597089,9.71223982731143,-0.09198528818414733,0.2553380136779035,0.5410642236074966,82.44959463071677,4.904214831850551,-5.87365011398253,0.7502043480522707,-0.0662958646402792,0.010227101191228391,-0.6577431764898223
154.0,0.1233942484213924,-0.04359203332728117,0.04406795577881338,0.8233693134822168,0.97363319816821,9.716424398313464,0.09053371310698219,0.29871050959268897,0.21038754059997178,82.05572768514595,4.8180987613226005,-5.716811288305191,0.7525530592015877,-0.06476775447592245,0.00990245736036636,-0.6552276728798443
155.0,0.10600475599669149,-0.04429011579818032,0.04636993382961126,0.7518782051282051,0.9760628618693136,9.722567824648472,0.21494132547559966,1.0822968362282879,0.021794871794871787,81.7628166356493,4.395492142266336,-5.726398366418527,0.7543375651751449,-0.06204438411207609,0.012563844814722912,-0.6533860540103392
156.0,0.12788544251447476,-0.03588296112489661,0.05062448304383789,0.7594995864350702,0.9876604631927213,9.720985525227462,0.10043941273779984,-1.0397487593052108,-0.3582557899090157,81.91268351943755,4.445225909842845,-5.792382650951199,0.753439200019024,-0.06277902995119934,0.012640949262200166,-0.6543589096906535
157.0,0.12582867820613686,-0.0379887883556255,0.04486428009441386,0.8162254130605822,0.9918326121164437,9.715172501966954,-0.05222020062942565,-0.16584136506687647,-0.11808861132966167,82.10779037175453,4.773543223839496,-5.821232051534225,0.7522390314937056,-0.06511046277301338,0.01082307598426436,-0.655554272137687
158.0,0.13405546813532648,-0.04411132966168371,0.04840794649881984,0.8163949645948072,0.9824122738001573,9.716162863886705,0.1131036093627065,0.6238837529504326,0.04942343627065304,82.13562401652243,4.769911732887491,-5.766084775767112,0.7520993513678207,-0.06478322116070023,0.010481172306648308,-0.6557358643430371
159.0,0.13422934697088904,-0.048144374508261215,0.04958300550747445,0.7527136113296615,0.9962625885129819,9.720412077104648,0.13288749016522422,0.2737866345397325,0.003315548780487808,82.06045313729348,4.398237116443745,-5.844635129819039,0.752613972038749,-0.06278893883438239,0.013149856931549962,-0.6553029396150671
160.0,0.13598564122738,-0.048249606608969334,0.04749311565696304,0.7960100314712824,0.9877321007081035,9.717637490165224,-0.15255827104642017,-0.1820330940204563,-0.13440573367427222,82.0806549960661,4.653957267899292,-5.79489821007081,0.7524540281685681,-0.06417787933654603,0.011338131836742723,-0.6553895370293077
161.0,0.12933556254917386,-0.04354012588512983,0.044282848151062176,0.8275735641227379,0.9632773406766326,9.717669551534229,-0.06466119197482298,0.14923042879622342,-0.04968774586939417,82.1203678206137,4.835169158143194,-5.652035798583793,0.7522279408221872,-0.06455947051101496,0.009337106216758458,-0.6556524630912668
162.0,0.11918548387096772,-0.033379032258064524,0.04860483870967744,0.8067419354838707,0.9526693548387098,9.720806451612908,0.1288810483870968,0.42878024193548386,0.02011088709677419,82.06653225806451,4.714717741935484,-5.588911290322581,0.7525898586612902,-0.06339106450806452,0.009656647991935484,-0.6553441694032258
163.0,0.13333300550747443,-0.027460464201416214,0.04637883556254919,0.8198233674272226,0.9530997246262786,9.719066876475216,-0.053901947285601874,-0.39003122541306057,-0.3140207022029898,82.13287642604249,4.793324645948072,-5.592169059795436,0.752186353268686,-0.06392329241168371,0.009176383737608183,-0.6557638119042092
164.0,0.1358640833988985,-0.03018587726199843,0.04224586939417782,0.8934439417781275,0.9379651848937844,9.714170535011803,-0.10608403815892997,0.08263055664830837,-0.10144079464988201,82.40955817269867,5.225694581038551,-5.503140981510621,0.750509577384343,-0.06625245219374508,0.005963353134933123,-0.6574815691738787
165.0,0.1257816679779701,-0.03017623918174666,0.044810778914240776,0.9117476396538158,0.9217326907946499,9.714392407553113,0.044903127458693945,0.14320294059795435,-0.06920239968528717,82.48983207120378,5.328742132179387,-5.412641374901652,0.7500477597077104,-0.06641412417525572,0.004708553851888276,-0.6580064727043666
166.0,0.11632132554044436,-0.030442574275973185,0.046436495447903806,0.9379158705181521,0.917705247087033,9.711579652317262,0.0013614139597617168,0.22149226330972982,-0.19148484039563896,82.60873011970327,5.4838795146304,-5.393013035761118,0.7493171006994774,-0.06730758341577686,0.003604303106627702,-0.6587584514026825
167.0,0.1163158555318272,-0.036742235210370545,0.04226132404181186,0.9936438125210743,0.9179660185081113,9.706166104679479,0.04137455041025064,-0.3255073105166535,-0.16486737102394064,82.76742687141733,5.810789334419841,-5.397146392978906,0.7482757655780039,-0.06947888169903715,0.0016255287142107823,-0.659720388529036
168.0,0.11444431643625191,-0.03135302161777379,0.03791272338990673,0.9956220636169495,0.9313984301824586,9.704188481135962,0.20757260171968078,0.5863612149226332,-0.19988549511071146,82.90766111470157,5.822143290341314,-5.475299199636581,0.7474517326080423,-0.06999627183299614,0.0020010287945562174,-0.6605964518687667
169.0,0.10596006144393241,-0.0339748979056611,0.0409160391143082,0.9802868382600878,0.9245782473492937,9.706582143793783,0.023115937956614582,0.11356871230002624,-0.14520484432954928,82.99150696864112,5.73594563710614,-5.433944962721516,0.7470114676870858,-0.06919702003746583,0.002175884308568431,-0.6611878473174478
170.0,0.11923258776366565,-0.034169195609006796,0.03724322805440037,1.0326099808924356,0.9251954966093439,9.701635682439768,0.07564136787681242,0.07404438762129557,0.03294930875576037,83.0416425480499,6.042736783934659,-5.440595612753362,0.7466161455988535,-0.07122376710763928,0.00039590151384361766,-0.6614196732873627
171.0,0.12183398898505116,-0.03597167584579074,0.03534775767112511,1.037583792289536,0.9253296616837139,9.701427222659316,0.06994000786782062,0.07857002360346185,-0.08799173878835562,83.01369984264359,6.0739329268292686,-5.4376475216365066,0.7468032176490951,-0.07141699119984264,0.0002319381376868607,-0.6611912828827695
172.0,0.12601534225019667,-0.030267505900865473,0.040466955153422524,1.1211011014948857,0.9234358772619986,9.691752163650666,0.10278078284815106,-1.0890588119590874,-0.4832661290322581,83.19889850511409,6.568167289535799,-5.43572974036192,0.745512907400472,-0.07459120334972463,-0.002806298960267506,-0.6622455054028324
173.0,0.10989201416207711,-0.02969708890637294,0.0428495279307632,1.1408613296616834,0.9359154209284029,9.687902045633354,0.059823711644374514,0.6214570220298976,0.00467889457120374,83.41539142407552,6.681433172698663,-5.5149734461054285,0.7441924276538159,-0.07573401615165223,-0.003080487292879623,-0.6635949107462626
174.0,0.10257435090479937,-0.030247246262785216,0.044763178599527956,1.1017151848937843,0.9334030291109361,9.693176435877255,-0.03830276357199056,-0.12059279110936272,-0.045080153422501976,83.46160503540519,6.451815745476003,-5.499759047993706,0.7440223882492132,-0.07417902166896145,-0.0018789843638867037,-0.6639898367204956
175.0,0.1214162077104642,-0.025151848937844216,0.04041384736428011,1.0756317859952793,0.9321652242328873,9.696374508261206,0.08117623918174666,0.7052025963808025,-0.0903324154209284,83.53846380802517,6.29574154209284,-5.491915814319434,0.7436485011125098,-0.07311925245948073,-0.0010693387867820613,-0.6645415709126672
176.0,0.12838709677419355,-0.02397010228166798,0.04288591660110151,1.0593642800944139,0.9187741935483871,9.699841070023597,0.05089496459480724,0.5890538945712037,-0.12803894571203778,83.6325039339103,6.198033044846577,-5.413975216365067,0.7431696610590086,-0.07201961119433516,-0.0010867809032258065,-0.6652049481132967
177.0,0.12068135326514556,-0.019579858379228956,0.0447112509834776,1.0838835562549174,0.913040912667191,9.696328874901651,-0.03881294256490952,-1.2060877261998426,-0.4558713611329661,83.73207612116443,6.347693745082612,-5.3750049173878836,0.7425433422478362,-0.07276751052557043,-0.0022539689158143196,-0.6657799319732494
178.0,0.12243115656963025,-0.017579858379228958,0.04821243115656965,1.2189197482297403,0.8844512195121951,9.682154209284027,0.09466709284028323,0.13157946498819828,-0.4524439417781274,84.07873475609756,7.140561073957513,-5.214228461841069,0.7402504354724627,-0.07692902052321007,-0.008164606631785995,-0.6677912611880408
179.0,0.12651612903225806,-0.017322580645161293,0.0461935483870968,1.1699193548387097,0.9061854838709676,9.68696774193548,0.051159274193548376,0.35604838709677417,-0.25211693548387093,84.39511088709678,6.855695564516129,-5.344506048387096,0.7384831092499999,-0.07583563998387097,-0.0058638048225806445,-0.669915919
180.0,0.11416129032258066,-0.014524193548387097,0.04212903225806453,1.1684032258064516,0.9075,9.68781451612903,0.1691532258064516,0.6605342741935484,-0.17484879032258063,84.58951612903226,6.844052419354838,-5.348336693548387,0.7373621299919355,-0.07579394895161291,-0.005883690354838709,-0.671177525483871
181.0,0.11101571546732837,-0.015621588089330025,0.04535111662531019,1.1144758064516127,0.9203281637717122,9.693854838709672,0.03707738833746898,0.34433803763440857,-0.12525718569065342,84.73627093672457,6.527113058312654,-5.420147074028122,0.7365771450012406,-0.07418528373552524,-0.0036435589011579814,-0.6722443740496278
182.0,0.12619334160463191,-0.019818858560794045,0.042441687344913166,1.107572580645161,0.9145552109181145,9.694854838709672,-0.06903691066997518,0.03227486559139783,-0.016887665425971886,84.84769696029777,6.486716811414392,-5.382024141852771,0.735951753105459,-0.0737057125814723,-0.0036996938618693133,-0.6729906205328784
183.0,0.12110876757650951,-0.02939330024813897,0.04413213399503723,1.1391451612903225,0.8923300248138959,9.693419354838706,-0.014709987593052108,0.11379368279569892,-0.08553556658395368,84.8786871898263,6.670021712158809,-5.252781224152192,0.7357417585930522,-0.07410642665363937,-0.005647193326095946,-0.6731649360527295
184.0,0.13201406120760958,-0.034414392059553364,0.042900744416873464,1.1572016129032257,0.8851327543424319,9.691419354838708,0.05146557071960298,0.27083333333333337,-0.15320125103391233,84.90670750620347,6.77356932382134,-5.212277708850289,0.7355761444416875,-0.07454826623407775,-0.006524246844499584,-0.6732914224578164
185.0,0.13219782525368678,-0.028720964715850644,0.03946846819584823,1.1211605035405192,0.8873777461720029,9.695257671125093,0.09589038764146945,0.22265850380277996,-0.06321119298351793,84.97238527355807,6.558598809235612,-5.227064798563618,0.7352530586689161,-0.07328110019138978,-0.005238110318787951,-0.6737941569191127
186.0,0.1317002360346184,-0.022861723052714406,0.041791306058221886,1.130967348544453,0.8828452006294257,9.694661093627062,-0.0247750295043273,0.21227011211644375,-0.08275840873328087,85.02819015538945,6.616287618017309,-5.199223052714398,0.7349293855627458,-0.0734708796581432,-0.005796407069236821,-0.6741233648813926
187.0,0.1091323760818253,-0.023434893784421724,0.04128678206136902,1.0995965774980327,0.8728298583792289,9.699205546813525,0.13153889653815892,0.753136064122738,-0.1109608575924469,85.01452350511408,6.436394817073171,-5.137615558615264,0.7350879050999213,-0.07196970666778127,-0.005089365607199055,-0.674118021404406
188.0,0.1123040912667191,-0.023745672698662477,0.04377242328874903,1.1072136113296618,0.880451219512195,9.697550354051923,0.17229666601101495,-0.19336644374508266,-0.1197949449252557,85.07994320416995,6.487779061762392,-5.182971085759244,0.7346689650660896,-0.07251535390243902,-0.005114878678599527,-0.6745152034199449
189.0,0.11049881982690793,-0.025441384736428013,0.04134185680566485,1.129130999213218,0.8884917387883555,9.695073564122733,0.037534421715184896,0.2770062942564909,-0.1007744885916601,85.11373672305271,6.614580055074744,-5.232916994492525,0.734408427081432,-0.07362962606412274,-0.005598910008654602,-0.6746752536333595
190.0,0.12061290322580642,-0.02822580645161291,0.03957258064516131,1.1346370967741934,0.8878225806451613,9.694201612903223,-0.024697580645161282,0.11350806451612903,-0.0015625000000000083,85.08220766129031,6.644254032258065,-5.229435483870967,0.7345891150080645,-0.07379883773387097,-0.005802327274193549,-0.674460183548387
191.0,0.12400806451612906,-0.023258064516129037,0.04423387096774196,1.091927419354839,0.903911290322581,9.696677419354842,0.24238911290322582,1.0439012096774192,-0.4168850806451613,85.27373991935482,6.388104838709678,-5.322278225806452,0.7335057904919353,-0.07271890920967741,-0.003799783927419355,-0.6757421679354838
192.0,0.12432258064516132,-0.02337096774193549,0.04429838709677421,1.0751693548387098,0.8994354838709677,9.699056451612902,-0.05740927419354838,-0.4980846774193549,-0.15307459677419355,85.47076612903226,6.2906249999999995,-5.293649193548387,0.7324046475,-0.07195203223387096,-0.003514887064516129,-0.6770230197580644
193.0,0.11682081038552322,-0.021738788355625496,0.0420483870967742,1.2155914634146345,0.88808615263572,9.682476396538162,0.005709087332808817,0.10853904405979542,-0.2703542977970102,85.73906618804091,7.117558762785208,-5.236035847757671,0.7304929673841463,-0.07683199730605822,-0.00902008526927616,-0.6784607896589301
194.0,0.11057572777340677,-0.024619394177812753,0.04697580645161291,1.184832022029898,0.8769463021243118,9.688004327301336,-0.08681279504327301,-0.025367574744295823,-0.13056525373721478,85.8511359166011,6.938693695908734,-5.169958448072384,0.7299349386315892,-0.07527106856431942,-0.00843886100963808,-0.6792704915230134
195.0,0.10246931549960661,-0.0254911487018096,0.044427419354838724,1.1988273013375297,0.8715175059008655,9.68739732494099,-0.009863050747442953,0.4057385916601101,-0.09585218332022029,85.94814860346183,7.020732936664045,-5.137776603068451,0.7293385163762786,-0.07557917089103068,-0.009197758331431941,-0.6798833787655391
196.0,0.11337962234461055,-0.02730566483084186,0.04408674272226595,1.2060808418568056,0.8748819826907943,9.68666522423289,0.000555664830841858,0.1050452399685287,-0.1591832218725413,86.0222339693155,7.060293322187254,-5.158298092053501,0.7288905953495279,-0.07596761006018882,-0.009362125583595593,-0.6803252949044061
197.0,0.11270094788505489,-0.021630174965344126,0.043326589487093045,1.2029837773032104,0.8839740174590688,9.68605803454348,0.09865532857517514,0.08530871829455622,-0.2640506163126147,86.15506139710014,7.044661590049079,-5.210910278745644,0.7280793653804092,-0.0761512409160391,-0.009031177050054327,-0.6811791590869953
198.0,0.12973757071672098,-0.024965362856393548,0.03927147727698476,1.1744226518302048,0.8905944044809111,9.688780394140345,0.13390673588475516,0.6905693866846502,0.12901422764227638,86.17855843261773,6.877194091641377,-5.246534997752051,0.7280000510300945,-0.07530281571372371,-0.0077735014990633535,-0.6813660009439697
199.0,0.1298929789067476,-0.023006874976583873,0.04061154509010529,1.101888745269941,0.896349621595294,9.696817616425008,0.06173663407140983,0.6038532417294219,0.024890178337267227,86.05722276469595,6.449736158723914,-5.2715033859727995,0.7288660480513376,-0.07276257051008765,-0.004939065443080063,-0.6807388727139204
200.0,0.12999940054700082,-0.01472668689820539,0.04103285751751528,1.0524587314075906,0.9173421003334453,9.700884417968599,0.30366040987598814,0.4147573151998801,0.13923747705218986,85.76245223108913,6.156948503240793,-5.395986006519052,0.7306879776396539,-0.07167143472406429,-0.0022325938197894414,-0.678909404966618
201.0,0.12428372859765463,-0.018641077516765955,0.041872841032557805,1.0573214192049751,0.9424208534712075,9.696920572477612,0.144960614064666,0.1231782248698063,0.03801960398636244,85.71951289760594,6.191052929826533,-5.54338049342475,0.7309059084036194,-0.07276254425739014,-0.0014453007013974744,-0.6785733834014835
202.0,0.1146518489378442,-0.02622069236821401,0.04089417781274589,1.0470562549173879,0.9489346970889067,9.697138473642795,0.05183418568056648,0.35428304484657747,-0.1026971872541306,85.76914584972462,6.126930074744296,-5.581151652242328,0.7306006096211646,-0.0726022669697089,-0.000897721487411487,-0.678922871189221
203.0,0.10684834775767112,-0.030077301337529512,0.03974763965381591,1.1130733674272228,0.9485224232887493,9.690847757671126,-0.04047256097560975,-0.571663552321007,-0.3585083103855232,85.91852257081038,6.5151271144767895,-5.581237706530291,0.7295420873212037,-0.07506097890892999,-0.0033420184643981124,-0.6797705949234852
204.0,0.10811369000786782,-0.03735523210070811,0.04210346184107004,1.170681746656176,0.9396030684500396,9.684902832415423,-0.027065302911093624,0.058632474429583026,-0.09698072383949645,86.06887047600316,6.852426730920535,-5.536914830841857,0.7285644698855231,-0.0769138370444532,-0.005736368947285602,-0.6806005191211644
205.0,0.11600038402457756,-0.046581965831179045,0.04508342699786446,1.1960323048967814,0.9364236165748756,9.68168936158256,0.09772676182983028,-0.0030354918324528787,-0.12385284365516466,86.19328325793339,7.001519648477014,-5.5221747264995695,0.7278091348713892,-0.07775547056467536,-0.006830887193660786,-0.6813170159651754
206.0,0.11525088044659246,-0.049359924693716986,0.03972788580420368,1.2211881626765575,0.9378126147390508,9.67837310329325,0.06007994267730696,-0.07828616153385036,-0.14893714173316847,86.31094077825858,7.150518257558728,-5.531081462384324,0.7270290170433855,-0.07873709587330933,-0.007725476651905138,-0.6820303825126821
207.0,0.11347624667490913,-0.045563026862987535,0.039605878385972806,1.2860497264995692,0.9448821138211383,9.669234938743402,0.059626664887040576,-0.018452556573376792,-0.14306736118916488,86.38236051009703,7.536675459424525,-5.575092142482484,0.7264345929571764,-0.08139538777536436,-0.009793460535629989,-0.682322062038599
208.0,0.09968049155145928,-0.034070360795773864,0.04096009890974486,1.3863811771758272,0.9526587988460529,9.653769810048331,0.23794115994155335,-0.7449271289947922,-0.5617904911768012,86.57003671649619,8.128355063504552,-5.630013862350605,0.7250341057641901,-0.08544098670623057,-0.013173997887602564,-0.6832344196411524
209.0,0.11516282642089093,-0.04639159267168709,0.04157052939192987,1.3884455059757972,0.954494623655914,9.65385658086996,-0.022743621445431045,0.595553744707954,0.07221746094189052,86.67356084447941,8.139920057322694,-5.644260471694579,0.7243891012408676,-0.08556658713596343,-0.013228589374957854,-0.6839087861801357
210.0,0.10441439205955333,-0.04362708547681011,0.04317301135790515,1.420370100264278,0.9595301902398674,9.648676783877022,0.1494827916641449,-1.1421952858641489,-0.5075648338679417,86.83745246525046,8.333255033387804,-5.6745743307309,0.7233327387484617,-0.08694627155539753,-0.014353117009350604,-0.6848305612195726
211.0,0.11513245173394661,-0.027051937702999858,0.039350471060541875,1.5505603451754122,0.9729909015715464,9.627118879743392,0.02842943674473964,-0.06216274914765274,-0.0615125506869213,87.34283126803041,9.097002221650628,-5.76802575702556,0.7199044252074331,-0.092177668495244,-0.01884205771868002,-0.6876074771534528
212.0,0.11267106457665074,-0.028082420464403166,0.036973622627045136,1.584485817748996,0.9633986765922249,9.622765085032988,-0.058466733240533406,0.22282487542617369,0.03118928917266839,87.40876442433779,9.298249094696281,-5.712742717222458,0.7194209317851683,-0.09312838324358977,-0.020441443556920656,-0.6879689008105974
213.0,0.10831822308297526,-0.0348201244729569,0.029891217293066236,1.5646425941616737,0.9462154673283705,9.627609922532228,0.009958214811676643,1.2122188893259902,0.16889421185620046,87.28495361264096,9.177374940739172,-5.612100115495572,0.7202466710892795,-0.09178295854547701,-0.020240307950765597,-0.6872954873761876
214.0,0.11375204548926028,-0.04264566131481947,0.03810440280935955,1.4088264814126341,0.9450697152310056,9.651385798439692,0.0785390152399397,0.9933334269978644,0.23155132059783912,87.07416123412386,8.257253858618434,-5.588910560819983,0.7219562273253617,-0.08593587175027306,-0.014621150376688485,-0.6863625804379019
215.0,0.1190478438424937,-0.04633755760368666,0.03872185380839985,1.3121710127009105,0.9361118916488704,9.66563419317373,0.021537280824997188,0.8091994960848226,0.2886180617998576,86.79351419954291,7.684969477070922,-5.525514510977484,0.723900341357611,-0.08201461142154659,-0.011362205952128057,-0.6848638561285919
216.0,0.12019052302274175,-0.045764471170057344,0.040440588587913544,1.2374753568618635,0.9266299033382039,9.677507202802442,0.013778696470720464,0.49420193136263163,0.22414589655689182,86.46680897821363,7.241002760762054,-5.465387443332959,0.7260491084467047,-0.07891338364684726,-0.008845168625257577,-0.6830060277630569
217.0,0.11986542280169346,-0.038148364617286726,0.03514368139073097,1.2730320332696414,0.9241899516691021,9.673273762691547,0.07768067888052152,-0.039895002060619716,-0.14382422914090892,86.48272404555843,7.451978194897157,-5.455173560376156,0.7258983690136749,-0.08017533643632685,-0.010170397800532013,-0.6830145742242704
218.0,0.0989256303622944,-0.03893256153759696,0.04262298152935448,1.1409810048330897,0.9150100033719231,9.68998857292721,0.07517983589974148,1.6977698475141432,0.3588756509684913,86.18901642875875,6.67531541530853,-5.390770297103892,0.7279511116626203,-0.07489002477992582,-0.005695142031658612,-0.6814425658768873
219.0,0.09222423288749015,-0.03501337529504328,0.0453658536585366,1.0001274586939417,0.9093084185680564,9.705601888276956,0.03464299763965382,0.9066384736428008,-0.03557730133752948,86.03264162077105,5.8522816679779694,-5.34514653815893,0.72917433836428,-0.06942282254760032,-0.0009123718654602676,-0.6807310573052714
220.0,0.10051809598741149,-0.034453973249409915,0.045963808025177036,0.8396191974822973,0.8921129032258065,9.721018882769476,-0.17819384343036976,1.6023160896931548,-0.04075285208497245,85.94015047206923,4.913798190401258,-5.232663749016522,0.7300123332104641,-0.06277598581353265,0.0040876201018882775,-0.6804223493764753
221.0,0.09877989771833201,-0.032124704956726986,0.04697875688434305,0.7865129819040124,0.8701909913453973,9.728597560975617,0.03359190597954366,-0.5428132376081825,-0.1316323269079465,85.99294108969315,4.608551337529504,-5.10327620967742,0.7298449654722658,-0.06008997894925255,0.0050500917149882,-0.6808819969620379
222.0,0.10537372147915025,-0.028536585365853663,0.04793076317859954,0.8619433516915815,0.863705743509048,9.724390243902445,0.05556648308418568,-0.3216955153422502,-0.013031077891424075,86.06033634933124,5.042879622344611,-5.072678992918961,0.7293711732887491,-0.06266447297403618,0.0021762320771046427,-0.6812010859874118
223.0,0.11128717545239966,-0.021239968528717547,0.0402029897718332,1.1437199055861527,0.8811014948859166,9.68786624704957,0.2499901652242329,-2.5744492525570415,-1.1136605035405192,86.53445121951219,6.703747049567269,-5.195495672698662,0.7258846976868607,-0.07384120587096774,-0.007429280440597953,-0.6835645535373723
224.0,0.11050511408339887,-0.028560188827694736,0.03584264358772621,1.3113485444531865,0.897181746656176,9.666388670338318,0.0613099921321794,0.47669158143194323,-0.06962037765538948,87.11308025177024,7.67683910306845,-5.299232887490165,0.7220178923162863,-0.08052707683241542,-0.01305100702753737,-0.6868457186561762
225.0,0.11105840343763239,-0.03159141802336138,0.04006883334342029,1.3567049567269867,0.9000272549375616,9.662122899392768,-0.002925089269503113,-1.1129580735943836,-0.39321904819544473,87.22532126934172,7.957148621114003,-5.319544977707841,0.7212632328587021,-0.08239652693050092,-0.014609886508886604,-0.6874825623046461
226.0,0.10556460691157779,-0.02704983961750288,0.04197304767092337,1.4723634933123524,0.8944896306159094,9.646954447336036,-0.12384649428069963,0.08299775313199775,-0.2077326554903266,87.57717184631522,8.636088079243075,-5.2954530553370045,0.7188492153294297,-0.08643371305927092,-0.019156717198581776,-0.6894350082860761
227.0,0.11703722084367248,-0.028732630272952864,0.041885028949545086,1.4659032258064515,0.8706759718775849,9.650597601323412,-0.11078241315136478,0.6731816066997518,-0.00284842845326716,87.6653561827957,8.594701199338296,-5.144422043010753,0.7184068793484284,-0.08529432993010753,-0.019852424120140613,-0.6900578847346981
228.0,0.11664764267990074,-0.027547766749379657,0.042474772539288684,1.4644838709677421,0.8427775020678248,9.653734284532677,-0.12930753722084368,0.24256358560794042,0.18758788254755995,87.58792002688172,8.589437293217534,-4.9799731182795695,0.7189191293072786,-0.0842985647795699,-0.02079509724152192,-0.6896302345004137
229.0,0.11501736972704714,-0.028552109181141448,0.04523738626964435,1.3861129032258064,0.8301468155500413,9.666234077750211,0.13007909429280395,1.3088321960297766,0.4787737799834574,87.21354166666666,8.116669251447476,-4.905309139784946,0.721372494758478,-0.08095853549462366,-0.018143697443341607,-0.6875189054437552
230.0,0.0914516129032258,-0.029201612903225815,0.048870967741935493,1.1906693548387097,0.8224596774193549,9.690596774193548,0.05095766129032257,1.0076108870967742,0.4497983870967742,86.4609375,6.97273185483871,-4.847278225806452,0.7263297298225806,-0.07348298069354839,-0.01113182798387097,-0.6831695553306452
231.0,0.09740322580645162,-0.03784677419354839,0.047983870967741954,1.1449838709677418,0.8305887096774194,9.696217741935484,0.10982862903225805,-0.41728830645161297,-0.06416330645161289,86.18336693548386,6.7023185483870975,-4.893598790322581,0.7280794698548385,-0.0721000915,-0.009021930838709677,-0.6815346997258063
232.0,0.09560641227380016,-0.0433607395751377,0.04572206923682141,1.321514948859166,0.8433599527930762,9.671875098347755,0.0013264653815893007,-0.4989796420141621,-0.3688778520849725,86.73533880802518,7.742648505114084,-4.988574449252557,0.7243477978316285,-0.07909446876455546,-0.015097523436860742,-0.6845743641205743
233.0,0.10984880167039886,-0.051831734551836844,0.04043454578466381,1.3941741410962498,0.835690522302245,9.66334315297867,-0.005516332032116846,0.0320134875123565,-0.04039426103007929,86.83902744785047,8.172223756279127,-4.939109908662672,0.7235685823692883,-0.0815408977942918,-0.018017263115762874,-0.6850995204110937
234.0,0.0898719814803607,-0.0509844156630152,0.03725759547297707,1.514885457644899,0.8373855837317677,9.644740124876433,-0.0055555450483164865,-0.7155708772115636,-0.3665680982569751,87.12009336102201,8.884952603946015,-4.958289833363594,0.7215471101886765,-0.08605750119150073,-0.02246009097320402,-0.6865486507136114
235.0,0.08756099074018037,-0.04100833686376567,0.03301186225261757,1.36764837398374,0.8621524692852387,9.6619628043737,0.3985075097339063,2.6292357307490573,0.12581373312957694,87.25024325309165,8.001347269714943,-5.091947336036636,0.7211061669088543,-0.08134310207962132,-0.016331329377731043,-0.6876834810906767
236.0,0.09536458270289899,-0.029585305331961513,0.04042135205471163,1.0527054812483607,0.9498920292925013,9.689923278662064,0.636544765881902,1.5458082420464403,-0.36864370876959385,87.14256667473623,6.157556133873994,-5.594380434344045,0.7222668706601707,-0.07279685525489722,-0.0018979070054469535,-0.6874920194146343
237.0,0.10378640884423734,-0.03330713320249119,0.04077004060717673,0.9812350979730997,0.9807118158526498,9.698015477703517,0.17175998175703133,0.0832053461552873,-0.04332863569684969,87.03187749832125,5.7421957451806,-5.767469290642481,0.7230671680804506,-0.07125273203024356,0.0017928297573641928,-0.6869384830526396
238.0,0.1191325072121689,-0.031685643100670645,0.03831941478400959,1.017709077966356,1.0058494623655914,9.693063701247613,0.17504484189427147,-0.31714851213892314,-0.6187638155183396,87.24711208834438,5.960539484283092,-5.917408665374096,0.7216787255109025,-0.07349821339927315,0.0012935926200123634,-0.6882289122462253
239.0,0.12125576973511672,-0.03581862800194824,0.037958094488779,1.0977335712412422,1.0303037634408603,9.682471366752841,0.19145387256003898,-0.356280909295268,0.180890269660185,87.52542096352703,6.432084258270578,-6.071229534299951,0.7198280447312577,-0.0773805297077011,-0.0008253568633809149,-0.6897603849214999
240.0,0.11037031209021769,-0.03213787418980182,0.03990371286201341,1.1337905661084258,1.0376559139784947,9.678210408002702,-0.17564956352328495,-0.45038917612678425,-0.011462196995241869,87.47297122625605,6.6392257689858,-6.115979637330935,0.7200681530430482,-0.078952931072871,-0.0017800097619422278,-0.6893583494628152
241.0,0.1061927414311364,-0.026878717401140693,0.039428948968681474,1.2550214304447191,0.9934404163892758,9.668048394301744,0.005130870964859965,0.03645205600850768,-0.5138813536974434,87.7848481229628,7.349008146652717,-5.861803694273206,0.7179768305643734,-0.0818560824340933,-0.00791807576922789,-0.6911418879756732
242.0,0.10290819867255746,-0.026255794952490474,0.037501724868365324,1.3049285339627588,0.9764836490548532,9.663697008210775,-0.1202216228893058,-0.4147952853598015,-0.24327900250156345,88.17253638867035,7.648947237688877,-5.762132645907724,0.7155568389895598,-0.0831194273913938,-0.010618775154199197,-0.6934752673365309
243.0,0.10304339910024411,-0.02534268897899898,0.039824819947951354,1.3803674927878307,0.9679546490750266,9.653481076882723,0.04332644268595291,0.009680445439690155,-0.2785779355544796,88.45003196302125,8.093380975256713,-5.712203223032541,0.7136775123744024,-0.08552315465557102,-0.013854429217540196,-0.6950693282827423
244.0,0.09833218342108979,-0.021441505779822068,0.040597893844943424,1.4083813270390766,0.9930095826020295,9.64676473198975,0.28776705198813773,-0.9181436482478968,-1.3010581210030463,88.9404897718332,8.261433431176744,-5.872457458290464,0.7105770611992979,-0.0874369734245597,-0.014313329548286227,-0.6979619108066936
245.0,0.08963344025499809,-0.029228227319494048,0.0415656660412758,1.523880671387359,1.031859630010692,9.625154199197077,-0.020608016098771414,0.1634448949948557,-0.46136206600899754,90.02641129032259,8.941948029514414,-6.1123400588069146,0.703509180567391,-0.09288489365641833,-0.017961328019619117,-0.7042468774371783
246.0,0.07117073170731707,-0.03310542879622345,0.04673072383949646,1.4972199055861526,1.0373524783634933,9.628645751376865,0.05007130212431156,0.8668961447678993,-0.28775816286388667,90.38316532258065,8.781556107395751,-6.144528176632573,0.701421234459874,-0.09208423363217938,-0.01703395748210071,-0.7065066513141227
247.0,0.07778048780487805,-0.027337136113296617,0.041797403619197496,1.3895062942564909,1.0332785208497248,9.644814319433516,-0.15744984264358772,0.8331849921321794,0.6132376081825335,90.38556992525571,8.142673092053501,-6.105905782848151,0.7017105836054288,-0.08798046590165226,-0.01325010785837923,-0.7068240713489378
248.0,0.09587293469708888,-0.030139850511408342,0.03860129819040127,1.2316571597167585,1.029723446105429,9.665747049567269,0.32314860346184104,1.4014961152635719,0.362455743509048,89.85282135129819,7.210154405979543,-6.077097265932336,0.705360012738985,-0.08211540376514556,-0.007253197579858379,-0.7039391226414242
249.0,0.09725098347757669,-0.029743312352478374,0.04018371361132968,1.1147197088906373,1.0381681746656177,9.67866384736428,0.08460857592446891,0.3789990656963021,0.15335488788355628,89.43964152242329,6.521458251376869,-6.1193954071597165,0.7081283782928796,-0.07821676668902439,-0.0024087013302517704,-0.7016511463328089
250.0,0.10240774980330447,-0.027698269079464998,0.04237411487018098,1.132831628638867,1.041313926042486,9.67756176239182,0.1073748524783635,-0.1144571203776554,0.10714619394177813,89.20051632572778,6.634343036978756,-6.1355797600314705,0.7095767223520849,-0.07905658216306058,-0.002783684677222659,-0.7001334152067269
251.0,0.11226435877262,-0.022292682926829274,0.04280802517702598,1.2444319433516915,1.0209150275373722,9.666119590873326,-0.07572285601888276,-0.5070269472856018,-0.18123033044846576,89.34451219512195,7.292977970102282,-6.0240902832415415,0.7084740228937845,-0.08238292019040125,-0.0076827704878048774,-0.7008099339622345
252.0,0.11102124311565696,-0.022925255704169954,0.0360357985837923,1.3620279307631784,0.9999563335955939,9.652076317859947,-0.05864722659323367,-0.5026578481510622,-0.17800206530291107,89.5354937057435,7.986565696302124,-5.907934205350117,0.7070924341077891,-0.08590476396223445,-0.012837592450039341,-0.7017061429598739
253.0,0.1046451612903226,-0.0265483870967742,0.036927419354838724,1.4527983870967742,0.985395161290322,9.64053225806451,0.006401209677419355,-0.15650201612903225,-0.1236391129032258,89.63064516129032,8.525604838709677,-5.831602822580645,0.7062951864032259,-0.0886847708387097,-0.016728998096774198,-0.7020992636451611
254.0,0.11611021505376347,-0.014791563275434249,0.0328771712158809,1.3819828370554177,0.9939447890818857,9.648194168734488,0.17821288254755996,2.454630634822167,-0.39895187138130683,89.74317100909843,8.103750516956163,-5.878516594292804,0.7057437976972705,-0.08635217137220845,-0.013855636858767579,-0.7029363391809345
255.0,0.12217125622869132,-0.0005562851782363997,0.03913547781879806,1.108255088866025,1.0278397234158445,9.677281879803907,0.2076191773083984,0.6657944922733968,-0.29030316326736466,89.94553318354212,6.493177628659041,-6.046862422834836,0.705051560275858,-0.07760632051812627,-0.00292319933762533,-0.704696653945011
256.0,0.11734369263047467,-0.0005120135568601352,0.03822096471585065,1.0039420605620448,1.0448593778369544,9.689382875385819,0.14569466929936048,0.47359785097540796,-0.15145198485948877,90.0449440111259,5.875268249813391,-6.1537487517399985,0.7046630685411548,-0.0745061660493857,0.0014908280932841092,-0.7055065760087956
257.0,0.11149442696039863,-0.004006006778430068,0.043537901712764046,0.9579468367326351,1.0537119469829934,9.695679340918712,0.026904794327099607,0.274853360971575,-0.14389635533297018,90.09109599749843,5.603863963616373,-6.209132440386128,0.7044580673109001,-0.07316151755695091,0.0034459984740614104,-0.7059043009318171
258.0,0.1135754806431439,-0.011440658476063667,0.04458439750650611,0.9454247210958462,1.0611787609191228,9.697236175835698,0.09713467590631242,0.23936785087453852,-0.07835908027194415,90.08575167947708,5.531374573826382,-6.247329480118623,0.7044541785429606,-0.07294854775510902,0.004155894678407875,-0.7059610129062518
259.0,0.11315542980491838,-0.01786915209102463,0.04259178115354357,0.9420382497125217,1.0436193992212877,9.699438762129553,-0.07485216314632129,-0.25810322479775666,0.13585551201355686,89.97952601424277,5.5144320921341965,-6.135765296858924,0.7051771546243216,-0.07217091571953235,0.003659258949888035,-0.7053315228686277
260.0,0.11929447336036636,-0.025651334503419485,0.039660957453247006,1.0391985111662527,1.0064997074784647,9.692923157618672,-0.20812336717504892,-0.4023551135790514,0.20621453806814743,89.82826615424963,6.08151285959975,-5.920085638201295,0.7059921595961892,-0.0743354556780195,-0.0011114967178175875,-0.7042783136506787
261.0,0.12517723274627285,-0.032069963081764824,0.03823429461962115,1.17834276463112,0.964138917468579,9.679718856543406,-0.16504159605802013,-0.7142074053339789,0.050821298341705505,89.7130610865662,6.900304153049285,-5.682210403679719,0.7064602190061986,-0.07789180682278236,-0.007572827663000062,-0.7033590020497691
262.0,0.10875393895378159,-0.025067239605398542,0.04466150214852026,1.2291471887671728,0.9632952651859021,9.673730396013635,0.14313444390647379,-0.4048355575056991,0.7526031894934334,89.60128860779923,7.201991794266578,-5.679008427646311,0.7070450284103575,-0.07971662490332665,-0.009366060690370999,-0.7025491286216585
263.0,0.1272297403619197,-0.03132022029897719,0.03979228953579859,1.2978068450039337,0.9696211644374503,9.664725413060578,0.13825973642800943,-0.37830694335169157,-0.07911093627065302,89.10517800944137,7.607142505900866,-5.722258556254918,0.7099135767974037,-0.08250155708772619,-0.0112675170350118,-0.6992978482372147
264.0,0.13675727773406765,-0.03334303697875689,0.04144059795436664,1.4137098741148701,0.9776917781274582,9.647261998426435,0.0349146833202203,-0.4919072088906373,0.03353166797797011,89.21513817859952,8.290441827301336,-5.784172157749802,0.7089358917094808,-0.08705468602065303,-0.015213502648898505,-0.6996634025875295
265.0,0.124418961447679,-0.033058615263572,0.04076868607395752,1.501963808025177,0.9658095987411484,9.636292289535799,0.04364181746656176,0.09782159716758454,-0.12456481117230526,89.16094610542879,8.804973937844217,-5.719177812745869,0.7090570268103855,-0.08984943347403618,-0.018765700570416995,-0.6991134798461841
266.0,0.11223387096774194,-0.030508064516129037,0.040048387096774204,1.576,0.9657741935483867,9.624153225806454,0.115625,-0.27872983870967744,-0.16224798387096773,89.18508064516129,9.24773185483871,-5.727016129032258,0.7086826447419354,-0.09260150512096774,-0.021470150177419354,-0.6990658180725806
267.0,0.09681451612903225,-0.025032258064516137,0.035072580645161305,1.6497258064516134,1.007314516129032,9.607741935483872,0.6548387096774193,0.7935483870967741,0.39138104838709675,89.20287298387098,9.681300403225807,-5.98054435483871,0.7082671625806451,-0.09679447304838709,-0.022619678064516126,-0.6988749356774193
268.0,0.08698524783634934,-0.02841030684500394,0.03597639653815894,1.6985790715971678,1.0451644374508258,9.594894964594808,0.13170362903225807,-0.6096343922108576,-0.617765293076318,89.27223028127457,9.975436418174667,-6.210952252163651,0.7076205624907552,-0.09998564891207709,-0.023112243658733274,-0.6990630717665225
269.0,0.08306963021243116,-0.02723623131392605,0.03441502753737216,1.7648947678992926,1.0553961447678988,9.58182513768686,-0.08638621164437449,0.01886187057435096,-0.37348298583792294,89.68213021243115,10.367122344610543,-6.278601986624705,0.7048602222360346,-0.10268415375216364,-0.025502422351691575,-0.7013736737431158
270.0,0.08273105166535537,-0.03135291714579678,0.03257558655611371,1.8154439720389761,1.048150719199499,9.573401092416631,0.006606573664992239,-0.4840715719502108,-0.24035630888256773,89.89570737255139,10.669028242197744,-6.2407924118400615,0.7034059088798038,-0.10423743253716536,-0.02778322699739252,-0.7025289104852881
271.0,0.09702681615525832,-0.033672426314833886,0.036299890052250414,1.897798598922713,1.0465834241158785,9.5565432881438,-0.02295679381266517,-0.15146118920091184,-0.15893823508644517,90.02492021853377,11.155053435615002,-6.238516165597449,0.7023674760850631,-0.10715451131293752,-0.030954508744664,-0.702996156722483
272.0,0.09248518227117755,-0.034973309931610505,0.03778300954225425,1.9473952672032921,1.0340296152837456,9.54740470858803,-0.039225372712784194,-0.06129007040690754,-0.11833000463999677,90.08940063346043,11.455248492001049,-6.16898086505679,0.7018211872764026,-0.10852181764033973,-0.03327636160217071,-0.7032392795991448
273.0,0.09077052189876739,-0.034648732070447275,0.035071677863180634,1.9801634085819761,1.0243735802618574,9.542986382618171,0.03724215235328532,0.027586672113619398,-0.09700921947184732,90.13953705945248,11.64945253081563,-6.117220566281345,0.7014458300520485,-0.10934976694212106,-0.03485705504184067,-0.7034185543282898
274.0,0.09839784946236559,-0.029415632754342447,0.032484698097601336,1.9787717121588084,1.0207162944582302,9.54396526054591,0.08793165839536807,0.15559605045492142,-0.07156224152191895,90.14527502067824,11.64005376344086,-6.104081368899918,0.7013720825012408,-0.10918280220512819,-0.0349135528159636,-0.7035212682278741
275.0,0.09198387096774194,-0.016846774193548394,0.03767741935483872,1.9448548387096771,1.0210967741935486,9.550838709677421,0.12142137096774194,0.38482862903225806,-0.17268145161290321,90.15766129032258,11.438306451612902,-6.103074596774193,0.701393619935484,-0.10792836809677421,-0.03368707425,-0.7037481990725805
276.0,0.10084677419354837,-0.01016935483870968,0.03212903225806453,1.9432419354838706,1.016959677419355,9.552096774193553,-0.02404233870967741,0.14637096774193548,-0.16890120967741934,90.30987903225805,11.427570564516127,-6.079435483870967,0.7004560903870968,-0.10768097933870968,-0.03393864766935484,-0.7047067961774192
277.0,0.1079758064516129,-0.013282258064516134,0.029370967741935497,1.9625241935483864,1.0175403225806456,9.548500000000006,0.004385080645161292,0.060534274193548385,-0.15307459677419355,90.4117943548387,11.540372983870967,-6.087247983870967,0.6997662940887095,-0.10838982366935482,-0.03470478641129032,-0.7052474001935483
278.0,0.10719059795436664,-0.015530094413847367,0.031155782848151074,1.8809889850511405,1.0286416207710465,9.5627551140834,0.0816433910306845,0.7351789929189615,-0.05015612706530292,90.3810889555468,11.055993066483083,-6.1391633064516125,0.7002333129429582,-0.10578761985523208,-0.03129452627753737,-0.7053210291964984
279.0,0.1055247836349331,-0.022731904012588525,0.0298225806451613,1.8587350511408336,1.02837332808812,9.567020456333594,-0.02098987018095988,0.15435434697088912,-0.09274685287175452,90.45408266129033,10.924666846970888,-6.128576170338317,0.699856419004524,-0.10494068625196695,-0.030570571528324153,-0.7058592426673878
280.0,0.10867368214004719,-0.02741030684500394,0.031000000000000003,1.8886376868607395,1.0186060188827697,9.562123131392601,-0.02828727380015736,1.9382154799370575,0.2740902832415421,90.48805443548386,11.098195318646734,-6.0771157061369,0.6995726547966168,-0.10560019146066088,-0.03200411957061369,-0.7059497784103068
281.0,0.12495377655389456,-0.030277734067663264,0.02758064516129033,1.6995688434303697,1.024952202989772,9.594980920535011,0.2796567663257278,1.7180492722265932,-0.17807582612116443,90.32222782258066,9.973744836742721,-6.088381441778127,0.7012004230515341,-0.09898470957710463,-0.024752557047403624,-0.7055277092696697
282.0,0.11069866247049567,-0.013316286388670343,0.03529032258064517,1.3974295830055072,1.0616011014948863,9.637091266719123,0.27319531864673485,0.910183910306845,-0.16590283241542092,90.37157258064516,8.188409716758457,-6.277330841856806,0.7016408615499606,-0.08932692481274584,-0.012460325245476005,-0.7065992496388671
283.0,0.11777104642014162,-0.008040519276160505,0.035307631785995296,1.2990074744295832,1.081138867033832,9.650418961447684,0.06390391424075534,0.3161019866247049,-0.13855232100708104,90.46329415814319,7.604531372934697,-6.387254130605822,0.701366437594807,-0.086505573193155,-0.008191729471675848,-0.7073718562041702
284.0,0.12351240694789081,-0.013995244003308524,0.0377063688999173,1.3372338709677418,1.0786321339950375,9.647389371381307,-0.029041304797353173,-0.39540038254755994,-0.06796422663358147,90.51944918320926,7.831246122828785,-6.373702440033085,0.7009013407266336,-0.08775985592700578,-0.009780742403432591,-0.707714783413772
285.0,0.11144975186104218,-0.024041976840363948,0.038974152191894144,1.4069677419354836,1.067166873449131,9.638964846980974,0.00047430727874276345,-0.12307821546732833,-0.03095791976840364,90.52083850289495,8.245940601736972,-6.313816945822994,0.7007359107746072,-0.08988434018527708,-0.012733487117038879,-0.7075861485254343
286.0,0.10275310173697272,-0.022210504549214232,0.03754755996691482,1.4594193548387095,1.0443132754342428,9.633909842845323,-0.025796112489660874,0.05622802936311,0.09122466914805624,90.50371562241521,8.56120114764268,-6.182740126137303,0.7007405898227874,-0.09095133179425144,-0.015462876655293629,-0.7074001537183625
287.0,0.09277977667493797,-0.0174762200165426,0.03912055417700581,1.510564516129032,1.039967121588089,9.626454921422663,-0.09369442721257237,-0.22669949338296114,-0.1478856492969396,90.71035075475599,8.863387872208438,-6.163068651778329,0.6993529765363937,-0.0926401149576096,-0.017673450041356495,-0.708498744762407
288.0,0.09813880651213461,-0.026813149347374374,0.039385119732090634,1.5707348544453186,1.032112298008836,9.618034305715266,0.07178907179890656,-0.05776789677015876,0.010383001472694636,90.70667579535596,9.21594046934576,-6.120091564284129,0.6992227991334605,-0.09451996317461517,-0.020132702821622384,-0.7083178001187134
289.0,0.09628776553894569,-0.02624114870180961,0.03776121164437453,1.6078512981904014,1.0267236428009443,9.612467938631003,0.058020259638080246,-0.3629978855232101,-0.1101052321007081,90.69892309205349,9.43790199645948,-6.087423780487805,0.6991787519447286,-0.09570397431766325,-0.02165769554563336,-0.7081676073223839
290.0,0.0976317859952793,-0.02057218725413061,0.032816089693155005,1.6731756490952006,1.0231964988198268,9.601907356412278,0.02371779110936271,0.08531053304484659,0.020350609756097558,90.7765280782848,9.825528619197483,-6.0768268095987406,0.6985388578634932,-0.09792643527576711,-0.024223037176042485,-0.7084099905684501
291.0,0.10908202202989771,-0.020273996852871755,0.03415401258851299,1.6782612116443745,1.0236345397324942,9.601264162077108,0.047872000393391026,0.20518046813532653,-0.145268243509048,90.7757388375295,9.853439712824548,-6.081104937057434,0.6985271374801336,-0.09811103901691581,-0.024408748938827694,-0.7083975933648702
292.0,0.1125531077891424,-0.02219748229740362,0.029839103068450046,1.6439693154996067,1.01779307631786,9.60713611329662,0.07955595987411487,0.6871164437450825,-0.03344561369000786,90.81848937844217,9.64552025963808,-6.04534077498033,0.6983784360102281,-0.09663690274232886,-0.02335899240086546,-0.70878211897679
293.0,0.1204032258064516,-0.023306451612903227,0.028991935483870974,1.4996290322580648,1.0167258064516127,9.630483870967742,0.10388104838709677,0.9733870967741934,0.2895665322580645,90.61653225806451,8.79304435483871,-6.022026209677419,0.7000250543709676,-0.09137026873387095,-0.017986814733870968,-0.7079723728306453
294.0,0.11762903225806451,-0.02401612903225807,0.03520161290322581,1.3865080645161292,1.0088951612903228,9.648403225806454,0.006955645161290325,0.8791330645161289,0.05564516129032257,90.35362903225806,8.12938508064516,-5.967237903225806,0.7019687289274195,-0.08702796236290321,-0.013977346475806451,-0.7066857616451614
295.0,0.12972757671125096,-0.02636073957513769,0.03590204563335957,1.2389972462627854,1.0029799370574353,9.668382376081826,0.009923288749016525,1.9535220790715973,0.42671248033044845,90.07508605428796,7.259478265145555,-5.9163699842643585,0.7040389667246263,-0.08141991303933911,-0.008652577939024391,-0.7053447063036979
296.0,0.11790007867820612,-0.024857789142407553,0.03789457120377657,1.0680470102281667,0.9750383556254919,9.691328284815103,-0.030824645948072382,0.5207378540519276,0.26005482887490167,89.62196843036978,6.253126229346971,-5.746340234067663,0.7072125415074744,-0.07425795443902439,-0.003175210485641228,-0.7029732466195909
297.0,0.08252399685287176,-0.028914437450826128,0.039424862313139276,1.0023170731707318,0.9695637293469708,9.70083988985051,0.12533192368214008,0.09600831038552324,0.013337185287175451,89.37850486821401,5.868306205743509,-5.7108661978756885,0.7088858955204562,-0.07167299048839497,-0.0008259150298977186,-0.7016191860074745
298.0,0.10844236821400473,-0.029919551534225028,0.03649901652242331,1.0947448859166011,0.9830131785995281,9.688975216365069,0.0849392702596381,-0.5389985739575137,-0.1265084087332809,89.43852035798584,6.413479789535799,-5.789318204169945,0.7083129009315499,-0.07552904030153423,-0.003712997870574351,-0.7017939963109756
299.0,0.13004956726986625,-0.028030291109362712,0.044020062942564914,1.1984996066089693,0.9845546813532652,9.675547993705749,-0.015152930763178599,-0.55128589693155,-0.24997049567269866,89.64825924468921,7.017579661683714,-5.807875196695514,0.7067950743430369,-0.07935801317033832,-0.007537861132966169,-0.7028702105995279
300.0,0.13604917387883556,-0.03317171518489379,0.03523033044846578,1.2667423288749016,0.980828874901652,9.668010031471287,0.0035171616837136165,-0.06757351494885921,-0.16413749016522422,89.87204464988199,7.4207636703383155,-5.783422256097561,0.7052727618434305,-0.08167430577950432,-0.01029145709913454,-0.7041057317600314
301.0,0.12191974822974036,-0.035694728560188835,0.039167584579071615,1.293346970889064,0.9796160503540517,9.664605822187259,-0.07054484657749803,-0.09873131392604251,-0.344669551534225,90.23813926042486,7.575855625491739,-5.779740361919748,0.7029827799701022,-0.0825663230873328,-0.011557225952793074,-0.7062810023477577
302.0,0.1295279307631786,-0.033181746656176236,0.043604248623131406,1.3283808025177026,0.9670739575137688,9.66204327301338,-0.013758851298190395,0.4233428402832415,-0.05385031471282453,90.39729543666405,7.781682730133753,-5.7045338316286385,0.7019475013579859,-0.08333806481274586,-0.013390119227380015,-0.7072010244586939
303.0,0.12040676632572775,-0.03764358772619985,0.04087608182533439,1.3533406766325728,0.9555841856805662,9.659209677419355,-0.03909323367427222,-0.30527881589299766,-0.10048436270653029,90.4248180566483,7.931311467348545,-5.644654799370574,0.701733280483871,-0.0838602300476003,-0.01471688502596381,-0.7073258901900079
304.0,0.11027025963808026,-0.03174468922108577,0.04088650668764754,1.434778127458694,0.9398652635719906,9.648995082612114,-0.018489378442171515,-0.24963488394964595,-0.04746385719905585,90.4561147718332,8.411613640833988,-5.5575752360346184,0.7013656105212431,-0.08622946502773406,-0.018274371289535796,-0.707316680319237
305.0,0.09916738788355625,-0.030872344610542887,0.0419472856018883,1.4625503540519276,0.9359689221085759,9.645058025177022,0.08717668174665617,0.165580743509048,-0.18580350118017308,90.5242267407553,8.577051780094415,-5.535844069630212,0.7008779945670731,-0.08706683779209283,-0.019483702902832415,-0.7076696294055862
306.0,0.09984579071597169,-0.025924075531077895,0.04182848151062158,1.4620574350904796,0.9345409126671913,9.645774980330444,0.015236526357199059,0.1844536782061369,-0.12505900865460268,90.67725953973249,8.575496656176238,-5.527271833202203,0.6999127908359559,-0.08697440369040124,-0.019633115249803303,-0.7086339007753737
307.0,0.09381982690794652,-0.023563139260424866,0.04091738788355627,1.4902749803304483,0.9243853265145555,9.641904012588508,-0.033515686467348545,-0.040144325334382364,-0.043538552321007076,90.71824719708891,8.739956235247835,-5.471198859166011,0.699598367425059,-0.0876274525391424,-0.02106236449586939,-0.7088237312075139
308.0,0.09942604248623131,-0.02297915027537372,0.04061998426435879,1.5418391030684497,0.9139063729346972,9.63512942564909,-0.0004523996852871751,-0.194492525570417,-0.16209185680566482,90.85148750983478,9.047447875688434,-5.414732494099134,0.6986525346439811,-0.08910882644295828,-0.023439404243902437,-0.7094922050432728
309.0,0.09400806451612903,-0.01958870967741936,0.040290322580645174,1.5692822580645158,0.9145322580645165,9.630088709677416,0.14899193548387096,-0.1907258064516129,-0.22046370967741935,91.00367943548386,9.21078629032258,-5.41491935483871,0.69763528075,-0.09009054869354838,-0.024569062774193552,-0.7103254751612902
310.0,0.1022047600314713,-0.015348937844217153,0.04148957513768688,1.5280812352478366,0.9161671911880409,9.63614909520063,0.029772324940991343,0.8189946400472068,-0.09727330841856804,91.17074645948072,8.958181304091266,-5.4201280979543665,0.6967060505062942,-0.08856679565342249,-0.023079590918371362,-0.7114582022220692
311.0,0.08157808811959089,-0.015258457907159718,0.03908005507474431,1.5885068843430372,0.9067718332022026,9.627009638080256,0.04338119590873328,-0.37015637293469716,-0.22912322974036192,91.28258138276946,9.320019915420929,-5.37230281274587,0.6958328301347365,-0.0904282691530291,-0.025752263257671132,-0.7119900268373326
312.0,0.09018823760818254,-0.015282454760031474,0.04185857592446894,1.5628784421715183,0.9058455940204561,9.63197659323367,0.044724872147915026,0.6936012490165224,0.007313385129819036,91.34852355428795,9.169309352871753,-5.364830841856806,0.6954926793214004,-0.08943349012490165,-0.0248841837498033,-0.7124908281485051
313.0,0.10599372591740808,-0.01732815872823741,0.041719300369182366,1.517736367487744,0.8926559442393429,9.640396588593674,0.006168138100425668,0.5330877161128931,0.2273067907865803,91.22690019215638,8.901756232473925,-5.286526514807642,0.6964265631121063,-0.08735275432247977,-0.023583931409434326,-0.7118832302238597
314.0,0.10923879844257499,-0.01601085355766709,0.044343521152333115,1.4249004418083884,0.8852392624422518,9.655399907200064,-0.02012661643365813,0.759890632249995,-0.011825435251871144,91.1580569509169,8.353171463011158,-5.233308620307046,0.6971180935560531,-0.08373790920962698,-0.02038207325713652,-0.7117230231522527
315.0,0.09620397829288466,-0.017623050697008216,0.04148332627246869,1.475823942383344,0.8845826524642414,9.64714841937501,0.24123979957231334,0.557531862151748,-0.3247069741168876,91.20138292077709,8.652298752748695,-5.237164735015837,0.6966866213020233,-0.08555665174014,-0.022305584145484073,-0.7118580111662127
316.0,0.09909884201819685,-0.01966046319272126,0.03911538461538463,1.3667679900744414,0.9168310587262196,9.660432588916462,-0.022982578577336626,0.299000982216708,-0.12441583953680727,91.33252171215881,8.006853546319272,-5.415666356492969,0.6961213429263855,-0.08278781205417701,-0.01726145510814723,-0.7128755554698096
317.0,0.10796071133167909,-0.028289909015715476,0.03987220843672458,1.4211823821339948,0.8902663358147225,9.65503887510339,-0.21136528122415219,-0.535101323407775,-0.17813533912324236,91.40023263027295,8.329812861869314,-5.2592948717948715,0.6956016193986767,-0.08375700518031431,-0.02026700630810587,-0.7131992910897436
318.0,0.10149704956726986,-0.03170633359559403,0.03714181746656177,1.489677616050354,0.872036978756884,9.646757671125094,0.08599650865460268,0.02972560975609756,0.2408253835562549,91.35977822580645,8.738126966955154,-5.157680959874115,0.695697320388277,-0.08555767030566484,-0.023408229914830842,-0.7128049990175058
319.0,0.09784933123524783,-0.03367977970102282,0.04013945712037766,1.52077025963808,0.8691959087332809,9.641878835562544,0.13793273013375296,0.35195957907159714,0.3922120869394178,90.9897177419355,8.923045338316285,-5.144364673485445,0.6979207458554288,-0.08666517983025178,-0.024359877638867034,-0.7104666782385917
320.0,0.09427321007081038,-0.04171046420141622,0.0403416601101495,1.4137976003147128,0.8837069236821399,9.657194728560185,0.09734583988985052,1.0003700334382377,0.7481535208497246,90.15374090283241,8.288944482690795,-5.222409765932337,0.703340712258458,-0.0834323658109756,-0.019314866864673482,-0.705595340586546
321.0,0.09234087332808812,-0.03687352478363494,0.041859756097560985,1.4281341463414634,0.9128654602675058,9.651983674272225,0.31827916011014945,0.7434266817466562,-0.1816126573564123,90.26809844610543,8.3660515833989,-5.398371115263572,0.7025399617224627,-0.08497483229032257,-0.018862233263965383,-0.7062279454345004
322.0,0.09758575924468921,-0.03423918174665619,0.04685326514555469,1.2791396538158932,0.9337069236821405,9.67022974036192,0.1468159913453973,0.5704784618410701,0.12882572777340678,90.21041011014948,7.4900570416994485,-5.5070736624704955,0.703227510857199,-0.08035003358064516,-0.012677350511014948,-0.7062212288906373
323.0,0.11111782061369001,-0.028560975609756102,0.0432551140833989,1.240672895357986,0.9499722659323366,9.67410228166798,0.3125946597167584,0.5023861624704957,0.6538896538158929,89.81710021636505,7.266301140833988,-5.602553353658536,0.7057398473050747,-0.0796101335393391,-0.010410258175255704,-0.703856093360346
324.0,0.0957081038552321,-0.020941778127458698,0.0411880409126672,1.175800157356412,0.9842321007081041,9.679405979543667,0.25415519276160503,0.3103412667191188,0.25648111723052713,89.34751180173092,6.886073957513768,-5.7983280881195896,0.7087069036726987,-0.07851009266483083,-0.006488565785208498,-0.7010494105350118
325.0,0.11335900461982286,-0.022918184752567135,0.04005678952571165,1.210417579535597,1.0058073695253085,9.672561933869963,0.09534279237023137,-0.2992464418285622,-0.3576824729165406,89.35293542839275,7.09311565696302,-5.930325152817284,0.7085381122356916,-0.08058254457446186,-0.007000209567743953,-0.7009966722162037
326.0,0.11999028122415217,-0.023076716294458236,0.03933209263854427,1.3048688999172868,1.0113198924731182,9.65912675765095,0.0014823717948717965,-0.38141413358147225,-0.38973325062034736,89.67943289909016,7.649596774193549,-5.965570719602978,0.7062917590690654,-0.084201178730976,-0.010472773428246485,-0.7027814633370554
327.0,0.10478143093465674,-0.02070368072787428,0.04089991728701408,1.3111925144747723,1.0097930107526882,9.658349669148055,-0.003517886683209262,0.9738846670802316,-0.125814205955335,89.91078499793218,7.684828629032259,-5.961011166253101,0.7048717715909842,-0.08433716350661705,-0.010866805847187758,-0.7041747719588504
328.0,0.10110442514474771,-0.01836393713813069,0.044328990901571566,1.207382547559967,1.0171102150537634,9.671033705541772,0.018805572787427626,0.5806671319272125,-0.21472161910669973,89.8750245554177,7.074546370967742,-5.9953745347394545,0.7053387475374275,-0.08082103869685689,-0.006826210427626137,-0.7041724259995865
329.0,0.10486269644334159,-0.017859387923904055,0.04707981803143096,1.178328370554177,1.0167204301075268,9.675851530190242,-0.001005479735318446,0.11556038047973535,-0.1836460918114144,89.9410153019024,6.905241935483871,-5.989345533498758,0.704987405022746,-0.07971885842100909,-0.005854536584780811,-0.7046777208788255
330.0,0.10995161290322579,-0.020774193548387103,0.04820161290322583,1.1662096774193547,1.0069516129032254,9.67802419354839,-0.009223790322580644,0.2316532258064516,-0.11184475806451613,90.01955645161291,6.828225806451613,-5.9246975806451605,0.7045465285725807,-0.07890354279032258,-0.0058338288548387095,-0.70522254225
331.0,0.09385483870967741,-0.028975806451612907,0.04295967741935486,1.0953548387096774,0.9982096774193543,9.687951612903225,-0.019556451612903224,0.5623487903225807,-0.12379032258064515,90.12237903225807,6.410685483870967,-5.873034274193548,0.7041049098870966,-0.07604010822580645,-0.0036128380967741934,-0.7059937021209678
332.0,0.10451593233674272,-0.03168351691581432,0.04496026750590089,1.1329047993705745,0.9818796223446102,9.685203776553898,-0.0489661191974823,-0.17396120180959876,-0.07134515145554682,90.28153029110936,6.633671813532651,-5.791057730133753,0.7030863488453973,-0.07685995894413845,-0.005651506186664044,-0.706908280742329
333.0,0.10293135326514555,-0.041257081038552336,0.04326239181746658,1.2115653029110935,0.965157553107789,9.676738985051141,-0.2673005999213218,-0.43448564122738004,-0.31861108379228953,90.52498893587727,7.096926632572776,-5.696032897324941,0.7014154191888275,-0.07907437307690793,-0.009302690282848153,-0.708264572476003
334.0,0.1054948859166011,-0.04691207710464204,0.04802399685287177,1.2793749016522422,0.935865066876475,9.671433713611329,-0.032715381589299763,-0.44316360149488593,-0.16236845987411486,90.66732887490164,7.494182730133753,-5.524139457120377,0.7004453208355625,-0.0804208581443745,-0.012922973040912666,-0.7090149039051927
335.0,0.10340066876475217,-0.04423426435877263,0.042834579071597184,1.2770261605035405,0.9071905979543665,9.674172501966954,-0.10879720692368214,0.9330804976396538,0.043286536191974825,90.71068056648308,7.478240558615264,-5.35778545436664,0.7002377711919747,-0.07926337991896144,-0.013868964270456332,-0.7093382616138866
336.0,0.10616404405979543,-0.0443630999213218,0.04919551534225021,1.2838638867033831,0.8845912667191187,9.675662863886703,-0.020023603461841066,0.1334505310778914,-0.1945613690007868,90.73729592840283,7.522789634146342,-5.222819138473643,0.7000596467734068,-0.07873120471754524,-0.014984330365066878,-0.7095517955609754
337.0,0.09059185680566484,-0.04344118804091268,0.04681018882769474,1.2761435877261995,0.8805080645161288,9.677545830055077,0.06379819040125884,0.008031323760818249,-0.1664142407553108,90.77298018292683,7.478610592053501,-5.196627901258852,0.6998650380200631,-0.07829889608733284,-0.014837888188040913,-0.7098037874059794
338.0,0.09566286388670338,-0.041563335955940216,0.04544138473642803,1.2800637293469708,0.8782096774193546,9.67663178599528,0.10074990165224232,0.38413158929976393,-0.06536437844217154,90.86731166404405,7.499360739575137,-5.180345200629425,0.6992830358890638,-0.07831332047915028,-0.01514094999724626,-0.7103694625578285
339.0,0.0964427616050354,-0.036190794649881994,0.040753737214791516,1.2805590086546028,0.874340873328088,9.676895751376874,0.011822629819040122,-0.11699203383162865,-0.1473802616050354,90.95052247246264,7.504179779701023,-5.154983772619984,0.6987622994866247,-0.07817891892958301,-0.015379445230723838,-0.7108960850239969
340.0,0.10903186467348545,-0.024272816679779707,0.04221557828481512,1.3001666011014947,0.8711986624704957,9.675012391817472,0.016874016522423287,-0.06892948465774981,-0.14044920338316286,91.02231264752163,7.621595938237608,-5.136967692761605,0.6983019600900867,-0.07874759370672697,-0.016264817667781276,-0.7112670310039342
341.0,0.10275039339103068,-0.023255900865460276,0.0402364280094414,1.331958693941778,0.8558094020456332,9.671248229740364,-0.06579219118804092,-0.6373881294256492,-0.27661290322580645,91.07660798583792,7.8035860051140835,-5.050958890637293,0.6979210181333595,-0.07933636466404406,-0.017989023626868605,-0.7115276333955548
342.0,0.1004679386309992,-0.029269079464988204,0.04662627852084973,1.4041487018095982,0.8437877655389456,9.661438630999218,0.00435188827694729,0.3230650078678206,-0.02484879032258061,91.15528988001574,8.226515784815106,-4.984552025963808,0.6972650610666797,-0.08146291564653815,-0.021104305269079464,-0.7118338854518096
343.0,0.1043760818253344,-0.020157749803304488,0.04400393391030685,1.421695121951219,0.8362415420928402,9.659714004720698,0.06477675059008654,0.44582022029897717,-0.09374016522423288,91.24674714791502,8.328705251770259,-4.942982887490166,0.6966637761927617,-0.08178464042250197,-0.02206547699095201,-0.7123622746998426
344.0,0.09468395569811777,-0.01949695878472433,0.038086818374387224,1.4193528767979982,0.8382710665940407,9.66037960721419,0.07733267011640339,0.13684699610643747,-0.07636558383263732,91.30575129491214,8.320980886491558,-4.954390281728499,0.696293980659273,-0.08179110135410236,-0.02198073269336178,-0.7127374653146774
345.0,0.0978844640803728,-0.0185984990619137,0.040623464261937914,1.408980824708991,0.8434594908107889,9.661990256006783,0.08011376818172648,0.09279407240412352,-0.05746018176683007,91.26247623262523,8.263984862010531,-4.98939149216244,0.6965803311067803,-0.08165822522288124,-0.021382726601696624,-0.7124926287329681
346.0,0.10647724384191733,-0.018735913575016645,0.03671849845669673,1.4524707428029613,0.8395165274667633,9.655966017067122,-0.0020113692529605195,0.35909864910528755,-0.07287348191409954,91.3736751737477,8.517137002209042,-4.96373587196635,0.6957564619924146,-0.0830082091338639,-0.023210951772917543,-0.7130782614451622
347.0,0.10932143073291777,-0.019747382436603525,0.03651709737941053,1.4032063588129677,0.8353352700276377,9.663391151727899,-0.019549769008856344,0.19732998446609773,-0.008443281082934899,91.37919289273538,8.229831900986504,-4.934271923984749,0.6958900105579696,-0.0810998674373096,-0.021567776787225885,-0.7132181492659524
348.0,0.10827283181020396,-0.02219705864552442,0.04120268716334807,1.416661401279025,0.8396314430389958,9.66081595351934,0.08982188968912021,0.07409772236680182,-0.08475370191046824,91.38433484133228,8.307618546874053,-4.958909172063184,0.6958256494127377,-0.08172607941023624,-0.02191853015364441,-0.7131995177667292
349.0,0.10604956726986625,-0.025756097560975612,0.04808025177025965,1.423478756884343,0.8441821400472068,9.659350904799375,0.08225068843430369,0.4940794649881982,-0.1066655192761605,91.49210021636506,8.345930861526355,-4.982339201416208,0.6951366790967741,-0.08211974599213219,-0.022106707630999207,-0.7138244071372933
350.0,0.1124166011014949,-0.027046420141620776,0.047730920535011816,1.4308990952006293,0.8369093233674271,9.658967348544454,0.07046739771833202,-0.09890833988985054,0.014266571597167585,91.4877446400472,8.387609411880408,-4.943952842250196,0.6951422902879623,-0.08213913130133754,-0.022627751943745077,-0.7137998023758849
351.0,0.10455507474429583,-0.024313532651455548,0.04242997639653817,1.4704858379228951,0.8279425649095199,9.653830448465772,-0.037573760818253345,-0.0473372344610543,-0.13724675452399684,91.5305910700236,8.621299665617624,-4.891507671125098,0.6947730272246261,-0.0832021092151849,-0.024414530689614473,-0.7139739984339102
352.0,0.12221774193548388,-0.022395161290322582,0.040879032258064524,1.420572580645161,0.8538548387096775,9.658040322580643,0.5357862903225807,1.1098286290322579,-0.02928427419354839,91.51078629032257,8.325756048387095,-5.046471774193548,0.694963220814516,-0.08237604923387098,-0.021632187911290318,-0.7139286652822578
353.0,0.1006693548387097,-0.021393713813068652,0.04789019851116626,1.3757868072787425,0.9168792390405294,9.658783705541769,0.09267473118279576,0.12776700785773354,-0.47110344292803963,91.82317126757651,8.06566894127378,-5.419733509098428,0.693014138738627,-0.08306455520947063,-0.017963016367038877,-0.7158437204458229
354.0,0.13847580645161295,-0.023261373035566586,0.04036042183622828,1.2776071133167908,0.9118509098428452,9.672714433416044,-0.1000336021505376,0.7875982216708023,0.09068315756823828,91.78993744830439,7.483943341604631,-5.382371794871794,0.6934858041677006,-0.07932025025392886,-0.014506001832712983,-0.715883970464847
355.0,0.12513709677419355,-0.0336306865177833,0.04057940446650124,1.2696906534325887,0.8875665839536807,9.676828990901573,-0.07274865591397847,0.08119830438378828,0.035185328784119126,91.78085582092638,7.438393041770057,-5.235389526468156,0.6936023478217536,-0.07816885390115798,-0.015084008242969392,-0.71590638370823
356.0,0.11274193548387097,-0.038404052936311016,0.04111228287841191,1.2537243589743587,0.8678558726220011,9.680854011579818,0.06997647849462367,0.38943987799834573,0.039089640198511175,91.66268093465673,7.340139061207609,-5.118627222911497,0.6944213688866834,-0.07686895426509512,-0.015094809351323409,-0.7152723648258892
357.0,0.11696774193548387,-0.03319396195202648,0.04069727047146403,1.2140516956162117,0.8807948717948719,9.684838296112488,0.2459005376344086,0.24716449545078578,-0.07929590570719602,91.59928401571545,7.110744933829611,-5.189278329197684,0.6948879520239868,-0.07591973507609595,-0.013161211639371381,-0.714957275356493
358.0,0.0894516129032258,-0.019362903225806454,0.04501612903225808,1.0020241935483871,0.9536935483870969,9.699782258064518,0.3888104838709677,0.6361391129032258,-0.5333669354838709,91.72525201612902,5.866280241935483,-5.609677419354838,0.6943599081774194,-0.07102173814516129,-0.0028264690645161293,-0.7159906693548387
359.0,0.09139221085759244,-0.02463217938631,0.04601180173092055,1.0781807631785993,1.0277260031471283,9.684385326514558,0.49162445908733277,0.13450654012588512,0.03239083398898507,91.94767161683713,6.3191015932336745,-6.053182779307631,0.6927125776435876,-0.076501120004524,-0.0031386953501180174,-0.7170517146968923
360.0,0.09154156679413755,-0.03490029824529304,0.04238962179569283,1.161891675662818,1.0835416399831665,9.669105360181508,0.6433418853951293,0.13137262021298007,-0.11108444984721788,91.89739638606298,6.808734967659597,-6.390221945730335,0.6927385855226567,-0.0815503457501052,-0.004213383517707171,-0.7164837261615556
361.0,0.09740325782665178,-0.025828394598649666,0.04041530657054508,1.207391058130386,1.1819528616910322,9.65258818363127,0.15555604792966535,-0.4904659568093242,-1.240965243216292,92.69167308976634,7.07746752808629,-6.976042571999707,0.6874093898369575,-0.08680342259200777,-0.003022287573271367,-0.7209558034283388
362.0,0.10183469342945492,-0.04020855213803452,0.041622975865917705,1.2429777871297094,1.1992788502003549,9.64590699504144,-0.08983790345452215,-1.1592702767917589,-0.9496912909629848,92.9452821093993,7.280392030172177,-7.081443665032111,0.6857214932289626,-0.08866179055406839,-0.00393377198018407,-0.7223302400448146
363.0,0.1233286370373081,-0.05162040510127533,0.04078729438457175,1.330795345177758,1.1722684573582418,9.637776078165878,0.28887641117596474,0.7950876438621851,0.13377330613141086,93.50474790953835,7.797101257021572,-6.931498042193475,0.6820531922999652,-0.0907014938818729,-0.0085261225223501,-0.7255197765748267
364.0,0.11263442080032203,-0.046362523557718714,0.04106162516238816,1.288440158820193,1.1790437487420633,9.642024939161615,-0.11390168426252903,-0.454698506943809,-0.5887437560609664,94.04500279033172,7.549720966827072,-6.965581829908696,0.6787054661641447,-0.08948192092441404,-0.007178760271403217,-0.7288192075557061
365.0,0.11210582218725412,-0.03529386309992133,0.04105310778914242,1.320515342250197,1.2464067663257274,9.629068843430368,0.648192859952793,0.12501475216365074,0.11165912667191191,94.4734756097561,7.738119590873328,-7.371968430369788,0.6757610954929189,-0.09314517739732495,-0.00634852266365067,-0.7311126902730133
366.0,0.11342899291896144,-0.04014889850511409,0.03576652242328876,1.4005251770259637,1.2393717545239964,9.618334579071595,0.03965012785208488,0.19677665224232893,0.49490312745869397,94.33727380015736,8.206933516915814,-7.337144718725413,0.676471252416011,-0.09568591267191187,-0.009481291756687648,-0.7300999083819826
367.0,0.1187346577498033,-0.03198170731707317,0.03809697088906375,1.3234319433516917,1.2505487804878048,9.628380999213213,0.18129179779701018,1.04702743902439,-0.7002298878835562,94.48804214201417,7.753214742328875,-7.395563286782061,0.67565037384107,-0.09339484669885917,-0.006289388567859952,-0.7311950081990559
368.0,0.12042781274586939,-0.03448682140047208,0.04110896931549962,1.3117885523210073,1.2900889063729342,9.625928402832415,0.21463783438237605,0.36877581628638867,-0.4605736132966168,94.99248377261998,7.683840234067663,-7.632333054681353,0.6724111271302124,-0.09445553756313926,-0.00493644515086546,-0.7340643799946893
369.0,0.12453658536585366,-0.04339968528717547,0.043173878835562576,1.3556530291109359,1.3161919748229742,9.615730920535015,0.10015735641227377,-0.22312647521636508,-0.14479740361919746,95.26221970889063,7.946277537372147,-7.790873328088119,0.670507668765539,-0.09698055064358772,-0.005951873841856806,-0.7354848426404406
370.0,0.1417686860739575,-0.04633084185680567,0.04002281667977972,1.3485802517702592,1.3217726199842645,9.616231313926043,-0.04411880409126673,0.9289855428796223,0.09568253343823761,95.35278078284816,7.8980256687647525,-7.82295436664044,0.6698886681742724,-0.09688846503776552,-0.005570852795043274,-0.7360592985066874
371.0,0.14582926829268292,-0.050651652242328885,0.03776907946498821,1.2822169551534222,1.301260031471283,9.628623131392603,-0.09090283241542092,0.05327620967741936,-0.2503245476003147,95.38557607199056,7.51313557238395,-7.692899291896144,0.6699161245159324,-0.0938166669956727,-0.0037988692810778917,-0.7364515866490949
372.0,0.12606038552321006,-0.04255055074744297,0.040261211644374524,1.250794846577498,1.2744616443745085,9.63584638080252,-0.05270087529504327,0.6815966758457908,-0.01418420535011801,95.3575088512982,7.325610985444532,-7.528120082612117,0.6702069045224233,-0.09170746350727774,-0.0034896686296223443,-0.7364548459919354
373.0,0.12479228953579856,-0.03834382376081826,0.0416144767899292,1.2503127458693943,1.25213808025177,9.638443351691581,0.015408634933123527,-0.7089496459480724,-0.2993804091266719,95.26585119984264,7.324373033044846,-7.398183025177026,0.6708434003902437,-0.09088596227380015,-0.0041853794881982695,-0.7359584069838709
374.0,0.09917348544453186,-0.03601140833988986,0.0402084972462628,1.2976300157356415,1.247467151848938,9.633047010228164,0.02107469512195122,0.21474232887490163,0.1498819826907946,95.36115140637293,7.599607838316286,-7.376201071990558,0.67013168293155,-0.0923246368505114,-0.006184863753540519,-0.7364201085226199
