time,linaccel_x,linaccel_y,linaccel_z,gravity_x,gravity_y,gravity_z,gyro_x,gyro_y,gyro_z,euler_x,euler_y,euler_z,quaternion_w,quaternion_y,quaternion_x,quaternion_z
0.0,-0.006212121212121214,-0.2440909090909092,0.07666666666666667,0.0,-9.779999999999985,-0.6199999999999997,0.06723484848484848,-0.000946969696969697,0.004734848484848485,31.4375,0.0,93.625,0.6586303699999998,0.1973266599999999,-0.7020263699999992,-0.1856079099999999
1.0,-0.005147630147630148,-0.2425944055944057,0.08135042735042737,0.0,-9.779999999999985,-0.6199999999999997,0.0051039238539238516,0.020838189588189587,-0.004831973581973582,31.4375,0.0,93.625,0.6586303699999998,0.19732665999999988,-0.7020263699999992,-0.1856079099999999
2.0,-0.004803529803529804,-0.24189110889110904,0.07902031302031301,0.0,-9.779999999999985,-0.6199999999999997,0.010845404595404595,-0.002974109224109225,-0.010187728937728936,31.437499999999996,0.0,93.625,0.6586303699999998,0.19732665999999988,-0.7020263699999992,-0.1856079099999999
3.0,-0.0057163947163947175,-0.2410441336441338,0.07776503496503498,0.0,-9.779999999999985,-0.6199999999999997,0.0025359362859362846,-0.0018929681429681428,-0.008794677544677543,31.4375,0.0,93.625,0.6586303699999998,0.1973266599999999,-0.7020263699999993,-0.1856079099999999
4.0,-0.004989322505451538,-0.2415374840213551,0.07574238664561245,0.0,-9.779999999999985,-0.6199999999999997,0.00916751259493195,0.004543104744717648,-0.0027666553876231296,31.4375,0.0,93.625,0.6586303699999998,0.19732665999999993,-0.7020263699999993,-0.1856079099999999
5.0,-0.004975110910594782,-0.24234498834498844,0.07706474170990302,0.0,-9.779999999999985,-0.6199999999999997,0.018650838408902925,0.008151928716444845,-0.006836040303782239,31.4375,0.0,93.625,0.6586303699999998,0.19732665999999993,-0.7020263699999993,-0.1856079099999999
6.0,-0.00413354387547936,-0.24176832844574792,0.07855101887359953,0.0,-9.779999999999985,-0.6199999999999997,0.03809214978569817,0.0069854876306489205,-0.01303810436874953,31.4375,0.0,93.625,0.6586303699999998,0.19732665999999993,-0.7020263699999993,-0.1856079099999999
7.0,-0.0065291375291375315,-0.2414095796676443,0.07564403338596885,0.0,-9.779999999999985,-0.6145259042033236,0.10335692533273177,0.022401590345138733,0.0005526731333182948,31.4375,0.0,93.59078690127077,0.658812700713587,0.1972765419159334,-0.7018597914662759,-0.18565611879765387
8.0,-0.006209339048048726,-0.24023069403714575,0.07404391307617113,0.0,-9.779999999999985,-0.6069403714565009,0.11138337468982629,0.0112160688773592,0.01994886833596511,31.4375,0.0,93.54337732160312,0.6590737863831863,0.19720709257086988,-0.7016170833919847,-0.18572652278592366
9.0,-0.005615835777126101,-0.239770283479961,0.07352394916911045,0.0,-9.779999999999985,-0.6047116324535683,0.08916788856304984,0.02743157380254154,-0.03797043010752688,31.4375,0.0,93.5294477028348,0.6591375055229713,0.19719002834799593,-0.7015482309384169,-0.1857306990127076
10.0,-0.005808640084037291,-0.2408352664828352,0.06977874556834596,0.0,-9.779999999999985,-0.6020332355816234,0.07588706029967464,0.015458357041770617,-0.02748354999197561,31.4375,0.0,93.51270772238513,0.6591989571163241,0.1971638357869011,-0.7015037804692088,-0.18573230837732144
11.0,-0.008011846923739078,-0.24024168016223874,0.07254088793568811,0.0,-9.779999999999985,-0.6006940371456508,0.0028445565427991995,-0.008506769670708044,-0.017835127879663265,31.4375,0.0,93.50433773216031,0.6592296829130007,0.19715073950635376,-0.7014815552346048,-0.18573311305962836
12.0,-0.006791482470346219,-0.23964152842824016,0.07207138792839321,0.0,-9.779999999999985,-0.6001955034213107,0.006483345734669758,-0.01735184050422375,-0.019242132446273034,31.4375,0.0,93.50122189638319,0.6592393479765393,0.1971457575562071,-0.7014756481964814,-0.18573200887585511
13.0,-0.0068976962693862096,-0.2398354269707184,0.07232357275207538,0.0,-9.779999999999985,-0.6000977517106556,0.006265866415721976,-0.007209644592287828,-0.005833187435257729,31.4375,0.0,93.50061094819159,0.6592388704985335,0.19714465377810347,-0.701477676515152,-0.1857300099217984
14.0,-0.007278271399600241,-0.24055309960461635,0.07087830641513837,0.0,-9.779999999999985,-0.6000000000000008,-0.0629258400081703,0.003527997840708481,0.007866641863993815,31.4375,0.0,93.5,0.6592407199999997,0.1971435499999999,-0.7014770500000005,-0.1857299799999998
15.0,-0.005930902671393765,-0.2396289811937382,0.07142133905253789,0.0,-9.779999999999985,-0.6000000000000008,-0.051714484760946,-0.009851311623699682,0.0037226805853430795,31.4375,0.0,93.5,0.6592407199999997,0.1971435499999999,-0.7014770500000005,-0.1857299799999998
16.0,-0.005697611648502358,-0.24122700281583298,0.07023168614405975,0.0,-9.779999999999985,-0.6000000000000008,-0.012080360660042894,-0.019084380152025793,0.0005325279759559971,31.4375,0.0,93.5,0.6592407199999997,0.1971435499999999,-0.7014770500000005,-0.1857299799999998
17.0,-0.0060417852088530954,-0.24078434805444926,0.0715751885732627,0.0,-9.779999999999985,-0.6000000000000008,-0.07715090237959761,-0.019903689032841655,-0.03949597686056521,31.4375,0.0,93.5,0.6592407199999997,0.1971435499999999,-0.7014770500000005,-0.1857299799999998
18.0,-0.00552764039042325,-0.23939072963627622,0.06959053705081626,0.0,-9.779999999999985,-0.6000000000000008,-0.06761600720736494,-0.013849374826746034,-0.032884970309741614,31.4375,0.0,93.5,0.6592407199999997,0.1971435499999999,-0.7014770500000005,-0.1857299799999998
19.0,-0.005300477086707226,-0.2403014254241988,0.06690914926832113,0.0,-9.779999999999985,-0.6000000000000008,-0.07185480223515851,0.016291343867174395,-0.024064063844997884,31.4375,0.0,93.5,0.6592407199999997,0.1971435499999999,-0.7014770500000005,-0.1857299799999998
20.0,-0.004501466275659824,-0.23824411666010142,0.06750127660816153,0.0,-9.779999999999985,-0.6000000000000008,-0.03436264425672225,0.010432624268685896,-0.012498449832946703,31.4375,0.0,93.5,0.6592407199999997,0.1971435499999999,-0.7014770500000005,-0.1857299799999998
21.0,-0.005366568914956012,-0.2367320290045376,0.06281955326009248,0.0,-9.779999999999985,-0.6000000000000008,-0.008292025940677841,-0.01778588727914679,-0.018422367633970906,31.4375,0.0,93.5,0.6592407199999997,0.1971435499999999,-0.7014770500000005,-0.1857299799999998
22.0,-0.004660568127106404,-0.23797595599714055,0.05958433638260309,0.0,-9.779999999999985,-0.6000000000000008,0.026956493193854774,0.005886987350636844,-0.008921667323208007,31.4375,0.0,93.5,0.6592407199999997,0.1971435499999999,-0.7014770500000005,-0.1857299799999998
23.0,-0.004907281772953416,-0.23792445397645218,0.057868356166382154,0.0,-9.779999999999985,-0.6000000000000008,-0.011523212383828654,0.0001313082680439448,0.008653123677798689,31.4375,0.0,93.5,0.6592407199999997,0.1971435499999999,-0.7014770500000005,-0.1857299799999998
24.0,-0.003387169723231351,-0.23972469033133464,0.053936621875957436,0.0,-9.779999999999985,-0.6000000000000008,-0.022104470317036516,-0.0006674836958900513,-0.0022869523350987006,31.4375,0.0,93.5,0.6592407199999997,0.1971435499999999,-0.7014770500000005,-0.1857299799999998
25.0,-0.0024807779285391227,-0.2376885367881999,0.05306123342233113,0.0,-9.779999999999985,-0.6000000000000008,-0.006267690141667032,0.0010504661443515558,-0.005461603273952818,31.4375,0.0,93.5,0.6592407199999997,0.1971435499999999,-0.7014770500000005,-0.1857299799999998
26.0,-0.0030170263054230314,-0.23750995754366017,0.05350520126639527,0.0,-9.779999999999985,-0.6000000000000008,0.004396091390554559,-0.013404385696152666,0.005959936388439036,31.4375,0.0,93.5,0.6592407199999997,0.1971435499999999,-0.7014770500000005,-0.1857299799999998
27.0,-0.003369370158007615,-0.23922922046658218,0.05202703491340947,0.0,-9.779999999999985,-0.6000000000000008,0.004184083249441939,0.005845953516873113,-0.0027675041216206355,31.4375,0.0,93.5,0.6592407199999997,0.1971435499999999,-0.7014770500000005,-0.1857299799999998
28.0,-0.003478428969521892,-0.23972702470054433,0.04895340015465194,0.0,-9.779999999999985,-0.6000000000000008,0.03809216381435929,0.027452546650909675,-0.006179695364818137,31.4375,0.0,93.5,0.6592407199999997,0.1971435499999999,-0.7014770500000005,-0.1857299799999998
29.0,-0.0034278752863249736,-0.23897885936884505,0.05064238922688609,0.0,-9.779999999999985,-0.6000000000000008,-0.016572197662712826,0.011282480559081426,-0.0023872572620767126,31.4375,0.0,93.5,0.6592407199999997,0.1971435499999999,-0.7014770500000005,-0.1857299799999998
30.0,7.294903780218987e-06,-0.2393281393618419,0.04411512817145942,0.0,-9.783004333172839,-0.5895233509870009,0.14707620256488818,-0.004996097226477583,-0.01646505376344086,31.4375,0.0,93.43548387096774,0.6596789282619164,0.19703776165142042,-0.7010543596581604,-0.18585880904188734
31.0,0.00045330532090281705,-0.24080287711005102,0.04269050641222042,0.0,-9.786663456908999,-0.5792778045257586,0.05081082855517136,-0.024522730920179165,-0.008980938416422286,31.4375,0.0,93.37096774193549,0.6601213673567649,0.1969331487289362,-0.7006356661194022,-0.18598340613384695
32.0,0.0013653141915058137,-0.23984775535810687,0.03978531098174816,0.0,-9.78741454020221,-0.5742320654790565,0.013278548605943892,-0.01170467311536161,-0.0254943209174071,31.4375,0.0,93.34159845931632,0.660316256928262,0.19688366279730402,-0.700447006880115,-0.18604147342320648
33.0,-0.0012137260909528605,-0.24007783662333498,0.03885404356516538,0.0,-9.788868560423683,-0.5656106563954422,-0.00032553508119227605,-0.055980635677915405,-0.021407351074539324,31.4375,0.0,93.31718241636392,0.6605302422080213,0.19681886763032364,-0.7002408245299891,-0.18611196999606058
34.0,0.0011673305029106667,-0.2388927795042384,0.03508440203673714,0.0,-9.78959557053442,-0.5584065012182488,0.11435947097357786,-0.013251192716768065,0.026915459360091043,31.4375,0.0,93.27564888169124,0.6607799487481942,0.1967473310439007,-0.7000050436188556,-0.18618683462657393
35.0,0.0007653083555827901,-0.23984461854948141,0.024357464875038308,0.0,-9.789865190178137,-0.5485629039552964,-0.027347682409069027,0.003480580966137057,0.01100664200989189,31.4375,0.0,93.19629218278111,0.6611636465829214,0.1966623675222128,-0.6996488219823176,-0.18630090527669585
36.0,-0.0010161800965845255,-0.23842444668154839,0.013047373105148747,0.0,-9.789932595089066,-0.5427961366189575,-0.01008246888723538,0.013516544841773538,0.01514786769962504,31.4375,0.0,93.16676970718257,0.6613499058672909,0.19661214107935376,-0.6994753522887032,-0.18634947601581547
37.0,-0.0010892020834245193,-0.2365702280386923,0.010222932259523499,0.0,-9.789999999999996,-0.540911790023489,-0.007597642287098233,-0.0025582315694255998,0.01507856611371296,31.4375,0.0,93.17502845012474,0.6613780328421671,0.19659916465619093,-0.6994556769171005,-0.18634897297661265
38.0,-0.0014219226448403146,-0.23742001138004998,-0.0013694722866605374,0.0,-9.789999999999996,-0.5373449468201511,0.022288666637487048,0.024212697509519848,0.021988207788039275,31.4375,0.0,93.15795655155307,0.6614867790530485,0.19656624385302202,-0.6993505328304952,-0.1863794055645527
39.0,-0.0036920237522067084,-0.23304613297150617,-0.02130629841992384,0.0,-9.789999999999996,-0.5205182299645468,0.11833747319122861,0.052572547818094284,0.022817547161552938,31.4375,0.0,93.04714331567966,0.6621220102195766,0.19639249899155242,-0.6987337254713237,-0.18656170129863872
40.0,-0.0010713295691629826,-0.23095855035672092,-0.0388813994543412,0.0,-9.789999999999996,-0.5010900045228406,0.1672301979836886,0.057750105776104815,0.038382136239623,31.4375,0.0,92.9169611984068,0.6628452654323687,0.19620087272158285,-0.6980355033759351,-0.18676600689076595
41.0,-0.0009615412672706848,-0.23138034169329322,-0.04834515107745729,0.0,-9.789999999999996,-0.48960855546315374,0.08108103179119068,0.022175139697407392,0.016446360572504048,31.4375,0.0,92.82714634306473,0.663306129379641,0.19608291903532216,-0.6975857383056848,-0.18689891354649024
42.0,-0.000771800819947185,-0.2322296873404241,-0.053888110765818995,0.0,-9.789999999999996,-0.4832972965086593,0.04159508542332327,0.026303143374038898,0.062414740812068686,31.4375,0.0,92.7872942837134,0.6635466111582846,0.19602026864621203,-0.6973592095596792,-0.18696849634233506
43.0,-0.00231160910987584,-0.2322316569644448,-0.053818444434717894,0.0,-9.789999999999996,-0.4756075925358544,0.0004376942268131505,0.012403160152317592,0.07133139288892779,31.4375,0.0,92.76226273325454,0.6637502898704417,0.19596159558410314,-0.6971855592715309,-0.18703143702747266
44.0,-0.001846340146773464,-0.2334787207656733,-0.056623043142060944,0.0,-9.789999999999996,-0.4722356691615235,0.029016391648794153,-0.0014311689353817417,0.04943345953516873,31.4375,0.0,92.75297176142746,0.6638338380430682,0.19593721241410267,-0.697116496060898,-0.18705764744970182
45.0,-0.0020424271603857545,-0.23206438482076439,-0.06622452254854755,0.0,-9.789999999999996,-0.4797370916677605,0.021473005208561297,0.009533071446287624,0.036095639836010565,31.4375,0.0,92.80204184356808,0.663575334060635,0.19600137423979805,-0.6973492711438412,-0.18698838408164473
46.0,-0.002492376825549671,-0.2326426518434224,-0.07185859558512421,0.0,-9.789999999999996,-0.4747072555112994,0.022543076406822193,0.003010059672312922,0.03425322070001897,31.4375,0.0,92.77602092178404,0.663793319127092,0.19592962824893118,-0.6971194183138563,-0.18706305591179023
47.0,-0.0019403714565004886,-0.23369501466275677,-0.07480938416422286,0.0,-9.789999999999996,-0.47220918866080114,-0.015151515151515152,0.004948680351906158,0.010538856304985338,31.4375,0.0,92.76282991202345,0.6639020618866085,0.19589385811339183,-0.6970044772238517,-0.18710031836754665
48.0,-0.0017693059628543502,-0.23329423264907154,-0.07738025415444769,0.0,-9.789999999999996,-0.4711045943304003,0.0032991202346041044,0.009316959921798632,0.04407991202346041,31.4375,0.0,92.75641495601172,0.6639537298142724,0.1958768547018571,-0.6969489902248291,-0.18711803869990246
49.0,-0.001574855252274607,-0.23395593653658187,-0.07847642679900743,0.0,-9.79,-0.4705522971652,0.006596830588766072,0.0008868147981051207,0.02110074065719227,31.4375,0.0,92.75320747800586,0.6639795637781044,0.19586835299608973,-0.6969212467253179,-0.18712689886608033
50.0,-0.00028400631626438047,-0.23204639446574946,-0.07916001203097976,0.0,-9.789999999999997,-0.46999999999999953,-0.032212948341980595,0.004979697721633205,0.01016852770885029,31.4375,0.0,92.75,0.6640014600000008,0.1958618199999998,-0.6968994100000001,-0.1871337900000002
51.0,-0.0009557861493345364,-0.2326141063237839,-0.08096074892849084,0.0,-9.789999999999996,-0.46999999999999953,-0.054596210241371526,0.014281148958568314,0.0021364388299872175,31.4375,0.0,92.75,0.6640014600000008,0.1958618199999998,-0.6968994100000001,-0.1871337900000002
52.0,-0.0007687044138657041,-0.23216971200842185,-0.08005759831566281,0.0,-9.789999999999996,-0.46999999999999953,-0.0523775283855929,0.034877622377622375,0.007086059102188134,31.4375,0.0,92.75,0.6640014600000008,0.1958618199999998,-0.6968994100000001,-0.1871337900000002
53.0,-0.000983081434694338,-0.23275885404917684,-0.08090367696819306,0.0,-9.789999999999996,-0.46999999999999953,0.018945033461162497,0.0313989773667193,0.0022905857583276935,31.4375,0.0,92.75,0.6640014600000008,0.1958618199999998,-0.6968994100000001,-0.1871337900000002
54.0,-0.0010948191593352884,-0.23310361681329442,-0.08250244379276633,0.0,-9.789999999999996,-0.46999999999999953,-0.006353861192570868,0.02217741935483871,-0.005193059628543499,31.4375,0.0,92.75,0.6640014600000008,0.1958618199999998,-0.6968994100000001,-0.1871337900000002
55.0,-0.0012658846529814268,-0.2353030303030305,-0.08391495601173017,0.0,-9.789999999999996,-0.46999999999999953,0.04679863147605083,-0.004215542521994135,0.022330156402737045,31.4375,0.0,92.75,0.6640014600000008,0.1958618199999998,-0.6968994100000001,-0.1871337900000002
56.0,-0.001544477028347996,-0.23392961876832863,-0.08613880742912998,0.0,-9.789999999999996,-0.46999999999999953,-0.02819525904203324,0.004368279569892473,0.015151515151515152,31.4375,0.0,92.75,0.6640014600000008,0.1958618199999998,-0.6968994100000001,-0.1871337900000002
57.0,-0.0017153169411233925,-0.23320595533498775,-0.0838781111361756,0.0,-9.79,-0.46999999999999953,-0.010806733588991656,0.0072688735995187605,0.007392473118279569,31.4375,0.0,92.75,0.6640014600000008,0.1958618199999998,-0.6968994100000001,-0.1871337900000002
58.0,2.2106925332731914e-05,-0.2325658320174451,-0.08105195879389425,0.0,-9.789999999999997,-0.46999999999999953,0.007838935258290096,-0.021246428302879913,-0.011944037145650049,31.4375,0.0,92.75,0.6640014600000008,0.1958618199999998,-0.6968994100000001,-0.1871337900000002
59.0,-0.0005168057748702913,-0.23474577035867372,-0.08390330100007518,0.0,-9.789999999999996,-0.46999999999999953,-0.07134934957515603,0.009217328370554178,0.02550708699902248,31.4375,0.0,92.75,0.6640014600000008,0.1958618199999998,-0.6968994100000001,-0.1871337900000002
60.0,-0.0010966238063012256,-0.23241198586359896,-0.07842770133092714,0.0,-9.789999999999996,-0.46999999999999953,-0.006410256410256408,-0.04134991352733288,-0.005620723362658845,31.4375,0.0,92.75,0.6640014600000008,0.1958618199999998,-0.6968994100000001,-0.1871337900000002
61.0,-0.0019266110233852169,-0.23452710730130105,-0.08228814196556132,0.0,-9.789999999999996,-0.46999999999999953,-0.027459771411384313,-0.0018272050530115033,0.0083088954056696,31.4375,0.0,92.75,0.6640014600000008,0.1958618199999998,-0.6968994100000001,-0.1871337900000002
62.0,-0.0016373411534701854,-0.23410068426197472,-0.08878299120234603,0.0,-9.789999999999996,-0.4655425219941346,-0.015762463343108504,-0.026515151515151512,0.011974584555229716,31.4375,0.0,92.72214076246334,0.6641088555816232,0.19583938637341136,-0.696810155650049,-0.18715574542522012
63.0,-0.0013147605083088955,-0.23061094819159353,-0.09818181818181818,0.0,-9.789999999999996,-0.45252199413489747,0.043957722385141736,-0.048173264907135874,0.004521016617790812,31.4375,0.0,92.6407624633431,0.6645801927859241,0.195726981837732,-0.6963612526588467,-0.1872688661681331
64.0,-0.0004838709677419355,-0.23175953079178901,-0.11369501466275662,0.0,-9.789999999999996,-0.44577712609970704,0.03509897360703812,-0.04084188660801564,0.01399071358748778,31.4375,0.0,92.59860703812316,0.664826361876833,0.1956683931769304,-0.6961263003616817,-0.1873273358260021
65.0,0.001348973607038123,-0.2310312805474098,-0.11924242424242425,0.0,-9.789999999999996,-0.44240469208211186,0.041513929618768326,-0.007239736070381229,0.0270955522971652,31.4375,0.0,92.57752932551318,0.6649494464222874,0.19563909884652964,-0.6960088242130991,-0.1873565706549366
66.0,0.0005620723362658843,-0.23134897360703832,-0.11735092864125123,0.0,-9.789999999999996,-0.4436119257086999,0.021077712609970673,-0.009103128054740957,-0.002443792766373413,31.4375,0.0,92.58507453567938,0.6649179163978496,0.19564306493646116,-0.6960436389051812,-0.18735257176441844
67.0,0.00038123167155425204,-0.23131964809384187,-0.1201759530791789,0.0,-9.789999999999996,-0.44662267839687164,0.023796432062561095,-0.011088709677419354,-0.0014662756598240474,31.4375,0.0,92.60389173998044,0.6648343604740962,0.19565863513196458,-0.6961277949413492,-0.18733699800097753
68.0,-0.0014124392699260296,-0.23116601742023044,-0.12369253439547134,0.0,-9.789999999999996,-0.4484652981427171,-0.020549743948877312,-0.010206938182985365,-0.011745706949125342,31.4375,0.0,92.615408113392,0.6647795312805479,0.19566958234604082,-0.6961825065786904,-0.1873260191495601
69.0,0.0006965174129353226,-0.23139434790855123,-0.1259420638741775,0.0,-9.789999999999996,-0.4480645161290322,0.03386613486818109,-0.01828467632511927,-0.00187114281962621,31.4375,0.0,92.61241446725317,0.6647718349169114,0.19567322241446708,-0.696191098152493,-0.18732238036168136
70.0,0.0013160006419515324,-0.23186530689660217,-0.11893144249427351,0.0,-9.789999999999996,-0.4440322580645163,0.09631051122685691,-0.016840285376635882,-0.01669803475292161,31.4375,0.0,92.5874572336266,0.6648739481036171,0.19564545120723348,-0.6960884785923758,-0.18735015518084075
71.0,0.0024615193825593446,-0.23215454983148792,-0.10023795976131075,0.0,-9.789999999999996,-0.4436461388074291,-0.0036378773288980315,-0.05225567543514101,0.006313739221779665,31.4375,0.0,92.58565493646138,0.6648658637047897,0.19565150765395872,-0.696097248924731,-0.18734457742913013
72.0,0.0031833501116120275,-0.2326975095198496,-0.09022161917684306,0.0,-9.789999999999996,-0.4468230694037143,-0.033511876103354196,-0.02638749069899768,0.0021793525043404677,31.4375,0.0,92.60532746823068,0.6647368729814269,0.19569661334310823,-0.6962256433333327,-0.1872992343597264
73.0,0.0016422287390029325,-0.23414956011730226,-0.08787878787878786,0.0,-9.789999999999996,-0.4484115347018569,-0.0011302541544477036,-0.03989491691104594,0.01218841642228739,31.4375,0.0,92.61516373411536,0.6646723776197454,0.19571916618768298,-0.6962898405376334,-0.18727656282502453
74.0,0.002575757575757575,-0.2343939393939396,-0.08535190615835775,0.0,-9.789999999999996,-0.4492473118279565,-0.041544477028347994,-0.030761241446725318,0.014754398826979471,31.4375,0.0,92.6203567937439,0.6646395034897357,0.19573050223851385,-0.696322535777125,-0.18726516736070387
75.0,0.002585532746823069,-0.234115347018573,-0.08872434017595307,0.0,-9.789999999999996,-0.4497849462365586,-0.05406891495601173,-0.050342130987292275,0.010294477028347996,31.4375,0.0,92.62368646138808,0.6646197551319644,0.1957370949902245,-0.6963422245014652,-0.1872585448093842
76.0,0.004934199967902423,-0.23463773507827448,-0.09002115522096263,0.0,-9.789999999999996,-0.4519258545979776,-0.04659984534803986,-0.06472084226959046,-0.006850826512598298,31.4375,0.0,92.63703659123735,0.6645558683004336,0.19575150349061138,-0.6964060506981216,-0.18723987332691386
77.0,0.005410338337637327,-0.2358881545352418,-0.08460096876322201,0.0,-9.789999999999996,-0.4571256620125181,-0.024729723814942883,-0.050159302461300535,-0.051059767146671334,31.437018536350507,0.0,92.66809099662976,0.6644324441694751,0.19578841076071257,-0.6965322915454981,-0.18718862198363032
78.0,0.002859237536656891,-0.23601450226871518,-0.06185348915247807,0.00446798266730862,-9.789999999999996,-0.4714347616754932,-0.16929875913686698,-0.02616545206518726,-0.008533213696911335,31.437259268175254,0.008184882041405874,92.7572821376986,0.6638967912277319,0.19574762279730387,-0.697099446249398,-0.18702570506499755
79.0,0.002605958477407683,-0.23478275776542518,-0.04659255044425964,0.007395281656234958,-9.789999999999996,-0.48136254212806884,-0.11807759224405831,-0.0011763032345603382,0.002198957558249808,31.437379634087627,0.004092441020702937,92.82017332691382,0.6634846199518536,0.1957751857534908,-0.6975259581415496,-0.1868887670486277
80.0,0.0024169475204622055,-0.23556571978815616,-0.040828117477130485,0.008858931150698126,-9.789999999999996,-0.48632643235435663,-0.09996389022628792,-0.008154790563312472,0.024133365430909964,31.437439817043813,0.0020462205103514686,92.85161892152144,0.6632606690081848,0.19578896723158423,-0.697757079393355,-0.18682029804044278
81.0,0.0016321617717862302,-0.23254694270582585,-0.039744824265767933,0.009590755897929711,-9.789999999999996,-0.48874819451131374,-0.03969065960519981,-0.0018355801636976417,0.03553803562831006,31.43746990852191,0.0010231102551757343,92.86696557534907,0.663150442026962,0.19579549067404933,-0.6978708915599414,-0.18678656311988429
82.0,0.0020317766008666346,-0.23277804525758317,-0.04201251805488686,0.009956668271545503,-9.789999999999996,-0.4898266730861813,-0.03228815599422244,-0.013842079922965817,0.010592200288878187,31.4375,0.0005115551275878672,92.87385652383246,0.6631138267501204,0.19579261115551289,-0.6979092113914296,-0.18677621900818464
83.0,0.001088107847857487,-0.23467982667308632,-0.04592681752527683,0.010000000000000005,-9.789999999999996,-0.4899999999999993,-0.051215695714973516,-0.0025276841598459313,0.026420317766008665,31.4375,0.0,92.875,0.6631893175349064,0.19576669487722667,-0.6978336324650941,-0.18680166512277296
84.0,0.0025854597977852663,-0.2349012999518538,-0.04754453538757822,0.010000000000000005,-9.789999999999996,-0.48522388059701477,0.060694511314395766,-0.005958112662493981,0.013962445835339432,31.4375,0.0,92.84466779008184,0.663319499364468,0.19572355486759732,-0.6977034506355324,-0.18684574556571962
85.0,0.003952816562349543,-0.23365912373615805,-0.05252768415984592,0.010000000000000005,-9.789999999999996,-0.4820654790563311,0.08798748194511313,0.01606884930187771,-0.012518054886856044,31.4375,0.0,92.82324265767934,0.663430755580164,0.19569211169956655,-0.6975954853201739,-0.18687859930669226
86.0,0.0032107789498256522,-0.23488422987700797,-0.05681621219416116,0.010000000000000005,-9.789999999999996,-0.46843743161027707,0.09598999139201353,0.008981850279394816,-0.014801359770064634,31.4375,0.0,92.73915065435287,0.6639031839191144,0.19557080049298953,-0.6971381172202042,-0.1870082804255847
87.0,0.001718533432544025,-0.23554996279599083,-0.061263185538582725,0.010000000000000005,-9.789999999999996,-0.4585735545148157,0.06234863074656044,-0.014827803796267927,-0.023018157015508963,31.4375,0.0,92.67804306911191,0.6642186241983635,0.19549694024408737,-0.6968135013712958,-0.18710827957003845
88.0,0.001650904063036947,-0.23505119339014394,-0.06532615963718513,0.010000000000000005,-9.79,-0.45364161596708497,-0.0067828436208310985,0.002376244763100805,0.005679868197923085,31.4375,0.0,92.64748927649143,0.6643738759701499,0.19546083286397908,-0.6966536618146799,-0.18715745639792253
89.0,0.0016988708611241111,-0.23518079577299622,-0.06832013180207688,0.010000000000000005,-9.789999999999997,-0.45132490042456297,-0.0417338920107336,-0.011384188352171018,-0.008431604104449555,31.4375,0.0,92.63316026174115,0.6644487541791051,0.19544367552443048,-0.6965764897133098,-0.18718111907281787
90.0,0.0011622016244067278,-0.2339787538733135,-0.07199225730135694,0.010000000000000005,-9.79,-0.4501906158357766,0.01757121369242217,0.0006690128199516743,-0.003132740313770646,31.4375,0.0,92.6261913489736,0.6644847680645167,0.19543540539100673,-0.6965392260410552,-0.18719261248778118
91.0,-1.383113756729551e-05,-0.23260870921727939,-0.08147266824012128,0.010000000000000005,-9.79,-0.4499999999999995,-0.020143964926102622,0.007748127734887485,-0.0023145467115134903,31.4375,0.0,92.625,0.6644897500000007,0.19543456999999986,-0.6965331999999995,-0.18719482000000015
92.0,-0.0005762463343108504,-0.23193146101210624,-0.08194480788029172,0.010000000000000005,-9.79,-0.4542741935483869,-0.09115347018572825,-0.015166318896157605,-0.023342215580118807,31.4375,0.0,92.64969758064515,0.6644070551612904,0.1954503227419354,-0.6966414883870966,-0.18716331943548398
93.0,0.000977385517708098,-0.23387515978645024,-0.06913741634709375,0.010000000000000005,-9.79,-0.4676209677419356,-0.11037977479509736,0.0006752152417474986,-0.049527807541920446,31.4375,0.0,92.70186491935483,0.6640388748387096,0.19553695475806443,-0.6969968719354843,-0.18705306197580657
94.0,0.0009509187049509629,-0.23537483260467146,-0.06406994170703847,0.010000000000000005,-9.79,-0.47429435483870996,-0.06073133295915553,0.004318953336090432,-0.0223644774804049,31.4375,0.0,92.72794858870967,0.6638547846774192,0.19558027076612888,-0.6971745637096782,-0.18699793324596786
95.0,0.00046305240458466263,-0.23312662225767078,-0.05356598822324628,0.010000000000000005,-9.79,-0.4852923387096776,-0.10672267640513608,-0.02325925782326992,-0.016742102263775652,31.4375,0.0,92.79391381048387,0.66349300233871,0.19567674385080652,-0.6975109952419356,-0.18689653823588706
96.0,0.00016697068612391166,-0.2349818388376857,-0.05138360855094724,0.010000000000000005,-9.79,-0.493452620967742,-0.09551911322324629,-0.011350226414490527,-0.007315968221966207,31.4375,0.0,92.83848916330645,0.6632353245564522,0.1957446685383066,-0.6977706481586023,-0.1868251681502015
97.0,0.0020673323092677926,-0.23525369623655923,-0.052307747695852516,0.010000000000000005,-9.79,-0.4955149129544288,-0.028854346678187398,0.026173175083205324,0.007803499423963132,31.4375,0.0,92.86819756464413,0.6630745682917313,0.195791139653418,-0.6979195913728875,-0.1867829664247311
98.0,0.0010752688172043009,-0.23490943420378915,-0.05145513312852021,0.010000000000000005,-9.79,-0.49291874679979464,0.0659772225422427,0.021523377496159755,0.004043258768561188,31.4375,0.0,92.87361491135432,0.6630389052748984,0.19579891305251557,-0.697938145041282,-0.186772319986559
99.0,2.2793716862395193e-05,-0.23467553536329566,-0.04400003406669639,0.010000000000000005,-9.79,-0.49162066372247765,0.03579808139979023,-0.004438767952116677,-0.008448201975248997,31.4375,0.0,92.87632358470943,0.6630210737664818,0.19580279975206433,-0.6979474218754793,-0.18676699676747294
100.0,9.464347653733698e-05,-0.23531952496572703,-0.04734552301669887,0.010000000000000005,-9.790000000000001,-0.49073220686123853,0.013482153180384189,-0.01131736947293659,-0.011334918983202023,31.4375,0.0,92.8760240655402,0.663020587301588,0.19580240513056857,-0.6979443232411668,-0.1867666423655912
101.0,0.0012153345556051068,-0.23380093487273523,-0.04908131410732868,0.010000000000000005,-9.790000000000003,-0.4902048131080383,0.010686619427514327,-0.03325012800819252,-0.03223432106106404,31.4375,0.0,92.8755120327701,0.6630227436507943,0.19580159256528437,-0.6979399165130562,-0.18676711118279551
102.0,0.00029648349107246085,-0.23381134069999854,-0.04855837999438415,0.010000000000000005,-9.790000000000003,-0.4899999999999994,0.010034190575293592,-0.003553259666683182,-0.00448648068315082,31.4375,0.0,92.875,0.6630249000000007,0.1958007800000002,-0.6979370099999993,-0.18676757999999982
103.0,0.003094990337446114,-0.23330607997621536,-0.047545959070412765,0.010000000000000005,-9.790000000000001,-0.4951612903225804,0.0025689386056191466,-0.00921710602381778,0.016221941430057975,31.4375,0.0,92.89496927803378,0.6629228952073738,0.19583678245775743,-0.6980590183154121,-0.18673157754224257
104.0,0.001896090382042516,-0.23341162479559996,-0.04756330211585153,0.010000000000000005,-9.790000000000001,-0.495660770031217,-0.013885275754422475,-0.004657330327205457,0.014159357811803181,31.4375,0.0,92.88498463901689,0.6629866010376099,0.19581878122887883,-0.6980168152399115,-0.1867495787711212
105.0,0.0006996680045587437,-0.23480724443783768,-0.04467758452670003,0.010000000000000005,-9.790000000000001,-0.49283038501560816,-0.027724613084914855,-0.02147698743042135,0.012427634078258427,31.4375,0.0,92.87999231950846,0.6630372550349339,0.19580978061443954,-0.6979769126199554,-0.1867585793855605
106.0,0.00031341360685793594,-0.23430008423764942,-0.04611610755991609,0.010000000000000005,-9.79,-0.49141519250780374,-0.012431505293758156,-0.009372728886906826,0.010067224947557935,31.4375,0.0,92.87749615975423,0.663062582033596,0.1958052803072199,-0.6979569613099773,-0.18676307969278017
107.0,6.606874452867685e-07,-0.23372611201955654,-0.04816859504814759,0.010000000000000005,-9.79,-0.4907075962539015,-0.0186671301802025,0.030716933625687524,0.005683718596699866,31.4375,0.0,92.87624807987712,0.663075245532927,0.19580303015361006,-0.6979469856549883,-0.18676532984639
108.0,0.0012189683365541842,-0.23476628181623,-0.04594297647952694,0.010000000000000005,-9.79,-0.49019250780436974,0.022412466655930496,0.017630612230150472,0.002265822431990486,31.4375,0.0,92.875,0.6630847649323621,0.19580078000000023,-0.6979381850676372,-0.18676757999999982
109.0,0.0026958525345622117,-0.23385816692268324,-0.04156410010240656,0.010000000000000005,-9.79,-0.4899999999999993,-0.03418918810803892,0.0073194684459805415,0.003474222350230415,31.4375,0.0,92.875,0.66308594,0.19580078000000023,-0.6979370099999993,-0.18676757999999982
110.0,0.0022427035330261132,-0.23360343061955985,-0.04058747759856632,0.010000000000000005,-9.79,-0.4899999999999993,0.01985177051331285,0.039550031201996926,0.019722262224782384,31.4375,0.0,92.875,0.66308594,0.19580078000000023,-0.6979370099999993,-0.18676757999999982
111.0,0.002947654496041592,-0.23332932076883708,-0.04429928315412186,0.010000000000000005,-9.79,-0.4899999999999993,0.0585138679644728,0.017277875014770176,0.02515124044861948,31.4375,0.0,92.875,0.66308594,0.19580078000000023,-0.6979370099999993,-0.18676757999999982
112.0,0.0029082279727441008,-0.23304273750443125,-0.041588768758123604,0.010000000000000005,-9.79,-0.4899999999999993,-0.015024053847138525,0.004044920413367994,0.01849895316377171,31.4375,0.0,92.875,0.66308594,0.19580078000000023,-0.6979370099999993,-0.18676757999999982
113.0,0.0032394540942928033,-0.23214384305210933,-0.04327388337468982,0.010000000000000005,-9.79,-0.4899999999999993,-0.027362651209677423,-0.0069745463709677425,-0.008120250465260544,31.4375,0.0,92.875,0.66308594,0.19580078000000023,-0.6979370099999993,-0.18676757999999982
114.0,0.0028246743176178653,-0.2326121277915634,-0.04366237593052109,0.010000000000000005,-9.79,-0.4899999999999993,-0.07080877791563275,0.003011592741935484,-0.0011612127791563263,31.4375,0.0,92.875,0.66308594,0.19580078000000023,-0.6979370099999993,-0.18676757999999982
115.0,0.0015410181216632826,-0.23281464771787366,-0.044886081660275204,0.010000000000000005,-9.789999999999997,-0.4899999999999993,0.0045172569366117785,-0.025012218963831864,0.005206218512670125,31.4375,0.0,92.875,0.66308594,0.19580078000000023,-0.6979093287487774,-0.18676757999999982
116.0,0.0021427174975562073,-0.23254876306489225,-0.04588720956462891,0.010000000000000005,-9.79,-0.4899999999999993,0.029522896458380334,0.012881607639672154,-0.0028404391307617115,31.4375,0.0,92.875,0.66308594,0.19580078000000023,-0.6978916700195497,-0.18676757999999982
117.0,0.001886908790134597,-0.23287194525904215,-0.040062561094819156,0.010000000000000005,-9.789999999999997,-0.4899999999999993,0.07774080757951726,0.005571847507331377,0.020387811113617562,31.4375,0.0,92.875,0.66308594,0.19580078000000023,-0.6978828406549358,-0.18676757999999982
118.0,0.0012773892773892772,-0.23516730581246725,-0.03979547334386044,0.010000000000000005,-9.789999999999997,-0.4918768328445744,0.06878524701105346,-0.01648526204977818,-0.004414805624483046,31.4375,0.0,92.88428641251221,0.6630592099120236,0.19580984948191607,-0.6979213827663726,-0.1867618513587486
119.0,0.0012246033536356107,-0.23558387848710444,-0.0426509511993383,0.010000000000000005,-9.789999999999996,-0.49093841642228686,0.03866644108579592,-0.01137679524776299,-0.02282831415895932,31.4375,0.0,92.8796432062561,0.66311505315738,0.1957943376930596,-0.6978867181818178,-0.18679621503421284
120.0,0.0003728099857132111,-0.2354019099180391,-0.04365441010602301,0.010000000000000005,-9.789999999999996,-0.49046920821114304,0.11286938867584029,-0.022000714339424014,-0.06733119031506128,31.4375,0.0,92.87732160312805,0.663163500449657,0.1957660594916909,-0.697849725259042,-0.18681339687194498
121.0,0.0004545454545454542,-0.23626099706744874,-0.040855327468230694,0.010000000000000005,-9.789999999999996,-0.4943010752688171,0.06922043010752688,0.019489247311827957,-0.0061400293255131945,31.4375,0.0,92.90059872922777,0.6630397603030296,0.19580108230694032,-0.6979669029912026,-0.18677282587487765
122.0,0.0010477670299528746,-0.237393093185101,-0.03920850293984622,0.010000000000000005,-9.789999999999996,-0.5024731182795701,0.02498230985833297,0.009775171065493646,9.437781765658662e-05,31.4375,0.0,92.95231549364614,0.6627487710759248,0.19589449910724982,-0.6982359906337818,-0.18667663498365925
123.0,-0.00011394639704702338,-0.2349086678046718,-0.05610962781400913,0.010000000000000005,-9.789999999999996,-0.4821016617790811,0.14647209334558875,0.059750733137829914,0.02789115274069535,31.4375,0.0,92.82245845552296,0.663483317734932,0.1956893712251792,-0.6975420181663533,-0.18688313530952272
124.0,0.0005490874075370943,-0.2342358588290222,-0.07158365066164776,0.010000000000000005,-9.789999999999996,-0.4654056695992177,0.11323787951736916,0.025079423264907138,0.027294794356662433,31.4375,0.0,92.71969696969697,0.664070852391415,0.1955249076775946,-0.6969847950753565,-0.18704488426766466
125.0,0.0018459024525466505,-0.23391167330502927,-0.07995849199749056,0.010000000000000005,-9.789999999999996,-0.45705767350928606,0.07858252724646561,0.0028103616813294242,0.000725842926131804,31.4375,0.0,92.66831622678396,0.6643639782924815,0.19544331722589417,-0.6967068249570331,-0.18712575874673565
126.0,0.001225981529303628,-0.23395485913540814,-0.08714200259698573,0.010000000000000005,-9.789999999999996,-0.45275659824046877,0.035442290016194686,0.009714076246334313,-0.0024474402182635214,31.4375,0.0,92.64186217008796,0.6645151651115386,0.195400985690171,-0.6965636038079397,-0.18716773229614403
127.0,0.0026979472140762455,-0.2346578690127079,-0.08894916911045944,0.010000000000000005,-9.789999999999996,-0.4504105571847502,0.08638807429130009,0.013165933528836755,0.013807429130009775,31.4375,0.0,92.62738269794721,0.6645979184946232,0.19537744787878805,-0.6964854151466275,-0.18719109111436966
128.0,0.0024633431085043984,-0.23447702834799627,-0.09007820136852393,0.010000000000000005,-9.789999999999996,-0.4499999999999995,0.021871945259042035,0.020527859237536656,-0.008125610948191593,31.4375,0.0,92.625,0.6646118199999995,0.19537354000000018,-0.69647217,-0.18719482000000015
129.0,0.0021505376344086026,-0.23343108504398846,-0.09190615835777123,0.010000000000000005,-9.789999999999996,-0.4506256109481912,-0.03968108504398827,0.011394183773216032,-0.015212609970674485,31.4375,0.0,92.6289100684262,0.6645951143108502,0.19537831262952116,-0.6964883981915932,-0.18719100189638335
130.0,0.005405669599217986,-0.2318132942326493,-0.09061094819159332,0.010000000000000005,-9.789999999999996,-0.44616813294232655,0.05855938416422288,-0.006689882697947213,0.0197336265884653,31.4375,0.0,92.60105083088953,0.6647600220723362,0.1953506268426198,-0.6963232516031277,-0.1872463690127078
131.0,0.006212121212121212,-0.231857282502444,-0.09088954056695989,0.010000000000000005,-9.789999999999996,-0.4429227761485829,0.01619012707722385,0.015915200391006842,0.012371700879765397,31.4375,0.0,92.58076735092864,0.6648749326490715,0.19533057890518085,-0.6962086991886602,-0.18728359837732161
132.0,0.00383412286638093,-0.23139649597714132,-0.09903511542221217,0.010000000000000005,-9.79,-0.43359786450109083,0.06948031806902774,0.03400067674261223,0.002238420181968569,31.4375,0.0,92.52298293104744,0.6652343201657263,0.1952255643260396,-0.6958732359442057,-0.1873913917395294
133.0,0.0036297465974885323,-0.2303916083916085,-0.10784773291224903,0.010000000000000005,-9.79,-0.41734235656816343,0.09085786525302654,0.01998552522746071,0.029849988720956462,31.4375,0.0,92.42262670125574,0.6658317789265356,0.1950528637659976,-0.6952959779299193,-0.18755578854966537
134.0,0.002188773591999398,-0.23080186480186493,-0.1148354011579818,0.010000000000000005,-9.79,-0.40268388600646704,0.04344335100383488,0.019034795849311975,0.03945456425295135,31.4375,0.0,92.33014277389276,0.6663563911934731,0.19489802822219732,-0.6947809965113917,-0.18769044810669966
135.0,0.0016026956914053686,-0.22950894804120622,-0.120494435671855,0.010000000000000005,-9.79,-0.39550372208436757,0.019751367584028876,0.007898385216933604,0.037032389653357395,31.4375,0.0,92.28483250620347,0.6666132829330025,0.19482155020347408,-0.6945289201985111,-0.18775598800496268
136.0,0.0010946029776674937,-0.23052915632754356,-0.124098635235732,0.010000000000000005,-9.79,-0.39194540942928074,0.013312267369727047,-0.007750465260545907,0.038097084367245654,31.4375,0.0,92.26237593052109,0.6667407145310174,0.19478350510173714,-0.6944038813895781,-0.18778845964764257
137.0,0.0008450682382133997,-0.23202140198511184,-0.12460390818858563,0.010000000000000005,-9.79,-0.3904069478908192,0.06465086073200992,-0.0036891284119106704,0.00756436104218362,31.4375,0.0,92.2526364764268,0.6667949949478909,0.1947674510074443,-0.6943500553300248,-0.1878019086352356
138.0,0.002384072580645161,-0.23117943548387115,-0.12027217741935484,0.010000000000000005,-9.79,-0.39000000000000035,0.016979586693548383,-0.006993447580645162,-0.008694556451612904,31.4375,0.0,92.25,0.66680908,0.19476318000000015,-0.69433594,-0.18780517999999985
139.0,0.002469758064516129,-0.23218245967741957,-0.12374999999999999,0.010000000000000005,-9.79,-0.39000000000000035,-0.03474672379032258,-0.0078125,0.0024571572580645157,31.4375,0.0,92.25,0.66680908,0.19476318000000015,-0.69433594,-0.18780517999999985
140.0,0.0006412410394265231,-0.23169242831541237,-0.11917274705581156,0.010000000000000005,-9.79,-0.39000000000000035,-0.05169530849974398,-0.009475606438812083,-0.0018986215117767534,31.4375,0.0,92.25,0.66680908,0.19476318000000015,-0.69433594,-0.18780517999999985
141.0,0.0017373001102839805,-0.23113863041080795,-0.1184482686891961,0.008967741935483876,-9.79,-0.3911910669975187,-0.003113376179152385,0.03679978595553192,-0.012977992129957856,31.4375,0.004962779156327543,92.26240694789081,0.6667596466699752,0.19478935155334992,-0.6943916737568238,-0.18778821698263012
142.0,0.0019069565067548935,-0.23107838778604928,-0.10810266257040449,0.004322580645161292,-9.79,-0.40430521091811455,0.06360523227332703,0.01685629418744338,0.008994244862440427,31.4375,0.0024813895781637717,92.35953008684862,0.6662571975285361,0.19494608158312654,-0.6948890029267988,-0.18763623228163756
143.0,0.0008904742211193822,-0.23085177143644905,-0.09315407632242309,0.002000000000000001,-9.79,-0.4126364764267995,0.007910275488400488,0.02595538422151325,0.002874283954173067,31.4375,0.0012406947890818859,92.43379730148882,0.6659031000545907,0.19504364240446648,-0.6952425101730766,-0.18753168936662512
144.0,0.0016145919492693683,-0.23102064378274073,-0.09009266316121155,0.0008387096774193552,-9.79,-0.416802109181142,0.010350047018393791,0.0176399904978534,0.0012008768561187913,31.4375,0.0006203473945409429,92.47093090880892,0.665726051317618,0.19509242281513645,-0.6954192637962155,-0.18747941790911893
145.0,0.0012222394540942927,-0.2294601426799009,-0.09885530397022332,0.0002580645161290324,-9.79,-0.41888492555831325,-0.005167299937965263,0.003536949441687345,-0.013215338089330024,31.4375,0.00031017369727047146,92.47361681916873,0.6656675748697267,0.19511681302047146,-0.6954771080023265,-0.18746830741113513
146.0,0.0012810949131513644,-0.23114942617866024,-0.10040780086848636,0.0,-9.79,-0.4198891129032264,0.007124786755583127,0.022317482165012406,-0.007243525124069479,31.4375,0.0,92.45819488601117,0.6656728373877165,0.19512819026209677,-0.6954718171599725,-0.18747976154179585
147.0,0.0018782568238213397,-0.2300806451612905,-0.09816206575682382,0.0,-9.79,-0.4200000000000006,0.0069265663771712165,0.03949383529776675,0.017741935483870968,31.4375,0.0,92.44764267990075,0.6656903977865999,0.19512938999999996,-0.6954545010421842,-0.18748997308188584
148.0,0.0022685516768178055,-0.2312816189187159,-0.10175958013760433,0.0,-9.789999999999997,-0.42000000000000065,0.013509621259117227,0.01920411367866005,0.01137679524776299,31.4375,0.0,92.44156327543425,0.6657023927642673,0.19512938999999996,-0.6954425666501248,-0.18749597105707194
149.0,0.00015805699676667447,-0.23046424543198757,-0.10357124595834272,0.0,-9.789999999999997,-0.4200000000000007,-0.011975524475524475,0.015325400406045566,0.014974810136100459,31.4375,0.0,92.438523573201,0.6657083902531011,0.19512938999999996,-0.6954332586134302,-0.187498970044665
150.0,0.0017870516580194003,-0.22854395067298316,-0.10118986389954131,0.0,-9.789999999999996,-0.4200000000000007,-0.08236615535002632,0.049377772764869536,0.0030340627114820674,31.4375,0.0,92.46291544477029,0.6656355115053758,0.19512938999999996,-0.6954777664418379,-0.18747470091886598
151.0,0.0017956035298355955,-0.23130723328990083,-0.09855234093462306,0.0,-9.789999999999996,-0.4200000000000007,-0.07713707011973743,0.03267284993934007,-0.015784642656332594,31.4375,0.0,92.48246578690127,0.6655784723655909,0.19512938999999996,-0.6955191720918865,-0.18745584594330386
152.0,0.00031068995199953363,-0.23207612961585056,-0.09957529070191565,0.0,-9.789999999999996,-0.4200000000000007,-0.04753678455231176,0.020828774018470695,-0.013462288994908159,31.4375,0.0,92.49224095796677,0.6655499527956983,0.19512938999999996,-0.6955398749169108,-0.1874464184555228
153.0,0.0023034388176419954,-0.22998234633285206,-0.10190396988663716,0.0,-9.789999999999996,-0.4200000000000007,-0.07879955063392714,0.03191976335332137,0.013231587662858726,31.4375,0.0,92.49712854349951,0.6655356930107521,0.19512938999999996,-0.6955502263294229,-0.18744170471163227
154.0,0.002413591864723304,-0.2296879240162824,-0.10541880042602238,0.0,-9.789999999999996,-0.4200000000000007,-0.03544912898848864,0.02348001561109409,-0.010525634291883688,31.4375,0.0,92.49957233626589,0.665528563118279,0.19512938999999996,-0.6955555064369497,-0.18743934783968702
155.0,0.0020004085146116913,-0.23259392188617045,-0.11320071198260892,0.0,-9.789999999999996,-0.42061627347135344,0.05304124538597336,0.02295979778526721,-0.009924716592988138,31.434611218103036,0.0,92.5,0.6655231088974483,0.19514302558979296,-0.6955665138565235,-0.1874257951661048
156.0,0.005819801286821027,-0.23076275513925987,-0.10369129426182869,0.0,-9.789999999999996,-0.4287538845362633,0.11072296143913861,0.027826866401132168,0.04103383376373266,31.436055609051518,0.0,92.52834799608993,0.665324281809428,0.19521544243810274,-0.6957754095773329,-0.18735791940123425
157.0,0.0027729388249368996,-0.23133883369078379,-0.09113056418785834,0.0,-9.789999999999996,-0.43986081323587334,0.010860288002801241,0.016152740695350228,0.022114044878248057,31.43677780452576,0.0,92.57869012707722,0.6649589250501158,0.19531676456763097,-0.6961329127231871,-0.18725409651332792
158.0,0.0018738744805186793,-0.23133642188336478,-0.08890628517686773,0.0,-9.79,-0.4423969078586313,0.056768590501137445,-0.005995176385161942,-0.0029687031793435258,31.43713890226288,0.0,92.59343935634257,0.664852994003966,0.19534763311508097,-0.6962441241333062,-0.18722246068346293
159.0,0.002516138010601179,-0.23160225042170177,-0.09415704244399474,0.0,-9.789999999999997,-0.43635974425189616,0.03598239346915322,-0.015756374904184245,-0.026956787795738204,31.43731945113144,0.0,92.57897774268741,0.6650326599052089,0.19530151542850813,-0.6960893936795565,-0.18726770647076374
160.0,0.003343025454725022,-0.2336885210760995,-0.0860375384525601,0.0,-9.789999999999996,-0.4333219039025488,-0.0007630890213942663,-0.0014267569214608212,0.009643715496507986,31.4375,0.0,92.57174693585984,0.665122625077785,0.19527803047304065,-0.6960117198946654,-0.18729074076547333
161.0,0.004601364932611924,-0.23201299166248623,-0.08040099300474843,0.00261916225324988,-9.789999999999996,-0.4339463723565793,-0.01742198380980278,-0.0281946487952747,-0.024523488467879412,31.453388300433318,0.014443909484833895,92.57157883041369,0.665087711721936,0.19525154402392492,-0.6960252818272654,-0.1873892769987037
162.0,-0.002073779534540247,-0.23332124174974447,-0.0713757784504053,0.011632161771786236,-9.789999999999996,-0.4536251900883582,-0.07427165997218958,-0.0014648307077291204,0.036080215323113736,31.477702214732787,0.07173808377467501,92.6706256810915,0.664377534147541,0.19520648109185618,-0.696690407576725,-0.18743867794340724
163.0,-0.004495119709371034,-0.23406501218248943,-0.058210560102712236,0.016138661531054414,-9.789999999999996,-0.4673907588158915,0.02582943055981092,-0.052122087509665745,0.023346427685618825,31.48985917188252,0.10038517091959556,92.74491271647626,0.6638525133209316,0.1952365938702381,-0.6971916603972804,-0.18741119672852752
164.0,-0.007155798547370103,-0.23450836210529213,-0.054290360342499996,0.018771418052054727,-9.789999999999996,-0.47184528453128516,0.11656392652916203,-0.05365846934037763,-0.0017458152999020767,31.479808618199325,0.11518309779376362,92.76234013432921,0.6637567388521167,0.195030927504379,-0.6973549983485452,-0.18733254271910252
165.0,-0.007264488322575498,-0.2339331031576636,-0.04982470775328118,0.019708289671188657,-9.789999999999996,-0.47156780355596495,0.07805981520721389,-0.030894775733202193,0.0012980101218935513,31.458654309099664,0.12210767792913987,92.75919426071299,0.663859410555091,0.19488447687207405,-0.6973300861964202,-0.1872617124885836
166.0,-0.008966861397686402,-0.2338875915403148,-0.050735656717276124,0.020094876660341564,-9.789999999999996,-0.4713544362026332,-0.0028875213805047567,-0.021345317572908272,-0.01532956980665072,31.447580645161292,0.12511859582542695,92.75748591225346,0.66391343525588,0.19481634963969624,-0.6973176740370646,-0.18722363788367558
167.0,-0.007005424833740562,-0.23484213399107634,-0.056338014086888294,0.020047438330170787,-9.789999999999996,-0.47063567362428804,-0.029654293437075447,-0.035507702774723926,-0.020907086956111282,31.44153225806452,0.12505929791271347,92.75349857685009,0.6639623548444604,0.19478321680176414,-0.6972906475586109,-0.18720466467741947
168.0,-0.008864612593406953,-0.23380895891424386,-0.05076256418442544,0.0200237191650854,-9.789999999999996,-0.4701565464895631,-0.033694503483102003,0.02382664422840086,-0.014457989721909686,31.438508064516128,0.12502964895635674,92.7507412239089,0.6639920500664145,0.1947650245787903,-0.6972719287157672,-0.187196788951613
169.0,-0.010693015859120823,-0.23432865000510655,-0.05167987044250885,0.02000000000000001,-9.789999999999996,-0.46999999999999953,-0.011296158503669336,0.02305189594549248,-0.013138121708174667,31.4375,0.125,92.75,0.6640014600000008,0.1947628861627349,-0.6972655024650947,-0.18719482000000015
170.0,-0.009547278271399603,-0.23318743525772911,-0.05359390729636274,0.02000000000000001,-9.789999999999996,-0.46537794896485324,0.08378379364176186,0.020794123225514653,0.014043601639894368,31.4375,0.125,92.72063071738083,0.6640856243139152,0.19473403134328363,-0.6971809902455469,-0.18722209256620134
171.0,-0.00773799623582965,-0.23294115930610892,-0.05394807487489237,0.02000000000000001,-9.789999999999996,-0.4625276841598463,0.017311718533432545,0.022826665791278213,0.018789848411899446,31.4375,0.125,92.70305729417427,0.6641380505440546,0.19471710631680306,-0.6971288018969672,-0.18723996079922972
172.0,-0.00917830203819612,-0.2343050145168587,-0.058251849258108265,0.02000000000000001,-9.789999999999996,-0.4611025517573428,0.04763845727374856,0.019880436527042206,-0.01045998015786172,31.4375,0.125,92.69427058257102,0.6641642636591245,0.19470864380356273,-0.6971027077226772,-0.18724889491574392
173.0,-0.009117316642593487,-0.2343407595453817,-0.06321595833150957,0.02000000000000001,-9.789999999999996,-0.46447279730380364,-0.013689798806553743,0.03180167709837907,-0.007516942414029559,31.4375,0.125,92.68987722676937,0.6641256507751568,0.1947044125469426,-0.697140439797785,-0.1872265596244585
174.0,-0.008659342583271327,-0.23412541398578968,-0.06454297427816924,0.02000000000000001,-9.789999999999996,-0.4672363986519016,-0.03644533928597482,0.019490159174800483,0.004260223807647977,31.4375,0.125,92.68768054886854,0.6640950599037074,0.19470229691863253,-0.6971715305440531,-0.18721068981222933
175.0,-0.00820063903357115,-0.2354185086298713,-0.06596912796720211,0.02000000000000001,-9.789999999999996,-0.4687626384207989,-0.040776232473993666,0.019088483535402167,0.005334854320771508,31.4375,0.125,92.6875,0.6640771343331728,0.19470214999999988,-0.697189720597014,-0.18720190263842096
176.0,-0.008225441706423893,-0.23376008520447628,-0.06409404589953457,0.02000000000000001,-9.789999999999996,-0.4695426095329799,-0.054280467165638085,0.015027501787251424,-0.014301658861119622,31.4375,0.125,92.6875,0.6640678482956186,0.1947021499999999,-0.6971991241694742,-0.18719737680308152
177.0,-0.008792693424373735,-0.23264877956259764,-0.06896602033819173,0.02000000000000001,-9.789999999999996,-0.46993259508907037,-0.07915973650807545,0.03024467107278855,-0.017271596562641336,31.4375,0.125,92.6875,0.6640632052768416,0.1947021499999999,-0.6972038259557043,-0.18719511388541177
178.0,-0.008628776936432209,-0.23164558439474195,-0.07718766869464991,0.02000000000000001,-9.789999999999996,-0.46999999999999953,-0.01884091273836098,0.007557520316307028,-0.002695466946790971,31.4375,0.125,92.70900537634408,0.6640414969892477,0.1947226723069404,-0.6972251123069403,-0.18719482000000015
179.0,-0.01149822733838141,-0.23391765512612894,-0.09446637778847697,0.02000000000000001,-9.789999999999996,-0.45952335098700037,0.1123433419413198,0.022915116499613367,0.018147896879240163,31.4375,0.125,92.66792047825389,0.66434727059862,0.19464282293970026,-0.6969238090735471,-0.18727898331247
180.0,-0.010388201110396587,-0.23026481623015094,-0.09728877942792241,0.02000000000000001,-9.79,-0.4356202362875449,0.10889772741301389,-0.018620031469092614,0.03178236664635317,31.4375,0.125,92.54024125649667,0.6651334678104759,0.19443307120434156,-0.6961666356658057,-0.18749958258923738
181.0,-0.008815801434963692,-0.23103661143863374,-0.1097367650805301,0.02000000000000001,-9.789999999999997,-0.4218423762082887,0.06530846781207879,-0.0026506804461787605,0.02814069456462331,31.4375,0.125,92.45258030566768,0.6655745464858825,0.19431559511829996,-0.6957405547683864,-0.18763072129461866
182.0,-0.009495877257071291,-0.22963120894512334,-0.12070171587359839,0.02000000000000001,-9.789999999999996,-0.4124510023758938,0.038641526183654254,-0.014262168180078628,0.0031649220623703057,31.4375,0.125,92.40337348616717,0.6659096376124425,0.19422487772044048,-0.6954134357273014,-0.18772683813509025
183.0,-0.007895543711624601,-0.22863036498087067,-0.13405564777062132,0.02000000000000001,-9.789999999999996,-0.40509646892988216,0.11255145712897277,-0.00887228643608037,-0.011308545811434593,31.4375,0.125,92.35121631297605,0.6662606470271404,0.19412541814907663,-0.695088861473133,-0.18780735293851275
184.0,-0.007785547785547788,-0.22890367696819325,-0.14399759380404545,0.02000000000000001,-9.789999999999996,-0.40174659748853253,0.07547090006767426,-0.028498383337093015,-0.031197834423640873,31.4375,0.125,92.3267576509512,0.6664439281958043,0.19406943483525105,-0.6949272427370481,-0.1878449802367093
185.0,-0.007078878111136178,-0.22815159034513893,-0.145517407323859,0.02000000000000001,-9.79,-0.4006549364613876,-0.008557974283780738,-0.023740506805022935,-0.017801150462440785,31.4375,0.125,92.31787634408602,0.6665157778299123,0.19404675027370505,-0.6948653871749759,-0.187858215210166
186.0,-0.0038073079223777356,-0.22496365791166006,-0.14469411458385945,0.02000000000000001,-9.789999999999997,-0.40016617790811293,-0.0195098343720154,0.02065544289605436,-0.004933971300726235,31.4375,0.125,92.31418010752688,0.6665502032697952,0.19403580174975588,-0.6948359435874882,-0.1878641814760506
187.0,-0.00697824435234161,-0.22696947138882634,-0.14636250060323247,0.017843042850264813,-9.789999999999996,-0.4026191622532499,0.15765696949495697,-0.07065779269679125,-0.01270789072907513,31.4375,0.11007462686567164,92.33753610977371,0.6663983337716113,0.19411313899476235,-0.6949757135865395,-0.1877721745257582
188.0,-0.0051069129875100025,-0.2259407474246185,-0.13464752596144028,0.013760231102551763,-9.789999999999996,-0.4116321617717866,0.12477178875529862,-0.025003871910467962,0.012615995984436043,31.41452834799609,0.08527924891670678,92.38953418391912,0.6661027313237333,0.1942611558121416,-0.6952662529589593,-0.18757051746327016
189.0,-0.004044097132204978,-0.22720980704418364,-0.12903233886960416,0.011718825228695239,-9.789999999999996,-0.41767934520943695,0.014966056251564198,-0.005509770681893937,-0.033837453270529824,31.393756109481913,0.07288155994222437,92.42612542128069,0.6658998591187759,0.19436929310106343,-0.6954721604659988,-0.18742544232576136
190.0,-0.0033814796982827794,-0.22849301877708247,-0.10854335361316583,0.010698122291766976,-9.789999999999996,-0.43264323543572447,0.00887880976349922,-0.00194773930931851,-0.02409415532309129,31.38336999022483,0.06668271545498314,92.52001083293212,0.6653263652406585,0.19459685798047877,-0.6960222530543764,-0.18717329662990034
191.0,-0.003835660407639224,-0.23137698603755436,-0.09918501334967392,0.010187770823302845,-9.789999999999996,-0.4421280693307652,0.03620096000933747,0.012446929574998905,-0.032403962591733414,31.378176930596283,0.06358329321136254,92.5775457390467,0.6649375906848451,0.19475483608701372,-0.6963997991078331,-0.18701572234720817
192.0,-0.004219226448403146,-0.23309340394800207,-0.09328051822996453,0.010000000000000005,-9.789999999999996,-0.44933076552720264,-0.0348003384835354,-0.008085033045914122,0.014942698530806379,31.37558040078201,0.0625,92.62141911410689,0.6646439945793032,0.19484631544360337,-0.6966736595803973,-0.18690978225930457
193.0,-0.004323689470535883,-0.2328003676631507,-0.08429421805926379,0.010000000000000005,-9.789999999999996,-0.45531054405392424,-0.00964112720853212,-0.01902602092178404,0.011778534016136325,31.374999999999996,0.0625,92.65849181511796,0.6643877472701016,0.19490514778045281,-0.6969030586856044,-0.18682873237843028
194.0,-0.0027275645234239353,-0.23281087232459424,-0.07827373396944895,0.010000000000000005,-9.789999999999996,-0.45825228695233555,0.010119855269109003,-7.93320786098839e-05,-0.00342404546184036,31.374999999999996,0.0625,92.67669715936447,0.6642613273375066,0.19493350627828623,-0.6970158721617721,-0.1867895901444389
195.0,-0.0026474664799171293,-0.23328708364336692,-0.0728000758669993,0.010000000000000005,-9.789999999999996,-0.45935002407318304,-0.0052040019842138265,-0.006408572970922514,0.01122138573992209,31.374999999999996,0.0625,92.68343765045739,0.6642128691766978,0.19494226376986062,-0.6970583058112665,-0.18677563178141532
196.0,-0.0025857515939364754,-0.2333013816547761,-0.07590186895434847,0.010000000000000005,-9.789999999999996,-0.46093112151850757,0.03649822733838141,-0.035913723172991345,-0.008420142688317941,31.374999999999996,0.0625,92.69331950949066,0.6641956468757393,0.19494478405990595,-0.6970801373093476,-0.18677059154564402
197.0,-0.002910593659269634,-0.23357895274361345,-0.08265483433273513,0.010000000000000005,-9.789999999999996,-0.4605474095796681,0.09869868035190615,-0.01983757896733342,-0.06583741847945025,31.374999999999996,0.0625,92.69092130987292,0.6643228317166372,0.19491454681329448,-0.6969490168202976,-0.18679955661779057
198.0,-0.0007588158912183941,-0.23276943727112254,-0.0748880232269736,0.010000000000000005,-9.789999999999996,-0.46207233626588506,-0.041361192570869995,0.021331210516333292,-0.01743117258283363,31.374999999999996,0.0625,92.6999633431085,0.6643062043969303,0.19493709938416448,-0.6969818790650851,-0.18679979540566935
199.0,-0.0012985658219168085,-0.23259260880349003,-0.06682912417385212,0.010000000000000005,-9.789999999999996,-0.471358748778104,-0.08903931588392348,0.0299150326082199,-0.009850855692213419,31.374999999999996,0.0625,92.7582478005865,0.6639618671984648,0.19503619791788868,-0.6973157195325423,-0.1866891793157378
200.0,0.001377373228600962,-0.23234931590636942,-0.06106171600827354,0.010000000000000005,-9.79,-0.4784634934957517,-0.09283414587338515,0.01863001987580707,-0.019714603723992266,31.38393300248139,0.0625,92.7888788630724,0.6637286349764038,0.19512355101601625,-0.6975272253742116,-0.18665810424347679
201.0,0.0010430365654246255,-0.23221571367165988,-0.054274748522220834,0.010000000000000005,-9.789999999999997,-0.4847596059854121,0.015869095196249745,0.049423758716007155,-0.0348145354885846,31.411724565756824,0.0625,92.83474979321754,0.6633894483239791,0.19528695090879006,-0.6978087843488849,-0.18664980842183615
202.0,0.0014615760583502517,-0.23330333107752477,-0.05408248740506805,0.010000000000000005,-9.79,-0.4878636739604476,0.07855172381382058,0.004625817730656439,-0.006942956237311077,31.425620347394542,0.0625,92.85789909015716,0.6632157133073915,0.195369620454395,-0.6979539147695315,-0.18664470598511163
203.0,0.0009494510865478609,-0.2338432212948343,-0.05580983532596434,0.010000000000000005,-9.79,-0.48935950071433876,0.05996750225580871,-0.011552560342882923,-0.016863462478381833,31.4325682382134,0.0625,92.86913771712159,0.6631314660794044,0.19540976193052095,-0.698023307394541,-0.18664263202481385
204.0,-0.002036891871569291,-0.23355000375968135,-0.05791713662681403,0.010000000000000005,-9.79,-0.48984104067974965,-0.028935387529137525,0.01941922324986841,-0.009874743871719677,31.43604218362283,0.0625,92.87307692307692,0.6630998432009925,0.19542708822332494,-0.6980480846650123,-0.18664505552853594
205.0,-0.001795120873749906,-0.23404299195428246,-0.06141018121663281,0.010000000000000005,-9.79,-0.49000488758553207,0.0341985593371682,0.01406755207158433,0.002460270744040906,31.4375,0.0625,92.875,0.66308594,0.19543456999999986,-0.6980590799999999,-0.18664551000000001
206.0,-0.001229916253101737,-0.23456792803970244,-0.06395533498759304,0.010000000000000005,-9.79,-0.4899999999999993,0.0776136980459057,-0.021405862282878413,0.004544529311414392,31.4375,0.0625,92.875,0.66308594,0.19543456999999986,-0.6980590799999999,-0.18664551000000001
207.0,-0.002255583126550868,-0.2331004962779158,-0.0626228287841191,0.010000000000000005,-9.79,-0.4899999999999993,0.07936569478908188,-0.030738213399503722,0.002508529776674938,31.4375,0.0625,92.875,0.66308594,0.19543456999999986,-0.6980590799999999,-0.18664551000000001
208.0,7.444168734491293e-05,-0.23196464019851132,-0.06247518610421835,0.010000000000000005,-9.79,-0.4899999999999993,-0.020855303970223324,-0.004885235732009925,-0.00035863833746898276,31.4375,0.0625,92.875,0.66308594,0.19543456999999986,-0.6980590799999999,-0.18664551000000001
209.0,0.0004443262830359605,-0.2324048652959945,-0.06746391153649219,0.010000000000000005,-9.79,-0.4899999999999993,-0.018760739148843984,0.019792405175469693,-0.0026929569646303515,31.4375,0.0625,92.875,0.66308594,0.19543456999999986,-0.6980590799999999,-0.18664551000000001
210.0,-0.0014490527393753194,-0.23242079493087575,-0.06833493343573988,0.010000000000000005,-9.79,-0.4899999999999993,0.02694872471838198,0.05159130184331797,-0.0005555355542754736,31.4375,0.0625,92.875,0.66308594,0.19543456999999986,-0.6980590799999999,-0.18664551000000001
211.0,-0.0020252496159754215,-0.2334236591141835,-0.0637439996159754,0.010000000000000005,-9.79,-0.4899999999999993,-0.020736827156938042,0.03176653305811572,-0.04643947212621608,31.4375,0.0625,92.875,0.66308594,0.19543456999999986,-0.6980590799999999,-0.18664551000000001
212.0,-0.00128480222734255,-0.2350712045570918,-0.0599188748079877,0.010000000000000005,-9.79,-0.4899999999999993,-0.01624353958653354,-0.0031282002048131086,-0.03230806771633385,31.4375,0.0625,92.875,0.66308594,0.19543456999999986,-0.6980590799999999,-0.18664551000000001
213.0,-0.0012536802355350742,-0.23555171530977995,-0.05459901433691756,0.010000000000000005,-9.79,-0.49409626216077795,-0.11531037986431131,-0.032601086469534045,-0.07599886392729134,31.4375,0.0625,92.90008960573476,0.6629759311930361,0.19545257356374807,-0.6981705889400915,-0.18661150660010242
214.0,-0.00497911866359447,-0.23445020481310813,-0.05620375704045058,0.010000000000000005,-9.79,-0.49720942140296964,-0.06347956269201228,0.009093081957245265,-0.04201568900409626,31.4375,0.0625,92.91980286738351,0.6628734233384532,0.19547507629800304,-0.6982723467281097,-0.18656550442908354
215.0,-0.0025198825628066,-0.23185179335348435,-0.06153531374395056,0.010000000000000005,-9.79,-0.49776704160679164,0.015465989823348694,-0.0019637063223659204,-0.06006119875543002,31.4375,0.0625,92.91301017458665,0.662913627891911,0.19546397053713888,-0.6982317671413698,-0.18657552944138883
216.0,-0.005233315577358241,-0.2328204179261022,-0.06839694514642483,0.010000000000000005,-9.79,-0.4987171101531144,-0.008156021985407066,0.02548384064322052,-0.03012660552210825,31.4375,0.0625,92.9170465619477,0.6629082777093962,0.19546077306426832,-0.6982324294078586,-0.18657151683282963
217.0,-0.005392035412847068,-0.22933815635168403,-0.07581041573757494,0.005576036866359449,-9.79,-0.4895249657268387,0.13533666154633894,-0.009685265018251493,0.0650973275192838,31.408314132104458,0.03433819764464926,92.86325318368762,0.6632341218603303,0.1954756741537419,-0.6979192415651685,-0.18657650932015252
218.0,-0.0012853674248055101,-0.2323598103827033,-0.08535784483755346,0.0026267281105990794,-9.79,-0.46898931338057215,0.09514208909370199,-0.09912066630328858,0.0006266207488892159,31.390649001536097,0.016161034306195594,92.73931028360008,0.6639195151569954,0.19536005107840693,-0.6972611290314326,-0.18670657549212938
219.0,-0.00214549989263829,-0.23022496407512028,-0.09163181540392776,0.0011520737327188944,-9.79,-0.46278446723816147,0.006288402457757289,-0.04832825429859769,0.01682636721008209,31.381816436251917,0.007072452636968766,92.70322849049435,0.6642636962881749,0.19530181763597756,-0.6969306351608779,-0.18677251484283874
220.0,-0.0009869018713971889,-0.23153808037262788,-0.09593297325867561,0.000414746543778802,-9.79,-0.46077828981054825,0.06666852485010652,-0.09163941330954858,-0.01065874667591629,31.377400153609827,0.0025281618023553507,92.69185227854582,0.6644329287762412,0.1952733995750126,-0.696768246303124,-0.18680445245263674
221.0,-0.0009507292337677354,-0.23112382934443304,-0.09146408337875557,4.608294930875576e-05,-9.790000000000001,-0.4620851295773253,0.05987686437738467,-0.012312529937399862,-0.022971276613316154,31.37519201228878,0.0002560163850486431,92.70050005781016,0.6643720090048391,0.19530332272368384,-0.696832220889286,-0.18677650017062242
222.0,-0.0009617957484762898,-0.23119683530713725,-0.08618519069091389,0.0,-9.790000000000001,-0.46587103381067985,0.032754612424227406,0.007364600366681533,-0.02985481393389822,31.374999999999996,0.0,92.72425796541302,0.6641625949427674,0.19536807127991662,-0.6970432012382941,-0.18671200521331938
223.0,-0.001343673091852072,-0.2314944750012389,-0.07910642023024955,0.0,-9.79,-0.47448441603488417,-0.11084683613299637,0.05069330888789786,-0.04152110896387691,31.374999999999996,0.0,92.76730691409412,0.6638576565650859,0.1954557774781558,-0.6973357670272371,-0.18662330086830853
224.0,-0.0026185521034636536,-0.2339387707910082,-0.06762986637596419,0.0,-9.790000000000001,-0.487920651437821,-0.07910132054903127,0.045574013511058255,-0.03167841451530317,31.374999999999996,0.0,92.85350597922138,0.6634171758683912,0.19557413486811007,-0.6977505535188213,-0.18650341191698477
225.0,-0.0024773301620335956,-0.2325911335744844,-0.05885395504021933,0.0,-9.790000000000003,-0.494605487009233,-0.015568480253703974,0.024380399055216953,-0.012083353979815999,31.374999999999996,0.0,92.8995352476752,0.6631649276116146,0.1956333135630872,-0.6979904627271529,-0.18641399547462148
226.0,-0.001053961647093801,-0.23261450539286144,-0.0552516393307236,0.0,-9.790000000000003,-0.4978750640040962,-0.027327684455676127,-0.005011933666980493,-0.0002859537849132024,31.374999999999996,0.0,92.92209462695935,0.663043376339626,0.1956615214797745,-0.698105860338603,-0.18637066860099444
227.0,-0.0010917860033364717,-0.23070660522273434,-0.04771451695489155,0.0,-9.790000000000003,-0.5012528285681251,-0.1366766182713113,-0.03048143468278744,0.028969079827560577,31.374999999999996,0.0,92.942186751565,0.662883711119865,0.19570606480336278,-0.6982593841235156,-0.18633431822869706
228.0,-0.002404571957121385,-0.2334357398873529,-0.03931552780668286,0.0,-9.790000000000001,-0.5163995837669098,-0.04492881092777035,-0.01917696926151661,0.02763738169565433,31.374999999999996,0.0,93.03876170655568,0.6622837460822061,0.19588372727367329,-0.6988282132778361,-0.1861765354942768
229.0,-0.005172109079497217,-0.2362157887782238,-0.0196993872123945,0.0,-9.79,-0.5082804370447451,0.48688457996795664,0.20147095865748313,0.14468822778851395,31.425907258064512,0.0,92.98470018210197,0.6625135334391259,0.19631478412070757,-0.6983762454240379,-0.1865789323126951
230.0,-0.0047616157111474485,-0.22814699056868676,0.01000581404951852,0.008331797235023043,-9.789999999999997,-0.483642522669838,-0.16750891411889066,-0.27943259336339465,-0.050334085897626474,31.4764904953917,0.04930875576036866,92.83206783298647,0.6633291380697932,0.1958090849774045,-0.6975843040530325,-0.1871418756540434
231.0,-0.004761842822456767,-0.2350943399732422,0.01928932329088416,0.004411674347158219,-9.79,-0.5155795818674329,-0.25623620556876925,-0.1171948553094495,0.05505951090547215,31.240901417690733,0.026190476190476188,93.01893650225873,0.6625829656836422,0.19522086387887116,-0.6989007939184773,-0.1854530218029561
232.0,-0.007191015063673754,-0.23789316374312475,0.03453800191599358,0.0022058371735791094,-9.786503642039538,-0.5443610708504697,-0.22625806116107555,-0.06085744326346564,0.0198717169511752,31.133132810822474,0.013095238095238094,93.17719717932914,0.6617726708777216,0.19493306787596001,-0.6999742029581981,-0.1846045881101148
233.0,-0.006034022306459872,-0.23926032582214302,0.048673209537023254,0.0011029185867895547,-9.78309053069718,-0.5629869870381375,-0.12830522766360272,-0.03347046469038535,0.02984319706138612,31.09277608283059,0.006547619047619047,93.28013084772908,0.6612538844711189,0.194732947486367,-0.7006340740597448,-0.1842173037324767
234.0,-0.00490303151955033,-0.24034764001604697,0.05410987568157887,0.0005514592933947774,-9.781383975026003,-0.5727812959384232,-0.1801000556545187,-0.028271377438139636,0.014669315435422419,31.07100686702013,0.0032738095238095235,93.3347321325339,0.6609568617256325,0.19462211998310275,-0.7010081183449267,-0.18400869505424228
235.0,-0.004666896888429695,-0.23972798635991596,0.05641287392902695,1.5360983102918587e-05,-9.780530697190413,-0.578321523545248,-0.13963405366392928,-0.03239770994744483,0.01539586871718239,31.05933695885569,9.600614439324115e-05,93.36595477594437,0.6607763405333231,0.19458924459293375,-0.7012229404259196,-0.18389311496721322
236.0,-0.006437391096544598,-0.24081893429618945,0.05146296538233222,0.0,-9.780104058272618,-0.5797086368366275,-0.06543274623800663,-0.02149519393941622,0.0005774786494258085,31.06165452653486,0.0,93.37334157127992,0.6607221416465897,0.19458328725806434,-0.7012768370741989,-0.18389689759625377
237.0,-0.005197867376559631,-0.23999463801838533,0.0561060511796784,0.0,-9.779999999999985,-0.5799999999999991,-0.012120474336319933,-0.019354599430768844,0.006644500932165457,31.0625,0.0,93.375,0.6607073064771276,0.19458157996927783,-0.7012912127672334,-0.18389842992831526
238.0,-0.00018998467683340554,-0.2412382139103373,0.062384451188174254,0.0,-9.780416233090516,-0.5796670135275748,-0.0258963453887635,-0.01322178462693489,0.0677245657626488,31.051053590010405,0.0,93.39268990634756,0.660651086849386,0.19459505608245367,-0.7013570765761246,-0.18375437769568728
239.0,0.004227996197256361,-0.2398599098919804,0.07302773289706299,0.0,-9.784632079678897,-0.5704121037939973,-0.05795254449960101,0.013000125503537248,0.1207882529230681,31.02451873048907,0.0,93.35158688865764,0.660974529524305,0.19465407184050992,-0.7010608113494543,-0.1836336371555753
240.0,0.004643146193614455,-0.23905257420345877,0.08202946666005978,0.0,-9.785429199081637,-0.5671773780618732,-0.09307847315131393,0.015122516228135374,0.07562290438200948,31.011251300728407,0.0,93.32028269164064,0.6611575680826851,0.19466957828584625,-0.7008953598247527,-0.18358726831921107
241.0,0.0061387773978824976,-0.24121599524305049,0.08402292585435142,0.0,-9.78271459954081,-0.588007531836876,-0.2062614587978792,0.0010488413193928282,-0.0040312257403828655,31.004617585848074,0.0,93.43673504781725,0.660425034356243,0.1948923449647358,-0.701601184763887,-0.1833280702195133
242.0,0.005300365029813521,-0.24045430520456545,0.09065358505524997,0.0,-9.781357299770399,-0.6046489272087605,-0.21449682457096608,0.015364596237384998,-0.019377240143369178,31.00130072840791,0.0,93.53489978197314,0.6598717932637963,0.19505118496316673,-0.7021405943379089,-0.18314098412409355
243.0,0.006323439538840164,-0.24226929620269902,0.09009266141420147,0.0,-9.780665642601111,-0.612980030721966,-0.19870587846654442,0.0031134895859141433,-0.00547751185108105,31.0,0.0,93.58342933947773,0.6594774224331472,0.19516018246337308,-0.7024977524759264,-0.1830224629283318
244.0,0.004776770229423715,-0.2432388550286574,0.08366830186809374,0.0,-9.780194572452622,-0.6174295954941116,-0.015122516228135374,-0.020383240011231686,0.05333399402077862,31.0,0.0,93.6092549923195,0.6592652070084077,0.1952176205217778,-0.7026891385339344,-0.1829677731473497
245.0,0.004605487009233106,-0.2420572155327619,0.0908484878516096,0.0,-9.779999999999985,-0.6207578084997443,0.0016713327717489965,0.03513928117205953,-0.03218476950266753,31.0,0.0,93.62967229902713,0.65921091625638,0.1952647304631418,-0.7027174000810995,-0.1829934141261581
246.0,0.0033529887848306157,-0.24139107741605142,0.1044941611747023,0.0,-9.779999999999985,-0.6245693143716035,0.03444401086830847,-0.008236914259286788,-0.05848477528368267,31.0,0.0,93.65303792345935,0.6590513673214904,0.1953164590978313,-0.7028515744322221,-0.1829708566810366
247.0,0.004772228003237369,-0.2412834679484004,0.10322522835009827,0.0,-9.779999999999985,-0.6222846571858016,0.08207957567348827,0.014677068364633403,-0.03390875080521282,31.0,0.0,93.63901896172968,0.6591440906664683,0.19531644841988338,-0.7027441472161112,-0.18300862769535708
248.0,0.0031847612440744602,-0.24332383595130738,0.09663082437275983,0.0,-9.779999999999985,-0.6211423285929007,0.1084337784714996,0.15888965280874748,0.019791202120806702,31.06919875130073,0.0,93.63200948086484,0.6590905323831817,0.19566406044563356,-0.7026012613838103,-0.18341509817650273
249.0,0.006199560642848885,-0.2426790875906381,0.0968481905422592,0.0014984391259105097,-9.779999999999985,-0.6205711642964503,0.16401462596832003,0.06346212609219892,-0.07518829592190675,31.17403746097815,0.005723204994797087,93.62850474043242,0.6589922406426832,0.19604909137786358,-0.7024448881320713,-0.18399118225162286
250.0,0.005330825262146803,-0.24188257424157533,0.10663859761466421,0.0005904106299527734,-9.779999999999985,-0.6158030897302488,0.0812870207316097,0.11765188505563115,0.1394160730008805,31.254760665972945,0.00038021291923477163,93.6022107380133,0.6590033403512365,0.19656172640766825,-0.7021513669766266,-0.18454006762587044
251.0,0.009806411590490678,-0.24165408628832152,0.09780160890098456,-0.004866085007604261,-9.780806451612888,-0.5912444168734492,-0.04593622428559993,0.05963889778275834,0.1749044464900344,31.287158558792925,-0.03206795805651164,93.44903070719603,0.6598453887396145,0.1969070067262067,-0.7011685593936207,-0.18489924941387184
252.0,0.003956974413134043,-0.24080883294645006,0.09740853893105512,-0.009751289976117974,-9.78286831969185,-0.5639467149364841,0.31165640445216486,-0.4445423690998302,0.1877592533908541,31.211947117624675,-0.05695838923528519,93.28761718315988,0.6609578259056763,0.19663306244350776,-0.7002372636351831,-0.18473071053986806
253.0,0.006876557398601835,-0.23984936018715936,0.06422235353199872,-0.0133213927886455,-9.783467395427538,-0.5560007279472254,-0.2591889043232821,-0.37998401130865755,-0.10082315686336588,30.6267827498381,-0.07637753283856147,93.24418737945872,0.6621577812635466,0.19338922474223436,-0.7008487893830223,-0.18145126602364697
254.0,0.006733457332668937,-0.23825235629066283,0.04882483482721206,-0.0067075226170074526,-9.786075735604195,-0.5580976501999311,-0.07012638814102765,-0.12137135586822631,-0.11898267665938887,30.382510637261518,-0.03836761657536814,93.27330336714871,0.6623818388873106,0.19143717892290676,-0.7015175911394489,-0.18008947439670683
255.0,0.004933273232879035,-0.2396003598775777,0.03884705446114631,-0.003348798529347399,-9.788199158124678,-0.5582200409808588,-0.05501696341944446,-0.06699943586077432,-0.010690430456205914,30.266658544437206,-0.019106264863366453,93.28862128655202,0.6624844336893128,0.19048063676170146,-0.7018372865573175,-0.17945587801721186
256.0,0.00355314615304986,-0.23994134897360708,0.020022565569026814,-0.0015131089420930542,-9.788334490096641,-0.5565955795662103,0.11444210312770736,-0.05244493042398675,-0.14786283635585512,30.237143166307824,-0.008545067915554195,93.26274897332914,0.66269575565082,0.189891544636731,-0.7018696081654917,-0.17924698162321331
257.0,0.0011370806323980106,-0.23347743827452472,0.009026844932151905,-0.000527859237536657,-9.789251501186982,-0.5349903674773603,0.13723477716063565,-0.01714066298483572,-0.08330442825760202,30.22933831401573,-0.002993646138807429,93.12336432933466,0.6635422514802625,0.18938414824363,-0.7011812954093333,-0.17938379322086634
258.0,0.00033133475381134084,-0.23342351716961512,-0.0017608972135506997,0.0,-9.789723502304149,-0.5166838445402442,0.1273093090861041,-0.010033158251160332,-0.03352266157937333,30.242479518689194,0.0,93.0259722428687,0.6640994392225358,0.18918401278017288,-0.7006673908033959,-0.1795887640004626
259.0,5.8140495185240295e-05,-0.2350980294996946,-0.007028888558545169,0.0,-9.78988735279058,-0.507340898204582,0.06793002494095106,-0.00974617214211387,-0.0025704870918190365,30.247471838197647,0.0,92.97568773433758,0.6643898505559682,0.1890940551023242,-0.7003991763976016,-0.1796821998548141
260.0,-0.0004383661199478055,-0.2359519680227278,-0.009684686916736868,0.0,-9.78994367639529,-0.5027027071668071,0.039271674677501936,-0.008923409807905125,-0.008704557091653865,30.24974398361495,0.0,92.95054548007201,0.6645352906005647,0.18904815432535577,-0.7002657411020267,-0.17972718331450388
261.0,0.00040582726326743,-0.23522372528616042,-0.010400624349635798,0.0,-9.790000000000003,-0.5004578563995837,0.0027965660770031212,0.005495577523413111,0.005202913631633714,30.25,0.0,92.93915842872008,0.6646021977887615,0.18902857915192534,-0.7002038206815817,-0.17974622166493254
262.0,0.00047346514047866815,-0.23456815816857451,-0.011212278876170658,0.0,-9.790000000000003,-0.5,0.021982310093652445,0.01905567117585848,0.025169094693028096,30.25,0.0,92.9375,0.6646118199999997,0.18902588000000026,-0.70019531,-0.17974854000000018
263.0,0.0013215400624349636,-0.23389177939646216,-0.020660770031217492,0.0,-9.790000000000003,-0.5,0.06835327783558792,0.026892559833506764,0.022405046826222685,30.25,0.0,92.9375,0.6646829534027052,0.18900860332986488,-0.7001231604890734,-0.17976682994797089
264.0,-0.0006711758584807488,-0.23250260145681592,-0.032466181061394386,0.0,-9.790000000000003,-0.5030801248699276,0.012129292403746095,0.04266389177939646,-0.04536290322580645,30.25,0.0,92.9375,0.6646555160665975,0.1890253687825184,-0.7001323078772106,-0.1797693702185225
265.0,0.0008684863523573197,-0.23296574081485638,-0.03447802769550949,0.0023821339950372213,-9.790000000000001,-0.4992373329064278,0.31410689986392376,0.2750600336188265,-0.04185744016649323,30.352233250620344,0.01488833746898263,92.9057382133995,0.6646685604998,0.18941188590986968,-0.699846367032898,-0.18043794317874015
266.0,-0.006959840367748798,-0.2323086058351408,-0.034189693529964094,0.006352357320099258,-9.79,-0.45316705354998815,0.036603934711374866,0.09422660022946183,0.01679911385296401,30.526923076923076,0.03970223325062035,92.63283262436488,0.6660347763840524,0.18975541694367015,-0.6980797155671401,-0.18187585205531998
267.0,-0.010745789070450882,-0.230691243604355,-0.034568832196823884,0.00874069478908189,-9.79,-0.43053513967822,0.02664288827140024,0.10104475172763414,0.006692350891102194,30.618804280397022,0.05412531017369727,92.51550905411793,0.6666655770629936,0.18996063782667383,-0.6972217973803441,-0.18260091788249866
268.0,-0.006455100570605254,-0.2352129475045709,-0.04688899466240776,0.00703163771712159,-9.79,-0.454057892419755,-0.24204406054692215,0.1391995350729742,0.11090015567447929,30.72774891439206,0.04369571960297766,92.65543597867187,0.6656428727094363,0.19117964872863344,-0.697750982636582,-0.18305000181585923
269.0,0.013664167900410787,-0.23402778733495053,-0.03261447958008678,-0.017584750401401256,-9.792277039848193,-0.41924768282002617,0.44465136447465675,-0.7429805715710601,0.06527057731694828,30.1150604154503,-0.09817111553057949,92.45016817908925,0.6678260720463995,0.18913521308638925,-0.697014841688463,-0.17983167766054636
270.0,0.024269517484413118,-0.23077709820487333,-0.017574875380259623,-0.05185299200325292,-9.793203036053129,-0.4082303639197614,-0.38269691613204404,-0.05775623757567544,0.12586685547875065,29.86551053385064,-0.3011637215370019,92.38837503247267,0.6685944553018244,0.19009139067258143,-0.6963653035166881,-0.17850070656370107
271.0,0.05786393279396127,-0.23528346422315824,-0.02230695401609776,-0.07095130989740814,-9.791601518026564,-0.4654923531757617,-0.21188983425255953,0.16005901934284877,0.10641436436547323,29.717696333922838,-0.41213583099182594,92.72307871911946,0.6667912162684633,0.1911557410858673,-0.698171341838103,-0.1771027037023082
272.0,0.05385356999499552,-0.23400420884855183,-0.011077988484475677,-0.06391753615217798,-9.790800759013282,-0.5022894070469377,-0.17372223179749563,0.23912244546546904,0.08400791496809643,29.986079236672957,-0.37686603119070206,92.94442334490402,0.6650377690411018,0.19274824585946587,-0.6991123394199437,-0.17827473193587035
273.0,0.05628878416544449,-0.23676388917850025,-0.00648325467490553,-0.05784838501157283,-9.790400379506641,-0.5273014575557269,-0.0651134740496695,0.1377666378793039,0.04016934006853362,30.14113059615906,-0.3502431214421252,93.10447288716975,0.6638480320306313,0.1936380601197531,-0.6998413315219681,-0.1788585074422296
274.0,0.053091291758305265,-0.2368332361360458,-0.0038489909905102416,-0.054071251329315805,-9.788464099895938,-0.5437572354804404,-0.0663417227933357,0.06459139340252765,0.04584722206340312,30.23950505140021,-0.3326612903225806,93.19517980068838,0.6631471707446108,0.1941572394326193,-0.7002736385618352,-0.1792524018671943
275.0,0.05074098638094475,-0.23812322329075725,0.0024751460818058122,-0.05149875930521087,-9.784006243496348,-0.5596159449291604,-0.05245529560045689,0.009955066900956601,0.021053091318439916,30.286817617866003,-0.319758064516129,93.26946490034419,0.6626081479229966,0.1943947729835907,-0.70071430490995,-0.1793825894220764
276.0,0.0486900804132854,-0.23890520532768206,0.0069199945620341055,-0.050153846153846104,-9.781841831425586,-0.5656268310253744,-0.030076017172791368,-0.006517109899003757,0.007594665711210975,30.311073200992553,-0.3130272952853598,93.29543344272793,0.6624056658945008,0.19449507233298635,-0.7008696359785482,-0.17946949660930125
277.0,0.05011710684967709,-0.23899823266108403,0.00494953999636622,-0.04999999999999995,-9.780759625390203,-0.5683766909469304,-0.03187403993855607,0.01629420411938622,-0.016621450869629847,30.3125,-0.3125,93.3067117585848,0.6623310955775233,0.19451205403746086,-0.7009460898751303,-0.17945447455775237
278.0,0.05060386832499215,-0.23745866574170438,0.005073336306426837,-0.04999999999999995,-9.780218522372515,-0.5695109261186266,0.011280721966205835,-0.002237562558842476,0.01109851675668533,30.3125,-0.3125,93.31061394380852,0.6623048966597294,0.19451653137356908,-0.7009753054214363,-0.17944694840790848
279.0,0.05121351766513055,-0.23615975422427052,0.0020737327188940094,-0.04999999999999995,-9.779999999999985,-0.5700000000000002,0.05632360471070148,0.00748847926267281,-0.026497695852534565,30.3125,-0.3125,93.3125,0.66229248,0.1945190399999999,-0.7009887700000001,-0.17944336000000002
280.0,0.04889186198239266,-0.23676329220554002,-0.0025119336669804917,-0.04999999999999995,-9.779999999999985,-0.5700000000000002,0.0714894785524338,0.0145340914721768,-0.0028750227111309316,30.3125,-0.3125,93.3125,0.6622924800000001,0.19451903999999992,-0.7009887700000001,-0.17944336
281.0,0.04898766166195925,-0.2354374576747107,-0.0005186396445501538,-0.04999999999999995,-9.779999999999985,-0.5700000000000002,0.0031186512065804473,0.0012986637596419078,-0.012654229225509142,30.3125,-0.3125,93.3125,0.66229248,0.1945190399999999,-0.7009887700000001,-0.17944336000000002
282.0,0.04979849032918751,-0.23708124803858427,0.00018614868770956244,-0.04999999999999995,-9.779999999999985,-0.5700000000000002,-0.02447434055134367,0.017290396907982754,-0.014423632789917908,30.3125,-0.3125,93.3125,0.66229248,0.1945190399999999,-0.7009887700000001,-0.17944336000000002
283.0,0.04979683861057428,-0.23885040384520104,0.001488363642369886,-0.04999999999999995,-9.779999999999985,-0.5700000000000002,-0.02334188097715673,-0.0043636341112927995,0.0013967345523016716,30.3125,-0.3125,93.3125,0.66229248,0.1945190399999999,-0.7009887700000001,-0.17944336000000002
284.0,0.04987025750293178,-0.2391741406933916,-0.00023941661298581196,-0.04999999999999995,-9.779999999999985,-0.5700000000000002,0.0023697000478998392,-0.0003406669639760165,-0.003008192524321556,30.3125,-0.3125,93.3125,0.6622924800000001,0.19451903999999992,-0.7009887700000001,-0.17944336
285.0,0.04990783410138247,-0.23831788976429985,-0.0008323010092000729,-0.04999999999999995,-9.779999999999985,-0.5700000000000002,0.004476157441818212,0.023570024610607337,0.004827147647126835,30.3125,-0.3125,93.3125,0.66229248,0.1945190399999999,-0.7009887700000001,-0.17944336000000002
286.0,0.04955965181771632,-0.23826800786218072,0.0020134449895115878,-0.04999999999999995,-9.779999999999985,-0.5700000000000002,-0.037188444576581936,0.032970368168078884,0.02017471053631303,30.3125,-0.3125,93.3125,0.66229248,0.1945190399999999,-0.7009887700000001,-0.17944336000000002
287.0,0.04935995903737838,-0.23956411145797213,0.0014829129709462699,-0.04999999999999995,-9.779999999999985,-0.5700000000000002,-0.007521513634937152,0.0113328543349355,0.012407503757659845,30.3125,-0.3125,93.3125,0.66229248,0.1945190399999999,-0.7009887700000001,-0.17944336000000002
288.0,0.04851708702905372,-0.23935814214690398,2.940059131526331e-05,-0.04999999999999995,-9.779999999999985,-0.5700000000000002,0.048068108617016006,0.006602745156335167,0.014760686619427513,30.3125,-0.3125,93.3125,0.6622924800000001,0.19451903999999992,-0.7009887700000001,-0.17944336
289.0,0.0479477396230778,-0.23927985068463747,-0.001264886114001619,-0.04999999999999995,-9.779999999999985,-0.5700000000000002,0.010233429133012898,0.009380729398939596,-0.0052741439968287,30.3125,-0.3125,93.3125,0.66229248,0.1945190399999999,-0.7009887700000001,-0.17944336000000002
290.0,0.04995953289397618,-0.23853393455890864,-0.0018357200667294326,-0.04999999999999995,-9.779999999999985,-0.5698361495135691,0.09150624349635796,-0.012958764844821037,-0.003357118081363659,30.3125,-0.3125,93.3125,0.6622949801945726,0.19451804002048123,-0.7009837695289298,-0.17944336000000002
291.0,0.05261417504913862,-0.23708570767883994,-0.000748889219232611,-0.04999999999999995,-9.779999999999985,-0.5647567844342039,-0.015450795302512269,0.030755000578101516,0.08379891151743388,30.3125,-0.3125,93.3125,0.6623567339682543,0.1944870406554019,-0.7008917613773682,-0.17944336000000002
292.0,0.05256858761541383,-0.23719810713046935,0.0015248666237219826,-0.04999999999999995,-9.779999999999985,-0.5622171018945211,-0.056952806269923856,0.010838887237170275,0.04859923938357861,30.3125,-0.3125,93.3125,0.6623876108550952,0.19447154097286223,-0.7008457573015874,-0.17944336
293.0,0.053368845283517485,-0.23738318220108037,-0.002329914275803974,-0.04999999999999995,-9.783113159242184,-0.5581618023553507,-0.04186280825198619,0.04892596997175562,0.05423314834084865,30.3125,-0.3125,93.29304275473629,0.6625280583717361,0.19444578855094713,-0.7007162488428058,-0.17947986211981576
294.0,0.0531405777711709,-0.23862114530168654,-0.004370612622433642,-0.04999999999999995,-9.786717869943674,-0.5537583205325143,-0.07774742744825991,0.006581066349536695,0.0061846538823646,30.3125,-0.3125,93.27051331285202,0.6626937891858682,0.19441941040450572,-0.7005689894214027,-0.17952461493087565
295.0,0.0546527261615711,-0.23852716251259448,-0.0023926795831062226,-0.04999999999999995,-9.788520225294418,-0.5515616999487969,-0.046186181722081825,0.034540533174768344,0.020005409378458287,30.3125,-0.3125,93.25924859190988,0.6627765764618538,0.19440625258064498,-0.700495515975422,-0.17954699133640561
296.0,0.05404679318831243,-0.23974233189633823,-0.003907553309218242,-0.04999999999999995,-9.78942140296979,-0.5506195596518179,-0.024213162545628723,0.006869600944783045,0.009874696496704822,30.3125,-0.3125,93.2536162314388,0.6628160793599593,0.19440062677419334,-0.7004615763748074,-0.1795581795391706
297.0,0.05398229357646629,-0.23941330954858542,-0.003179062814858861,-0.04999999999999995,-9.789871991807477,-0.5501484895033284,0.015436342764646616,-0.0005811984870257511,0.004205688518903919,30.3125,-0.3125,93.25080005120327,0.662835830809012,0.19439781387096755,-0.7004446065745004,-0.1795637736405531
298.0,0.05299217085377335,-0.23810655236773873,-0.003540376261500091,-0.04999999999999995,-9.790000000000001,-0.5493445980542757,0.04085629222205705,-0.006258981219959368,-0.04082790330839239,30.3125,-0.3125,93.24231950844853,0.6628703014644138,0.19438596948796705,-0.7004114485253452,-0.17957543053251415
299.0,0.060336048921197566,-0.23905587764068525,0.00315411374059299,-0.04932310946589102,-9.785938656795338,-0.5577103741196816,-0.09412391287807095,0.02650845910087479,0.002463142305306372,30.317259386567954,-0.3061541512427287,93.26784140414495,0.6626288212874687,0.19429851346688143,-0.7006542279406209,-0.17963601444394078
300.0,0.057200794557885,-0.24045471813421876,0.012316944223087076,-0.04966155473294548,-9.78280803807508,-0.5641777677050022,-0.07815194619838008,0.007685873175629407,-0.010561183583649936,30.314879693283977,-0.3093270756213643,93.29937129091016,0.6624137883907901,0.19429573943953393,-0.700866861008201,-0.17962322176114087
301.0,0.05695718501658351,-0.24054754472028156,0.022226308194988373,-0.04983077736647272,-9.781242728714952,-0.5674114644976624,-0.011404524707138108,-0.021363321774010773,-0.019408463717563697,30.31368984664199,-0.3109135378106822,93.33920177448734,0.662218266453459,0.19431485536492835,-0.7010626832460365,-0.1795943258805705
302.0,0.056829268887063876,-0.2387076953570191,0.024136046917473383,-0.049915388683236334,-9.780460074034888,-0.5690283128939926,-0.04865881802474491,0.0029759873960331154,0.026212131304589638,30.313094923320993,-0.3117067689053411,93.35079235446531,0.6621398134556575,0.19432441332762554,-0.7011382375699488,-0.17958648264371915
303.0,0.056740287285313815,-0.23981467717159716,0.018604121769028554,-0.04995769434161814,-9.780068746694855,-0.5747727329958949,-0.0596596701490852,0.013920789396941287,0.08047037696821903,30.312797461660494,-0.3121033844526705,93.36515232162589,0.6620188844134406,0.1943610354298137,-0.7012297509457528,-0.17954563950414323
304.0,0.054947351469203695,-0.23756862890837932,0.01649005665394844,-0.04999999999999995,-9.779999999999985,-0.5776190476190469,-0.03325064417025915,0.03377325826272236,0.04256530482467006,30.3125,-0.3125,93.37141473828518,0.6619649115139652,0.19438190759856616,-0.7012684833972551,-0.17952198073038997
305.0,0.05298058817699816,-0.23859230216540325,0.015446769238392555,-0.04999999999999995,-9.779999999999985,-0.5789708141321036,0.03862621401318072,0.020614867738632046,0.014978248930512193,30.3125,-0.3125,93.37395941727368,0.6619408717144839,0.19439106387096755,-0.701284998268008,-0.17951149773846686
306.0,0.05138363435905058,-0.23952768073930936,0.014723904910559443,-0.04999999999999995,-9.779999999999985,-0.579646697388632,-0.03043975459590704,0.007071871954643805,0.013976507399699386,30.3125,-0.3125,93.37447970863684,0.6619316019862742,0.1943950012903224,-0.701290458650133,-0.1795069593531044
307.0,0.052305587557603665,-0.23956749231950852,0.014820948540706614,-0.04999999999999995,-9.779999999999985,-0.5799846390168961,-0.070738527265745,-0.0020071284562211984,-0.0069344438044034815,30.3125,-0.3125,93.375,0.6619263637480799,0.19439696999999978,-0.7012938874910395,-0.17950448376344086
308.0,0.05209621415770609,-0.24130320340501799,0.008901769713261651,-0.04999999999999995,-9.779999999999985,-0.5799999999999991,-0.06857138856886841,0.030366443452380952,0.006061387928827445,30.3125,-0.3125,93.375,0.66192627,0.19439893903225786,-0.70129395,-0.17950635903225806
309.0,0.054699820788530445,-0.24048275089605742,0.010269937275985666,-0.04999999999999995,-9.784677419354832,-0.5700806451612898,-0.01692808339733743,-0.005844374039938555,0.06089989759344598,30.3125,-0.3125,93.33770161290323,0.6621536765322584,0.19436153233870965,-0.7010690034677416,-0.17960332879032256
310.0,0.0522513440860215,-0.24073036674347165,0.008528465821812596,-0.04999999999999995,-9.786532258064513,-0.5664112903225802,-0.059051279281874036,0.00351822516641065,0.03116199436763953,30.3125,-0.3125,93.32963709677419,0.6622161891532261,0.19435759592741939,-0.7010042757661286,-0.17963753875
311.0,0.05306115591397849,-0.23987375192012297,0.012900825652841785,-0.04999999999999995,-9.78326612903225,-0.5830443548387099,-0.09957037250384024,0.01398189484126984,0.04563392057091654,30.3125,-0.3125,93.41431451612902,0.6616548123185486,0.1944998453830644,-0.7015345178830648,-0.17949368768145174
312.0,0.054017757444168715,-0.2392299162531018,0.024388259925558316,-0.04999999999999995,-9.781633064516118,-0.5944651054590571,-0.054460685483870966,0.008639791408188584,0.042571824596774194,30.3125,-0.3125,93.47555055831265,0.6612457992833443,0.19459913301163134,-0.701919716581731,-0.17938078740648272
313.0,0.05515229528535978,-0.23853481699751866,0.03651837779156327,-0.04999999999999995,-9.78081653225805,-0.6020017834987594,0.05274891439205956,0.017223363833746896,0.01844224953473945,30.3125,-0.3125,93.51758297146401,0.6609656885176023,0.19466713196859473,-0.7021758059161758,-0.17930779740423397
314.0,0.056135684543950654,-0.23950957308820214,0.03206822176479435,-0.04999999999999994,-9.780262096774178,-0.6007732371794874,0.06836091705673358,0.01852813475167306,-0.008719273418114144,30.3125,-0.3125,93.51734953344706,0.6610150276433775,0.19465633506199453,-0.7021347255235355,-0.1793223690142352
315.0,0.057675821490337606,-0.23854859857884061,0.03148397905857585,-0.04999999999999995,-9.779999999999985,-0.6016934966914809,0.031241805069930066,0.02047369633055117,-0.005864221464019851,30.3125,-0.3125,93.54378376369934,0.6609179754250925,0.19468484151537224,-0.7022321451877909,-0.17928475678534356
316.0,0.05735062786675689,-0.23960703812316725,0.026104970298518698,-0.04999999999999995,-9.779999999999985,-0.6060231596360628,-0.013407963004737199,-0.0184290172193398,-0.00933622828784119,30.3125,-0.3125,93.55422870140612,0.6608050970421832,0.19469458794014574,-0.7023180385263555,-0.1792709805474098
317.0,0.05327829160087223,-0.23950823370178223,0.018916008722460343,-0.04999999999999995,-9.779999999999985,-0.6080909842845326,0.018311527182494923,-0.013231257989322506,-0.015694789081885856,30.3125,-0.3125,93.5588606286187,0.6607526679950368,0.19469858106188426,-0.7023572327693817,-0.17926537288908967
318.0,0.051857508083314525,-0.23923054364989862,0.015683810812843077,-0.04999999999999995,-9.779999999999985,-0.6090678246484695,0.07418367922400182,-0.012508929242800209,0.010096153846153845,30.3125,-0.3125,93.56081989247312,0.6607559540099255,0.19470000210166166,-0.70237484582886,-0.17926308400782043
319.0,0.052768929994736424,-0.2390605308669826,0.018352658094593587,-0.04999999999999994,-9.779999999999985,-0.6097220843672453,0.05433585231972329,0.03402229490939168,0.006040867734416122,30.3125,-0.3125,93.5625,0.6607558178114146,0.1947021499999999,-0.7023891571910678,-0.17923734137829916
320.0,0.05235220693285208,-0.23766177908113406,0.018615535002631786,-0.04999999999999995,-9.779999999999985,-0.6099999999999997,0.0833869087901346,0.008217723137077975,-0.004873486728325438,30.3125,-0.3125,93.5625,0.6607596035086851,0.1947021499999999,-0.7023925800000008,-0.17921729633431077
321.0,0.05090803819836076,-0.23733513798029945,0.010070080457177236,-0.04999999999999994,-9.779999999999985,-0.6099999999999997,0.05635574103316039,0.014279269117978794,-0.013996353109256336,30.3125,-0.3125,93.5625,0.6607793610260927,0.1947021499999999,-0.7023816004496584,-0.17922254622678396
322.0,0.050307541920445134,-0.23547123843898055,0.0024880066170388754,-0.04999999999999994,-9.779999999999985,-0.6006158357771261,0.06699187908865328,0.0023761185051507623,-0.04675069554101812,30.3125,-0.3125,93.53219696969697,0.6610064111630956,0.19464344165200376,-0.7021560757184755,-0.1792958107820138
323.0,0.05280269193172417,-0.23501594104819928,-0.016804270997819396,-0.04999999999999994,-9.779999999999985,-0.5913880742912996,0.10665557560718851,-0.011349067599067598,-0.027843728851793367,30.3125,-0.3125,93.46719208211144,0.6613004646725322,0.19456206151515143,-0.701884849305963,-0.17936394663734123
324.0,0.054883823606982005,-0.2358303250272438,-0.04063641862871521,-0.04999999999999994,-9.779999999999985,-0.5852101661779074,0.1543362170649123,-0.009831033194056784,-0.019714701924620076,30.3125,-0.3125,93.41807184750732,0.6615869327406954,0.1944802360994148,-0.7016389152499967,-0.17943694193577572
325.0,0.0545510929449302,-0.23376627913893214,-0.049849226684084647,-0.04999999999999995,-9.779999999999985,-0.579262651327167,0.16127170654734446,0.02313969432108575,0.007264237127019988,30.3125,-0.3125,93.37713455898941,0.6618261920775439,0.19441671960057594,-0.7014143001609789,-0.17950709258079112
326.0,0.0557212942730516,-0.23778978668579065,-0.035046802980360996,-0.04999999999999994,-9.779999999999985,-0.5739861643732611,-0.004347040176963149,-0.03612993289810815,-0.039012065209706036,30.3125,-0.3125,93.37255432739303,0.6619264347484493,0.19440144527927125,-0.7013353163292677,-0.17954169064034675
327.0,0.055602582620396745,-0.23805667242402928,-0.026286842350395558,-0.04999999999999994,-9.779999999999985,-0.5724231897135124,-0.04397765009825674,-0.0017831971430912197,0.007650614511471518,30.3125,-0.3125,93.35410463192721,0.6620427982955344,0.19437846128821826,-0.7012248987462567,-0.17957014491939127
328.0,0.05694107625643492,-0.23887926485326594,-0.021266588330623004,-0.04999999999999994,-9.779999999999985,-0.5710014286788482,-0.05220021312341967,0.0019493105193634807,0.015677702172646805,30.3125,-0.3125,93.33177494548463,0.6621793181531435,0.19435475447842007,-0.7010963634811442,-0.17960152418990083
329.0,0.057134476500870335,-0.23872225158888627,-0.019420005768585456,-0.04999999999999994,-9.779999999999985,-0.5703394240168436,-0.026867439253091634,-0.005675561398960532,0.00416769075892812,30.3125,-0.3125,93.32112940822617,0.6622432162816752,0.1943441865531244,-0.7010355433751414,-0.17961601971651991
330.0,0.05733210778949824,-0.23871062575684637,-0.022482091011219573,-0.04999999999999994,-9.779999999999985,-0.5700977517106551,0.03471416743263156,0.0016700770341839186,0.01230923826614727,30.3125,-0.3125,93.31631842619745,0.6622721645552296,0.19433960895894442,-0.7010083098240472,-0.1796222242130986
331.0,0.05809420638741773,-0.23698239010227465,-0.017807516668855147,-0.04999999999999994,-9.779999999999985,-0.5700488758553277,-0.007371044338425177,-0.009413617396886535,-0.005697775783837412,30.3125,-0.3125,93.31341642228739,0.6622657527859237,0.19433680503910084,-0.7010151392375368,-0.1796253264613879
332.0,0.05973913424081936,-0.23682576851811332,-0.018025780189959303,-0.04999999999999994,-9.779999999999985,-0.5700000000000002,-0.05586026976554179,0.0024925774354036265,0.05170992544608337,30.3125,-0.3125,93.3125,0.6622478911454459,0.19433594000000015,-0.7010319482045784,-0.17962551972075091
333.0,0.056484500574052805,-0.23802319330484967,-0.021208130338607,-0.04999999999999995,-9.783890818858552,-0.5653151364764268,-0.026563255794117613,0.03293170679424892,0.07759757494952488,30.3125,-0.3125,93.28867866004963,0.6623414293245838,0.19430346746401994,-0.7009129448293366,-0.17965022505640527
334.0,0.05656515190795401,-0.2382536561496601,-0.024061776612089573,-0.04999999999999994,-9.787106699751856,-0.5558491615910974,0.1019901619805327,-0.004340124047033048,0.014481225723401943,30.3125,-0.3125,93.23656195954582,0.6626520225019792,0.19421421821881343,-0.700616266916135,-0.1797423978165701
335.0,0.056290884849382675,-0.23625781536710777,-0.027243498276719284,-0.04999999999999994,-9.788714640198506,-0.5422794195052263,0.05967054531089196,-0.017000829374445164,0.0025057643768524873,30.3125,-0.3125,93.17775678622452,0.6631022899606672,0.19408606749650334,-0.7002039791032291,-0.1798734456824785
336.0,0.05519334076291224,-0.23460495851444352,-0.031705815609522896,-0.04999999999999994,-9.789518610421833,-0.5354945484622908,0.05415101068086142,0.00017504963340302798,-0.02326141399925704,30.3125,-0.3125,93.13369144296563,0.6633533939221716,0.19402199213534826,-0.6999718691092877,-0.1799389696154327
337.0,0.05452755846304232,-0.23391458004361249,-0.03964523648394616,-0.04999999999999994,-9.789920595533495,-0.532102112940823,0.0932617114068727,-0.00015320700804571756,-0.014827242649823295,30.3125,-0.3125,93.12632152793444,0.6634855380130841,0.19398995445477074,-0.6998492671015861,-0.17997176096563636
338.0,0.05443251372283629,-0.23371411384314625,-0.04984495074817656,-0.04999999999999995,-9.79,-0.5305522971652008,0.10219847356944131,0.004886175652304685,-0.02492292653582976,30.3125,-0.3125,93.12189215354537,0.663548325865103,0.1939749503812314,-0.6997920240371451,-0.1799873699071357
339.0,0.054141965561320386,-0.23367523873975504,-0.05741514399578915,-0.04999999999999994,-9.789999999999997,-0.5300000000000005,0.012304026618542754,0.008476201218136702,-0.021472949093916838,30.3125,-0.3125,93.09016467403563,0.6636029746432062,0.1939697299999997,-0.6997393097458451,-0.17999267999999985
340.0,0.05291164749229264,-0.23270516580194017,-0.06215820738401382,-0.04999999999999994,-9.789999999999996,-0.5300000000000005,0.0072975411685089146,0.013493965711707646,0.005530021054214601,30.3125,-0.3125,93.07532427250169,0.6636210811925705,0.1939697299999997,-0.6997212010019546,-0.17999267999999985
341.0,0.053811639972930286,-0.23419715768102883,-0.06249161591097073,-0.04999999999999994,-9.789999999999996,-0.5300000000000005,0.02393225054515377,0.006487329874426648,0.01918424317617866,30.3125,-0.3125,93.06836228287841,0.6636293438709672,0.1939697299999997,-0.6997048236265884,-0.17999267999999985
342.0,0.05314941870839799,-0.23312329397452192,-0.057532118339051405,-0.04999999999999994,-9.789999999999996,-0.5300000000000005,0.008505605291835432,-0.005904144403181474,-0.008657675978330767,30.3125,-0.3125,93.06442307692308,0.663633281290322,0.19396972999999967,-0.6996734429423268,-0.17999267999999985
343.0,0.05408587560730073,-0.23330072511343597,-0.05495156183889935,-0.04999999999999994,-9.789999999999996,-0.5300000000000005,-0.04831505959936388,0.00028313345296975554,0.020116609036926802,30.3125,-0.3125,93.0625,0.6636352499999993,0.19396972999999967,-0.6996577526001961,-0.17999267999999985
344.0,0.05307421835105994,-0.23393530879327717,-0.05428663135933237,-0.04999999999999994,-9.789999999999996,-0.5300000000000005,-0.007906307903298753,-0.0073578223253235285,0.0074312272946119836,30.3125,-0.3125,93.0625,0.6636352499999993,0.19396972999999967,-0.6996508919452598,-0.17999267999999985
345.0,0.051276681110576136,-0.23340197837790536,-0.06113326330225703,-0.04999999999999994,-9.789999999999996,-0.5300000000000005,0.030184944048088004,-0.004916765147867699,0.005137435987219329,30.3125,-0.3125,93.0625,0.6636352499999993,0.19396972999999967,-0.6996474616177915,-0.17999267999999985
346.0,0.05151543657754537,-0.23375448945213045,-0.061487715943180525,-0.04999999999999995,-9.79,-0.5303176178660054,-0.04859159256727866,-0.017842997958549236,0.029871522715769226,30.3125,-0.3125,93.06647022332507,0.663619256749379,0.19397312239702208,-0.6996634470669982,-0.1799892873647641
347.0,0.054766421670128934,-0.23525793433015407,-0.045382760234469424,-0.04999999999999995,-9.79,-0.5353200992555829,-0.08479656477369525,-0.026005356984533677,0.047269286042155564,30.3125,-0.3125,93.12900124069479,0.6633437385359798,0.19403443006947885,-0.6999382383722088,-0.17992797981141434
348.0,0.05269958800628033,-0.23344620906296418,-0.038359513059561215,-0.04999999999999995,-9.79,-0.5378213399503717,-0.004581529247513837,-0.004176591944406099,0.020901119823844908,30.3125,-0.3125,93.16026674937964,0.6632059794292802,0.19406508390570726,-0.700075634024814,-0.1798973260347394
349.0,0.05290367023443575,-0.2341907336765307,-0.032681974741676244,-0.04999999999999995,-9.79,-0.5390719602977662,0.0017022517684530192,-0.013273582459908891,0.0209640383689493,30.3125,-0.3125,93.17589950372208,0.6631370998759305,0.19408041082382144,-0.7001443318511167,-0.17988199914640196
350.0,0.052808933002481365,-0.23427295285359817,-0.03422332506203474,-0.04999999999999995,-9.79,-0.5396972704714633,0.004745657568238214,-0.0036290322580645167,0.0,30.3125,-0.3125,93.18371588089329,0.6631026600992556,0.19408807428287855,-0.7001786807642679,-0.17987433570223327
351.0,0.051535980148883345,-0.23545657568238226,-0.033049627791563285,-0.04999999999999995,-9.79,-0.5399999999999994,-0.002714019851116625,0.0021944789081885852,0.0021557071960297764,30.3125,-0.3125,93.1875,0.66308594,0.19409180000000015,-0.7001953099999999,-0.17987061
352.0,0.05254714640198509,-0.23762406947890835,-0.036686104218362284,-0.04999999999999995,-9.79,-0.5399999999999994,0.050162841191067,0.043327388337468985,-0.003388647642679901,30.3125,-0.3125,93.1875,0.66308594,0.19409180000000015,-0.7001953099999999,-0.17987061
353.0,0.05300806451612902,-0.23561104218362294,-0.029261166253101746,-0.04999999999999995,-9.789920595533498,-0.5407146401985106,-0.040566842431761785,0.02485848325062035,-0.0065950682382133995,30.3125,-0.3125,93.18998138957815,0.6630646154540942,0.19409713097766765,-0.7002156651761786,-0.17986430941439208
354.0,0.05559907699827053,-0.23906042747575007,-0.03670344574780059,-0.04679374389051805,-9.787692458079551,-0.5491158733739376,0.05973340335739529,0.005943321631325664,-0.05836417446800511,30.334494134897362,-0.28806207233626585,93.22393131062485,0.6628075092812995,0.19404530185247018,-0.7004680059849614,-0.17991709708745018
355.0,0.03981561197789532,-0.2356932817723923,-0.03355067846813754,-0.03137231729913481,-9.786997408625712,-0.5565752693783503,0.06678431584113607,0.08183864722357366,0.012068005355160814,30.501157154112136,-0.19050732408339532,93.25819519310733,0.6623180931144099,0.19402905457572953,-0.700712974583718,-0.1807890725711685
356.0,0.027151055011430558,-0.23665086253820014,-0.03931550907766603,-0.025202287681825475,-9.788498704312854,-0.5410149074164479,0.03116887926709785,0.017837414551425144,-0.0028581573297509714,30.54074842065333,-0.15424070994003589,93.16126401884105,0.6628103623636562,0.19366187753224412,-0.7002465168764138,-0.18117275491217272
357.0,0.021761631724077565,-0.23499540645520436,-0.04053120367034667,-0.022117272873170807,-9.789249352156428,-0.5348697365866362,0.02445540737548441,0.0016606427595835388,-0.017697689086711713,30.55565646839118,-0.10880459814619658,93.10986588038827,0.6630741589237641,0.19340430715321896,-0.7000270557707133,-0.18137223213350567
358.0,0.018326225291319186,-0.23397288933182064,-0.03974699141333711,-0.020574765468843473,-9.789627157467791,-0.5322512454645342,0.06061480046193575,-0.009862916833607733,-0.0006292415656883633,30.563110492260105,-0.08162004100858217,93.08408926773755,0.6632067235958775,0.19327535537065427,-0.699921535173198,-0.18147216763747237
359.0,0.01887742163416213,-0.23408240426186994,-0.04661463986716753,-0.019903707270101115,-9.78988444872412,-0.5306906276198529,-0.03364141976623921,-0.01034998702081634,0.0090765257050765,30.566150187479025,-0.06879144767926665,93.07017879809165,0.6632807073038043,0.19321258243606038,-0.6998612072737938,-0.18152038732802256
360.0,0.017802689693818735,-0.23405081611936462,-0.05263460822331788,-0.02000000000000001,-9.79,-0.5298084818407404,-0.03180411658234239,-0.01378688795523473,0.014012063205611592,30.562805474095796,-0.06504389427776525,93.06268328445748,0.6633289761290331,0.1931808938660804,-0.6998273308805176,-0.18151807274682297
361.0,0.01800447290165033,-0.23440321842136375,-0.05341896589074008,-0.02000000000000001,-9.79,-0.5299702233250625,-0.019857947831738155,-0.0016392895299145293,0.0032487002245066756,30.5625,-0.06277915632754343,93.0625,0.6633300800000008,0.19317627000000023,-0.6998287971215884,-0.1815185499999999
362.0,0.01633840565796212,-0.23492999551971344,-0.050778449820788524,-0.02000000000000001,-9.79,-0.5300000000000005,-0.034832229262672806,-0.005753868247567844,-0.009128584229390679,30.5625,-0.0625,93.0625,0.6633300800000008,0.19317627000000023,-0.6998291000000003,-0.1815185499999999
363.0,0.018731686569875963,-0.23366581396693276,-0.048494551393224644,-0.02000000000000001,-9.79,-0.5300000000000005,-0.024588412368068975,0.011501703850981947,-0.014701844143831657,30.56458116545265,-0.0625,93.06458116545265,0.6633214423309061,0.19318236706555691,-0.6998341809573363,-0.18152464739854307
364.0,0.022293567890081946,-0.23461978318969745,-0.04840202775459018,-0.015870967741935492,-9.79,-0.5315086848635238,-0.02228475327135577,-0.005487528869341435,0.03905918663657997,30.59778375890499,-0.06647022332506203,93.10076142639878,0.6631212394781081,0.1932951492424559,-0.6999474715059633,-0.18164615572160397
365.0,0.0225663948001357,-0.2354716939501995,-0.050123952945395456,-0.01817741935483872,-9.79,-0.5328511166253105,0.06187029617538201,0.04986760269282544,0.06153228149033299,30.59576687945249,-0.09271091811414392,93.11036055190907,0.6630578123196993,0.19339764905671172,-0.6999960832529817,-0.18157251003822136
366.0,0.0205069877226485,-0.2335448187492934,-0.05314413373076224,-0.015137096774193556,-9.79,-0.5262642679900744,0.030053091636078104,0.040417042273832075,0.08079134235806973,30.611391504242377,-0.07760545905707196,93.08189398563195,0.6632416891437203,0.1932879438831947,-0.6998298996103616,-0.18167154292233656
367.0,0.01828984818800116,-0.23184921429016137,-0.051687274238653005,-0.012407258064516136,-9.79,-0.524363572807121,-0.06408251716199166,0.017808367527085006,0.05150038188051975,30.619203816637317,-0.07005272952853597,93.07834138605713,0.663269881212925,0.1932446075867587,-0.6998089988323183,-0.18170855806383088
368.0,0.0177583476111702,-0.237014617550908,-0.04082802837843161,-0.011042338709677425,-9.79,-0.5414559799519475,-0.096882569715231,-0.002623521751545947,0.011946210711331678,30.623044936414395,-0.06627636476426799,93.16712985015656,0.6626662706142668,0.1933854789052419,-0.7003696842652747,-0.18155872800434003
369.0,0.020664195235767825,-0.23811006086207703,-0.030736970802495003,-0.009863300342130992,-9.789999999999997,-0.5452214105339106,0.04675008291439743,-0.006331405209933436,-0.11034297104105571,30.635690638746333,-0.05986528592375366,93.18012293695887,0.6625201013117201,0.1933345305200696,-0.7005038678187039,-0.1815987063997187
370.0,0.039028708970241244,-0.23736861603897896,-0.04629105829206636,-0.02516726586585457,-9.79,-0.5138826500560374,0.19033766552667764,0.026957979156819883,0.11273619903282203,30.53806113241597,-0.15459339048048726,92.98443351213638,0.6638254756991295,0.19359686249138575,-0.6992393800513725,-0.18141063548037262
371.0,0.04897503996899159,-0.23341465076142492,-0.05828917833958158,-0.03859421761034662,-9.79,-0.4921026153505991,0.042276947682693654,0.008454418005829297,0.11327649165350778,30.45249830814347,-0.23757895330475975,92.86786254739883,0.6647349666071253,0.19390582532331385,-0.6983481160060292,-0.18116040443373457
372.0,0.04764733534700733,-0.23593908516856282,-0.05653008870743283,-0.036930714967908035,-9.789999999999997,-0.48728847819749627,0.013042433306692908,0.017306732659592854,-0.0332500144845926,30.47471448868897,-0.21888877853008812,92.84654920363499,0.6648666503704939,0.19377245410845512,-0.6982255295250515,-0.18131007322434906
373.0,0.04188636153206446,-0.2360335934527678,-0.04683068486240127,-0.02862664780653467,-9.79,-0.49938427476872344,-0.1224642730333781,0.017436613072972607,-0.011717477775795057,30.534968906875502,-0.17295245378117308,92.92023489958424,0.6642994343480493,0.19361088788316674,-0.6987522718710477,-0.1815386378891596
374.0,0.03377798037502539,-0.2374840499033145,-0.033860112714680604,-0.024494164567978968,-9.789999999999997,-0.5197116877264923,-0.06028516681971936,0.009863834395723841,-0.018398450520351096,30.579617884522797,-0.1501217547498241,93.04794125233366,0.6634996011916201,0.19369726270013654,-0.6994846070498931,-0.18156096305992683
375.0,0.027335640311582178,-0.24062291825190538,-0.017763803255603332,-0.021926983028406365,-9.79,-0.530835992746621,0.17697590294249763,0.07490710330208028,-0.009028629726676788,30.6101718454872,-0.1356222917669716,93.12150474527353,0.6630573085288125,0.19375646773468358,-0.6998781242594382,-0.18160400492946718
376.0,0.021731038019916216,-0.23649204013768296,0.01961508945235473,-0.02046701974000964,-9.789999999999997,-0.5050798365492637,0.009496646027700437,0.0620332383873549,-0.034689427888753836,30.65387624532425,-0.12728695233509868,92.96441586619126,0.6639436044360062,0.19366827032674422,-0.6989189700901447,-0.1821658586476056
377.0,0.022459163689784782,-0.23711939512902447,0.03418404930008202,-0.02000000000000001,-9.787457871930659,-0.5332308186116563,-0.3627588989408922,-0.021387689905985524,-0.040063779904896894,30.673697270471465,-0.125,93.12211826049091,0.6628937668978299,0.1940168560661164,-0.6998523996719381,-0.1820136902867301
378.0,0.02582263395407354,-0.24084257597642292,0.034759518446567064,-0.02000000000000001,-9.78356764564274,-0.5751662777921804,-0.21301716659203418,-0.01840166133016398,-0.03704491724773381,30.682071960297765,-0.125,93.36375764141171,0.6614342276350196,0.19443589337797146,-0.7012000025158691,-0.18167020611855117
379.0,0.02456779490770826,-0.23940613647306003,0.03121576193025399,-0.02000000000000001,-9.781622532498782,-0.5854492190524931,-0.010849135217214173,-0.004268598918334114,-0.035884431328581545,30.68579404466501,-0.125,93.44206520690031,0.6609937865203444,0.19456615231309266,-0.7016155119281732,-0.1815807034482897
380.0,0.024554368917873985,-0.23607279528367647,0.02694038716860095,-0.02000000000000001,-9.780649975926803,-0.5972630710647081,-0.22000273138031923,-0.022218046357430084,-0.03796392782309971,30.6875,-0.125,93.51486014687447,0.6605336425976414,0.19469350310939998,-0.7020490726142106,-0.1814653746645915
381.0,0.029747858945740516,-0.23675340643949228,0.024032265920566363,-0.02000000000000001,-9.780163697640813,-0.6240420927171049,0.15107207028246988,0.00767763371278056,-0.02151739890666227,30.6875,-0.125,93.66232071371094,0.6596057367631412,0.19492658802097562,-0.7029254436922472,-0.1811807780629898
382.0,0.032787878787878796,-0.2382564102564103,0.023012106173396503,-0.01796676441837733,-9.779999999999985,-0.6201121888863828,0.09876118505150763,0.003997481013610046,-0.08865140236107978,30.700207722385137,-0.11180351906158358,93.63136889991728,0.6597137904307091,0.19483783208105862,-0.702815122478081,-0.18130567032634023
383.0,0.0233046093691255,-0.2409644334160464,0.026377020828633746,-0.013822091886608021,-9.779999999999985,-0.6254754492819012,0.009306150838408904,-0.019108579592450558,-0.006577562222723515,30.7261119257087,-0.08614369501466275,93.65709263854424,0.6594296241756528,0.19481960648966068,-0.7030498174971056,-0.18142516555771102
384.0,0.021756523046845635,-0.24202315963606297,0.03412647567486278,-0.01174975562072337,-9.779999999999985,-0.628318369802241,0.007118956312504701,-0.00822054289796225,-0.021589029250319577,30.73906402737048,-0.07331378299120234,93.67516542597187,0.6592499198297623,0.1948244425624481,-0.7032004699619528,-0.18147225154808622
385.0,0.02128272802466352,-0.24239371381306873,0.038705917738175805,-0.010713587487781041,-9.779999999999985,-0.6295313933378452,-0.011778611173772465,-0.008018460034589066,-0.010670445146251598,30.74554007820137,-0.06689882697947214,93.68314722911497,0.6591680492275367,0.19482489171298573,-0.7032687536931358,-0.18149797543409268
386.0,0.020250394766523808,-0.24306714790585765,0.04122941574554477,-0.010195503421309877,-9.779999999999985,-0.6295164298067526,0.03714752988946537,-0.01107179111211369,-0.01664269869915031,30.748778103616814,-0.06369134897360704,93.68385733889767,0.6591788515370332,0.1947884274913903,-0.7032519157395303,-0.18151740597706584
387.0,0.01662034739454095,-0.24479404466501248,0.047483870967741926,-0.010000000000000005,-9.779999999999985,-0.6398560794044663,-0.16690446650124072,-0.00846774193548387,-0.012810173697270472,30.75,-0.0625,93.74680521091811,0.6588576717022334,0.19486832057568243,-0.703564089955335,-0.18143049775682382
388.0,0.018093848375986085,-0.24102788785600537,0.07025139809636678,-0.004992778045257585,-9.779999999999985,-0.6547208621902891,-0.11442307692307693,-0.04786165327210103,-0.032122884337617126,30.781776600866635,-0.030723399133365432,93.83042063256917,0.6582909175646087,0.1947620005556831,-0.7041007937684529,-0.18152075596096445
389.0,0.013489664243636325,-0.24500247690040663,0.08826074679613438,-0.0023350987000481474,-9.779999999999985,-0.6831033440961223,-0.15660012030979772,-0.04157266060852965,-0.028179834529136406,30.798146364949446,-0.014353635050553683,93.98281173368439,0.6572752638605053,0.1948833179024751,-0.705043286683835,-0.18136787335193888
390.0,0.01117764661914879,-0.2473100210654376,0.09630715360710546,-0.0010062590274434284,-9.779999999999985,-0.6978419946287067,-0.08446029776674938,-0.017225442267570338,-0.0028329618543869867,30.80633124699085,-0.006168753009147809,94.0609623184551,0.6567478527515921,0.19494827217704408,-0.7055302841483687,-0.1812857045791954
391.0,0.010988327031658765,-0.2480445886964905,0.10137442047600932,-0.000341839191141069,-9.779999999999985,-0.7052113198949989,-0.022487593052109178,0.012928842141649072,-0.023392287378806394,30.810423688011554,-0.0020763119884448723,94.10003761084045,0.6564831778274085,0.19498173383045758,-0.7057747673967646,-0.18124462019282364
392.0,0.009183388269570266,-0.24673580664240272,0.10637568305550973,-9.629272989889263e-06,-9.779999999999985,-0.7085882902204526,-0.031363260395518455,0.0011811290939841724,-0.024186744486455608,30.812469908521905,-3.0091478093403947e-05,94.1177142148495,0.6563605332933564,0.19499558702192862,-0.7058874827033448,-0.18122684951080403
393.0,0.009596435822242278,-0.24567666741860295,0.1055219189412738,0.0,-9.779999999999985,-0.7099657869012714,0.017095740281224153,0.007839875178584857,-0.009859763892021955,30.8125,0.0,94.12487781036168,0.6563122630694028,0.19500705152492684,-0.7059316355620716,-0.1812137379667647
394.0,0.009651627941950527,-0.24658741258741262,0.10372479133769458,0.0,-9.779999999999985,-0.7100000000000006,-0.029542634784570268,-0.010418546507256186,-0.02041365892172344,30.8125,0.0,94.125,0.6563110399999992,0.19500732000000015,-0.7059326199999992,-0.18121338000000026
395.0,0.009520415068802168,-0.24441266260621103,0.09848830739153319,0.0,-9.779761786600481,-0.7103176178660056,-0.09793217535153019,-0.008293856680953456,-0.021972516730581246,30.8125,0.0,94.1279776674938,0.6562979542233243,0.19501071271464035,-0.7059457052208431,-0.18121047197022355
396.0,0.010616286938867587,-0.24389367621625693,0.08607045642529512,0.0,-9.778848635235715,-0.7042034739454099,0.01835711331679074,-0.0067989134521392585,0.0031111361756523057,30.82143300248139,0.0,94.10018610421835,0.6565056228287838,0.1949547365756824,-0.7057627502630267,-0.1812754135880894
397.0,0.008626814046168885,-0.24381389578163776,0.06965546281675312,0.0,-9.779424317617849,-0.6864565756823824,-0.06772454695841792,0.0075212421986615525,0.05033978118655538,30.8458032558839,0.0,94.00555492894202,0.6571209415414692,0.19475622062410708,-0.7052004601070753,-0.18149832148612677
398.0,0.005598842018196857,-0.24288446499736827,0.07677543424317618,0.0,-9.779712158808916,-0.6872605459057075,-0.0862663546131288,-0.005495244003308518,0.015043424317617867,30.82915162794195,0.0,94.02243472253554,0.6570684164158959,0.19483648805398912,-0.7052554570696666,-0.18143066711403116
399.0,0.006375103391232423,-0.24497324986841118,0.07700062034739452,0.0,-9.779856079404452,-0.6929131513647644,-0.02993528648770584,-0.016178143093465675,0.04275744416873449,30.820825813970973,0.0,94.06627319253327,0.6568724372501313,0.19491657304932716,-0.7054292576713096,-0.18133074701110996
400.0,0.007794251447477254,-0.24325337431385824,0.07207227047146401,0.0,-9.779935483870952,-0.6861240694789086,0.02544023516805775,-0.0034597291149710517,0.040888647642679896,30.816662906985485,0.0,94.0154024151252,0.6571375235233284,0.1948683192926538,-0.7051819108096005,-0.18138240986535645
401.0,0.007678763440860216,-0.24363413132566364,0.0666738523573201,0.0,-9.779999999999985,-0.6776029776674946,0.03640187937062937,-0.003652941480562448,0.012085142679900743,30.8143022971652,0.0,93.97424897431198,0.6574425385184879,0.1948135081475677,-0.70490123506485,-0.18145341804185933
