time,linaccel_x,linaccel_y,linaccel_z,gravity_x,gravity_y,gravity_z,gyro_x,gyro_y,gyro_z,euler_x,euler_y,euler_z,quaternion_w,quaternion_y,quaternion_x,quaternion_z
0.0,-0.03975000000000002,0.11925000000000001,-0.04675000000000003,-0.62525,1.5812499999999994,9.649999999999995,0.1265625,-0.0609375,-0.1046875,67.875,-3.6453125,-9.3171875,0.8263458252500004,-0.018634033499999998,0.0853912345,-0.55633697425
1.0,-0.04525000000000002,0.12391666666666667,-0.04775000000000003,-0.6172500000000001,1.5837499999999998,9.651833333333336,-0.16510416666666666,0.07552083333333333,0.04531249999999999,67.875,-3.6046875,-9.302604166666665,0.8263458255833336,-0.019016520333333335,0.08516642249999998,-0.5563542672499999
2.0,-0.05682142857142858,0.12325,-0.04517857142857145,-0.6218214285714284,1.5758928571428572,9.652357142857142,-0.15468749999999998,0.10558035714285713,0.03638392857142857,67.875,-3.636830357142857,-9.236830357142857,0.8264208109642861,-0.018555561142857134,0.08485805078571423,-0.5563199705357142
3.0,-0.06198333333333334,0.11511666666666667,-0.04655000000000002,-0.6261833333333333,1.567816666666667,9.651099999999996,-0.15135416666666668,0.050104166666666665,0.0378125,67.85166666666666,-3.663854166666667,-9.210520833333334,0.8264654555166668,-0.018170981466666666,0.0848453782333333,-0.5562606783833335
4.0,-0.06508870967741937,0.11337903225806453,-0.04523387096774196,-0.6268629032258066,1.5637822580645169,9.650532258064512,-0.07081653225806452,-0.003981854838709678,0.03684475806451613,67.83145161290322,-3.667993951612903,-9.198639112903226,0.826502944282258,-0.018094169225806447,0.08477743914516125,-0.5562055494112905
5.0,-0.07054996066089694,0.12110759244689223,-0.042508064516129054,-0.6280045239968528,1.5597859952793076,9.652280291109365,-0.10039216168371361,0.010006884343036978,0.011456284421715184,67.83198269079465,-3.6532503933910307,-9.17917609166011,0.8265451317023997,-0.018008898423485437,0.08461945217112507,-0.5561782737047599
6.0,-0.06572029897718333,0.11994944925255704,-0.04414221085759247,-0.6074942958300551,1.5540767112509835,9.656257081038557,-0.0774390243902439,-0.3608084185680566,-0.1087222167584579,67.84798387096774,-3.539859116837136,-9.142260031471281,0.8265347223988986,-0.018657736043469708,0.08373760248347756,-0.5563132754110935
7.0,-0.052203083436364324,0.10567537746806038,-0.045705322018657984,-0.46902345359859127,1.5460629331984563,9.663898317785023,-0.23911553754074405,-1.885235718500618,-1.0003084490090293,68.34152265745007,-2.73161950657525,-9.086539001910756,0.8242542417140422,-0.024612158008870032,0.07921233072560975,-0.5599815109405699
8.0,-0.03608886890712225,0.09091142145292422,-0.024417369150650035,-0.30496487580083176,1.6131115357236518,9.659652691918627,1.3175522062680303,-0.8904157183132891,-2.647481653459968,69.35781490015361,-1.7779161280956126,-9.480337473305608,0.8190880513412762,-0.03417709445816004,0.07702660290139934,-0.567162598455884
9.0,-0.04349143906185606,0.06872241579558654,-0.02698287812371212,-0.4154183057959612,1.8179536173241917,9.61660821999925,0.2969493462215728,1.3943838747143231,-0.20680894308943087,71.05366743471583,-2.427276516428759,-10.70258233112285,0.8097059797950619,-0.03690740397811996,0.08847048495972423,-0.5784997749376193
10.0,-0.03430144992694167,0.045314150837360914,-0.029804803117155602,-0.6642917088157057,1.8759443258027049,9.589493087557601,0.2134216589861751,-0.8300340002247949,-0.02709714885167286,71.01568880896183,-3.888436176988498,-11.065993687010604,0.8093923023236296,-0.02810088909819789,0.09839179549810796,-0.5778401598767375
11.0,-0.01445468509984639,0.03695852534562213,-0.030015360983102927,-0.4367050691244239,1.9327035330261138,9.59267281105991,0.012480798771121335,-0.5480510752688172,-0.1114151305683564,71.60066244239631,-2.5540034562211984,-11.381432411674346,0.8065085231413209,-0.03972226138248847,0.09372234175883257,-0.5820359841781875
12.0,-0.003316848375857031,0.02542355100970365,-0.029353527406241815,-0.3857127870817877,1.9491129968903382,9.595192012288791,-0.10544050428983553,0.12222284665242966,0.07218608332396687,71.85815677569218,-2.251397943126897,-11.48360987786145,0.8052869655355737,-0.04255675997995577,0.09280159761623767,-0.5838643380793149
13.0,-0.01753400022479487,0.021667228653853364,-0.03045633359559403,-0.39408527218912737,1.9532316136525427,9.596705069124429,-0.14978246412648458,0.08943323592222095,0.15694077591697575,71.89898046157882,-2.301438218875276,-11.5007095088232,0.805078715847664,-0.04237556596924056,0.09323147537109888,-0.5841909984828217
14.0,-0.0276794425087108,0.024114720317710094,-0.03422816679779703,-0.3771547712712149,1.9269330111273468,9.602353302611373,-0.28294134727061554,-0.08048499494211532,0.051612669064478665,71.78424445505976,-2.2096668820950884,-11.33843079127796,0.8058073688040165,-0.04217210563976621,0.09167266356266157,-0.5834810336446365
15.0,-0.033047693979243946,0.03229545539695029,-0.03408216252669441,-0.3659669551534225,1.9158788355625491,9.60677273238171,-0.09072440148364616,0.25452212356224946,0.0950273500430857,71.75205218987674,-2.1429367577085907,-11.259418436926305,0.806009890065153,-0.04227297017713835,0.09085726115199877,-0.5833536182869508
16.0,-0.031158255591772516,0.0440279120302724,-0.03615859278408454,-0.32651650369038243,1.9145891873665275,9.60677576711252,-0.010127945749503584,-0.22548471394852196,0.015198006818777872,71.83811326851747,-1.912779822786707,-11.26170806638942,0.8056267899811173,-0.04395496091038177,0.08962605253913303,-0.5839438801473154
17.0,-0.0315523772057997,0.054008448540706626,-0.03322013038102733,-0.3076634446067962,1.9123882207485656,9.608549173878846,-0.10944044809111686,-0.07346226256041362,0.0924288617886179,71.84144058390467,-1.7983303126522048,-11.250916975759619,0.8056392748339891,-0.04465430264480537,0.08894741817043197,-0.5839800902215728
18.0,-0.03339673485444532,0.0465753343823761,-0.03222797010228168,-0.3272285601888276,1.900123524783634,9.609561762391827,-0.29856412273800154,0.21882376081825333,0.21919994099134543,71.71953063532652,-1.9075961349331236,-11.179315007867821,0.8062828340456335,-0.04340412982985839,0.08905213717820613,-0.583166908262785
19.0,-0.026274980330448464,0.04375137686860742,-0.03369866247049569,-0.3569449252557041,1.8899327301337525,9.61008733280882,0.0019276160503540474,-0.03121311959087332,-0.11887785208497244,71.64850019669552,-2.082049075531078,-11.116320810385524,0.8066716857163652,-0.0417983082899292,0.08952551772619985,-0.5826715340023603
20.0,-0.02607218725413061,0.0329724626278521,-0.03333477576711252,-0.37273131392604253,1.8890733674272222,9.610047600314722,-0.20310287175452402,0.1419957218725413,0.10929140440597955,71.61709529897718,-2.18414019472856,-11.115644669551532,0.806839328802321,-0.04107696929602675,0.09005220371833203,-0.5824189760153424
21.0,-0.023032061369000788,0.029663650668764766,-0.03153835562549175,-0.3795753343823761,1.882935877261998,9.610080251770269,-0.1638498229740362,-0.08074105035405194,0.031561024783634935,71.59841660110149,-2.2215811860739576,-11.07677394767899,0.8069630023487412,-0.04062365296656176,0.09001048923013376,-0.5822859521044453
22.0,-0.019706136900078677,0.037741935483870975,-0.02988394964594808,-0.38576711250983475,1.8858693941778126,9.610166011014957,-0.009311073957513766,0.20826367033831628,0.10430025570416994,71.58132867820615,-2.2510818253343823,-11.091815007867819,0.8070480127785208,-0.04042411424665618,0.09027597659244688,-0.5821345416514555
23.0,-0.027609166011014947,0.030249409913453984,-0.02889004720692369,-0.4031369000786782,1.8927128245476,9.60685326514556,-0.09537150865460266,-0.10952866837136113,0.041853117623918176,71.52039486624705,-2.350122934697089,-11.138344561369001,0.8072729621186072,-0.03993676569217152,0.09115578308143193,-0.581721587531471
24.0,-0.021227970102281668,0.031503737214791515,-0.032328088119590884,-0.392503933910307,1.8943483477576708,9.608418568056655,-0.12316458497246262,-0.03417461644374508,0.06192958300550748,71.48953211054288,-2.2887207415420927,-11.146465627458694,0.8074670027407551,-0.04036340336624705,0.0908979230649095,-0.5814720366205739
25.0,-0.018706726986624705,0.03448170731707319,-0.03201888276947287,-0.3868971282454761,1.8951620771046414,9.609209284028331,0.0028078284815106283,-0.017414929189614476,-0.030829563335955937,71.4546198859166,-2.2510892014162076,-11.154407208890637,0.8076184378381193,-0.04062311433634933,0.09080472773406766,-0.5812599660723838
26.0,-0.02270416994492526,0.043511014948859186,-0.03397718332022032,-0.39952517702596385,1.895484264358772,9.608056254917395,-0.13055173092053501,0.1157380999213218,0.0321154602675059,71.45568695908733,-2.336179681353265,-11.15792437057435,0.8076517265279307,-0.040043411047206934,0.09119010056058222,-0.5811903791329659
27.0,-0.025661290322580646,0.04423387096774196,-0.037306451612903246,-0.4029112903225808,1.891072580645161,9.609024193548395,-0.11985887096774193,-0.028981854838709686,0.04546370967741935,71.46617943548387,-2.3557963709677416,-11.131199596774195,0.8076012894677416,-0.03980491417741936,0.09110845726612904,-0.5812876543225806
28.0,-0.02736428009441385,0.04112824547600317,-0.03544787568843431,-0.3966294256490954,1.8940377655389455,9.609612903225814,-0.02774390243902439,-0.03638867033831629,-0.05972905192761605,71.48760326514554,-2.3101273603461845,-11.149984018489377,0.8074670295914633,-0.040214421181549956,0.09102146954838711,-0.5814523412926829
29.0,-0.029301730920535018,0.04193587726199845,-0.0364077498033045,-0.3872753737214794,1.8938184500393391,9.609806451612911,-0.14383359559402045,-0.016338021243115657,0.07135867427222659,71.48496508654603,-2.25445269472856,-11.1480785306845,0.8074979195043274,-0.04059511744354838,0.09071128479642017,-0.5814362533715578
30.0,-0.02679641077516766,0.03917300775542319,-0.03698517290472445,-0.41863653478700696,1.9363018901502382,9.598720430107528,0.2980044771645873,0.7528164924506388,0.043587843280506536,71.50521295801956,-2.4478652682552173,-11.404008783391404,0.8071729616488612,-0.04053324074116743,0.09346404203511484,-0.5814422655530984
31.0,-0.03545926529541793,0.03177794012963171,-0.034014283840995106,-0.5878157712337493,1.9557083567494662,9.583763440860213,-0.1478895624929752,1.047025565733768,0.12555496234685848,71.2966312965981,-3.4361230143119403,-11.525879919729498,0.8079260959052679,-0.033879826336789556,0.09939054586682775,-0.5797752580451744
32.0,-0.02862882619609606,0.031163163613202958,-0.03171278708178789,-0.706847401745907,1.969100146116668,9.572752688172042,0.02930622681802854,0.32195028286688393,0.03435006181859053,71.19703036604099,-4.13141836199468,-11.615283709864748,0.8082123992187631,-0.02925889929339478,0.10355594297373645,-0.5789090289137162
33.0,-0.025549660934397367,0.03322910344310817,-0.03155662957551236,-0.7583804278595782,1.9634249747105763,9.570227642276418,-0.10820782286163874,-0.0631593982990521,0.03942621108238732,71.11393119403544,-4.430358079502454,-11.590514592933948,0.8085969855810573,-0.026892906224195427,0.1049352708259713,-0.5782771948187779
34.0,-0.026085609381439438,0.0523171481023566,-0.02730545876887341,-0.7032862013412763,1.9522018657974591,9.577984788880142,-0.041102337866696634,-0.27116958900003746,-0.08590255142182758,71.16209934996814,-4.110345247461691,-11.514671143831254,0.8084825408204261,-0.028881610207298337,0.10278773176939793,-0.5787331832292159
35.0,-0.018977520512532316,0.05047424225394329,-0.02969497208796974,-0.6833873403019743,1.9542914090892056,9.578857985837919,-0.19023242853396277,-0.3182412845153797,0.05040509909707391,71.17423803903938,-3.993431072271552,-11.511459035817316,0.8084508666974632,-0.029768814089056232,0.10220425997379268,-0.5788489916783562
36.0,-0.0213021243115657,0.046249409913453984,-0.030215381589299775,-0.6539164044059795,1.9494583005507469,9.582687057435086,-0.2276430959874115,-0.14390366837136112,0.031591758457907154,71.15163994885916,-3.8223347757671124,-11.480206284421715,0.8086143721951217,-0.030832738773406768,0.10109814094158144,-0.5787629483261214
37.0,-0.020876868607395755,0.03539889850511409,-0.03153107789142409,-0.6308815892997639,1.9385436664044056,9.586774980330443,-0.08635178992918963,-0.09541453579858378,0.10294305664830841,71.14744295830056,-3.686167387883556,-11.417749311565697,0.8087092491298189,-0.031461010725413054,0.09997066337804877,-0.578798003058222
38.0,-0.02633064516129032,0.03570967741935485,-0.037580645161290324,-0.5945887096774194,1.941983870967742,9.588854838709672,-0.17565524193548385,-0.2858366935483871,0.03472782258064516,71.23991935483872,-3.472883064516129,-11.439465725806452,0.8082869504193546,-0.033165617999999994,0.09899656225,-0.5794524656612905
39.0,-0.021637096774193548,0.03878225806451614,-0.03608870967741937,-0.6149758064516131,1.9332580645161292,9.589225806451607,-0.06471774193548385,0.23472782258064512,-0.005241935483870971,71.22691532258064,-3.5962701612903225,-11.391028225806451,0.808372743169355,-0.03203715685483871,0.09928126145967742,-0.5793469334919357
40.0,-0.01817407553107789,0.041775767112509854,-0.03577753737214792,-0.5790037372147916,1.946047993705743,9.589396538158923,-0.037647521636506684,-0.10033069433516917,-0.057471970889063737,71.33215479937057,-3.3806144276160506,-11.463408487411487,0.8078460430955943,-0.03402161318961448,0.09868653045318646,-0.5800596270595988
41.0,-0.015619590873328086,0.03494708890637295,-0.034387293469708896,-0.6007535405192761,1.945075334382376,9.587119197482291,-0.14342053501180171,-0.15908856215578285,-0.027464840676632574,71.30799198465775,-3.509893784421715,-11.454897718332022,0.8079611338200235,-0.033069333567466566,0.09933524132454757,-0.5798558341276554
42.0,-0.005968528717545244,0.035453579858379235,-0.0388212037765539,-0.48873859166011013,1.9395639260424862,9.592839693154993,-0.2937536880409126,-1.286322285601888,-0.45309303697875686,71.71346503737215,-2.858374311565696,-11.4158868509048,0.8059930107370181,-0.037842294658339895,0.09557343637116443,-0.5828356501652243
43.0,-0.007760378030047579,0.05229207410737703,-0.04070994904649508,-0.5702366153385036,1.9101961335281552,9.592767580832486,0.12850358032670192,1.013501683619947,-0.0010040837735566244,71.7862316066277,-3.33597239003784,-11.248845643194336,0.805631245902495,-0.03362866190040651,0.09678876064583566,-0.5833484724524278
44.0,-0.0024959724251620383,0.04659323367427224,-0.03356599602862389,-0.6768345135064253,1.9246026750590088,9.584633022367086,-0.18839917949870738,0.7294382938069013,0.22534281218388222,71.66155258326776,-3.9582115694428834,-11.340051421827582,0.8060609207980218,-0.029545760340564234,0.10062504331984563,-0.5823695764429957
45.0,0.0005855906485332128,0.03817953617324193,-0.029484470420741087,-0.7031804728185531,1.9267142482484738,9.582781461916,-0.0823592222097336,0.367837004982953,0.16421733917800008,71.46516381926492,-4.1112828294181565,-11.3595523772058,0.807027089328987,-0.02836833568955828,0.10159283830167472,-0.5809675099074594
46.0,0.00026338466149638336,0.044435952193623326,-0.025025289423401157,-0.8010246899704021,1.9363624442696046,9.572832790079051,-0.03177100895432916,0.6849827657262748,0.12276610093289873,71.31487205425049,-4.685099846390169,-11.422956239931063,0.8075866500854222,-0.024448268992918964,0.10497826503652918,-0.5797636402817429
47.0,-0.0031413210445468518,0.0471920122887865,-0.01982027649769586,-0.8421874039938555,1.9404731182795696,9.56812135176651,-0.0065572196620583695,-0.26331605222734256,-0.022551843317972345,71.25762288786483,-4.92400153609831,-11.463469662058372,0.8077937004101383,-0.02287899522580645,0.10640800697695853,-0.5792994915468508
48.0,-0.006944475665954817,0.04528290434978084,-0.0197970851597917,-0.8609163013749953,1.9412841032557786,9.566304035068,-0.0975103967629538,0.4698397868195271,0.05958305233973998,71.22222893484695,-5.038829099696526,-11.472551609156643,0.8079402173296617,-0.022069617098872278,0.10703904833842867,-0.5790219613193957
49.0,0.01726739350342812,0.04598092990146492,-0.016307144730433484,-0.8471870293357311,1.9496973511670599,9.566363231051664,-0.05701172679929564,-0.20304573639054363,-0.004660278745644602,71.28003727848338,-4.955647268742272,-11.518073039601362,0.8076430981487017,-0.022984334744520624,0.10693257070761679,-0.5794173367180695
50.0,0.010472050503915177,0.04667269866247051,-0.018061406466599234,-0.8559160203814021,1.9510562923831998,9.565231651118353,-0.10439696433254655,0.11889611666853994,-0.01569197013974748,71.2803702558915,-5.004394505638604,-11.527431062905098,0.807619021873328,-0.022649666089805554,0.10727857512891986,-0.5794104327447828
51.0,0.006017899291896145,0.0350460267505901,-0.018628245476003155,-0.8535993312352477,1.951109559402046,9.565009834775767,-0.10317294453186468,-0.03029848544453187,-0.00024709874114870085,71.26650521243116,-4.987546715184894,-11.533310385523208,0.8076970138882766,-0.022772802079464992,0.10725735030409125,-0.5793051536404407
52.0,0.005561369000786782,0.0362084972462628,-0.017838316286388677,-0.8506101494885918,1.9378733280881204,9.568496852871753,-0.18795239968528715,0.15818745082612118,0.06502261998426435,71.23360542879621,-4.977291502753737,-11.456977773406766,0.807942660460267,-0.022437431313926046,0.10663443491817465,-0.579090836691188
53.0,0.006437647521636506,0.03442446892210859,-0.02033064516129033,-0.8760076711250986,1.9292553107789154,9.567774783634931,-0.11790912667191186,0.2143317269866247,0.07846429976396538,71.18765243902439,-5.127173485444532,-11.395109657749803,0.8081486023922106,-0.021015266380015732,0.10698885482336744,-0.5787962349364675
54.0,0.00979543666404406,0.04110739575137688,-0.021177419354838717,-0.9016207710464202,1.9321518489378442,9.564423682140045,-0.02457956333595593,-0.14308615263571994,0.014282553107789139,71.15279799370575,-5.276288355625492,-11.406274586939418,0.8082633299944921,-0.01998535977065303,0.10783368179071598,-0.5785169038351692
55.0,0.018774193548387098,0.053733870967741945,-0.02291129032258065,-0.8404193548387098,1.9327903225806453,9.57091129032258,-0.1954133064516129,-0.09455645161290323,0.013155241935483869,71.25977822580646,-4.9151209677419345,-11.401814516129033,0.8078498584354836,-0.022646012266129036,0.10598272467741934,-0.5793287711048387
56.0,0.011040322580645162,0.04686290322580647,-0.02430645161290323,-0.8543306451612903,1.9216370967741927,9.57054032258064,-0.16789314516129034,0.010685483870967738,-0.02273185483870968,71.22343749999999,-4.9909778225806445,-11.349495967741936,0.8081001522016129,-0.021768581669354845,0.10600315215322581,-0.5790122752983871
57.0,0.006991935483870969,0.052112903225806466,-0.024911290322580652,-0.8358064516129031,1.9182822580645156,9.573983870967737,-0.07888104838709677,-0.13815524193548387,0.018951612903225806,71.25766129032259,-4.882258064516129,-11.328225806451613,0.807948056798387,-0.022466351572580645,0.10529809786290323,-0.5793290175887098
58.0,-0.0020322580645161276,0.05171774193548388,-0.024217741935483875,-0.7753790322580645,1.9093145161290321,9.580685483870962,-0.18377016129032256,-0.43523185483870963,0.004737903225806452,71.29747983870968,-4.529485887096774,-11.265120967741936,0.807869350846774,-0.024777073975806453,0.1030834567983871,-0.5797374611048387
59.0,-0.006403225806451612,0.046766129032258075,-0.02995161290322581,-0.7860725806451614,1.893758064516129,9.583483870967738,-0.20826612903225805,0.5430443548387096,0.040272177419354835,71.29591733870967,-4.592842741935484,-11.172530241935483,0.8079307807499999,-0.02384234998387097,0.10273841145161289,-0.5797429245000001
60.0,-0.006406569630212431,0.05266089693154997,-0.029057435090479942,-0.8163676239181747,1.8919246656176236,9.58078324154209,0.024401308025177024,-0.27321375885129817,-0.15863985051140833,71.35609141424075,-4.7703321695515335,-11.164760769079464,0.8075593734114869,-0.022591614393587728,0.10355719843253341,-0.5801549864368606
61.0,-0.0026262785208497254,0.056535208497246275,-0.029727183320220306,-0.834030487804878,1.8831843036978753,9.58130822187254,-0.12324326317859954,0.35811369000786786,0.04039142407553109,71.35989009638081,-4.875478215971675,-11.113658044846577,0.8075429309998032,-0.021557150048190407,0.1037419735171125,-0.5801946956536193
62.0,-0.006019276160503541,0.05668351691581433,-0.028177812745869397,-0.8858318253343824,1.875736428009441,9.577677222659318,-0.14268538552321008,0.11415470102281669,-0.009923288749016521,71.29408684107003,-5.17890071793863,-11.068361526357199,0.8078266938192369,-0.01910773750708104,0.10495605251691581,-0.5796689333747049
63.0,-0.005483870967741934,0.06478520849724625,-0.03234087332808812,-0.9004647915027537,1.8796695515342252,9.57583438237608,0.0244603166797797,-0.20228535601888276,-0.07016374901652242,71.30849847560975,-5.265041060188827,-11.096157061369002,0.8077096443794258,-0.018641239709874115,0.1055706898906373,-0.5797426401016915
64.0,-0.029520062942564908,0.07237608182533437,-0.03435877261998427,-0.8706136900078679,1.8892761605035404,9.576695515342248,-0.0195712037765539,-0.005064909520062916,-0.01578481510621558,71.39663650668764,-5.087332808811959,-11.148898505114083,0.8072937640440598,-0.020251522037765535,0.10506445776553892,-0.5803597697088905
65.0,-0.022981904012588518,0.06809598741148701,-0.03120377655389457,-0.8867033831628639,1.8945239968528713,9.573847364280091,-0.23392014162077102,0.7973544453186467,0.18730330448465773,71.34583988985051,-5.187106608969316,-11.185090479937056,0.8074968463178598,-0.019655097222659325,0.10581368776553893,-0.5799646496931549
66.0,-0.02296616837136113,0.07210857592446891,-0.031982690794649896,-0.980731707317073,1.8806608969315493,9.566955153422501,-0.1504228953579858,0.4154209284028324,0.17805861526357197,71.06171321793863,-5.737411487018096,-11.106363099921321,0.8087766626121164,-0.015060652950432732,0.10807914345397324,-0.5778713503933911
67.0,-0.014862313139260425,0.06711250983477576,-0.028151062155782853,-0.977458693941778,1.8764673485444527,9.56878835562549,-0.18361526357199054,0.18312352478363497,0.2842741935483871,70.92958300550747,-5.718479543666405,-11.082562942564909,0.8094868511565695,-0.014947946986624706,0.10783601128245478,-0.5769381034539733
68.0,-0.012122738001573565,0.06490794649881983,-0.027170731707317076,-1.00813217938631,1.8718442171518488,9.565839496459478,-0.12207907159716758,0.011309992132179397,0.2740165224232888,70.65232100708104,-5.9057631785995275,-11.062627852084972,0.8108354157088902,-0.013259496741148704,0.10858392400000003,-0.5749382929535798
69.0,-0.005993705743509047,0.06769944925255704,-0.02887018095987412,-1.0249771833202204,1.8672399685287173,9.566374508261209,-0.07686860739575138,0.013208103855232104,0.01943351691581431,70.5603756884343,-5.999616443745083,-11.037795043273013,0.8112734763225803,-0.012345535027537371,0.10889748411801731,-0.5742874494051928
70.0,-0.018958412948184778,0.08222389569517816,0.005433591847439205,-1.0208445918099736,1.86519467236147,9.567307369525306,-0.17133490689745606,0.4583305233973999,-0.5008169888726537,70.7024041343524,-5.974620658648982,-11.02764578884268,0.8105768241453297,-0.012583088332584019,0.10867191967449705,-0.5753048738794725
71.0,-0.0029528492750365235,0.07702854894908395,-0.04408886890712226,-0.956331029185868,1.8216964707204677,9.57912575399948,-0.2520718594282717,-1.0251866265782472,0.38334445599640327,71.06142039919823,-5.594656906822524,-10.753717662320632,0.8090089827847026,-0.014327391609250308,0.1048335473116781,-0.5780559814873366
72.0,-0.002226490202690043,0.07155499981267094,-0.03676625079614852,-0.9444393522161028,1.790144627402495,9.587700076804921,-0.3982988179536173,0.04431023097673381,0.5427421111048668,70.48153163753699,-5.526565368476265,-10.567168767093776,0.8120970265158012,-0.013362558787278482,0.10322375852808063,-0.5740645875154267
73.0,0.004197238769622715,0.08010699299389307,-0.03823220373908809,-0.8337790079052865,1.7949626746843503,9.596777649769589,0.15347395891873666,-0.33067946592484354,-0.019168738994417622,70.37248744895282,-4.8781492356974265,-10.58546490390019,0.8128249544063262,-0.018047923944906525,0.10013934747141359,-0.5734508022041417
74.0,0.005563673148252218,0.07381252107451951,-0.03607021093252408,-0.7967470308343637,1.814763403394403,9.596090629800313,-0.02718847176951031,-0.40148364617286725,-0.029739659435764874,70.40244956165,-4.6578294181559325,-10.701032183132892,0.8126903635401446,-0.020225288536585374,0.09988988225375595,-0.5736559743887452
75.0,0.008072383949645948,0.060413622569405426,-0.035384586564759665,-0.7611992806564012,1.826989996628078,9.598178412198873,-0.13039039376568878,-0.0031916188977558213,0.10396762953804653,70.41711625641602,-4.451231220261511,-10.771453860851972,0.8126692778861788,-0.0220686027368776,0.09935529581132217,-0.5737381244543104
76.0,0.01378835562549174,0.04855850286613467,-0.034088831441309815,-0.7670709227829609,1.8282786332471628,9.5991246112922,-0.04658288374358397,-0.04976162376831143,-0.05445304597055187,70.35905478438424,-4.482450779288898,-10.774249747105767,0.8129284967046947,-0.021809599932561537,0.09955218255947698,-0.573360618592222
77.0,0.0027668502491476525,0.058211569442883374,-0.03180416619834402,-0.7666486830766926,1.8557884680229295,9.592837473305607,0.06242975160166349,0.24649109250309093,0.31251756209958415,70.39151305683563,-4.485089777453074,-10.93925972237833,0.812661194094826,-0.02264898669963658,0.10074099603368175,-0.5735069868363867
78.0,0.0070128507736690274,0.05840470570604324,-0.03566183357686113,-0.824942302648833,1.8726786182608368,9.584512569780072,-0.06002959799183245,0.2523755666704133,0.08181245550934774,70.08994136600352,-4.825638792102207,-11.04818220561238,0.8139719797133864,-0.020443147473680267,0.10324289548761753,-0.5712703274437074
79.0,0.004657749803304485,0.06084185680566483,-0.03239181746656177,-0.829598741148702,1.864217151848938,9.585924468922101,-0.11408339889850512,0.028914240755310766,-0.033094020456333584,70.00098347757671,-4.852625885129819,-10.996262785208497,0.8144657066483083,-0.019922431966955152,0.10303209794649883,-0.5706289129189615
80.0,-0.0023367427222659295,0.06860582218725414,-0.026511408339889853,-0.8290149488591658,1.8568827694728567,9.58729661683713,-0.170190794649882,-0.1470200629425649,-0.06331628638867033,69.96347364280095,-4.8529701022816685,-10.964299763965382,0.8146805451455545,-0.019727042826121158,0.1027336258017309,-0.5703844647191187
81.0,0.03603461841070023,0.07082926829268293,-0.03195751376868608,-0.7583587726199843,1.8502706530291113,9.593148701809598,-0.10203579858379229,-0.5145259638080252,-0.1107789142407553,70.04163060582218,-4.433566089693155,-10.917437057435091,0.8144372012588512,-0.022591344135326513,0.10035019092997638,-0.5710406862029899
82.0,0.018524783634933123,0.06730291109362707,-0.03602202989771834,-0.7110322580645163,1.8550723839496466,9.595527930763176,-0.02038257277734068,-0.07352478363493314,0.04851494885916602,70.07559500393391,-4.156495869394178,-10.934574154209283,0.814334905566483,-0.024708736194335168,0.09913182124390242,-0.571320535076318
83.0,0.009962627852084972,0.06403697875688436,-0.03197639653815894,-0.7114484657749803,1.8673001573564125,9.592972462627847,-0.10445761211644375,0.09487608182533436,0.011128048780487804,70.00320367820613,-4.1590160306845005,-11.00200383556255,0.8146527550885129,-0.02500391637804878,0.09967997618843427,-0.5707699125302912
84.0,0.010355035405192762,0.06951652242328876,-0.028859952793076328,-0.7120263571990558,1.8588192368214007,9.595679779701019,-0.14155315696302123,0.21907946498819825,0.0826440794649882,69.92879991148702,-4.164652586546026,-10.946099282061368,0.81505617984166,-0.024627137032454754,0.09933001532081037,-0.5702771128151062
85.0,0.00851373122026151,0.06966955153422502,-0.02736315612004047,-0.7778445918099735,1.8598287812371217,9.590275373721475,0.04117258626503317,0.7749007155970177,0.018105353864598554,69.8578055337005,-4.551178299801431,-10.958054681353264,0.8152864813772432,-0.021827385026788052,0.10132566068824697,-0.5696979036517928
86.0,0.011195159417031966,0.07582480986100183,-0.038148814207036086,-0.5198437675620996,1.8378202390318839,9.597119628339138,-0.5894964594807238,-4.128636525420553,-0.40774512007792885,70.22793731969577,-3.0285536323105164,-10.827556573376794,0.8135612472473868,-0.03247258059683039,0.09240307177288226,-0.5724310099737739
87.0,-0.003999475478625749,0.09058371735791092,-0.04571428571428572,-0.38950058072009286,1.8167056311116112,9.610642164025329,0.142007137237271,1.602468997040201,-0.05001217638904498,70.61819527181447,-2.2816445618373233,-10.696365347870069,0.8118994931853434,-0.0375013548994043,0.08767226987823612,-0.5753890097422353
88.0,-0.0010201940729084684,0.08673560376156757,-0.04090592334494774,-0.5544198418942716,1.8673654040687881,9.597551609156643,0.17080195571540968,0.654597991832453,-0.044970683001760874,70.52506931175303,-3.2463002510209433,-11.005170282117568,0.8120844709711137,-0.03201876434191301,0.09486368668577425,-0.5745231708624631
89.0,0.007554231763515791,0.08050503915177401,-0.03650294106627703,-0.6966237683114158,1.8803030984226903,9.588484695215614,-0.034610215053763424,1.0017608931849689,0.14338166423138884,70.28865535199131,-4.076273369300512,-11.079599630961749,0.8130750936665916,-0.026211326816342587,0.09966144564141471,-0.5727247101026564
90.0,0.01424562586639691,0.08963039976021878,-0.031845940579221466,-0.7006736353077816,1.9007429470608084,9.58698812333745,0.0015841013824884863,0.07240502416544914,-0.09267168708553444,70.38578312914466,-4.101404733805403,-11.201594170319584,0.8125419758770746,-0.026755341945037654,0.10067260966018508,-0.5733989052433405
91.0,0.01794724813607583,0.07320688621632761,-0.0289869244314563,-0.7513734966842756,1.9058697688359367,9.583487692480608,-0.09342334494773519,-0.033094020456333556,-0.06391550522648083,70.35814858004571,-4.394141517740062,-11.243284253119029,0.8126073617269864,-0.024801025574725563,0.1024352897499157,-0.5731606539498333
92.0,0.013942902101832076,0.0595028286688397,-0.025683938406204344,-0.8481061031808474,1.9061837323442359,9.574900528267953,-0.23089946049230076,1.0238235734891912,0.13977323817016973,70.26694391367877,-4.962983777303211,-11.252114476789929,0.8129107039856129,-0.020628586447117007,0.10534582017833727,-0.5723686567022592
93.0,0.0026819152523322454,0.059135363980367936,-0.026070136000899184,-0.8701293694503764,1.9284978457157835,9.568988423063951,0.04442930201191414,-0.2852508804465925,-0.11253863661908507,70.371114561088,-5.086163407140983,-11.387244295830055,0.8122548645333258,-0.020483513713723728,0.10689494788932599,-0.573011539646173
94.0,0.008309467610805137,0.053917912404930525,-0.026455958937469562,-0.8523066202090591,1.9376052976658802,9.569978082499714,-0.11184832902476491,-0.3985442190251396,0.01670015173654041,70.4235229103443,-4.979631242740998,-11.439657094151585,0.8120144126437749,-0.02155000514948859,0.10672455542392567,-0.5733608878799221
95.0,0.007695440410625301,0.04925158293057587,-0.027757933385785475,-0.8713622194747292,1.9195238469896214,9.5716749091454,-0.12597504776891086,0.3997630287362781,-0.054231529354464056,70.44464355962684,-5.097851335656213,-11.332530159979019,0.8119522876989996,-0.020194255200704354,0.10655302848615639,-0.573537906078978
96.0,0.010598310291858678,0.05389093701996928,-0.026220430107526886,-0.8572035330261136,1.9222772657450078,9.571954685099843,-0.06993087557603686,-0.04030337941628265,-0.001963325652841786,70.54186347926267,-5.011991167434715,-11.353091397849463,0.8114716328479261,-0.021012167869431643,0.10624163671121352,-0.5742525583809523
97.0,0.006830645161290322,0.05469354838709679,-0.02512096774193549,-0.8689274193548389,1.9313467741935488,9.568814516129027,-0.11350806451612903,-0.5239919354838709,-0.15972782258064516,70.60398185483871,-5.077620967741936,-11.400907258064516,0.8111125826774193,-0.020830560080645162,0.10690878577419352,-0.5746411724838707
98.0,-0.004580645161290321,0.05503225806451614,-0.02038709677419355,-0.7946129032258065,1.917193548387096,9.577508064516124,-0.11748991935483871,0.1614415322580645,0.03311491935483871,70.69193548387096,-4.644808467741935,-11.305040322580645,0.8108714446693548,-0.023572515322580645,0.10408221823387094,-0.575383389282258
99.0,-0.0017419354838709665,0.05458870967741936,-0.02911290322580646,-0.8097822580645161,1.9101935483870962,9.577733870967734,-0.1778225806451613,-0.31759072580645153,-0.0810483870967742,70.7078629032258,-4.730090725806452,-11.269758064516129,0.8107630090161291,-0.022789247153225802,0.10423697203225804,-0.5755486273629032
100.0,0.02133064516129032,0.05351612903225808,-0.015895161290322583,-0.7626209677419356,1.8997741935483867,9.584387096774186,-0.11577620967741936,-0.20695564516129028,-0.07389112903225807,70.78190524193548,-4.453225806451613,-11.20055443548387,0.8105260542419355,-0.024506501120967743,0.1023652110080645,-0.576147854814516
101.0,0.016120967741935482,0.05884677419354839,-0.018903225806451616,-0.7344516129032258,1.8971693548387099,9.587475806451605,-0.11159274193548388,-0.1538306451612903,0.08891129032258065,70.80015120967741,-4.292489919354839,-11.184627016129031,0.81050247675,-0.025613944766129028,0.10142522016129031,-0.5763063003870967
102.0,-0.003069826907946502,0.06340243902439024,-0.027569630212431168,-0.73594256490952,1.8961892210857592,9.587492525570411,-0.05946965971675846,0.21386211644374506,0.029574400078678204,70.85298116640439,-4.30155020653029,-11.181955645161292,0.8102443130535013,-0.025586620786978757,0.10144301794177812,-0.5766725136695514
103.0,0.009041699449252556,0.05988552321007082,-0.02800354051927617,-0.776222462627852,1.9072116443745082,9.582021046420138,0.06641792879622344,-0.1926939909520063,0.013795731707317075,70.77991984657749,-4.533965627458693,-11.25503417584579,0.8104967063078284,-0.02417737121262785,0.10313768091463411,-0.5760722869612509
104.0,0.0028991139335356464,0.05106872166647935,-0.025808605897118884,-0.8573813926042488,1.9069741017571467,9.57404220523772,-0.19872627945749505,0.8833033021430443,0.1519607498782361,70.60268793788168,-5.014939082930576,-11.26032358753887,0.8112199978549509,-0.020584041916029742,0.10560286523266268,-0.5747211826866547
105.0,0.010319246187853586,0.043826158630249905,-0.02531047918774119,-0.90159756097561,1.9078065827432469,9.569424525120827,0.061260876793675756,-0.2128053463714361,-0.1172459232512832,70.55445421677719,-5.274377365029411,-11.26725487992207,0.8113585445313308,-0.018735473842849647,0.1069700515962684,-0.5743339007976942
106.0,0.005965306657674873,0.05098834813232925,-0.028398711176051857,-0.8655142182758235,1.9139297890674758,9.572093214941365,-0.13972406429133416,-0.020102749990633578,0.03342652954179311,70.62510537259749,-5.060935802330373,-11.299007624292834,0.8110555285669327,-0.02050642724438949,0.10612381176126787,-0.5748709258049531
107.0,-0.0059866621707691725,0.04857442583642427,-0.02759432018283317,-0.8858098235360234,1.9101670975235092,9.571152823048966,-0.1404757221535349,0.10169626465849911,0.07318946461354014,70.57501826458355,-5.181997208796972,-11.281806133153497,0.8113069387759919,-0.019499247453823386,0.10659621997976848,-0.5744789046176615
108.0,0.013587314075905734,0.05124944737926643,-0.021731857180322958,-0.8982975160166347,1.917828631373871,9.569175939455246,0.049392351354389116,0.07917720392641714,-0.004608060769547784,70.53575362481735,-5.25712763665655,-11.323569274287212,0.8114316596405529,-0.0191392366167622,0.10729270993166236,-0.574188925549586
109.0,-0.011349968154059423,0.056808287437713094,-0.03770387021842569,-0.8940681128470269,1.923774530740699,9.568484283091674,-0.1840643849986887,0.003725506725113333,0.09406213704994193,70.4923199767712,-5.228165392829043,-11.35348010565359,0.8116320676682027,-0.01945086301959462,0.10737389136675284,-0.5738848190482185
110.0,-0.00868363867970477,0.04999973773931289,-0.029172155408190025,-0.8881505001685961,1.9188542205237713,9.569312951931359,-0.21718463152373457,0.03766625454272975,0.11197501030309842,70.40395404818103,-5.197270147240643,-11.32561397100146,0.8121016948671462,-0.019474772534187553,0.10702470904136226,-0.5732798608380354
111.0,0.005304878048780486,0.04947836349331236,-0.025437844217151846,-0.890628245476003,1.9110515342250183,9.569830055074739,-0.09192564909520062,-0.022516719118804086,-0.008303009441384734,70.35359952793075,-5.214346479150276,-11.277711939417781,0.8123976790326513,-0.019081680959874114,0.10676877657828485,-0.5729247407922895
112.0,0.014685483870967743,0.05791935483870969,-0.028411290322580645,-0.8996854838709678,1.913685483870967,9.56938709677419,-0.1276209677419355,0.2123991935483871,0.007006048387096774,70.34959677419354,-5.263256048387096,-11.295110887096774,0.812381325846774,-0.018781846096774184,0.10715415691935487,-0.5728848867258064
113.0,0.0024274193548387115,0.05402419354838711,-0.024137096774193553,-0.985524193548387,1.9050161290322578,9.56199193548387,-0.2434475806451613,0.716078629032258,0.1265625,70.16910282258064,-5.766885080645161,-11.256199596774193,0.8131320086774192,-0.01474294321774193,0.10937145567741936,-0.5714998800564517
114.0,-0.011766129032258064,0.04627419354838711,-0.02192741935483871,-1.0674193548387096,1.9026854838709673,9.553645161290326,-0.1770665322580645,0.05418346774193544,0.0988407258064516,70.05231854838709,-6.248639112903225,-11.254233870967742,0.8135575816854838,-0.011087084612903223,0.11166736296774193,-0.5705290764919353
115.0,-0.018185483870967745,0.036120967741935496,-0.021467741935483876,-1.0942903225806448,1.8875725806451604,9.55485483870968,-0.30816532258064516,0.4935483870967742,0.15483870967741936,69.94758064516128,-6.40695564516129,-11.168296370967742,0.8140724920403226,-0.0094121132016129,0.11184928686290324,-0.5697952767258063
116.0,-0.02840381589299765,0.02935110149488593,-0.01982041699449253,-1.1833485444531862,1.8730806451612898,9.54555074744296,-0.08126475216365066,0.5123426435877262,0.011671420141620772,69.83966733870967,-6.932837086939418,-11.11265120967742,0.8144089572230531,-0.0052095106601101485,0.11397670189103068,-0.5689403568274978
117.0,-0.03177314450563862,0.039913069948671845,-0.020711859802929833,-1.23164470233412,1.8760825652841775,9.538866771570941,-0.19622953429995132,-0.29778653150874834,0.12371205415683188,69.8135488671275,-7.21562769285527,-11.131955645161291,0.8143968969095297,-0.003268105995185643,0.11552277214251996,-0.5686616008455846
118.0,-0.022673157618672966,0.06685651530478438,-0.0258989078715672,-1.1221810254392866,1.8043720261511371,9.565375557303962,-0.5513147573151999,-0.4236750566670413,0.3082472790453711,69.47003478466524,-6.565380477033457,-10.679236329661684,0.8166666613055714,-0.005452650169898095,0.10919953533837248,-0.5665947303915178
119.0,-0.025905511221010834,0.08195033906560262,-0.02981907759169759,-1.0741732700161104,1.7515206904949232,9.581469652691922,-0.279861247705219,-0.028757411206024486,0.013897065021917482,69.36636699870743,-6.287038116780938,-10.354686329193362,0.8175209317464877,-0.005802997558259338,0.10555255150367167,-0.5660726018486006
120.0,-0.03749091454048182,0.09467835600014984,-0.032698287812371225,-1.0954250496422016,1.745113708740774,9.581239743733843,0.10544518751639129,0.07488479262672813,-0.1986062717770035,69.4777663819265,-6.411262223221311,-10.317920834738302,0.8169371035068,-0.00482075036154509,0.10591458723314975,-0.5668724348342137
121.0,-0.027592821550335326,0.09567906785058633,-0.03292270802892362,-1.105950133003634,1.7657983964632273,9.576147015848036,0.13619525308156308,-0.059725188265707524,-0.09325474879172754,69.61152284477915,-6.471981426323479,-10.440800503915177,0.8161985701562322,-0.0050904956882469755,0.10709547737345924,-0.5677232807137237
122.0,-0.02319426023753325,0.10456610842606123,-0.03404353527406243,-1.0527761417706345,1.7614760031471284,9.58140684125735,-0.41647418605522457,-1.2901928552695665,0.33677316323854484,69.60729272039265,-6.1548607208422315,-10.41868654228017,0.8163399828692068,-0.007255465110636546,0.10532172871207525,-0.5677905997593197
123.0,-0.02002592634221273,0.12898565059383316,-0.04439706268030423,-0.6218979056610843,1.6856121164437452,9.62182065115582,-0.13906419766962647,-3.4758153497433595,-0.5628191618897755,70.25519533737965,-3.6302480236783934,-9.93260743321719,0.8139281374991196,-0.02363739029489341,0.08909183641976698,-0.5730088467498408
124.0,-0.005802517702596377,0.11095672698662472,-0.03404799370574352,-0.3511140833988985,1.8242092840283242,9.611878835562546,0.6742083005507474,-0.5973642800944139,-0.2286782061369001,70.57462627852085,-2.051740755310779,-10.739393194335168,0.8121355415782847,-0.03932225190243902,0.08689910816994495,-0.575107687617624
125.0,-0.001348151062155781,0.08410936270653029,-0.03194138473642802,-0.28838630999213205,1.9085090479937052,9.602774193548381,0.20949301730920533,-0.06966955153422508,-0.053181549960660886,70.566384736428,-1.6825629425649096,-11.22927075137687,0.8120013761919744,-0.044411991653029115,0.08864697597088905,-0.5749263482808813
126.0,-0.006830645161290322,0.06982258064516131,-0.03118548387096775,-0.27888709677419354,1.9531451612903223,9.596709677419348,0.11738911290322579,0.06633064516129031,-0.040423387096774184,70.53891129032257,-1.6306451612903228,-11.482711693548387,0.8120450417419354,-0.04607086117741936,0.0902720789516129,-0.5746354147580646
127.0,-0.0063306451612903224,0.06395161290322582,-0.029225806451612914,-0.32512096774193544,1.9698467741935477,9.59343548387096,-0.017943548387096775,0.4287298387096774,-0.029082661290322574,70.48059475806451,-1.8961693548387095,-11.58860887096774,0.8122597976532258,-0.044601637016129035,0.09239290261290323,-0.5741647047822581
128.0,-0.015411290322580646,0.06953225806451616,-0.03219354838709679,-0.38538709677419347,1.9715403225806445,9.590588709677412,-0.0719758064516129,0.40468750000000003,0.016935483870967744,70.42016129032257,-2.247983870967742,-11.609274193548387,0.8124811009516133,-0.042081772387096775,0.09426963466129033,-0.5737566557822583
129.0,-0.032080645161290326,0.07778225806451614,-0.03751612903225808,-0.41956451612903223,1.9685645161290322,9.589846774193543,0.022227822580645165,0.1342741935483871,-0.032560483870967744,70.39889112903225,-2.4498487903225805,-11.600604838709678,0.8125709808145165,-0.04053723782258064,0.09518245488709678,-0.5735972247741936
130.0,-0.029213517665130577,0.07702188940092167,-0.03744470046082951,-0.4491344086021506,1.991160138248847,9.584341013824881,0.01102870583717358,0.3548099078341014,0.03807363671274961,70.33148041474655,-2.621999807987711,-11.7318116359447,0.8128014815913981,-0.03990795934946237,0.09707216413556066,-0.5730007332058373
131.0,-0.03467265183020495,0.06994810048330898,-0.03384017084410477,-0.5167560319958039,1.9998754074407095,9.579869169382935,-0.05161278614514256,0.5071391691019445,-0.031675588213255404,70.21924630493425,-3.024174815480874,-11.777117462346858,0.8132442373263835,-0.037229323791174926,0.09949020525749314,-0.5721200447854522
132.0,-0.036370059195983684,0.07593008879397549,-0.03284160391143083,-0.6064341725675322,2.036900921658985,9.56668124086771,0.11554023359934062,0.600441511183545,0.07454133649919448,70.07647135270315,-3.5469406237121124,-12.008211686523548,0.8136811439513506,-0.03446081702412798,0.10375628539458054,-0.5709034272992954
133.0,-0.023569630212431168,0.07554760968116592,-0.0312051721554082,-0.6243779925817692,2.0351616743471577,9.566789161140457,-0.15306417659510696,-0.5132465063129894,0.2028920680191825,69.8063808376419,-3.6469618153122774,-11.99733741008205,0.8150161640893465,-0.03343341874247875,0.10425360425124572,-0.5689726464872054
134.0,-0.03498988423063955,0.07558390468697312,-0.03052789329736616,-0.5412343111910382,2.0160522273425494,9.576190663519533,-0.28952291971076394,-0.2448625004683227,-0.1338782267430969,69.89916896144769,-3.1596020194072905,-11.882408864411225,0.8147578457860326,-0.036451044820164105,0.10098931806264283,-0.5697374572912217
135.0,-0.04175752126184856,0.07635045520962122,-0.03153347570342063,-0.5456217451575438,1.986795923719606,9.581379865872385,-0.4027059683039227,-0.04274146716121541,0.10204048181034808,69.93811116106554,-3.186066932673935,-11.703540050953505,0.8146773299104566,-0.03541693272413922,0.09984593551197032,-0.5701307787359033
136.0,-0.03598104229890225,0.07430032595256827,-0.032021655239593876,-0.5641444681727925,1.9553767187441462,9.586421640253262,-0.1901413397774531,0.168858416694766,0.004624686223820777,69.82630381027312,-3.2955069124423964,-11.519526713124275,0.8153451419497206,-0.033623851743658915,0.09908760240193325,-0.5694261177629163
137.0,-0.030106964894533732,0.06592671687085534,-0.030227979468734782,-0.6101328163051215,1.9261895395451654,9.589914203289489,-0.2410187422726762,0.8442885710539132,0.14661309055486865,69.64726874227267,-3.5712143138136447,-11.347858360496048,0.8162944663367802,-0.030640470490240157,0.09929475253456221,-0.5681886571466037
138.0,-0.01966561762391817,0.0609971525982541,-0.025570978981679225,-0.6864527368775992,1.9070463826758086,9.588597654640132,-0.28206371061406466,0.4935488554194298,0.32081038552321006,69.42746501629762,-4.016093908058895,-11.244253681016072,0.8173596649617849,-0.02668972110149489,0.10077341370199693,-0.5665841574519501
139.0,-0.02809261548836687,0.05180697613427748,-0.026271027687235406,-0.7079618598029298,1.9243831253980743,9.583073695253075,-0.018011689333483197,-0.5647338990671011,-0.35147849462365593,69.59957710464201,-4.138080251770259,-11.351380146865985,0.8164075649814544,-0.026482344904274847,0.1020806296189727,-0.5677199563467085
140.0,-0.005533325840170847,0.04186467348544454,-0.024897156344835344,-0.5978067513394028,1.9272110449215099,9.589545165036899,-0.09464332546551271,-0.729845734517253,-0.15572899104567084,69.86683011127346,-3.4928791540219546,-11.35984039563898,0.8152038176325351,-0.03142770408414821,0.09888399813495186,-0.5697438810243152
141.0,-0.008542205237720583,0.045455396950282875,-0.024705706043235555,-0.5551927616050354,1.9327158967442208,9.591845940579216,0.021507717957363906,-0.2475366228316661,-0.04333857854707581,69.95932149413659,-3.241460136375557,-11.383942621108238,0.8147962581023567,-0.033446813197332434,0.09783158746880971,-0.5704140605286425
142.0,-0.007650331572440149,0.037145479749728386,-0.025865834925630368,-0.5512470495672697,1.9008347383013002,9.597937132366717,-0.21141372560038965,0.11964238882020159,-0.038855559926567015,69.89358187216664,-3.218709021767637,-11.194897156344835,0.8152712515334756,-0.03260162345153797,0.09637084341182421,-0.5700495569244313
143.0,-0.005150050578846802,0.043342325128320425,-0.02954966093439737,-0.535704169944925,1.8880056948034918,9.601887152972918,-0.3155042898355251,0.014602300400884206,0.07329015398448915,69.94479880858717,-3.1291797797010226,-11.109353340077181,0.8150962502214226,-0.03289665528567682,0.09533470518901502,-0.5704676644145965
144.0,-0.012051815218613017,0.05357124124236634,-0.03510921284328052,-0.5518017309205347,1.8326259787943504,9.611372372709907,-0.3517922708028923,-0.11054405042898358,0.02690864898280319,69.86502823985613,-3.227601298190401,-10.787490399385561,0.8156994823648416,-0.03051803617942378,0.09352540376287888,-0.570040054237196
145.0,-0.007274924131729799,0.053816829642950814,-0.03340976359072348,-0.5342523697126371,1.8014864561088013,9.617714398111726,-0.2555800644411974,-0.17591486830766928,0.07088414634146341,69.82735753624817,-3.124735397699599,-10.59897179760968,0.8160299310797642,-0.03030519263253531,0.09168868969746356,-0.5698783337160467
146.0,-0.0063369675171406105,0.05908770746693644,-0.03166348207260876,-0.5426945412311266,1.7968832190626058,9.617513394027954,0.04314188303173355,0.11116809036753962,-0.030106121913753697,69.82174000599453,-3.1748295305533696,-10.58207588700311,0.8160762040605444,-0.02982548278033794,0.09179297589224832,-0.5698259556704506
147.0,-0.004057547487917276,0.06783653666029749,-0.030753062830167474,-0.5543921171930614,1.8041103742834665,9.616754336667794,-0.12398373983739835,0.03542275486118917,-0.0004975928215503345,69.817046242179,-3.238919485969053,-10.628764143344199,0.81602834774231,-0.029578058758382972,0.09243377851260723,-0.5698048454552095
148.0,-0.0037450826121164437,0.08019669551534225,-0.030456333595594028,-0.5340519276160502,1.8174508261211644,9.6153422501967,-0.0017702596380802446,-0.220102281667978,-0.06790912667191187,69.89639063729346,-3.1236231313926046,-10.702989771833202,0.8156202357041697,-0.03085036581431943,0.09235291464988199,-0.5703312761998427
149.0,-0.01040575474879173,0.07889513319096325,-0.03252069986137651,-0.5294942115319768,1.8119579633584357,9.617556105054142,-0.19385982166273277,0.1670811322168521,-0.05234442321381739,69.89098619384811,-3.098350099284403,-10.668364336293132,0.8156613332029523,-0.030874571007455692,0.09198864975422427,-0.5703320328279198
150.0,-0.012397212543554009,0.06465055636731483,-0.0321399722752988,-0.5526849499831402,1.8152795324266608,9.614339814918893,-0.02176763703120904,0.10226106178112472,0.0010406129406916216,69.90919785695553,-3.2311626578247346,-10.681108800719343,0.8155505806313736,-0.030011477445505967,0.09279374867805626,-0.5704088302558166
151.0,-0.023732044509385184,0.06566123412386199,-0.02843033232175641,-0.5655674946611216,1.828839608856918,9.612441347270623,-0.1437516391292945,0.01882329249559776,-0.03129519313626315,69.94014180810011,-3.300893091304185,-10.769252276048107,0.8153199948396836,-0.029924656751863923,0.09373031003139635,-0.5705877111821962
152.0,-0.014100483308980553,0.0779447004608295,-0.031359147278108734,-0.5528742272676181,1.8091719680791276,9.616291484020836,-0.10487149226330973,-0.1908489753100296,0.01223399273163239,69.9282485201004,-3.2258546888464275,-10.652869647072047,0.8154782305551684,-0.02988412747900042,0.09252454193151252,-0.5705563045525458
153.0,-0.026633247161964704,0.07665134314937619,-0.03608870031096625,-0.4745960436102056,1.8179140721591542,9.618499793938035,0.0324383687385261,-1.0816558015810571,-0.22868827507399497,70.0605050625679,-2.76578434678356,-10.698508977745307,0.8148528760919036,-0.03353915371589675,0.09052070630407252,-0.5715344040544003
154.0,-0.02676160503540519,0.09624744295830057,-0.03447816679779701,-0.402780487804878,1.8306429976396537,9.619505507474432,0.044465479937057434,0.10210710070810392,0.07429681353265144,70.19973323170731,-2.34813385129819,-10.768684844610544,0.814176935552321,-0.036994034603068444,0.08889627314594806,-0.5725370163359558
155.0,-0.022740249522310886,0.09978232362968792,-0.04511408339889851,-0.35962833914053416,1.840235285302162,9.619029635457649,0.017660447341800608,-0.0599991570192199,0.13762363718107226,70.2531752276048,-2.0984788880146867,-10.82335571915627,0.8139131642070362,-0.039114657754299204,0.08801215774156082,-0.5729224175205124
156.0,-0.04031246487580082,0.10399385560675883,-0.05029710389269791,-0.37449252557041696,1.8463691881158448,9.617329436888843,0.02433404518376981,0.22887630662020908,-0.06530759432018285,70.23388735903488,-2.1869637705593643,-10.861884624030573,0.8139661244550599,-0.038674981224382746,0.08874422258851297,-0.5727799406608969
157.0,-0.03116331347645273,0.1063163613202952,-0.041088756509684916,-0.44376081825334396,1.851036679030385,9.613755198381483,-0.18649544790378778,0.19545211869169382,0.28353424375257574,70.0790060319958,-2.5909740174590685,-10.88956249297516,0.8146521419639579,-0.03579138742572402,0.09103877104642014,-0.5716192368214004
158.0,-0.011281330785658083,0.09297928140571726,-0.04115094975834552,-0.48074369637705594,1.8547015848038666,9.611339777453079,-0.31868654228016935,0.00973174478288559,-0.027483515042523693,69.82452184256866,-2.807097898167922,-10.912020905923345,0.8158766132741373,-0.034142909761342766,0.09236660503015998,-0.5697603956685774
159.0,-0.009995504102506462,0.087063991607658,-0.031248173541643255,-0.48104061294069167,1.844420029223334,9.613270203439368,0.03823737402120564,0.009684912517327934,0.09053145254954853,69.76146922183507,-2.8061354951107114,-10.850139091828705,0.8162278941744407,-0.03377767983739837,0.0919527549659061,-0.5693567537233524
160.0,-0.009736615338503615,0.07814413098048031,-0.030958188153310112,-0.4908928103105918,1.858166235809823,9.609165823685892,-0.17282159716758455,-0.40875201378741893,-0.17372428908620882,69.78074421153198,-2.864041249859503,-10.93788636619085,0.8160778527093402,-0.033797453328837435,0.09282071893072569,-0.5694277265006931
161.0,-0.016358323030234913,0.07138773369300513,-0.030820875950695,-0.48079202727511156,1.8670746693642055,9.608142819677049,0.2442583642426286,0.29447191937357153,0.10246197220036717,69.83173635307782,-2.8095167846839755,-10.988240418118465,0.8158142189468358,-0.03451168199467986,0.09289793611666855,-0.5697548165759995
162.0,-0.011519613352815558,0.06442733505676071,-0.03087051815218614,-0.5258092615488368,1.9089852384698962,9.597020531265219,-0.07592681053538644,0.19943169045745754,-0.13302470870330824,69.84336480461579,-3.074497255629238,-11.24372447641527,0.8155257678713796,-0.03387346884417969,0.09601909716346335,-0.5696825088803342
163.0,-0.019146903450601323,0.05673747705218987,-0.03111498257839722,-0.5126780562736502,1.903090929526807,9.59922071110112,-0.3005882132554044,0.28699983140384394,-0.08633762316885842,69.93905951444307,-2.9965180210557865,-11.210571915626991,0.8150824289164886,-0.034338738661721185,0.09535377365853659,-0.5703866154962347
164.0,-0.018235922220973363,0.050961185418305806,-0.029684163201079028,-0.5721730171218764,1.8911481398224124,9.59822955303286,-0.02195028286688397,-0.01779040687872316,-0.03874316248922858,69.90720186579745,-3.340927185193511,-11.144084148214754,0.8151937021687086,-0.03148602776123038,0.09660499211644374,-0.5701786729369451
165.0,-0.010597017721329288,0.05418249597242518,-0.03145554681353266,-0.5357856580869955,1.8976752463377164,9.6004111872916,-0.16390473380540255,0.09855147802630099,0.10696372372709903,69.96837885429545,-3.1289666928927353,-11.17477450264134,0.8149159990210182,-0.03322393580120639,0.09576639950170468,-0.5706225678361618
166.0,-0.007620321456670786,0.052479112809561274,-0.03315634483533777,-0.5309197107639279,1.8762692667940506,9.605247836349339,-0.20197444831591171,-0.04882333932786331,0.03802007230901803,69.94882076355324,-3.102530581469409,-11.05215779663557,0.815119669430632,-0.032754243121801356,0.09475899196283391,-0.5705353616008766
167.0,0.0008211756771945608,0.05186782061369002,-0.02485313401521113,-0.5529268292682927,1.8567820988348136,9.608000262260695,-0.18573184781386984,-0.23579319808175037,0.003490642913341578,69.90252098085497,-3.22902546738601,-10.932842531190289,0.8154320846223821,-0.031218204259825407,0.0945422370213555,-0.5702151030976733
168.0,0.021470495672698667,0.08538552321007081,-0.02817387883556256,-0.22156018882769477,1.8574240755310778,9.613779701022823,-0.018312352478363506,-3.319600708103855,-2.168430369787569,71.54366640440597,-1.2948170731707318,-10.92739476789929,0.8071700121990559,-0.04641775997246263,0.08372329657749804,-0.5818849048253343
169.0,0.02765578284815106,0.07949370574350904,-0.03505389457120378,-0.00905704169944925,1.864876475216365,9.614538158929982,-0.2754573170731707,1.238763768686074,-0.544138473642801,72.94327793076317,-0.05616640440597953,-10.965816778127458,0.8000322076502755,-0.05637766511211645,0.07704076117623918,-0.5917099681829268
170.0,-0.024264162077104648,0.07569885916601099,-0.04191719118804092,-0.5282145948072385,1.794645161290322,9.601560975609758,-0.4380335365853658,2.588107297403619,0.8201809598741149,71.85049911487019,-3.100639260424862,-10.573707956333596,0.8053988857881591,-0.03175753973544454,0.09028297119000786,-0.5838657199726593
171.0,-0.027402242328874907,0.06515184893784422,-0.028269079464988203,-0.8277806845003932,1.8121693548387094,9.5824256490952,-0.18333128442171517,1.4756564712824547,0.3466832218725413,71.23447334775767,-4.8500676140833985,-10.697615066876475,0.8081477664545635,-0.01937697002498033,0.10032004798210069,-0.5792725205710071
172.0,-0.024939024390243904,0.06103560188827693,-0.024957120377655392,-0.9834588906372933,1.8132983870967738,9.572857985837922,-0.06059205350118016,0.5008322678992919,0.11835169158143193,70.99374877065303,-5.754796911880409,-10.722446646341464,0.809194437965185,-0.012825962790715972,0.10520763151927615,-0.5774597220395357
173.0,-0.027179189614476792,0.06153796223446105,-0.019970495672698665,-1.0588705743509044,1.8117580645161295,9.570638670338314,-0.08639481707317073,0.4027094807238395,0.23024439417781273,70.8390366837136,-6.196400472069237,-10.706712234461055,0.8099220422124311,-0.00949961257277734,0.10745433872738,-0.5763577876689614
174.0,-0.025335562549173882,0.07514398111723052,-0.02118686073957514,-1.1419756097560976,1.8043225806451615,9.564307238394962,0.05773505114083399,1.3028668371361132,-0.0017628835562549239,70.70091955153421,-6.689833300550747,-10.670997246262786,0.8105078607513769,-0.005662134657356412,0.1097476724201416,-0.5752967592820614
175.0,-0.013024193548387098,0.08983870967741936,-0.022975806451612905,-1.312177419354839,1.8196774193548384,9.538330645161286,0.07953629032258064,0.565625,-0.027872983870967743,70.71199596774193,-7.692590725806452,-10.796572580645162,0.8099052174354842,0.0009641093306451622,0.11551075612903225,-0.5749997539274194
176.0,-0.0006129032258064522,0.10855645161290323,-0.025951612903225816,-1.3947258064516133,1.8200564516129032,9.527024193548383,-0.033820564516129026,0.34576612903225806,0.09934475806451613,70.69153225806451,-8.17953629032258,-10.806754032258064,0.8097503652741938,0.004403686459677419,0.11800891487903226,-0.5747197305161292
177.0,0.009201612903225806,0.11891129032258066,-0.027725806451612912,-1.444951612903226,1.812233870967741,9.521499999999996,-0.012953629032258062,-0.0009576612903225978,-0.08487903225806448,70.6703629032258,-8.475151209677419,-10.76547379032258,0.8097743364677423,0.006785829677419355,0.11915539166935488,-0.5744514715967743
178.0,0.004524193548387097,0.12242741935483872,-0.031032258064516142,-1.442475806451613,1.817669354838709,9.520588709677416,0.05730846774193549,-0.04243951612903226,-0.09808467741935482,70.71003024193548,-8.456703629032258,-10.799697580645162,0.8095550531209678,0.006418978419354838,0.11934130235483872,-0.574748180604839
179.0,0.009709677419354835,0.13424193548387098,-0.030758064516129044,-1.3870887096774194,1.839556451612903,9.524298387096774,0.2797883064516129,-1.0649193548387097,-0.2305947580645161,70.89813508064515,-8.12711693548387,-10.923286290322581,0.8086940149274193,0.003237767161290322,0.11857826440322582,-0.5761080340645162
180.0,-0.009806451612903229,0.12635483870967743,-0.030580645161290332,-1.309991935483871,1.8813306451612901,9.52713709677419,-0.13074596774193548,-0.05751008064516122,0.0336693548387097,71.03981854838709,-7.673034274193549,-11.159223790322581,0.8080598896612902,-0.0013466126532258068,0.1180040420967742,-0.5771262386532258
181.0,-0.015008064516129037,0.11148387096774193,-0.027475806451612912,-1.3030967741935477,1.914395161290323,9.521548387096768,-0.07278225806451613,-0.03170362903225803,0.08916330645161291,70.98815524193549,-7.632510080645162,-11.36078629032258,0.808192590927419,-0.00259699639516129,0.1192321780080645,-0.5766966298064515
182.0,-0.013209677419354839,0.11124193548387097,-0.025137096774193558,-1.281298387096774,1.9172499999999997,9.524169354838708,-0.06638104838709677,-0.9569556451612903,-0.10922379032258066,70.98921370967741,-7.503326612903226,-11.374344758064517,0.8082482114596772,-0.0035890148225806453,0.11868163100806452,-0.5767208465080644
183.0,-0.010521121351766513,0.10621697388632872,-0.027139400921659,-1.2375660522273426,1.9142949308755761,9.530912442396307,-0.28781922043010755,0.06656105990783406,0.11369287634408604,70.99863911290322,-7.247919066820277,-11.34660138248848,0.8083320235107527,-0.005290318125192012,0.11726330904493087,-0.5768819313195082
184.0,0.0016931175302536431,0.09622640590461204,-0.02365614813982242,-1.1841303903937654,1.897981651118355,9.541298471394853,-0.306057402307894,-0.006078242666067227,0.18535560910044585,70.95250172108575,-6.935295956502191,-11.239622730976734,0.8087611492746527,-0.006994476683760444,0.11496144464077782,-0.5767300330326889
185.0,-0.007128067513394029,0.0784365703795287,-0.022040406878723173,-1.1622106515304782,1.892999381814095,9.545602225469263,-0.12415502884867557,0.03406994633022367,0.08172124967217415,70.81147718332022,-6.800550220579971,-11.208888002978533,0.809515906316024,-0.007665529431081637,0.1140681480052827,-0.5758553552081227
186.0,-0.011184313064328802,0.06911698699936308,-0.021702933573114536,-1.1634808175040274,1.8887485107339557,9.54532825671575,-0.21677116115919223,-0.08364792907721705,0.024329596118541838,70.71334947875688,-6.809181114420591,-11.181508689726874,0.8100542671106084,-0.007406003128601402,0.11399777528686636,-0.5751101989486719
187.0,-0.013731220261511374,0.06549024015585778,-0.0218101607283354,-1.1575049642201487,1.8847926267281108,9.547917275486125,-0.20108018620508786,0.2513347195683938,0.050149160765801205,70.65558615263572,-6.774362144543105,-11.157215915477128,0.810381318659848,-0.007473657065677569,0.11366178519388559,-0.5747210419530928
188.0,-0.020033044846577502,0.06348859166011014,-0.023206923682140054,-1.1807977970102281,1.8833548387096772,9.54477891424076,-0.11845003933910307,0.17560975609756097,0.08115656963021242,70.55037372147916,-6.909992132179386,-11.155163257277735,0.8108571121793864,-0.006341951734067664,0.11428533829740362,-0.5739425706923682
189.0,-0.018675059008654602,0.058522423288749015,-0.021973249409913458,-1.1889000786782062,1.8844311565696308,9.543345397324947,-0.0024783634933123466,-0.08700826121164437,0.1036191974822974,70.472128245476,-6.956569630212431,-11.16597167584579,0.81122624306845,-0.005967787735641227,0.11458760342879623,-0.5733706649252559
190.0,-0.014106215578284814,0.060254130605822194,-0.024974822974036193,-1.1802659323367428,1.8766506687647524,9.545910306845009,-0.07526553894571203,-0.2306107395751377,-0.17541306058221873,70.49193548387098,-6.906761408339889,-11.11630114083399,0.8111924744138472,-0.006123910399685286,0.11397017346970889,-0.573530436147915
191.0,-0.014289142407553107,0.06772423288749017,-0.022205743509047998,-1.0816003147128246,1.8876424075531073,9.555017309205354,-0.04246656176239181,-0.5742550157356412,-0.1275865460267506,70.86169354838711,-6.328493804091266,-11.169986723052714,0.8095304356254917,-0.010915388740361921,0.11141079789457119,-0.5762725444885917
192.0,-0.004115460267505901,0.0674577104642014,-0.01830192761605036,-1.0593210070810388,1.886433320220298,9.557925649095203,0.008443154996066092,-0.0467410011801731,-0.08842938630999213,70.94500885129818,-6.197611378835562,-11.160622787175452,0.8091574878638867,-0.011898632119984265,0.11071166472619984,-0.5769230093174664
193.0,-0.010416601101494885,0.06303933910306844,-0.019848544453186467,-1.008563729346971,1.9231723052714393,9.55732572777341,0.12035060975609757,-0.48110739575137684,-0.11790420928402832,71.1319802321007,-5.8988812942564905,-11.36970151455547,0.8081697769158145,-0.015291559261605036,0.11069148620180957,-0.5782218968603461
194.0,-0.005589889850511407,0.052961054287962245,-0.017976986624704958,-0.9991992525570419,1.93582218725413,9.554950039339106,-0.1575764653815893,-0.12534421715184896,0.055893489378442164,71.13276332612116,-5.845531323760818,-11.441700678599528,0.8081463572974039,-0.016034474095790716,0.11095970491207707,-0.5781975837204956
195.0,-0.007540912667191188,0.042899881982690805,-0.01912155782848151,-1.0063939811172307,1.9409836742722264,9.553918568056652,-0.09020456333595593,0.08264039142407553,0.08666650275373722,71.079814122738,-5.889675944138474,-11.466490460267506,0.8083835160196696,-0.015798333801927612,0.11137668510523208,-0.577795819082022
196.0,-0.01050432730133753,0.040115263571990564,-0.017633359559402047,-1.0388623131392603,1.9307136113296615,9.552128638867039,-0.22947728166797796,0.2880187844217152,0.18491591266719118,70.95099577104642,-6.079767407553108,-11.412731117230528,0.8089998762840285,-0.013993920590479936,0.1119638146534225,-0.5768686431821402
197.0,-0.007145161290322582,0.04220161290322581,-0.014258064516129036,-1.0813548387096774,1.9228225806451613,9.549991935483877,-0.026058467741935487,-0.03714717741935483,0.03190524193548388,70.80509072580645,-6.326360887096774,-11.376512096774192,0.8097016372741936,-0.011870845975806451,0.11289795926612901,-0.5757487149112903
198.0,-0.0039435483870967755,0.051895161290322595,-0.01542741935483871,-1.0632983870967743,1.9344838709677428,9.549250000000008,-0.08840725806451613,-0.06562499999999999,-0.08825604838709676,70.90670362903225,-6.220514112903226,-11.450907258064516,0.8091684161854837,-0.013094994290322577,0.11287753233870966,-0.5764764598790322
199.0,-0.004790322580645162,0.04783064516129035,-0.015967741935483875,-1.0511935483870967,1.92475,9.55178225806452,-0.11325604838709677,-0.14833669354838708,-0.013104838709677415,70.9523689516129,-6.153326612903225,-11.379435483870967,0.808975172483871,-0.013337362677419352,0.11207742971774196,-0.5769025243790322
200.0,-0.018758064516129033,0.05085483870967743,-0.014362903225806453,-1.0394919354838708,1.9190241935483874,9.553814516129037,0.013961693548387097,-0.04788306451612903,-0.07752016129032258,70.99616935483871,-6.08210685483871,-11.354586693548388,0.808830803983871,-0.013720555395161291,0.11150547147580647,-0.5772108014354839
201.0,-0.011678992918961448,0.055522423288749026,-0.01648662470495673,-1.0196441778127459,1.9175019669551527,9.556049370574353,-0.07615435680566482,0.015220544846577491,-0.048652635719905586,71.06291183123525,-5.970069089299764,-11.332076121164437,0.8085637008082218,-0.0145375403947679,0.11080031857808811,-0.5777024106075923
202.0,-0.017266915814319436,0.07219669551534225,-0.020323957513768694,-1.0383180566483083,1.9121380802517691,9.555633556254922,-0.054584234854445315,0.20818990952006294,0.08807287568843429,71.06096700432731,-6.074424665617624,-11.290483625098348,0.8085392994404015,-0.01357190513690008,0.11110131080114083,-0.5777008939207314
203.0,-0.026161683713611335,0.08723544453186469,-0.031827301337529514,-1.0122759638080252,1.8974480723839489,9.561482100708103,-0.2935975609756097,-0.07866714201416207,-0.170378884736428,71.18181918764752,-5.923502655389457,-11.206103707710465,0.8080420167161686,-0.01436157199586939,0.1097215222191188,-0.5786331618837528
204.0,-0.001686448615638235,0.08653726911693081,-0.025847214416844635,-1.0017195871267468,1.878681025439286,9.566117970476936,-0.08375394561837321,-0.6126354623281256,-0.12390752032520325,71.20916396210333,-5.85603656194972,-11.100290477127121,0.8080151072161872,-0.014311542128695065,0.10861298862415233,-0.5788776146532819
205.0,-0.007250777415608259,0.08231534974335918,-0.024169476602600132,-0.978889887977221,1.8750115394702327,9.57005121576561,-0.12353450133003632,0.13646969015773108,0.018105002622606864,71.2306238526095,-5.727237645648346,-11.080157286163875,0.8079556361890337,-0.015142043983308973,0.10778976263455843,-0.5790943727291783
206.0,-0.013992179011651867,0.07558950582593382,-0.028867174328425317,-0.962992581769136,1.8804872990895811,9.570587033082308,-0.06359722144168445,-0.21432177513019365,-0.12441594310816381,71.30845404349782,-5.632989818665468,-11.106491478869282,0.8075648019806582,-0.016044970621155064,0.10749101452884866,-0.5796724806662262
207.0,-0.012050279120302723,0.07628904874302198,-0.02739434640890188,-0.9334636394290212,1.882325868270204,9.572423728972307,0.016623522442021657,-0.1510252168333895,-0.1577140937019969,71.35803430931774,-5.4577948208197515,-11.115277972912217,0.807371209377721,-0.017371041846277767,0.10667728880258326,-0.5800473272370272
208.0,-0.010760930650781163,0.09070904050054325,-0.023088494248997796,-0.9076934172567532,1.8740817129369456,9.576425574163572,-0.11309640890187703,-0.32626985688059645,-0.12888824884792627,71.38626081825335,-5.305365104342288,-11.061616040987598,0.8073155771690833,-0.018242380409314002,0.10553465600670638,-0.5803084175482371
209.0,-0.0112637218538084,0.09339215465887377,-0.027078041287325317,-0.9098490127758423,1.8757390131505005,9.575543816267652,-0.12603265145554682,0.24966749091454046,0.024289554531490024,71.33536351204526,-5.320309280281743,-11.072210670263384,0.8075702633464463,-0.018158307681615526,0.10568748032670187,-0.5799328168847175
210.0,-0.008733468210258138,0.08391292945187515,-0.022397624667490915,-0.9542454385373351,1.8891703195833796,9.569030197444832,-0.1319616162751489,0.20006041362256938,-0.04866106552770597,71.3096525982541,-5.581938902626353,-11.152510443595219,0.8075603248362744,-0.01667470829212094,0.10759657454422838,-0.5796354740009739
211.0,-0.013229927690981979,0.06841931737289725,-0.017462815181147204,-0.9744235884755164,1.9115390955752873,9.562328125585406,0.10096099808924358,0.22761886028998538,-0.1483997414858941,71.38555130943014,-5.700680941141209,-11.288027799632834,0.8070229044314563,-0.01656271366715372,0.10912955644299575,-0.5801009580274248
212.0,-0.009155483121651492,0.06560777040950133,-0.014766026001273838,-1.0084250121763891,1.9313037728073128,9.555137312202618,0.00785166348207262,0.031118635495110694,-0.04229094076655052,71.42428627627291,-5.901776347832603,-11.414529242066614,0.806675915515492,-0.01579540365340377,0.11100876989419653,-0.580251585358323
213.0,-0.01620984601551085,0.05851433067326066,-0.01861957214042187,-1.069104979206474,1.9336434378629503,9.547292158405458,-0.19785508223745832,0.44830701360008984,-0.08926182983027986,71.44822224719942,-6.259931952718144,-11.438255404443444,0.8064148557838595,-0.01335254355865273,0.11294711606076953,-0.5802977309318498
214.0,-0.009480499044621784,0.059713386534787014,-0.016814394365141812,-1.0828988797722077,1.9285490614813992,9.54708924356525,-0.05246056723240043,-0.3430219924319059,-0.15623805777228278,71.52680889625717,-6.334809486343712,-11.410573554756283,0.8060021491615151,-0.012728038931400096,0.11312067990596081,-0.580851819157169
215.0,-0.016120433854108128,0.07071921246862238,-0.021151436813907312,-1.0777497471057658,1.908957326439624,9.551950151736543,-0.19899814075905736,0.4023177288224494,-0.054520718594282716,71.56368286594733,-6.309561041174928,-11.29435647783897,0.80588518690257,-0.012366273989509572,0.1121715332655764,-0.5812077961269716
216.0,-0.014998847926267277,0.07488517665130567,-0.01823425499231951,-1.0726624423963131,1.906019969278034,9.552425115207374,0.021901401689708153,-0.42513440860215057,-0.07405913978494624,71.6179891513057,-6.276377688172043,-11.276780913978495,0.8056428777392474,-0.012589705924731185,0.11186543594278033,-0.581575612235791
217.0,-0.010898617511520735,0.0654546850998464,-0.01768970814132105,-1.1100368663594469,1.8968003072196624,9.550071428571433,-0.09179627496159753,-0.16155913978494624,-0.15325940860215054,71.60236655145928,-6.5006384408602145,-11.226646505376344,0.8056777362526881,-0.010708285639784945,0.11265008020122888,-0.5814257266582181
218.0,0.0055,0.05987096774193549,-0.016354838709677424,-1.0594999999999999,1.9284354838709676,9.548508064516131,-0.07494959677419355,0.004334677419354824,0.050554435483870966,71.70892137096774,-6.202368951612904,-11.416582661290322,0.805129266169355,-0.013878114685483873,0.11245122166129033,-0.5821588329274193
219.0,0.0012499999999999983,0.04932258064516129,-0.01399193548387097,-1.0569274193548384,1.9265080645161294,9.550322580645165,-0.22837701612903227,-0.19904233870967744,-0.12615927419354836,71.69082661290322,-6.182207661290322,-11.40226814516129,0.8052337151935488,-0.013920986612903224,0.11227830450000001,-0.5820540874193549
220.0,-0.005983870967741937,0.04618548387096774,-0.015491935483870966,-1.0315887096774192,1.9082580645161293,9.557274193548388,-0.22565524193548386,0.19133064516129028,0.13462701612903227,71.68185483870967,-6.0327116935483875,-11.282913306451611,0.8054376414838713,-0.014386379798387097,0.1106906519032258,-0.5820631447983873
221.0,-0.0018629032258064525,0.04763709677419355,-0.01833870967741935,-1.0226129032258064,1.9110322580645165,9.55784677419355,0.008215725806451607,-0.08004032258064518,-0.017389112903225798,71.69390120967742,-5.979586693548387,-11.294455645161289,0.8053647445483872,-0.014861765024193549,0.11051158247580645,-0.5821863478790321
222.0,0.0008548387096774174,0.047298387096774204,-0.01857258064516129,-1.032725806451613,1.906459677419355,9.55808870967742,-0.09828629032258063,0.12137096774193548,0.01990927419354839,71.74400201612903,-6.042137096774193,-11.275655241935484,0.8051344854596778,-0.014358323411290324,0.11066417062096774,-0.582486848233871
223.0,-0.018354838709677416,0.044838709677419375,-0.01949193548387097,-1.0850645161290322,1.9144032258064518,9.55035483870968,-0.031098790322580637,0.16728830645161288,-0.07701612903225806,71.75418346774194,-6.348891129032258,-11.328125,0.804894577919355,-0.012431039943548387,0.11258983013709675,-0.5824882268951614
224.0,-0.021903225806451612,0.04345967741935486,-0.020524193548387103,-1.1240887096774195,1.915709677419355,9.545241935483869,-0.027368951612903224,0.10982862903225804,0.06310483870967742,71.72111895161291,-6.579788306451613,-11.339264112903226,0.8049528562258068,-0.010824338725806452,0.11384868019354835,-0.5822015088790322
225.0,-0.010346774193548387,0.04720967741935485,-0.017854838709677426,-1.103717741935484,1.9224677419354843,9.546233870967747,0.08190524193548387,0.0251008064516129,-0.009324596774193547,71.71990927419354,-6.456905241935484,-11.379082661290322,0.8049787467338709,-0.011924891653225807,0.11348640680645158,-0.5822128790564515
226.0,-0.009355822187254129,0.05011546026750591,-0.02633851298190402,-1.080944138473643,1.9373261211644381,9.5463473642801,-0.1132290027537372,-0.11510375688434304,0.12942687844217152,71.73096479150274,-6.324686516522423,-11.463147865853657,0.8049431644775766,-0.013285223060778914,0.11342310295771045,-0.5822468635710072
227.0,-0.012409323367427227,0.05463394964594809,-0.021049370574350912,-1.0728379228953582,1.9409205350118017,9.545526947285607,0.03323293666404406,-0.5323514948859166,-0.20042658339889852,71.7044723642801,-6.2728621656176236,-11.485530586152635,0.8050657403831629,-0.013716218639653815,0.11330840660188828,-0.5820922931510624
228.0,-0.0020643007006106925,0.059192742872129195,-0.02052065302911094,-1.1561704975459897,1.9340904518376982,9.536451837698102,-0.1536516288261961,1.2004429161515118,-0.1605975562923832,71.69549415065003,-6.772153769060732,-11.456177351448051,0.8049019133160054,-0.009974448732653329,0.1155899235298228,-0.5818937055186955
229.0,0.003143597092652953,0.0734822880371661,-0.009791699449252558,-1.1033292495597768,1.9484900528267959,9.53821785433292,-0.08335241748154809,-3.5490851902326632,-0.7363520826308493,72.49952225235097,-6.452003074538234,-11.538704701491138,0.8008139158129988,-0.013563782120555614,0.11436460143898694,-0.5875594138753981
230.0,0.005713911056161251,0.09886516054100633,-0.03486231313926042,-0.2733951519238696,1.8369326739350345,9.58379903338204,-0.5905759432018283,-5.197201303810274,-0.7746454797497283,73.79326833014875,-1.5866888651605409,-10.844156269903714,0.7950326532999888,-0.045309954024577576,0.08346027893821888,-0.5972286858427935
231.0,-3.446854745044756e-05,0.10333895320520026,-0.057033831628638856,-0.04336555393203714,1.8078487130493428,9.599932561537596,0.2027204863062455,2.9822903787793633,-0.05547281855307029,74.15415776853621,-0.2718800344685475,-10.656883406391668,0.7935029123974373,-0.05394966060394889,0.07525697630624553,-0.599969352036267
232.0,-0.0030952380952380927,0.09213461466411899,-0.04042711026188603,-0.45490315087482647,1.8614615413435245,9.585613315349741,0.06409346783560002,1.9328589224832338,0.23090882694541232,73.70126517365404,-2.6731306901202654,-10.981667509647448,0.7955852839723127,-0.03841011980611442,0.09049294065546437,-0.5966387667513394
233.0,-0.015254580195571535,0.07941628264208911,-0.028451163313476455,-0.7184807613053087,1.9142819677044698,9.567660260012737,0.10501433067326064,0.898460623431119,-0.23898973436738974,73.53306826271027,-4.2085909107939,-11.30418961447679,0.7961110434520999,-0.029148349687160464,0.10095040131017945,-0.5951993993083811
234.0,-0.014794874676857365,0.05996777940129633,-0.018383724851073396,-0.9074661871042672,1.912318009816043,9.557984339290392,0.06610374283466336,1.7016152448390844,0.17392566782810687,73.29077685362108,-5.317415046270279,-11.307435090479938,0.7971781424420217,-0.021088201177175827,0.10683211521449176,-0.5933578668611142
235.0,-0.025591772507586832,0.05614596680529019,-0.016763852984151964,-1.1296260911917868,1.9440992094713565,9.533269116930795,0.053341013824884785,1.0545595893746955,0.0771182233711738,73.08116734105128,-6.6212665317897414,-11.516797797010229,0.7976991680707355,-0.012753837575212616,0.11506547954194299,-0.5916146106839009
236.0,-0.03695953692255818,0.053200442096586885,-0.014739912329998878,-1.2382937694353902,1.9476601476153017,9.522152261061773,-0.24439066539282903,0.47720111648121094,0.10144758532838784,72.97399732119442,-7.255263478326027,-11.54625295043273,0.7980668393988611,-0.008337794192799067,0.11860188989606985,-0.5906831669194483
237.0,-0.051801581057285245,0.06131220261511372,-0.01977010977483047,-1.2710017234273727,1.930208722041138,9.522596867858073,-0.04277424974710575,0.3573601588550448,0.15196227192686673,72.77717723202576,-7.445364074032445,-11.447809654939867,0.7990999532593384,-0.006263078202390318,0.11887983663774307,-0.5892734889704767
238.0,-0.03680558989921697,0.06042400059945301,-0.017422427035330264,-1.2908785171031436,1.971319939305384,9.511766569255553,0.5846809317747557,-0.2683104791877412,-0.26378577985088614,72.69314703458093,-7.563186561013076,-11.698555692930201,0.7993118577783709,-0.006617818334082649,0.12121779722917837,-0.5885103608542391
239.0,-0.04079386309992133,0.07242323255029784,-0.017183545015173655,-1.2379142501217637,2.1565424768648613,9.475983880334192,1.6475292467498408,-0.3243867314825222,-0.5590113474579447,73.36335351803979,-7.25335108276198,-12.814928721291821,0.7951115238953673,-0.015252100958656471,0.12730157431894645,-0.5926011160379996
240.0,-0.035807837847963736,0.06163058708928103,-0.017665121201903264,-1.2329288992544305,2.3595821063279763,9.42745641789367,0.2898696540968866,0.052908400771795705,-0.06605041259225958,73.76947437806751,-7.219400675789592,-14.042456200123636,0.7920493361356638,-0.022205104901371252,0.13558702945862838,-0.5946220120587464
241.0,-0.032629725375594776,0.05707335806076955,-0.01620756060095163,-1.175234610917538,2.2724039563897946,9.45794998314038,-0.9623988423063956,-0.4645236221947473,0.31710080176838634,73.59738839871116,-6.879584410475442,-13.501192817803753,0.793553285148477,-0.021645564055524338,0.13016036925754004,-0.5939009128680828
242.0,-0.028689670675508604,0.05386309992132181,-0.012736652804316063,-1.141129594245251,2.1874139597617184,9.483740736577868,-0.6376798358997415,-0.11945459143531527,0.03256153759694279,73.43337641901763,-6.680815630736952,-12.984496178487131,0.7948799864528866,-0.020213092204413474,0.12560902064950735,-0.5931940712066989
243.0,-0.029216589861751158,0.049193548387096796,-0.018253456221198158,-1.1307465437788018,2.1362396313364056,9.496992319508443,-0.4918778801843319,0.02119815668202766,0.019988479262672814,73.3436059907834,-6.61989247311828,-12.67952188940092,0.7955943206190477,-0.01898634022887865,0.12314837484639016,-0.5928233536820275
244.0,-0.03379154021954967,0.04553819639578886,-0.01867695103218314,-1.1411136900078676,2.0837210482934325,9.507085290922028,-0.46768796129781576,0.2357463658161927,0.08523085965306657,73.25712084597805,-6.685237182008917,-12.364214997564723,0.7962749273073884,-0.016819018254261735,0.1212954987839534,-0.5923828080799145
245.0,-0.039433516915814336,0.056943351691581455,-0.02113158929976397,-1.1649116837136113,2.0350997246262787,9.515247246262778,-0.1817577202989772,-0.11868361526357199,0.06586472265932336,73.23138768686074,-6.822117181353265,-12.070594020456333,0.7965747325615656,-0.014312444413650666,0.11997890520554683,-0.5923329300397324
246.0,-0.04743115656963023,0.07231412273800158,-0.02455291109362707,-1.1655662863886702,1.9900094413847367,9.525924468922108,-0.23777168568056647,-0.026024046026750597,0.03293420535011802,73.16337898308419,-6.819590873328089,-11.794722413453973,0.7971452014856413,-0.012838455936270653,0.11806948330723838,-0.5919857372319038
247.0,-0.04910267505900867,0.08294335169158144,-0.026312745869394187,-1.156190401258851,1.9619643981117227,9.533446105428798,-0.23100781864673484,0.046236968922108566,0.07674936073957514,73.06235985444533,-6.769220839889851,-11.614573908339889,0.797808060859756,-0.012195392387490164,0.1166001230084579,-0.5914043788377261
248.0,-0.05202202989771834,0.08694571203776554,-0.030149488591660122,-1.1455515342250195,1.9615200629425646,9.534185680566477,-0.03437254130605823,-0.04742328874901652,-0.09200432730133754,73.05100314712826,-6.702360346184107,-11.613424468922108,0.7979253419228953,-0.012636293584579069,0.1162536956837136,-0.5913057416113295
249.0,-0.05824547600314713,0.07638788355625492,-0.03176239181746657,-1.1594437450826123,1.9598394964594805,9.532462627852079,-0.009220102281667978,-0.09275177025963807,0.29037175452399683,73.0333448072384,-6.787450826121164,-11.609107002360346,0.7979726817836349,-0.012023541603461842,0.11663833689378442,-0.5911755410692368
250.0,-0.04450114270727961,0.0766702071859428,-0.02766943913678769,-1.144983009254056,2.066124086770822,9.510640290734704,0.38214835993406016,0.3870707822861639,0.26406724176688773,72.5436079811547,-6.705326233561875,-12.25037910718969,0.800035599638024,-0.015306319755310776,0.12078828282983028,-0.5874147569590684
251.0,-0.0338320032969915,0.08213132703907683,-0.02182449140159605,-1.1935772638717175,2.1198126334719563,9.492291034431084,-0.10379698447042074,0.3062665083736091,0.032554863999100805,72.3845842816867,-6.990276216702259,-12.579924998126709,0.800443023544425,-0.01480901605389457,0.12452535482561537,-0.5861032339830747
252.0,-0.029012775842044133,0.08578359746731108,-0.02091416582368589,-1.2350215428421567,2.0782173766438126,9.496852122438273,-0.630425517964857,0.2717512457382638,-0.40176932299276913,72.53455284552845,-7.236334344910269,-12.332375613502677,0.7997961758933724,-0.01197606220935896,0.12401209986250047,-0.5871648780573976
253.0,-0.022319133790416244,0.08173129519313627,-0.02275448653104043,-1.2145367352291037,1.9591086883219067,9.523304109999627,-0.4104379753474954,-0.6582087595069499,0.17298433929039747,72.60760883818514,-7.109119178749391,-11.618169514068413,0.7999902601064027,-0.009316968118841557,0.11836291659922821,-0.5880760830216176
254.0,-0.03178505863399648,0.08097973099546663,-0.023182908096362073,-1.1630197444831591,1.919007530628302,9.538984863811777,-0.35478134015211116,-0.18947515079989508,0.17033363305983287,72.45963644112247,-6.807264152710651,-11.36910147615301,0.8010793992703533,-0.010066962021655239,0.11511182294162828,-0.5872481231905886
255.0,-0.02608969315499607,0.07928477764040315,-0.023799782698287822,-1.1542763478326026,1.8783814769023266,9.548359372072987,-0.4223989359709265,0.1563003446854745,-0.0491832452886741,72.34637143606459,-6.758474298452661,-11.118356843130643,0.8018584287733694,-0.00903491750964745,0.11317457358023301,-0.5866006402491477
256.0,-0.019537109887227906,0.08357573713985987,-0.023187778651980073,-1.1586782061369,1.8770261511370872,9.548040725338133,0.17837707466936426,-0.24336269716383802,0.5123004945487243,72.24898139822412,-6.782098834813232,-11.109704582068861,0.8023434089462741,-0.008737999536173243,0.11323451226237308,-0.5859435548838559
257.0,-0.020946761080514034,0.07987186692143418,-0.022471244988947592,-1.1662125810198192,1.8916458731407593,9.54462328125586,-0.07357817241766884,0.17667472181634258,0.03548480761305309,72.04328237982841,-6.830155764115245,-11.198957513768686,0.8033485288730282,-0.008635868858416693,0.11412524832228092,-0.5844009353261397
258.0,-0.01394387621295568,0.08370934022704282,-0.021931137836723992,-1.1806515304784386,1.8996954778764372,9.54216215203627,-0.007274924131729782,0.08176773069574013,0.011025251957588703,71.9782206549024,-6.91554503390656,-11.249046026750591,0.8036097716332091,-0.008222177442583642,0.11489046848608148,-0.5838895239313626
259.0,-0.009521111985313403,0.09372957176576374,-0.023999400547000865,-1.1879803679142777,1.9053080064441184,9.540856843130644,-0.03928852422164774,0.05271018320782286,-0.008728129331984564,71.95146772320257,-6.965566576748717,-11.283625098347759,0.8036873438771864,-0.008070119467161215,0.11538038130283618,-0.5837063007383014
260.0,-0.007006818777865198,0.09942025401820839,-0.02360630924281594,-1.1897140234535981,1.9086532164399967,9.540176651305686,-0.04543104417219286,0.009222912217601438,0.008588335019294895,71.93978775617248,-6.987503980742572,-11.304233870967742,0.8037168138308037,-0.008073974437750554,0.11560208122655578,-0.5836255900190328
261.0,-0.0058690007867820615,0.09938985051140833,-0.023184107002360354,-1.190252557041699,1.9097336742722246,9.540000000000003,-0.0305640243902439,-0.004000295043273015,-0.030128835562549174,71.9351396538159,-6.996656176239181,-11.310887096774195,0.8037291591888269,-0.008087693950826121,0.11566267288670339,-0.5835951076093628
262.0,-0.004586742722265932,0.09377832415420928,-0.024082218725413072,-1.1915975609756093,1.9089817073170718,9.540000000000003,-0.11505581235247836,0.06802345594020456,-0.04946154602675059,71.93120574350904,-6.9858379228953575,-11.306186073957512,0.8037522710027534,-0.008020328855822188,0.11564075435837926,-0.5835784947527539
263.0,-0.009729543666404408,0.08853461841070023,-0.02302399685287176,-1.2046913847364278,1.8928166797797006,9.540000000000003,-0.09927222659323368,0.03184746262785208,0.021538158929976393,71.93120574350904,-7.065302911093627,-11.213758851298191,0.8038039079937054,-0.006972664183516915,0.11534921791896145,-0.5835670670023605
264.0,-0.011309992132179387,0.07923859166011014,-0.020030487804878056,-1.159032258064516,1.8631392604248622,9.551329661683713,-0.03264039142407553,-0.5125110641227381,0.004827645554681351,71.94379425649095,-6.787175452399685,-11.027881589299763,0.8039694847993706,-0.008003312284815106,0.11265728496144768,-0.583823886011015
265.0,-0.017155782848151065,0.06840204563335957,-0.020969905586152637,-1.1094335169158143,1.893367427222659,9.550322580645162,0.6503306943351691,-0.3503921616837136,-0.34404750196695516,72.09092250196696,-6.49468922108576,-11.204809205350118,0.8031917300078677,-0.011151281966955154,0.1124532174036192,-0.5848666235090481
266.0,-0.024107002360346193,0.047584579071597174,-0.018426435877262004,-1.017411487018096,1.8947600314712827,9.559763965381586,-0.26898111723052714,-1.2627360346184107,-0.47910110149488594,72.73254327301336,-5.954268292682928,-11.203579858379229,0.8000852278127457,-0.015579908394964596,0.10959028000786783,-0.5895063036349331
267.0,-0.03074744295830056,0.033705743509047995,-0.019260424862313143,-0.7936113296616838,1.8807553107789143,9.581227380015736,-0.032848151062155787,-1.5984461054287964,0.10242918961447678,73.02050550747443,-4.639653815892998,-11.098495279307631,0.7990685683792291,-0.02464634213217939,0.10204674762391817,-0.5918519070495671
268.0,-0.0315027537372148,0.023564122738001573,-0.01859166011014949,-0.6072934697088906,1.9013139260424867,9.591329661683712,0.056451612903225805,-0.4615952006294256,-0.13434303697875688,72.82213808025176,-3.553206136900079,-11.201416207710464,0.8003041096774195,-0.03274216807238395,0.0972809147993706,-0.5905988858143194
269.0,-0.04344235884755161,0.008548199767711961,-0.017987336555393207,-0.6595968678580795,1.907344423213817,9.587922146041738,-0.30022292158405456,0.21119946798546324,-0.16605316398786107,73.10993874339664,-3.8564708141321047,-11.237427878311042,0.7987404374778015,-0.03102808830617062,0.09904474691731295,-0.5925541470083548
270.0,-0.044093514667865576,-0.001224757408864411,-0.015029785320894684,-0.6436986250046832,1.9447117005732268,9.582740249522306,0.26841210520400133,-0.3576556704507138,0.3701879847139485,72.96218762878874,-3.7625135813570116,-11.458213911056163,0.7993858337522011,-0.032715408424937246,0.10015652389606983,-0.5914503230122514
271.0,-0.04119703270765426,-0.009640702858641489,-0.011157693604585813,-0.6133205949571017,1.958414072159155,9.582691918624253,0.10792261436439249,0.010171968079127791,0.24270119141283575,72.67523228803717,-3.5846399535423927,-11.54050054325428,0.8008514273560374,-0.03414004018021056,0.09988734320295231,-0.5894542579970777
272.0,-0.049431718556816905,-0.01807762916338841,-0.01260717095650219,-0.7652850024352778,1.975657862200742,9.565527705968304,0.5121782623356188,1.8941005395076993,-0.06913425873890078,72.5333380165599,-4.4723357124124234,-11.66133013000637,0.8012339179895845,-0.028220187541718185,0.10533686971870668,-0.5881815235414185
273.0,-0.04355928964819602,-0.03187123000262262,-0.010399572889738112,-0.7882255067251134,1.975821063279757,9.564320107901542,-0.22276118354501517,-1.377207204675733,-0.3981686242553669,72.84163458656477,-4.60531616462478,-11.662136347457945,0.7996199105565548,-0.027588975489977893,0.10589097583338952,-0.5903285567384512
274.0,-0.03368210258139447,-0.028773556629575515,-0.011112996890337566,-0.5299107564347534,2.029991944850324,9.565517964857069,0.26338419317372896,-0.9760940017234272,-0.8355042430032595,74.08045150987223,-3.0932446798546325,-11.972029195234349,0.7931389114418718,-0.04101037780259263,0.09959955137829231,-0.598948561280132
275.0,-0.03948544453186467,-0.03695436664044061,-0.009485837922895358,-0.5644162077104644,2.0296372934697087,9.56726435877262,0.43731805664830836,-0.14928452006294246,-0.14609313532651458,74.32093332022029,-3.296646341463415,-11.971181648308418,0.7919581978276948,-0.03978318046734854,0.10071800355704169,-0.6006434695279308
276.0,-0.046320220298977186,-0.03910660896931552,-0.008145751376868605,-0.6136518489378442,2.066919354838709,9.558112903225812,0.1996041502753737,0.20690278324154218,0.13788478560188824,74.30164486624705,-3.5844708890637293,-12.192514506294255,0.7918973025802516,-0.03892409019040126,0.1038601576007081,-0.6003683779740364
277.0,-0.04224075531077892,-0.046504917387883565,-0.0007462627852084969,-0.5955517309205349,2.094540322580645,9.55405645161291,0.1821609461054288,-0.45786413257277725,0.1382720298977183,74.26181033634933,-3.4801386703383166,-12.351776406372935,0.7920385126449644,-0.04052232464358772,0.10445031330035404,-0.6000350715837924
278.0,-0.06387037765538944,-0.05351455546813533,-0.0029457120377655386,-0.5988121557828481,2.0978790322580654,9.552701612903231,-0.02628343823760816,0.13450039339103073,0.12180738591660108,74.13924690204564,-3.5002003835562547,-12.375863001573563,0.7926914867861921,-0.04035686434598741,0.10474253640420929,-0.5991663664451219
279.0,-0.05514889850511408,-0.06338630999213218,-0.0006341463414634139,-0.5729907553107787,2.0876693548387095,9.557911290322583,0.03756392604248624,-0.2733748033044846,0.1712111526357199,74.00659421715184,-3.349066925649095,-12.316157307238395,0.7934699045422897,-0.04098450485444531,0.10356839396420142,-0.5983180333394964
280.0,-0.05174783634933125,-0.06762863886703384,-0.000962234461054287,-0.5717816679779699,2.08441935483871,9.558806451612906,0.10476986624704956,-0.11697974036191972,0.08797452793076319,73.96287372147914,-3.3389235837922895,-12.300644177812746,0.7937232854606611,-0.04090196578206137,0.10343217102242327,-0.5980240589197482
281.0,-0.04515322580645162,-0.06464516129032259,0.0015645161290322577,-0.5659435483870967,2.1056290322580637,9.554919354838713,-0.03326612903225806,0.28981854838709675,0.21880040322580646,73.95201612903226,-3.304788306451613,-12.419052419354838,0.7936890628790323,-0.041763945758064525,0.10413321292741934,-0.5978811460806451
282.0,-0.050209677419354844,-0.06540322580645162,0.0014596774193548386,-0.6411048387096773,2.0823951612903215,9.554911290322583,0.16421370967741936,-0.09581653225806452,0.05015120967741936,73.7273689516129,-3.74133064516129,-12.29117943548387,0.7948435141290322,-0.03778346887096774,0.10557073801612904,-0.5963417805000001
283.0,-0.03716935483870968,-0.06037903225806451,0.0012016129032258063,-0.7004193548387097,2.090080645161289,9.548427419354837,0.10720766129032258,0.7034778225806451,0.03346774193548387,73.70176411290322,-4.092338709677419,-12.343548387096774,0.7948537517016128,-0.03555401237096773,0.10776367176612903,-0.5960442329516129
284.0,-0.04171774193548387,-0.06606451612903226,0.003548387096774194,-0.7211290322580645,2.0895967741935477,9.547064516129032,0.11537298387096773,-0.4260584677419355,0.0074596774193548395,73.66189516129032,-4.213911290322581,-12.339415322580646,0.7950338545887097,-0.03468106176612903,0.10836821485483872,-0.595755251282258
285.0,-0.044725806451612914,-0.07369354838709677,0.0023145161290322584,-0.7260564516129032,2.09125806451613,9.546435483870969,0.04017137096774193,0.13765120967741934,0.06547379032258065,73.57227822580646,-4.244304435483871,-12.360433467741935,0.7955127838951613,-0.03442451729032257,0.10865301306451615,-0.5950966138145162
286.0,-0.044519079464988204,-0.08407690794649882,0.00512509834775767,-0.6850214398111723,2.071417387883557,9.553111132966169,0.032223642800944134,-0.2924567269866247,-0.034302468528717545,73.54855059992133,-4.00222634736428,-12.230631638473643,0.7957855789331236,-0.03548361989260424,0.10653767385680567,-0.5950571806154603
287.0,-0.04101455546813533,-0.07748465774980329,0.0015312745869394174,-0.7021321793863101,2.086211841070024,9.548457710464206,0.15906766325727772,0.21662445908733283,0.11367033831628638,73.57897202006293,-4.107980920535011,-12.316294994099135,0.7955271602700629,-0.03522262472049566,0.10767502069551532,-0.5952179957566878
288.0,-0.0467755704169945,-0.08215873328088119,0.0001241148701809603,-0.6899822974036194,2.088988001573564,9.548472659323373,0.15126253933910305,-0.3434623328088119,0.06361378835562549,73.57976003147128,-4.033911536191975,-12.330371016915816,0.7955511507501967,-0.03580888187962234,0.10740015818745081,-0.5952051127458695
289.0,-0.04488452099958789,-0.08539061856056349,-3.068450039339096e-05,-0.6796720242778465,2.0903743771308676,9.549296813532658,0.19729625622869132,-0.1463159398299052,0.044297293563373426,73.53776308025178,-3.971435654808737,-12.338004968903377,0.7957611857694913,-0.03625098566292945,0.10715394245067625,-0.5949437444677887
290.0,-0.04294668614888914,-0.08016147765164289,-0.0011644374508261212,-0.6763246037990335,2.0998400209808548,9.548575924468931,0.20217020718594284,0.005547281855307021,0.2342128432805065,73.4552025963808,-3.951076673785171,-12.398151530478437,0.7961643654876172,-0.03661289772357723,0.10748760737364654,-0.5943325138488628
291.0,-0.0385800457082912,-0.07421153197707094,-0.0016912067738188903,-0.685051140833989,2.1036128282941817,9.547905661084268,0.22137377767786895,-0.2067152785583155,-0.044570267131242736,73.31492825296917,-4.002685830429733,-12.423806245550933,0.7968513598126707,-0.036261994500393385,0.10797016200629427,-0.5933368630523395
292.0,-0.05124161702446518,-0.06705556179985765,-0.0026574500768049153,-0.6932018283316475,2.1238072758607767,9.543148626877977,0.10988020306470345,0.21581478775617247,0.1334368326402158,73.27517468435053,-4.052456820651155,-12.538868438799597,0.7969525300116144,-0.03646877264958225,0.10903886601925744,-0.5929915969450374
293.0,-0.06028642613615077,-0.06713911056161254,0.00020156607096024877,-0.6993113783672398,2.1356998613764935,9.540307594320183,0.14551838634745795,0.07328898317785021,0.17585984039563896,73.13289123674647,-4.088015389082463,-12.609250309092953,0.7976158615282304,-0.03646243266625454,0.10979968479562399,-0.5919603631381364
294.0,-0.04858266831516242,-0.07004008841931737,0.0024926005020418866,-0.72995129444382,2.1344752912966913,9.538230115020042,0.10115301037803004,0.17430735079240195,0.15363558877524258,73.04343224307819,-4.266365535199131,-12.600394327675996,0.7980325916027873,-0.03506210082237458,0.11070572501180174,-0.5913114801862052
295.0,-0.04792233337079916,-0.07069274287212918,0.0011558203139635083,-0.756549211344648,2.1350975984414218,9.533827882057615,0.10636427072796073,0.0906450207935259,0.1834267637031209,72.96764944175939,-4.422103892697913,-12.603624583192836,0.7983588046094188,-0.03389406649301262,0.11154400757277734,-0.5907812739483347
296.0,-0.05323910681503129,-0.06759225956314863,-0.001279644824098011,-0.7762376831141582,2.1367170581844057,9.531629762841398,0.12651853621070772,0.1324627215166161,0.11649526057472555,72.92574978457156,-4.534486109550036,-12.624393522161029,0.7985505108695815,-0.03313109297834475,0.1122597244232138,-0.5904306527730319
297.0,-0.050634146341463425,-0.0590180959874115,0.00045003933910306806,-0.7904752163650666,2.141154996066089,9.530676632572767,0.15830055074744298,0.08171715184893784,-0.07174468922108576,72.93469708890638,-4.620377655389458,-12.646941384736428,0.7984731110999214,-0.03267331438394964,0.11287433617781277,-0.5904521137498031
298.0,-0.07285287175452398,-0.06002832415420929,-0.0021447678992918963,-0.8814209284028321,2.1433217938631,9.521438237608177,0.24721675845790714,0.4851003147128245,0.2647423288749017,72.75187844217152,-5.1542387883556255,-12.672354445318646,0.7992294573060581,-0.028802379601888275,0.1157907977498033,-0.5890406593768687
299.0,-0.06473170731707317,-0.05128166797797011,0.0006593233674272228,-0.8682297403619197,2.171597167584579,9.516322580645154,0.0903422501966955,-0.051268686073957515,0.39159618410700237,72.46672895357986,-5.076662077104642,-12.844502360346183,0.800582911602675,-0.029922012220298975,0.1166664776577498,-0.5869737377655388
300.0,-0.06889693154996065,-0.05416561762391819,-0.0017309205350118017,-0.8998607395751375,2.16749409913454,9.514387096774186,0.0788109756097561,-0.028250393391030686,0.31241886309992134,72.19292879622344,-5.2640096380802515,-12.826249016522421,0.8019022326400471,-0.028237612269866246,0.11753994742368215,-0.5850785244256491
301.0,-0.05661290322580645,-0.04836290322580647,-0.002225806451612903,-0.8789516129032258,2.1555967741935493,9.519999999999992,0.06683467741935484,-0.2940524193548387,0.07978830645161292,72.06108870967742,-5.137197580645161,-12.74798387096774,0.8026920448951615,-0.028600138596774193,0.11640152454032258,-0.5842130104677421
302.0,-0.037072580645161286,-0.05097580645161292,0.00040322580645161263,-0.8693870967741935,2.155838709677419,9.52112903225806,0.12076612903225806,0.0981350806451613,0.0736391129032258,72.01517137096774,-5.079284274193548,-12.74788306451613,0.8029469171370969,-0.0289574900483871,0.11614394629838709,-0.5839023217419356
303.0,-0.033145161290322585,-0.05701612903225808,-0.0007580645161290324,-0.8388870967741935,2.1493790322580644,9.524548387096766,-0.02721774193548386,-0.3179939516129032,0.0007056451612903226,72.0602822580645,-4.898689516129032,-12.712701612903224,0.8028024010161291,-0.030100619169354838,0.11492772217741937,-0.5842821179354838
304.0,-0.04108870967741936,-0.057225806451612904,-0.0025,-0.8236370967741935,2.1317580645161294,9.530274193548387,0.0591733870967742,-0.39188508064516125,-0.04168346774193549,72.09375,-4.81335685483871,-12.604687499999999,0.8027649433548387,-0.030211073137096773,0.11373483000000002,-0.584559582
305.0,-0.05047265932336744,-0.05651317859952794,-0.002444335169158143,-0.79101730920535,2.1381597167584587,9.53104071597167,0.2590049665617624,-0.253302025963808,-0.09383359559402046,72.16097806845004,-4.6229015047206925,-12.635599429583005,0.8024275644549568,-0.03184421752340676,0.11299195605468136,-0.5850826608298585
306.0,-0.057933910306845006,-0.06626868607395751,-0.002081038552321007,-0.7784763965381588,2.1517976003147132,9.530330841856799,0.03179583005507475,0.21669576121164436,0.1248069925255704,72.16904750196696,-4.5493791797797005,-12.713465037372147,0.8023539586105428,-0.03275331595121951,0.11317989323701808,-0.585097945177026
307.0,-0.05860405192761606,-0.07033595594020456,0.0022659323367427214,-0.8003027143981116,2.1456447678992925,9.528350904799364,0.12436565696302125,-0.20901603068450036,0.020342004327301336,72.12403988001572,-4.677738985051141,-12.68342102675059,0.8025784502246261,-0.03161866251593234,0.11361430543705742,-0.5847637160320613
308.0,-0.04617014162077106,-0.06461605035405193,0.0033052714398111712,-0.7898668371361133,2.1422704563335953,9.53060051140833,0.18670461250983478,-0.18709677419354837,0.026738296616837135,72.17258925059008,-4.619506048387096,-12.658861132966166,0.8023747344071599,-0.031972966345003934,0.11314340677930763,-0.5851214574317467
309.0,-0.039411093627065304,-0.0568174665617624,0.002220692368214004,-0.8149177812745867,2.1547281667977973,9.526564909520054,0.07773406766325727,-0.18040175059008653,0.09782651455546813,72.11567417387883,-4.769952301337529,-12.73501180173092,0.8025574254956727,-0.031258785257671125,0.11443350329464985,-0.5846535187863886
310.0,-0.03114554531490015,-0.05368298302798697,0.004959209096699261,-0.8552339833651794,2.143963498932224,9.524453261398968,0.10923602525195758,0.33939735069873744,0.13479426585740512,72.02511069976771,-5.003461782529691,-12.672355850286614,0.8029760633832564,-0.029186978152045635,0.11522035087946311,-0.5840298869517346
311.0,-0.03271582181259601,-0.06163795848787981,0.00754623281255854,-0.9205326982878125,2.1498160428608886,9.517035002435273,0.04381732138173916,0.5225272563785546,0.06748113830504665,71.99905568590535,-5.384729403169607,-12.715181381364504,0.802964769531106,-0.02662066470063879,0.11746319240075305,-0.583719688612772
312.0,-0.04299127046570006,-0.06789854257989586,0.007193061331534975,-0.9726844254617661,2.161776628826196,9.508094114120862,0.14746309617474054,0.17416685399572893,0.11527762167022591,71.97154237383387,-5.685554119366078,-12.79389822412049,0.8029221030268628,-0.0248137811505751,0.11955487118129705,-0.5834394804694466
313.0,-0.06111011202277922,-0.07491701322543179,0.005669701397474806,-0.9863579483721103,2.1779693529654187,9.503519913079314,0.15017234273725225,0.11990699112060246,0.1342517140609194,71.9035770484433,-5.766754243003259,-12.883155839046868,0.8031675104552096,-0.02462292526844255,0.12064163562998761,-0.5828898738971937
314.0,-0.055448840433104794,-0.07014930126259789,0.005336817653890825,-0.9807950245401071,2.2060303098422684,9.497991270465702,0.20138927915776852,-0.2124697931887153,0.18411051478026302,71.86189867371024,-5.738805917725076,-13.05885762054625,0.8032735746532539,-0.025661354821475406,0.12170112761436441,-0.5824784982271176
315.0,-0.05477951369375446,-0.07114102131804728,0.005067063804278596,-0.9531242740998842,2.2186892585515707,9.498630811884157,0.14154349780824999,-0.19749517627664756,0.13743279569892475,71.79889522685549,-5.574467985463265,-13.135614532988647,0.8035955775073993,-0.02714239842568656,0.12135988165879882,-0.5820410725684687
316.0,-0.056240755310778906,-0.08309047993705745,0.002763178599527931,-0.9238678206136901,2.222958300550747,9.499150275373722,0.17442958300550748,-0.17380999213217938,0.13870967741935483,71.77559008654603,-5.404553501180173,-13.1595987411487,0.8037626662360345,-0.028472684616837135,0.120672727447679,-0.5818831507442959
317.0,-0.05667820613690008,-0.08951062155782849,0.007852084972462628,-0.9101510621557827,2.219919748229741,9.502026750590085,0.045279307631786,-0.07662273800157356,0.10878245476003148,71.75879228953579,-5.324862313139261,-13.140027537372148,0.8039313843509046,-0.028907661464988195,0.12016775424232887,-0.5817375496868608
318.0,-0.06011644374508262,-0.07699370574350906,0.006052714398111723,-0.8766050354051926,2.2067269866247057,9.507981117230523,-0.004061762391817464,-0.3819876081825334,0.19472364280094412,71.75685483870967,-5.126819433516916,-13.059338119590873,0.804037651324941,-0.029939909786782057,0.11861523320692366,-0.5818502806719117
319.0,-0.07420456333595593,-0.06715932336742722,0.00961959087332809,-0.8399508261211645,2.194287962234461,9.51492289535798,0.09553009441384737,-0.14540961841070021,0.2596356215578285,71.61212627852085,-4.913085169158143,-12.978110247836348,0.8048880255326516,-0.030923805605428793,0.11698679954209285,-0.5809510212250195
320.0,-0.05921243115656964,-0.057072187254130616,0.009376278520849725,-0.7544852478363492,2.201977970102281,9.519590479937053,0.11818695908733282,-0.2670448957513768,0.17670510424862312,71.60779897718331,-4.41293027143981,-13.014964840676631,0.8049784508859166,-0.03469438299075531,0.11474404279543667,-0.5810347976565695
321.0,-0.05668686073957514,-0.05824173878835563,0.007127655389457121,-0.7494805271439811,2.2029083398898504,9.519859756097558,0.2889321892210857,-0.16540248819826908,-0.018678697875688433,71.52955473052714,-4.3806586841070025,-13.01844512195122,0.8054056474268292,-0.03487107379779701,0.1146418990832022,-0.5804675908524783
322.0,-0.045101494885916596,-0.05222974036191976,0.00968076317859953,-0.7283491345397326,2.2188815892997624,9.51836939417781,0.07306992525570416,-0.19825063926042485,0.007092102675059008,71.68899611526356,-4.255374704956727,-13.114666109362705,0.8045628700118017,-0.03639263800373722,0.11463350270692368,-0.5815447268294649
323.0,-0.044615263571990554,-0.04893745082612117,0.0064492525570417,-0.7298560188827694,2.217545633359558,9.517999213217937,0.17680714004720693,-0.23518882769472854,0.037795043273013376,71.6774365656963,-4.26226396538159,-13.107685877261998,0.8046296144575135,-0.03627431739299765,0.11459509478088119,-0.5814793423139261
324.0,-0.036516129032258066,-0.05154032258064518,0.0053387096774193555,-0.692016129032258,2.2182016129032247,9.521564516129025,0.06265120967741936,-0.37520161290322585,0.12741935483870967,71.68422379032259,-4.042741935483871,-13.104536290322581,0.8046428063467741,-0.03787851652419354,0.11349703833064514,-0.5815727474354838
325.0,-0.03483064516129033,-0.05351612903225808,0.006782258064516129,-0.7177983870967741,2.2054516129032242,9.522016129032252,-0.006401209677419355,0.34677419354838707,-0.078125,71.60892137096775,-4.1986391129032254,-13.02555443548387,0.805042341032258,-0.03628392407258064,0.11375820958064517,-0.5810627591693548
326.0,-0.026088709677419355,-0.058040322580645176,0.007830645161290322,-0.6992016129032257,2.207556451612902,9.521790322580639,0.08225806451612903,-0.7747479838709678,-0.08256048387096773,71.70267137096775,-4.085987903225806,-13.038155241935485,0.8045883182661291,-0.037253200943548385,0.11322262620161289,-0.5817292727177419
327.0,-0.03662096774193549,-0.05831451612903227,0.0039758064516129035,-0.6299677419354839,2.202064516129032,9.527016129032255,0.0038810483870967694,-0.21683467741935486,0.011391129032258064,71.82963709677419,-3.679032258064516,-12.999596774193549,0.8040744907822581,-0.04009138542741936,0.11086898302419354,-0.582700519733871
328.0,-0.029459677419354846,-0.0600241935483871,0.0002580645161290318,-0.6137096774193549,2.194072580645162,9.530516129032254,0.10806451612903224,-0.27076612903225805,-0.018901209677419352,71.84516129032258,-3.5856350806451607,-12.953074596774194,0.8040550977822578,-0.040560568604838705,0.11005755974999998,-0.5828512368467742
329.0,-0.05579032258064516,-0.05184677419354839,0.00405645161290323,-0.6190645161290322,2.2003629032258067,9.52904838709677,0.10231854838709678,-0.02575604838709679,0.046673387096774197,71.83331653225807,-3.6185987903225802,-12.991129032258065,0.8040854174677419,-0.04047649779032258,0.11048259094354838,-0.5827353691290322
330.0,-0.054580645161290325,-0.029290322580645158,0.01466935483870968,-0.6041532258064515,2.194483870967743,9.53132258064516,-0.05821572580645161,-0.6245463709677419,-0.2505040322580645,71.74672379032258,-3.529586693548387,-12.956048387096775,0.8045761110887097,-0.040849501330645153,0.10982695550806448,-0.5821627216129033
331.0,-0.02828225806451613,-0.0578951612903226,-0.02080645161290323,-0.23248387096774184,2.1450887096774194,9.549637096774195,0.3615423387096774,-0.1084173387096774,-0.04153225806451613,72.66310483870967,-1.3626008064516129,-12.655443548387098,0.8002264700241934,-0.05553165576612902,0.09594003008064514,-0.5888353408064516
332.0,-0.0496390168970814,-0.06339976958525347,-0.00918241167434716,-0.46509331797235026,2.199984639016897,9.530205069124422,0.22117655529953914,1.4405745967741936,0.07972110215053763,72.41602582565284,-2.7248487903225804,-12.991820276497696,0.8010994865910137,-0.0473303771781874,0.10553265410099846,-0.586820470702381
333.0,-0.05381874039938555,-0.06917588325652843,-0.0033099078341013843,-0.7802603686635943,2.1832434715821813,9.512350230414746,-0.3129872311827957,1.9121399769585254,0.48759600614439325,71.94230750768048,-4.572976670506913,-12.918212365591398,0.8031451976639785,-0.033281617557987704,0.11457564259792627,-0.5832341701632104
334.0,-0.0471163594470046,-0.06349423963133641,0.0010464669738863277,-0.9644961597542243,2.1645963901689713,9.502167818740396,0.26214237711213517,-0.39579973118279566,-0.2795722926267281,71.75367223502303,-5.648382296466973,-12.830337941628263,0.8038922802300306,-0.02492522002265745,0.11946303059139785,-0.5817521714400922
335.0,-0.03450460829493087,-0.05778917050691246,0.003810675883256529,-0.9542649769585254,2.173263056835638,9.505340245775725,-0.032910906298003084,0.03728878648233486,0.014069700460829476,71.87316388248848,-5.58621591781874,-12.87188220046083,0.8033482802066053,-0.025769863234254994,0.11949995188210444,-0.5826381374116744
336.0,-0.026527481173429245,-0.07157131617399123,0.009578134951856433,-0.9375626615713163,2.177933947772658,9.507891798733649,0.08690312277546738,-0.41795572477614173,-0.012844919635832307,71.95528338203889,-5.4818735716159,-12.894068927728448,0.8030178961636882,-0.026723634026450865,0.11918921263646923,-0.583232692173579
337.0,-0.030441159941553338,-0.07068581169682665,0.006348207260874452,-0.9131400097411113,2.138955453149001,9.520474317185567,-0.18818726349705894,-0.3142245981791615,0.06181390730958,71.89130816567382,-5.3374709639953535,-12.652367605185267,0.8035994156970512,-0.026484750208309912,0.11678925907553109,-0.5829628367665132
338.0,-0.03907695477876439,-0.07259252182383577,0.008296991495260576,-0.893215166160878,2.108201228878648,9.52914499269416,0.07951907946498818,-0.4837108013937282,0.0322606402907347,71.87015965119329,-5.221471657112884,-12.468172089843018,0.8038815313938404,-0.02639152273088306,0.11490639628968566,-0.5829653971059907
339.0,-0.05339792439399048,-0.09103896444494401,0.007132366715372224,-0.8949485969053237,2.1188125960061437,9.526726874227261,0.0035892248323404798,0.22425443033232179,0.06391737851710314,71.76838915739388,-5.233479684163201,-12.536865422801693,0.8043343008159681,-0.026500651641939224,0.11544013628616387,-0.5822352912795696
340.0,-0.05968985800457083,-0.1029863249784572,0.004206286763328463,-0.842432243078191,2.1172710276872353,9.531467011352134,0.17618509047993705,-0.15506608032670183,-0.05991040987598817,71.81052508336143,-4.924429583005507,-12.51569419467236,0.8042251080900678,-0.02868082604997939,0.11374938731134092,-0.5826119106200216
341.0,-0.05499160765801207,-0.10062320632422915,0.00397980592709153,-0.8807404930500917,2.1236892772844778,9.526350942265175,0.06834923288749016,0.13102508804465926,-0.016357456633322096,71.80713606646435,-5.150410250646285,-12.556704858379229,0.804146091436664,-0.027264426018882768,0.11519823065709416,-0.5825119480673073
342.0,-0.06569622719268667,-0.10621237495785096,0.005212993143756323,-0.8555286332471621,2.1232233805402574,9.529144149713382,0.051603244071035184,-0.5392723085496983,-0.04817641011951594,71.89202212356224,-5.002637359034881,-12.556087082256191,0.8037614388134763,-0.028412437497002736,0.11439985414874866,-0.583148082940214
343.0,-0.06304166198344012,-0.1050280993593346,0.00659941553332584,-0.8378076879847141,2.1319459742984526,9.528711925368096,0.10733252781836575,0.20597298714922635,0.05411117043198081,71.90771936233187,-4.900652373459218,-12.602841313551384,0.8036807492019781,-0.029406431583867222,0.11421454337285977,-0.583248478259151
344.0,-0.055473979993256164,-0.09941957963358436,0.0066875725900116135,-0.8804514630399761,2.131747180697614,9.524302199243186,0.1277734067663257,0.062318290809636204,0.02929732868757259,71.84315499606609,-5.150508598403956,-12.61012841407216,0.80391168323847,-0.027577288199767708,0.11554883626630699,-0.5827568297263497
345.0,-0.05753636057097898,-0.09622827919523436,0.003949608482259937,-0.9017481548087369,2.1079074219774463,9.527064553594847,-0.1451760424862313,-0.0787198868532464,0.05593013562624105,71.77046616837137,-5.280088091491514,-12.459740642913342,0.8043770500535387,-0.02585672582687048,0.11517106731883406,-0.5822600367907909
346.0,-0.05365381589299765,-0.08933674272226594,0.0020354051927616054,-0.9141778127458694,2.1033170731707314,9.528048780487802,0.21902537372147912,-0.029720692368214004,-0.011782061369000785,71.79148308418567,-5.350432730133753,-12.43329563335956,0.8042626347812746,-0.025253601404405978,0.11534456937529504,-0.5824190568009442
347.0,-0.046137536997489806,-0.08048999662807688,0.002758738900753063,-0.8983554381626766,2.153650781162189,9.518301674721814,0.4425263899816418,-0.31310811696826646,-0.00931915252332247,71.94149900715597,-5.251137321569068,-12.73462906504065,0.8032995099836462,-0.027612974857161587,0.11693325760230038,-0.5833112179956539
348.0,-0.04652274174815482,-0.08214114308193773,0.005781415083736091,-0.8567544303323218,2.168245532201866,9.518509609980889,0.14302755376344087,-0.4166101167060058,0.03379439698774868,71.99169757596192,-5.003543680454086,-12.82514793141883,0.803071063154687,-0.02987301978892698,0.11630183347856954,-0.5836421537932637
349.0,-0.05797871941853059,-0.09116331347645275,0.005551309430144993,-0.7973219437263495,2.174779139035631,9.524038439923562,0.07236755835300289,-0.28376606346708627,0.02309064853321344,72.05455256453486,-4.658627908283691,-12.854232231838447,0.8027974696156006,-0.0325469974313439,0.11471687613090553,-0.5841871492270803
350.0,-0.07347008354876175,-0.10134876924806115,0.002000674384624029,-0.6928859915327263,2.1764021580307977,9.531173429245811,-0.047141358510359284,-0.8706890899554156,0.029223333707991458,72.16267655764115,-4.051260256266157,-12.85003606084448,0.802390395346746,-0.0370102768667341,0.11156872529991384,-0.5850660227803379
351.0,-0.07155801581057285,-0.09767674497021467,-0.004290772170394516,-0.6175130193698248,2.1614937619422285,9.539040687872319,-0.08459546289011277,-0.24307467873065824,0.10396060469821289,72.17956310179461,-3.6093486568506234,-12.753524127983216,0.8024996933460717,-0.03969192508560937,0.10864649875931964,-0.5853047535498856
352.0,-0.053570866584241886,-0.0962039638829568,-0.0014656625828931096,-0.6163909182870628,2.134026450863587,9.545914353152753,0.13084934996815406,-0.33819920572477613,-0.053866471844441946,72.05610739575137,-3.6019093514667864,-12.589943707616799,0.8032724587467684,-0.03879728463189838,0.10750359802405307,-0.5845257515522086
353.0,-0.07861826083698624,-0.09171780750065565,-0.0009973399273163239,-0.5870259638080251,2.1509681165936083,9.543418380727587,-0.07276797422352102,-0.07771111985313399,0.15074369637705592,72.08427466187104,-3.4269838147690233,-12.691248922857891,0.8030815348967817,-0.04056744602225469,0.10730128182683302,-0.5847153468004196
354.0,-0.07015061256603349,-0.09770222172267806,0.0029785320894683597,-0.7346060469821287,2.078606271777003,9.547043572739877,-0.2976190476190476,0.6924080214304447,0.7533625566670414,71.70247461691207,-4.2939075905736015,-12.271603724101757,0.8051014139552658,-0.03187943671050167,0.1088352013438987,-0.5820776611711813
355.0,-0.054420355960070145,-0.0752682334346653,-0.0010077606509641345,-0.826002362960078,2.0750082206962883,9.540792567479844,0.4451411742308399,0.6819226583649396,-0.05226589748482413,71.34077928236414,-4.829363155248743,-12.260461075634762,0.8068003907207029,-0.027626017586949006,0.11155909472671303,-0.5794454202924686
356.0,-0.06763897420348118,-0.061678176512769314,0.00029076955650062365,-0.8697124324635166,2.0944553298603394,9.533118549672256,0.24622322283532555,-0.14972022077819103,-0.027313121834465562,71.42823287485635,-5.086298414760485,-12.380181363938544,0.8061992837513822,-0.02649533105547293,0.1136896172374714,-0.5799663199220015
357.0,-0.054368731555711224,-0.06617140347804722,-0.00503894701898471,-0.8429831586816565,2.1266014369446022,9.52881305256627,0.23740525179204208,-0.42036780427685316,-0.1528799828441431,71.62210124613034,-4.921002599299651,-12.570761184416313,0.8051256562487485,-0.02879208109734315,0.11417195904044825,-0.5812668647177257
358.0,-0.050088340900556146,-0.06378087988896178,-0.0012567819655262234,-0.8450343465657355,2.1210105270219985,9.52961905110423,0.09162362454725179,0.1145012679563619,0.17996607710289939,71.53783469822159,-4.938367785543948,-12.534538196831438,0.8055871259092079,-0.028443620305612115,0.11403639145552065,-0.5806850181131433
359.0,-0.0363824492708543,-0.05665581029403692,0.006183924029787936,-0.7000340328984684,2.1192313322232996,9.541194261980127,0.1452390536658555,-0.7271318591843083,-0.031131639617221388,71.73384466543465,-4.085017062192377,-12.51068331107167,0.8048291248641427,-0.034624719384663244,0.10954530441439628,-0.5822155851944084
360.0,-0.05023048445038089,-0.05915150390385052,0.0029249559776703773,-0.7047817790684605,2.1192411081864533,9.541052066152428,0.016511749888691682,0.3486243947746518,0.1353011380022706,71.74449775335819,-4.113598848318351,-12.509092593270267,0.8047698243175426,-0.03441089806174541,0.10968911649076903,-0.5823110500971149
361.0,-0.05843546252416763,-0.06578739632643352,0.006226443370424489,-0.7308527306042537,2.1251162267918895,9.538861989016418,0.09804737769808304,-0.4281661661059864,-0.017371067505552354,71.6562772008333,-4.269869841153668,-12.546958767130807,0.8051710831658525,-0.03341342854306782,0.11073614578669057,-0.5816326627550877
362.0,-0.08747180697613427,-0.07580195571540968,0.00390393765688809,-0.7155366977632909,2.1268674834213774,9.539667303585478,0.07910437975347495,0.10535386459855384,-0.06953420628676334,71.64221788243228,-4.1838892323255035,-12.554828874901652,0.8052745678888014,-0.03406054223221311,0.11037164664830842,-0.5815330424169196
363.0,-0.10817728822449513,-0.0793211194784759,0.003297366153385036,-0.8331853433741709,2.1192008542205234,9.530919411037427,0.2325104904274849,0.7096399535423926,-0.30495298040538005,72.00504383500056,-4.873588007193437,-12.523357592446892,0.8032272935667455,-0.029302299739237946,0.1135477504956727,-0.58396219584654
364.0,-0.09499344348282193,-0.09118466898954705,0.0053647296841632,-0.861917125622869,2.147959049866997,9.52222902851148,0.24320346746094185,0.27339739987261624,0.058787372147915046,71.87261155445655,-5.040392829043498,-12.702671312427409,0.8037266073048968,-0.02887213676370312,0.11565660526319732,-0.5829051469838149
365.0,-0.08924019332359222,-0.08761230377280732,0.0025671574688097107,-0.9470952755610506,2.1245517215540826,9.518937094900899,0.04827704095013301,0.07266260162601626,0.044298639991008214,71.77472743621445,-5.538053557378891,-12.570613690007868,0.8041583709834774,-0.02451861173054588,0.11724956704020081,-0.5821888054389119
366.0,-0.06682702034393616,-0.07185493237420854,0.004784758907496908,-0.9644288336892582,2.129911580682627,9.515680191824956,0.12280590835862276,0.07687516391292945,0.1617047881308306,71.61031808474766,-5.63977323817017,-12.601642407553108,0.80490735018096,-0.02378736289123675,0.11801146208422314,-0.5810426559334606
367.0,-0.06556142519950547,-0.06916900827994456,0.004764527368775992,-0.9801963208572173,2.135754374133603,9.512356224944732,0.08237561350267882,0.08780815630736952,0.07266494323929415,71.52860514780262,-5.73616809036754,-12.646488985051139,0.805294830173092,-0.023264108703682895,0.11882332943314228,-0.5803719776126783
368.0,-0.07190423738338766,-0.08009748604398487,0.0054357648645610886,-1.0167543366677907,2.1280109400172345,9.512009741111232,0.12389827095275562,0.1883769341725675,0.00984250309092953,71.48059387995954,-5.945621417331685,-12.605625491738788,0.805464310480724,-0.021443976922258447,0.11959582039084336,-0.5800452010659772
369.0,-0.0808616387546364,-0.07554891161814845,0.004357386384923757,-1.039887977220786,2.172217414109625,9.49808778239856,1.1782705312652204,-0.19677981342025397,0.7521540500543255,71.29278829942677,-6.079403872091716,-12.878095612753363,0.8061575237114759,-0.02165333354392867,0.12223958972803566,-0.5785009182301526
370.0,-0.06883327713461465,-0.07022453261398975,0.0063607208422314645,-1.1035154171818216,2.261673223183845,9.469531602412797,0.21819152523322466,0.5657325971301188,0.04905609568768504,71.04558769810048,-6.460952896107302,-13.425798958450414,0.806796552842681,-0.021340206722041136,0.12801235742546177,-0.5763204565229104
