time,linaccel_x,linaccel_y,linaccel_z,gravity_x,gravity_y,gravity_z,gyro_x,gyro_y,gyro_z,euler_x,euler_y,euler_z,quaternion_w,quaternion_y,quaternion_x,quaternion_z
0.0,0.04984126984126985,-0.042222222222222223,-0.0038095238095238104,0.030000000000000023,-1.1300000000000003,-9.740000000000006,-0.030753968253968252,0.021825396825396824,0.015873015873015872,35.25,0.125,173.3125,-0.019042970000000013,0.9513549799999993,0.3026733399999998,-0.05462646000000005
1.0,0.05213458994708995,-0.04282407407407408,-0.005957341269841271,0.03000000000000002,-1.1300000000000003,-9.740000000000006,-0.02978257275132275,-0.0076988260582010574,8.267195767195767e-05,35.25,0.125,173.3125,-0.019042970000000013,0.9513549799999992,0.3026733399999998,-0.05462646000000004
2.0,0.05318239795918367,-0.04465702947845805,-0.005455640589569162,0.03000000000000002,-1.1300000000000003,-9.740000000000006,-0.007095025510204081,0.006337691326530612,0.004570578231292516,35.25,0.125,173.3125,-0.019042970000000013,0.9513549799999992,0.3026733399999998,-0.05462646000000004
3.0,0.05123511904761904,-0.04425661375661377,-0.004879298941798943,0.03000000000000002,-1.1300000000000003,-9.740000000000006,-0.013206845238095238,-0.0032924107142857147,-0.005679563492063493,35.25,0.125,173.3125,-0.019042970000000013,0.9513549799999992,0.3026733399999998,-0.05462646000000006
4.0,0.05133496543778802,-0.043616231438812096,-0.005474110343061956,0.030000000000000027,-1.1300000000000003,-9.740000000000006,-0.020215293778801845,-0.023098478302611365,-0.0027481758832565285,35.25,0.125,173.3125,-0.019042970000000013,0.9513549799999993,0.3026733399999998,-0.05462646000000005
5.0,0.05313158134428296,-0.043995598487533975,-0.005851789899168932,0.02928535980148886,-1.1300000000000003,-9.740000000000006,-0.032440399262475876,-0.005945926693154515,0.21226567731104024,35.26786600496278,0.125,173.3125,-0.019033761543424323,0.9513070000893294,0.30281631083870963,-0.05462936810918119
6.0,0.05073085359980521,-0.03835013306585888,-0.00656615338066951,0.023933979998496144,-1.1241348973607037,-9.740000000000006,-0.10030289910582249,-0.01580717109950981,-0.10244105552825311,35.320516580193996,0.11913489736070382,173.35013440860217,-0.018884672633882254,0.95120927892052,0.30313764614271754,-0.05445179245146257
7.0,0.050624003348801724,-0.0356100383711271,-0.00908824822131274,0.02180569967666743,-1.1167448680351901,-9.740000000000006,-0.04728726624517955,0.0008969776862922003,-0.05890901982761862,35.31751635461313,0.12206744868035191,173.39583333333331,-0.018806309058876612,0.9512821294602596,0.3030000014584556,-0.05419260751605389
8.0,0.049922539825765624,-0.03393060076124593,-0.008126165053584412,0.020741559515753075,-1.1130498533724338,-9.740000000000006,-0.022848086053731217,-0.024672672757350175,-0.05651353015264306,35.316016241822695,0.12353372434017595,173.41868279569894,-0.01876712727137379,0.9513185547301295,0.3029311791163246,-0.05406301504834955
9.0,0.05124903232967749,-0.032410768890607615,-0.008717460406976539,0.020209489435295897,-1.1112023460410554,-9.740000000000006,-0.020208605238847176,-0.041362194033565,-0.04822604311011569,35.315266185427475,0.12426686217008798,173.43010752688173,-0.01874753637762238,0.9513367673650643,0.3028967679452591,-0.05399821881449739
10.0,0.05216049631372212,-0.029119776504857163,-0.008453023007458493,0.01996578690127078,-1.1102785923753662,-9.740000000000006,-0.010398967631830534,-0.02086720123514478,-0.017692426021559085,35.31433284457478,0.12463343108504399,173.4358198924731,-0.018738028695014664,0.9513473730547403,0.3028750945210167,-0.05396572981915939
11.0,0.05368533124581511,-0.025478754332584994,-0.00620598364449171,0.02000000000000001,-1.1099999999999994,-9.740000000000006,-0.02775874579049982,-0.01858975897534365,-0.00887676042035921,35.3125,0.125,173.4375,-0.01873779,0.9513549799999993,0.30285645000000005,-0.05395508000000005
12.0,0.05159437157824254,-0.019825411595572894,-0.007365670172121788,0.0209528535980149,-1.1099999999999994,-9.740000000000006,0.007366071428571427,0.014242942317539092,0.03550011816140848,35.31200372208437,0.1304590570719603,173.4375,-0.018755237702233238,0.9513496493399498,0.3028559653151366,-0.05394926378163774
13.0,0.04420617717723979,-0.024339212877044956,-0.00721195492258111,0.037478324332214305,-1.1137191650853886,-9.740000000000006,-0.006294522306441188,0.08049305924809956,-0.012231877862807654,35.27809626331923,0.20979783973142607,173.41472960151805,-0.019449289107283607,0.9513546320134281,0.30275892044694214,-0.05391557340884545
14.0,0.035151455991826015,-0.03246922438330171,-0.005204386220989637,0.049384323456429756,-1.111859582542694,-9.740000000000006,0.024436042639760618,0.030752752791563268,-0.05114946723106116,35.26304006714348,0.2641731134141001,173.42611480075902,-0.01988109052138374,0.9513548060067136,0.3027446813525035,-0.053620307349584034
15.0,0.031396292512042054,-0.038228059772296014,-0.006825983433075465,0.055337323018537485,-1.1109297912713467,-9.740000000000006,0.011241458819880309,0.025457021557071954,-0.02749635659940155,35.255511969055604,0.2913607502554372,173.4318074003795,-0.020096991228433805,0.9513548930033564,0.30273756180528416,-0.053472674319953326
16.0,0.030622621422431686,-0.04218678654257402,-0.00596907530588745,0.058313822799591346,-1.110464895635673,-9.740000000000006,-0.005368473899071621,0.009924081295049037,-0.0043268253331109115,35.251747920011674,0.3049545686761057,173.43465370018976,-0.02020494158195884,0.9513549365016779,0.30273400203167444,-0.053398857805137964
17.0,0.03118724123230766,-0.04475592428865674,-0.006418780829122386,0.05977229601518032,-1.1102324478178365,-9.740000000000006,-0.008810167470627623,0.009676680846035684,-0.0014189957931063256,35.24988140417457,0.3115808823529411,173.43607685009488,-0.020258371518026563,0.9513551248339651,0.30273223729127163,-0.05336213130455411
18.0,0.03136449348142898,-0.04618488814053331,-0.007692312615699713,0.06000000000000005,-1.1099999999999994,-9.740000000000006,-0.018710705177439047,-0.005998353125369254,0.0012621577011697979,35.25,0.3125,173.4375,-0.020263669999999998,0.9513549799999993,0.3027343800000003,-0.053344730000000035
19.0,0.030328648725826163,-0.04421651354917484,-0.006452856059710899,0.06000000000000005,-1.1099999999999994,-9.740000000000006,-0.01776881412718106,0.013455538077513884,0.010626426245125841,35.25,0.3125,173.4375,-0.020263669999999998,0.9513549799999993,0.3027343800000003,-0.053344730000000035
20.0,0.031157267911300184,-0.04527861967781322,-0.004058081255661901,0.06000000000000005,-1.1099999999999994,-9.740000000000006,-0.0088529050474615,-0.002155799509630154,-0.00371211449840482,35.25,0.3125,173.4375,-0.020263669999999998,0.9513549799999993,0.3027343800000003,-0.053344730000000035
21.0,0.03137484491315138,-0.04448774813895781,-0.003237437965260546,0.06000000000000005,-1.1099999999999994,-9.740000000000006,-0.024723751550868485,-0.004510119416873449,-0.0011360111662531013,35.25,0.3125,173.4375,-0.020263669999999998,0.9513549799999993,0.3027343800000003,-0.053344730000000035
22.0,0.03218245967741937,-0.04415826612903225,-0.0038457661290322584,0.06000000000000005,-1.1099999999999994,-9.740000000000006,0.007465977822580645,0.011687247983870969,0.005418346774193549,35.25,0.3125,173.4375,-0.020263669999999998,0.9513549799999993,0.3027343800000003,-0.053344730000000035
23.0,0.030899657578085014,-0.044587333589349715,-0.003745439708141322,0.06000000000000005,-1.1099999999999994,-9.740000000000006,0.010334161386328724,-0.004641297043010752,0.004725802451356887,35.25,0.3125,173.4375,-0.020263669999999998,0.9513549799999993,0.3027343800000003,-0.053344730000000035
24.0,0.030383025128992887,-0.04495813639765253,-0.005362755524045848,0.06000000000000005,-1.1099999999999994,-9.740000000000006,-0.0015445450047264567,-0.013742794923490488,0.007554191160541967,35.25,0.3125,173.4375,-0.020263669999999998,0.9513549799999993,0.3027343800000003,-0.053344730000000035
25.0,0.030967722241915806,-0.04528148755366497,-0.0038608132458938915,0.06000000000000005,-1.1099999999999994,-9.740000000000006,0.010316437175056127,-0.004587501292390405,0.006076742757690338,35.25,0.3125,173.4375,-0.020263669999999998,0.9513549799999993,0.3027343800000003,-0.053344730000000035
26.0,0.03247478854031274,-0.043709292163929256,-0.003583632429398559,0.06000000000000005,-1.1099999999999994,-9.740000000000006,0.005299977660108708,0.017977796732837056,0.005022998394974202,35.25,0.3125,173.4375,-0.020263669999999998,0.9513549799999993,0.3027343800000003,-0.053344730000000035
27.0,0.030697959746346856,-0.045887904210484845,-0.004094563590531333,0.06000000000000005,-1.1099999999999994,-9.740000000000006,-0.00922902142660207,0.031589344794989954,0.007442814801685769,35.25,0.3125,173.4375,-0.020263669999999998,0.9513549799999993,0.3027343800000003,-0.053344730000000035
28.0,0.029560055535862002,-0.04897617078262238,-0.0034151182598763244,0.06000000000000005,-1.1099999999999994,-9.740000000000006,-0.020191138386702903,0.005708857674583479,0.0031611253889479696,35.25,0.3125,173.4375,-0.020263669999999998,0.9513549799999993,0.3027343800000003,-0.053344730000000035
29.0,0.028976057544605947,-0.04811339556500846,-0.003289444986017567,0.06000000000000005,-1.1099999999999994,-9.740000000000006,-0.020967157282681476,-0.00587696074087203,0.009978515548072,35.25,0.3125,173.4375,-0.020263669999999998,0.9513549799999993,0.3027343800000003,-0.053344730000000035
30.0,0.02823394851116627,-0.04838993510969317,-0.0027538734786718656,0.06000000000000005,-1.1099999999999994,-9.740000000000006,-0.01134213358885738,0.008775269309543502,0.010558614212848084,35.25,0.3125,173.4375,-0.020263669999999998,0.9513549799999993,0.3027343800000003,-0.053344730000000035
31.0,0.028328163771712177,-0.04899839497420142,-0.0036627230296585145,0.06000000000000005,-1.1099999999999994,-9.740000000000006,-0.015735960947654497,0.00577372336444917,0.012272754687069202,35.25,0.3125,173.4375,-0.020263669999999998,0.9513549799999993,0.3027343800000003,-0.053344730000000035
32.0,0.02745901276143213,-0.04666509610461223,-0.005525677951081177,0.06000000000000005,-1.1099999999999994,-9.740000000000006,-0.012636285645358226,0.028792519644334158,0.0054643343327819135,35.25,0.3125,173.4375,-0.020263669999999998,0.9513549799999993,0.3027343800000003,-0.053344730000000035
33.0,0.028754320276497713,-0.04740159370199694,-0.006732510880696365,0.06000000000000005,-1.1099999999999994,-9.740000000000006,0.00337921626984127,-0.008319532450076807,-0.004932815700204813,35.25,0.3125,173.4375,-0.020263669999999998,0.9513549799999993,0.3027343800000003,-0.053344730000000035
34.0,0.028515264976958544,-0.04890745007680491,-0.0066197836661546355,0.06000000000000005,-1.1099999999999994,-9.740000000000006,0.012116775473630312,-0.020509312596006146,-0.00928659434203789,35.25,0.3125,173.4375,-0.020263669999999998,0.9513549799999993,0.3027343800000003,-0.053344730000000035
35.0,0.029860551075268835,-0.04802515360983102,-0.006580501152073735,0.06000000000000005,-1.1099999999999994,-9.740000000000006,0.02220342101894521,-0.004070260496671788,0.0057653689836149515,35.25,0.3125,173.4375,-0.020263669999999998,0.9513549799999993,0.3027343800000003,-0.053344730000000035
36.0,0.030191170388751055,-0.049022657450076806,-0.004964064161644808,0.06000000000000005,-1.1099999999999994,-9.740000000000006,0.007942785261333647,0.030159930235535072,0.04037929196699358,35.25,0.3125,173.4375,-0.020263669999999998,0.9513549799999993,0.3027343800000003,-0.053344730000000035
37.0,0.030315841871448028,-0.04860197504253175,-0.007026075157643837,0.06000000000000005,-1.1099999999999994,-9.740000000000006,0.017658978313569884,0.012166746413705961,0.03997671880777045,35.25,0.3125,173.4375,-0.020263669999999998,0.9513549799999993,0.3027343800000003,-0.053344730000000035
38.0,0.029915985451853054,-0.049329149323621216,-0.006210170195309374,0.06000000000000005,-1.1099999999999994,-9.740000000000006,-0.003051271211878653,-0.009325612968262228,0.026276761861642524,35.25,0.3125,173.4375,-0.020263669999999998,0.9513549799999993,0.3027343800000003,-0.053344730000000035
39.0,0.029985714500120088,-0.049095018210197704,-0.004937242355719203,0.06000000000000005,-1.1099999999999994,-9.740000000000006,-0.01444146221884255,0.006441654201352756,0.01838346661630513,35.25,0.3125,173.4375,-0.020263669999999998,0.9513549799999993,0.3027343800000003,-0.053344730000000035
40.0,0.0286253401905067,-0.04951346754182341,-0.004668024093492356,0.06000000000000005,-1.1099999999999994,-9.740000000000006,-0.008717319198751301,0.023363458536780596,0.012831185463859762,35.25,0.3125,173.4375,-0.020263669999999998,0.9513549799999993,0.3027343800000003,-0.053344730000000035
41.0,0.028076347278285382,-0.049347107554833874,-0.004655253529277984,0.06000000000000005,-1.1099999999999994,-9.740000000000006,-0.0027140004950391263,0.01989025461401242,0.0031888016019129438,35.25,0.3125,173.4375,-0.020263669999999998,0.9513549799999993,0.3027343800000003,-0.053344730000000035
42.0,0.027823293306156224,-0.049624126097916416,-0.004923880666824216,0.06000000000000005,-1.1099999999999994,-9.740000000000006,-0.009340220851057544,0.020090808888691955,-0.003559735515380676,35.25,0.3125,173.4375,-0.020263669999999998,0.9513549799999993,0.3027343800000003,-0.053344730000000035
43.0,0.029232012611044883,-0.04942105620633845,-0.0058145949033045815,0.06000000000000005,-1.1099999999999994,-9.740000000000006,-0.004796595793319584,0.006150609722938353,0.0024299471250076084,35.25,0.3125,173.4375,-0.02026367,0.9513549799999993,0.3027343800000003,-0.053344730000000035
44.0,0.02977481523852493,-0.04718722630416178,-0.006420014573240381,0.06000000000000005,-1.1099999999999994,-9.740000000000006,-0.0010119668637813802,-0.012640081692501049,0.008005354300717204,35.25,0.3125,173.4375,-0.020263669999999998,0.9513549799999993,0.3027343800000003,-0.053344730000000035
45.0,0.028738524244572648,-0.04716681414463672,-0.008061123911930368,0.06000000000000005,-1.1099999999999994,-9.740000000000006,-0.005437745218491186,0.008428718458960396,0.013307888068472747,35.25,0.3125,173.4375,-0.020263669999999998,0.9513549799999993,0.3027343800000003,-0.053344730000000035
46.0,0.027794761354237175,-0.04835427240769982,-0.007907930107526884,0.06000000000000005,-1.1099999999999994,-9.740000000000006,0.0063057049637190755,0.0034223085382359577,0.0026856900659824054,35.25,0.3125,173.4375,-0.020263669999999998,0.9513549799999993,0.3027343800000003,-0.053344730000000035
47.0,0.027664711632453584,-0.04727394916911046,-0.007123862696443344,0.06000000000000005,-1.1099999999999994,-9.740000000000006,-0.0030624953003985265,-0.009521980036092939,0.003469715768102865,35.25,0.3125,173.4375,-0.020263669999999998,0.9513549799999993,0.3027343800000003,-0.053344730000000035
48.0,0.027612903225806472,-0.045665322580645165,-0.0070834367245657575,0.06000000000000005,-1.1099999999999994,-9.740000000000006,0.004028380893300248,0.018561957196029776,-0.0009227667493796523,35.25,0.3125,173.4375,-0.020263669999999998,0.9513549799999993,0.3027343800000003,-0.053344730000000035
49.0,0.02705459057071962,-0.04537112282878411,-0.00581218982630273,0.06000000000000005,-1.1099999999999994,-9.740000000000006,0.015382676799007445,-0.00611914547146402,-0.0006785049627791562,35.25,0.3125,173.4375,-0.020263669999999998,0.9513549799999993,0.3027343800000003,-0.053344730000000035
50.0,0.027611662531017385,-0.04622154156327543,-0.0055314050868486364,0.06000000000000005,-1.1099999999999994,-9.740000000000006,-0.0010865772332506202,-0.011977066532258066,0.004825139578163772,35.25,0.3125,173.4375,-0.020263669999999998,0.9513549799999993,0.3027343800000003,-0.053344730000000035
51.0,0.02734754962779158,-0.045100961538461534,-0.005341966501240697,0.06000000000000005,-1.1099999999999994,-9.740000000000006,-0.014722588399503722,-0.013913228908188587,-0.005898146712158809,35.25,0.3125,173.4375,-0.020263669999999998,0.9513549799999993,0.3027343800000003,-0.053344730000000035
52.0,0.026966578784119122,-0.046418967121588085,-0.0038397177419354843,0.06000000000000005,-1.1099999999999994,-9.740000000000006,-0.04289169122208437,0.019191028225806452,-0.00995899891439206,35.25,0.3125,173.4375,-0.020263669999999998,0.9513549799999993,0.3027343800000003,-0.053344730000000035
53.0,0.026456575682382147,-0.047191066997518606,-0.0027593052109181147,0.06000000000000005,-1.1099999999999994,-9.740000000000006,-0.02955955334987593,0.012841191066997519,-0.00936724565756824,35.25,0.3125,173.4375,-0.020263669999999998,0.9513549799999993,0.3027343800000003,-0.053344730000000035
54.0,0.025863523573201007,-0.047949131513647644,-0.001869727047146402,0.06000000000000005,-1.1099999999999994,-9.740000000000006,-0.014190446650124068,-0.006187965260545904,-0.001659429280397023,35.25,0.3125,173.4375,-0.020263669999999998,0.9513549799999993,0.3027343800000003,-0.053344730000000035
55.0,0.025500000000000016,-0.04751302729528536,-0.004738833746898265,0.06000000000000005,-1.1099999999999994,-9.740000000000006,-0.012275124069478907,-0.009281947890818858,-7.754342431761773e-06,35.25,0.3125,173.4375,-0.020263669999999998,0.9513549799999993,0.3027343800000003,-0.053344730000000035
56.0,0.02628846153846156,-0.049962468982630265,-0.006017059553349878,0.06000000000000005,-1.1099999999999994,-9.740000000000006,-0.019102822580645162,0.010495502481389578,0.003237437965260546,35.25,0.3125,173.4375,-0.020263669999999998,0.9513549799999993,0.3027343800000003,-0.053344730000000035
57.0,0.024757961124896626,-0.05017485807203548,-0.006331486389954132,0.06000000000000005,-1.1099999999999994,-9.740000000000006,0.0028066607451688094,-0.004356354331152717,-0.0020742278554778558,35.25,0.3125,173.4375,-0.02026367,0.9513549799999993,0.3027343800000003,-0.053344730000000035
58.0,0.02526607733664187,-0.05092862010301526,-0.004184353616813294,0.06000000000000005,-1.1099999999999994,-9.740000000000006,-0.0028848209921798623,0.003746140452289646,0.0006145610102263328,35.25,0.3125,173.4375,-0.020263669999999998,0.9513549799999993,0.3027343800000003,-0.053344730000000035
59.0,0.025362602451312145,-0.05158181066245582,-0.005515395894428152,0.06000000000000005,-1.1099999999999994,-9.740000000000006,0.002924914467253177,-0.006026298969847356,0.0065666356492969395,35.25,0.3125,173.4375,-0.02026367,0.9513549799999993,0.3027343800000003,-0.053344730000000035
60.0,0.025419514625159803,-0.04995095495901947,-0.004249013083690504,0.06000000000000005,-1.1099999999999994,-9.740000000000006,0.01171369792841567,0.008781205353785999,-0.0038041511579818034,35.25,0.3125,173.4375,-0.02026367,0.9513549799999993,0.3027343800000003,-0.053344730000000035
61.0,0.025592491643805393,-0.05102294406079525,-0.0038393068300066223,0.06000000000000005,-1.1099999999999994,-9.740000000000006,0.007836457545013085,0.008607964399457636,0.011012156390912244,35.25,0.3125,173.4375,-0.020263669999999998,0.9513549799999993,0.3027343800000003,-0.053344730000000035
62.0,0.0249199017358812,-0.05010335863841325,-0.0034274735518557064,0.06000000000000005,-1.1099999999999994,-9.740000000000006,0.021712094852662945,0.005082941144010342,0.01621294525312963,35.25,0.3125,173.4375,-0.020263669999999998,0.9513549799999993,0.3027343800000003,-0.053344730000000035
63.0,0.025860501426253263,-0.050185286639305875,-0.00398370420768964,0.06000000000000005,-1.1099999999999994,-9.740000000000006,7.969235499152155e-05,-0.0036028765123620743,0.0016076066991454604,35.25,0.3125,173.4375,-0.020263669999999998,0.9513549799999993,0.3027343800000003,-0.053344730000000035
64.0,0.02466857690306573,-0.051567115084447286,-0.003393010085647963,0.06000000000000005,-1.1099999999999994,-9.740000000000006,0.015286998219002642,-0.01494128899683823,-0.024208650594332828,35.25,0.3125,173.4375,-0.020263669999999998,0.9513549799999993,0.3027343800000003,-0.053344730000000035
65.0,0.024151790002401356,-0.05549614283999038,-0.004266449211558472,0.06000000000000005,-1.1076178660049625,-9.740000000000006,-0.03485514388057312,0.051224154276394776,0.018885419584967582,35.25,0.3125,173.452388337469,-0.020243316094292797,0.9513695205459063,0.3027343800000003,-0.05321290540446649
66.0,0.02259851602718419,-0.05879995301099958,-0.0043099838894855745,0.06000000000000005,-1.1026461982889524,-9.740000000000006,-0.06417832325654604,0.08757455597709343,0.06199723360940336,35.25,0.31442585459797784,173.48346126069404,-0.02020459644627976,0.9513937547890832,0.3027343800000003,-0.052945458048887076
67.0,0.023128746865584512,-0.057069123801514965,-0.004533431223680169,0.060000000000000046,-1.1019967234329011,-9.740000000000006,-0.045938930366413444,0.09453054026321464,0.09850465777955936,35.25,0.34572099181511795,173.48752047854435,-0.02026332031991407,0.9513822435235735,0.3027343800000003,-0.05289353994474719
68.0,0.022566854822370426,-0.05805565371217187,-0.005370933974122963,0.060000000000000046,-1.10083707139387,-9.740000000000006,-0.057367728210502,0.045962540603071346,0.04349860680541244,35.25,0.36136856042368803,173.4947683037883,-0.020294999676086063,0.9513686117617863,0.3027343800000003,-0.05286711948850265
69.0,0.02235538770895197,-0.057932293357326616,-0.005622191552818305,0.060000000000000046,-1.1030798260195156,-9.740000000000006,-0.004467052690858942,0.006262908018657261,0.0225247376458824,35.25,0.369192344727973,173.48075108737802,-0.02034923193481724,0.9513617958808929,0.3027343800000003,-0.052980900066832
70.0,0.023846251103678405,-0.05345108109908158,-0.00648957858392422,0.0630230414746544,-1.1265221887984849,-9.73727188940093,0.25438425103847695,0.05842877765342647,0.04025474741209398,35.26658986175115,0.3731042368801155,173.34299208037814,-0.02078861985645506,0.9512773778986175,0.30280863356682053,-0.05405258918797114
71.0,0.025959166545029937,-0.032069924619972046,-0.010105852638822278,0.0640921658986175,-1.1314306383843855,-9.736423963133646,-0.151993599083554,0.0023886958629605673,0.072389393102154,35.266129032258064,0.3653225806451613,173.31807463912986,-0.020869246476958533,0.9512976433917051,0.3027147999078341,-0.05424820998637845
72.0,0.022992979589697003,-0.004750218744227137,-0.011519505681733076,0.06618965405335236,-1.1649759159797486,-9.732178360485504,0.24881628675589518,-0.012204683591624186,-0.47751084671802524,35.156746933212176,0.3837914584279873,173.1216038418008,-0.021468900835026276,0.9514915620502367,0.3017679905172973,-0.05585905912723925
73.0,0.01959171761518151,0.025950060549129284,-0.019648342045023765,0.06877972651241719,-1.2027263871623846,-9.726140606142714,0.25779856665266254,0.043967559667848134,0.3991118402796394,35.285654906531285,0.3976285482883274,172.89425213127907,-0.022264629709238246,0.9510470731008547,0.30278260824135084,-0.057607482099851504
74.0,0.014599286226945594,0.05630695490235618,-0.020371123565936206,0.07383899476985625,-1.2292501740402493,-9.722747722426202,0.27502574695846527,0.017060257036157316,0.3499281285765443,35.60827410338972,0.4175797828290272,172.73465005563645,-0.023058066414017375,0.9500907019846698,0.30547881015045203,-0.058795962569854414
75.0,-0.0011197461154975625,0.07593926051741375,-0.023780134999833093,0.0852361972955134,-1.2515836123657467,-9.721136534024168,0.24556750240831993,-0.02455072298477573,-0.5380567332218731,35.21147851259313,0.48295334832351694,172.60581869141268,-0.023742820980136154,0.9510634179423307,0.30216337312020847,-0.05981632642878164
76.0,-0.009981886528149353,0.08938366783403476,-0.021281418084815526,0.09318261477678891,-1.2629669213902468,-9.720314810790894,0.1494199174572617,0.014805017805733366,-0.2761723315169982,34.90791379546707,0.5260532870649842,172.54000611989989,-0.024166212607579604,0.9518082867960498,0.299646968649966,-0.06043842611761659
77.0,-0.011525473023275043,0.0955766589965267,-0.021645933940181508,0.09710698208171561,-1.2676851871830834,-9.720023375409085,0.06810074700668628,0.009283756063248327,-0.1089942757085218,34.7595424270384,0.5468748943275852,172.5128614197864,-0.024360352759946104,0.9521750009877563,0.2984168880573773,-0.06070211361310175
78.0,-0.01301447168623385,0.09671939002259176,-0.022614134661679212,0.09902099922225094,-1.2693895781637718,-9.720000000000015,0.037360016758638565,0.010026538368949298,-0.07194328450798121,34.679619273360245,0.5571418651161067,172.5033188585608,-0.024441923645050198,0.9523752860338497,0.2977553470604791,-0.06080448911136617
79.0,-0.011668526165697574,0.09679269749268543,-0.022990690159623732,0.0998603755416465,-1.2700000000000005,-9.720000000000015,0.01610556669197437,0.016272574395392765,-0.04671916086441244,34.63159003370245,0.5618680789600384,172.5,-0.024470309961482924,0.9524983700144429,0.297356173654309,-0.06084573194029843
80.0,-0.009792338709677424,0.09615865384615382,-0.02353334367245659,0.0999999999999999,-1.2700000000000005,-9.720000000000015,0.00095281482630273,-0.00031502016129032404,-0.00011437655086848648,34.625,0.5625,172.5,-0.024475100000000014,0.952514649999999,0.2973022499999999,-0.06085204999999992
81.0,-0.010422223945409433,0.095914314516129,-0.024047068858560807,0.0999999999999999,-1.2700000000000005,-9.720000000000015,0.012518901209677418,-0.006019792959057072,0.00616179435483871,34.625,0.5625,172.5,-0.024475100000000014,0.952514649999999,0.2973022499999999,-0.06085204999999992
82.0,-0.01154931761786601,0.09490524193548386,-0.024334522332506214,0.0999999999999999,-1.2700000000000005,-9.720000000000015,0.010181451612903226,-0.011121665632754341,0.010735887096774192,34.625,0.5625,172.5,-0.024475100000000014,0.952514649999999,0.2973022499999999,-0.06085204999999992
83.0,-0.012110315983299858,0.09595311330694394,-0.024483539869628593,0.0999999999999999,-1.2700000000000005,-9.720000000000015,-0.009478822029225254,-0.005777954404466501,-0.005462288047973531,34.625,0.5625,172.5,-0.024475100000000014,0.952514649999999,0.2973022499999999,-0.06085204999999992
84.0,-0.010656972507778964,0.09690548810508487,-0.025414652999330434,0.0999999999999999,-1.2700000000000005,-9.720000000000015,-0.02345160859525779,-0.029949209057071963,0.008546577750206783,34.625,0.5625,172.5,-0.024475100000000014,0.952514649999999,0.2973022499999999,-0.06085204999999992
85.0,-0.010437667395328688,0.09701850087636377,-0.0226403289810548,0.0999999999999999,-1.2700000000000005,-9.720000000000015,0.008730151037358698,-0.03056083281637717,0.011190162324234906,34.625,0.5625,172.5,-0.024475100000000014,0.952514649999999,0.2973022499999999,-0.06085204999999992
86.0,-0.013952338096491325,0.10084513448021512,-0.027036501245170614,0.09999999999999988,-1.2641348973607043,-9.720000000000015,-0.2267227368285836,0.006382470016542595,-0.019031858598390856,34.625,0.5800953079178885,172.53372434017595,-0.024431186647116326,0.9525471060703807,0.2972884074193548,-0.060475458406647094
87.0,-0.01604739830257012,0.10006952551500235,-0.026586820924128087,0.10411407199625994,-1.2604849334863366,-9.720000000000017,0.114189107859668,0.11517770649027222,0.3717187305886026,34.64370032725573,0.6035557184750733,172.55239279187384,-0.024592845988354803,0.95252905116282,0.2974158559093032,-0.06019807266989672
88.0,-0.006860360697624026,0.11210183905038393,-0.02646340534173635,0.1005086489013558,-1.274901452918284,-9.720000000000017,0.08196654573730967,0.14099899149398404,0.8677622070761754,35.81176951846657,0.585792836196062,172.47366183372495,-0.025242317399707347,0.9493657978625161,0.3070585216366791,-0.06055881528886539
89.0,-0.011265361800424919,0.11245716952519197,-0.02538896073538431,0.1054156147732586,-1.2827733071043037,-9.720000000000017,0.04811847952188065,0.10510446046473394,0.4421031297477651,36.153868630201025,0.6064044826141599,172.45457285234636,-0.02574076289340204,0.9484830678022265,0.3098038696893073,-0.06067393328959396
90.0,-0.013087956807101273,0.111764722460024,-0.026217265825961494,0.10786909770921001,-1.2867092341973136,-9.720000000000017,0.04032046509474631,0.042807852746054004,0.23414729530832265,36.32491818606825,0.6167103058232091,172.44502836165705,-0.02598998564024939,0.9480417027720816,0.3111765437156214,-0.06073149228995824
91.0,-0.012082078296489242,0.1134305388588348,-0.025959026247245054,0.10909583917718571,-1.2888604822012963,-9.720000000000015,-0.004376610537857029,0.03097253876422004,0.08865146499810769,36.41044296400187,0.6213133640552995,172.4392022306819,-0.026114469254747398,0.9478200060048096,0.3118628133196643,-0.060772540267192005
92.0,-0.022173471465810182,0.12369899164455617,-0.025852988409440038,0.10934604105571857,-1.2886291020807161,-9.71765395894429,0.023932386218172508,-0.00951080869175627,-0.1855820408869804,36.254673753665685,0.6290217846669459,172.41521610110323,-0.026119493249499567,0.9481889610061446,0.3107016114800538,-0.060912762911232154
93.0,-0.02834745888072502,0.12600493715513877,-0.029336277969342496,0.11202661854274766,-1.2913998044965784,-9.713665689149565,0.03353545046463393,0.02191842585617787,-0.14138526893693223,36.11271994134897,0.6467911121136927,172.381830400782,-0.026248329537014937,0.9485288063440857,0.3096187782742345,-0.06111882944108223
94.0,-0.03621162350194608,0.13626378639281866,-0.027491025103928337,0.11507978043461921,-1.3026647116324526,-9.711671554252202,0.024871857533147856,0.04313947701044475,-0.08269060688415528,36.04930351906158,0.6666873449131514,172.31924486803518,-0.026541248365770424,0.9486482527174978,0.3091227019279285,-0.06159164464233976
95.0,-0.03900442926249378,0.14393066431776108,-0.028714790585758338,0.1183565824856148,-1.3118162267839675,-9.710674486803521,0.052870516580193996,0.026498053917408754,-0.045345559458462685,36.01759530791789,0.6832220646736775,172.28057417492903,-0.026809192887442303,0.9487051123264911,0.3088651169317061,-0.06190837432833836
96.0,-0.04250654721622463,0.15094808059324188,-0.029979790818500506,0.11941898603188933,-1.318932927287765,-9.71017595307918,0.06415188753898432,0.015410396055557347,-0.02176072135749555,36.00174120234604,0.6928207097561936,172.21561276984664,-0.026987630734713323,0.9487219096942635,0.3087256787381756,-0.06234320491417904
97.0,-0.043809480841738906,0.16365341468567274,-0.03506320919224145,0.1219113502984471,-1.331565681630197,-9.71,0.05596401806079225,0.042101581214484436,-0.0006469784695591146,36.0,0.7110242356210098,172.1453949724111,-0.02730060353939967,0.9486849761374541,0.30869822784660483,-0.0628788883344111
98.0,-0.04257595630176275,0.174275838856484,-0.036602324199098396,0.12266287117900024,-1.3416860666215498,-9.71,0.01871556982444079,0.08263577820029433,0.006577875529488433,36.0,0.7173219813340781,172.08519748620557,-0.02749899040989834,0.9486437348429202,0.3086770766714413,-0.06336571451832215
99.0,-0.04418596725854791,0.17908783331363975,-0.037058668034474496,0.1250522846329298,-1.3464368749530031,-9.71,0.05364498292925712,0.058712456897940773,0.013896162081645952,36.0,0.726522351975981,172.038367926876,-0.027667932717982735,0.9486240090636884,0.308666150611939,-0.06367007021219374
100.0,-0.04506149361391297,0.18163557052266724,-0.03901576514882968,0.12726372552179002,-1.348702308444243,-9.71,0.04822386115228857,0.040300928909799874,0.003531862402830145,36.0,0.7370931012312061,172.0151837074216,-0.027763101127296533,0.948614235660876,0.30866243901564683,-0.06382999584982449
101.0,-0.04665977906502101,0.18500637086927402,-0.036634433442901196,0.12879067169389746,-1.3497556207233619,-9.71,0.02842334496820384,0.013621308127356516,-0.0022042921236469625,36.0,0.7443530022285062,172.00501741202345,-0.02780880329565817,0.9486097124731174,0.3086579633192377,-0.06388606160977583
102.0,-0.04541854402751255,0.18724564120987108,-0.033910033547357964,0.12949308755760364,-1.3499999999999992,-9.709999999999999,0.026960288982068054,0.03853512431247213,0.017521427078529054,36.0,0.747558343733999,172.0011340725806,-0.027824712344310002,0.9486083999999992,0.3086558695677322,-0.06390403443636403
103.0,-0.043094856691175625,0.18954015931461293,-0.03343939177367899,0.12985743087557597,-1.3499999999999992,-9.709999999999999,0.01576404066038887,0.0026975016723650973,0.0020192820876516245,36.0,0.7492359511008704,172.0,-0.027831216761872717,0.9486083999999992,0.30865525288114426,-0.06390602957453288
104.0,-0.040971391479228375,0.19021042783959013,-0.03362061754582568,0.1299747983870967,-1.3499999999999992,-9.71,0.027155253817137598,-0.020396640868886574,-0.013423282663291443,36.0,0.7498739919354839,172.0,-0.02783206087197576,0.9486083999999992,0.3086549745665321,-0.06390476356350817
105.0,-0.040225956535659975,0.191881033378692,-0.03355361002161211,0.12999999999999992,-1.3499999999999992,-9.709999999999999,0.008186209277195228,-0.0032607635275754424,-0.0050405101857039945,36.0,0.75,172.0,-0.027832029999999956,0.9486083999999992,0.30865478999999985,-0.06390381000000012
106.0,-0.03965376364732505,0.19073692458252806,-0.03449526576152487,0.12999999999999995,-1.3499999999999992,-9.709999999999999,-0.022191162169862742,-0.022934145204647934,-0.02543766026832169,36.0,0.75,172.0,-0.027832029999999956,0.9486083999999992,0.30865478999999985,-0.06390381000000012
107.0,-0.03983988910774161,0.19102923232248148,-0.0344016391242588,0.12999999999999995,-1.3499999999999992,-9.71,0.008138940247014519,0.006661829582899759,-0.013808190175784153,36.0,0.75,172.0,-0.027832029999999952,0.9486083999999992,0.30865478999999985,-0.06390381000000012
108.0,-0.038858956650645,0.18927973712898263,-0.03569880343309714,0.12999999999999995,-1.3499999999999992,-9.71,0.009046788671894356,0.0002594682188692345,0.0003571196298498584,36.0,0.75,172.0,-0.027832029999999952,0.9486083999999992,0.30865478999999985,-0.06390381000000012
109.0,-0.04045993509422785,0.18895289738522103,-0.033209454268108604,0.12999999999999992,-1.3499999999999992,-9.709999999999999,-0.0029970664817418743,0.0007912764481442945,-0.0025533363379042617,36.0,0.75,172.0,-0.027832029999999956,0.9486083999999992,0.30865478999999985,-0.06390381000000012
110.0,-0.041444847880100395,0.1898276453627457,-0.03380295814341955,0.12999999999999995,-1.3499999999999992,-9.709999999999999,0.013768766446954246,0.009240591397849461,0.00825116741897711,36.0,0.75,172.0,-0.027832029999999956,0.9486083999999992,0.30865478999999985,-0.06390381000000012
111.0,-0.041377825885774724,0.1908892451084082,-0.034314433500793246,0.12999999999999995,-1.3499999999999992,-9.71,-0.0038923064846641984,-0.015372983870967742,-0.011787434723691169,36.0,0.75,172.0,-0.027832029999999952,0.9486083999999992,0.30865478999999985,-0.06390381000000012
112.0,-0.03989234811658464,0.1960621783854696,-0.03613880018712119,0.1275384615384615,-1.3592903225806452,-9.70547394540943,0.08528074851014929,-0.02366964562655087,0.06012699642537526,36.0,0.75,171.97121588089328,-0.0279464064962779,0.9485793189081878,0.30868386632754324,-0.06428377252109183
113.0,-0.03796280712280845,0.20056889161208974,-0.03803915815807672,0.12360794044665016,-1.3649677419354842,-9.702575682382136,0.03089012223894561,-0.02734956575682382,0.02883491958365537,36.0,0.75,171.95334987593048,-0.028015225990074444,0.9485623549379645,0.3087008275186103,-0.06453481835732007
114.0,-0.03537647332506204,0.19887879962779154,-0.04043812034739454,0.12164267990074448,-1.3678064516129038,-9.701126550868487,0.0062306141439205966,-0.02161522952853598,-0.003349391284119107,36.0,0.75,171.94441687344914,-0.028049635736972715,0.9485538729528529,0.30870930811414377,-0.06466034127543419
115.0,-0.035188895781637725,0.20054094292803976,-0.04038919044665012,0.12066004962779164,-1.3692258064516134,-9.700401985111665,0.019019948045905705,-0.002158130428039702,0.020358541408188584,36.0,0.75,171.93995037220844,-0.02806684061042185,0.9485496319602971,0.30871354841191045,-0.06472310273449125
116.0,-0.03454305260152035,0.20195809947221238,-0.03995005957304344,0.12016873449131524,-1.369935483870968,-9.700039702233251,0.008336148898144866,-0.00708969989463941,0.021451742142266333,36.0,0.75,171.9377171215881,-0.028075443047146417,0.9485475114640192,0.3087156685607938,-0.06475448346401978
117.0,-0.03495763051912246,0.20289964526960497,-0.039929124079325695,0.1200000000000001,-1.3700000000000006,-9.7,0.01704803722822876,-0.02725762910364725,0.009167248242349048,36.0,0.75,171.9375,-0.028076170000000015,0.9485473599999993,0.30871581999999975,-0.06475829999999994
118.0,-0.0346038540312734,0.20153554689038558,-0.036711499074402305,0.1200000000000001,-1.3700000000000006,-9.7,0.0014421230651069364,-0.009666587892394343,-0.003325320512820513,36.0,0.75,171.9375,-0.028076170000000015,0.9485473599999993,0.30871581999999975,-0.06475829999999994
119.0,-0.03272150743521712,0.20120840807937582,-0.03636101309085181,0.1200000000000001,-1.3700000000000006,-9.700000000000001,-0.013158271500005371,-0.009472740521127617,-0.00012683049477404344,36.0,0.75,171.9375,-0.028076170000000015,0.9485473599999993,0.30871581999999975,-0.06475829999999994
120.0,-0.032587190363400055,0.2008202030943966,-0.03883342710157227,0.1200000000000001,-1.3700000000000006,-9.700000000000001,-0.0168195449823474,0.00010480111286562989,0.007431218255310997,36.0,0.75,171.9375,-0.028076170000000015,0.9485473599999993,0.30871581999999975,-0.06475829999999994
121.0,-0.035673681045656866,0.2011555030990515,-0.038632909541175674,0.1200000000000001,-1.3700000000000006,-9.7,0.015459570531395128,-0.010657700274635758,0.01529025759746526,36.0,0.75,171.9375,-0.028076170000000015,0.9485473599999993,0.30871581999999975,-0.06475829999999994
122.0,-0.04129702197444132,0.1953559773559774,-0.038835103964136225,0.12282258064516133,-1.3700000000000006,-9.7,-0.05021817340365727,0.03272558534655309,0.021742281016474563,36.0,0.75,171.9375,-0.02813277540322582,0.9485473599999993,0.30871581999999975,-0.0647302441129032
123.0,-0.04799838691774176,0.19226980009238076,-0.04056767605154703,0.1313306451612903,-1.3678225806451612,-9.700967741935482,-0.11257806933210159,0.08883487704052219,0.022207989143473016,36.005544354838705,0.780241935483871,171.94707661290323,-0.028363873185483883,0.9485508058064508,0.3087330485483868,-0.06449373189516128
124.0,-0.046686763952892986,0.1543559317027059,-0.03454840679034228,0.12693579404466504,-1.3302413151364756,-9.707947890818863,-0.10845155628421757,0.081791019240616,0.017525060065382646,36.03503024193549,0.7462624069478908,172.15568781017367,-0.027533278803660053,0.9486523133945404,0.30881748685980126,-0.06276497392276675
125.0,-0.043066687344913146,0.12222239454094291,-0.03106017369727048,0.12346789702233257,-1.2973960918114151,-9.7142965260546,-0.17948007133995036,0.10773301799007445,-0.02821805210918114,36.04977318548387,0.7178582506203472,172.34386437655087,-0.026863542148728277,0.9487525021066989,0.3088926611718359,-0.06116150896138336
126.0,-0.03972937344913152,0.10502683002481387,-0.029281947890818873,0.12173394851116634,-1.2769238523573208,-9.71747084367247,-0.10239512251861044,0.05718536755583127,-0.023910514888337467,36.057144657258064,0.7016710607940446,172.46326283343672,-0.026493293493718956,0.9488074433114134,0.3089302483278532,-0.06015622448069165
127.0,-0.03754685838355194,0.0972932409212651,-0.02441543951120565,0.12077876861042192,-1.2666877326302735,-9.719058002481404,-0.03864925816790737,0.018210519319390286,-0.0011315647278348911,36.06083039314517,0.6935774658808933,172.52296206187964,-0.02630640024736349,0.9488349139137706,0.3089490419058619,-0.059654458986817566
128.0,-0.036288550159517916,0.09317030997676154,-0.02217495765882864,0.12007940446650134,-1.2616377171215887,-9.719821339950387,-0.013055727874276266,0.006333082240340305,0.011688501910276101,36.0625,0.6885856079404467,172.55251240694787,-0.026206616277915595,0.9488485415334977,0.3089579003027292,-0.05941052887344908
129.0,-0.03496809641970934,0.09183081255661898,-0.021819488754972638,0.1200000000000001,-1.2602531017369734,-9.720000000000015,-0.00935044458229942,-0.00544077897908543,0.014575640533301824,36.0625,0.6876240694789082,172.56091811414393,-0.026186291270471423,0.9488522370719592,0.3089599599999996,-0.05933889199999994
130.0,-0.03299056678088938,0.09094025956122728,-0.02233729174051756,0.1200000000000001,-1.2600000000000007,-9.720000000000015,-0.006895918261845681,0.0008182985249517499,0.017652052808302808,36.0625,0.6875,172.5625,-0.026184079999999957,0.948852539999999,0.3089599599999996,-0.05932616999999994
131.0,-0.03389106502816182,0.09093166824215207,-0.02313886919532082,0.1200000000000001,-1.2600000000000007,-9.720000000000015,0.007508926725156563,0.00838061328232699,0.013656981739138995,36.0625,0.6875,172.5625,-0.026184079999999957,0.948852539999999,0.3089599599999996,-0.05932616999999994
132.0,-0.034192076292882755,0.09018037585174679,-0.02374429378864864,0.1200000000000001,-1.2600000000000007,-9.720000000000015,0.006442635405589035,0.006998486364665799,0.011516790920772776,36.0625,0.6875,172.5625,-0.026184079999999957,0.948852539999999,0.3089599599999996,-0.05932616999999994
133.0,-0.033037570404505896,0.09084895033282128,-0.022576706447674205,0.1200000000000001,-1.2600000000000007,-9.720000000000015,-0.00979216516010871,0.007485217515459451,0.013801344824530309,36.0625,0.6875,172.5625,-0.026184079999999957,0.948852539999999,0.3089599599999996,-0.05932616999999994
134.0,-0.03338975294418844,0.09233762653117489,-0.022148154712670856,0.1200000000000001,-1.2600000000000007,-9.720000000000015,-0.007780697964669739,0.0009510454822954824,0.00914167737504431,36.0625,0.6875,172.5625,-0.026184079999999957,0.948852539999999,0.3089599599999996,-0.05932616999999994
135.0,-0.033722526241679485,0.0926409074796171,-0.02430244397179883,0.1200000000000001,-1.2600000000000007,-9.720000000000015,-0.025715745807731692,-0.017621635476978217,0.00991518072541258,36.0625,0.6875,172.5625,-0.026184079999999957,0.948852539999999,0.3089599599999996,-0.05932616999999994
136.0,-0.03436378328213007,0.09332146180432468,-0.024101826824609096,0.1200000000000001,-1.2600000000000007,-9.720000000000015,-0.0015959021377368147,-0.01763138225461814,-0.0057688461292291935,36.0625,0.6875,172.5625,-0.026184079999999957,0.948852539999999,0.3089599599999996,-0.05932616999999994
137.0,-0.03528498562369531,0.09333578518255935,-0.023967980719996864,0.1200000000000001,-1.2600000000000007,-9.720000000000015,-0.0043664025266847845,0.02038595085470085,0.0009282901798022768,36.0625,0.6875,172.5625,-0.026184079999999957,0.948852539999999,0.3089599599999996,-0.05932616999999994
138.0,-0.03578641340738116,0.09180188762850051,-0.023232129317814813,0.1200000000000001,-1.2600000000000007,-9.720000000000015,0.008641860771397062,0.006098682623380203,0.0245181153132262,36.0625,0.6875,172.5625,-0.026184079999999957,0.948852539999999,0.3089599599999996,-0.05932616999999994
139.0,-0.03581659380046478,0.09140497607231474,-0.023765762239552575,0.1200000000000001,-1.2600000000000007,-9.720000000000015,0.010463823530859822,0.00818416994072236,0.020748851003387293,36.0625,0.6875,172.5625,-0.026184079999999957,0.948852539999999,0.3089599599999996,-0.05932616999999994
140.0,-0.036496898263027294,0.09176806761786599,-0.022892137096774207,0.1200000000000001,-1.2600000000000007,-9.720000000000015,0.001949732475186105,0.0031632870657568235,0.015161193393300248,36.0625,0.6875,172.5625,-0.026184079999999957,0.948852539999999,0.3089599599999996,-0.05932616999999994
141.0,-0.036820409429280394,0.09264733250620344,-0.022732940446650137,0.1200000000000001,-1.2600000000000007,-9.720000000000015,0.012523263027295286,0.022196805210918113,0.014859258684863522,36.0625,0.6875,172.5625,-0.026184079999999957,0.948852539999999,0.3089599599999996,-0.05932616999999994
142.0,-0.03736057692307693,0.09278024193548383,-0.02535406327543426,0.1200000000000001,-1.2600000000000007,-9.720000000000015,0.00885158188585608,0.01067966811414392,0.010779505272952853,36.0625,0.6875,172.5625,-0.026184079999999957,0.948852539999999,0.3089599599999996,-0.05932616999999994
143.0,-0.040193936104218356,0.08953031947890813,-0.025863135856079418,0.1200000000000001,-1.2600000000000007,-9.720000000000015,0.009140431141439205,0.014536484181141437,0.03134353675558313,36.0625,0.6875,172.5625,-0.026184079999999957,0.948852539999999,0.3089599599999996,-0.05932616999999994
144.0,-0.04218114143920595,0.08652171215880888,-0.023831265508684876,0.1200000000000001,-1.2600000000000007,-9.720000000000015,0.006397332506203474,-0.036740074441687344,0.010363678660049627,36.0625,0.6875,172.5625,-0.026168330322580625,0.948852539999999,0.3089599599999996,-0.05934487580645162
145.0,-0.039847394540942924,0.08483901985111658,-0.022526054590570728,0.11862903225806465,-1.2600000000000007,-9.720000000000015,-0.017342586848635235,-0.04453318858560794,-0.019166795905707197,36.0625,0.6875,172.5625,-0.026040846451612896,0.948852539999999,0.3089599599999996,-0.05940492709677418
146.0,-0.03529342431761787,0.08462050248138955,-0.022753101736972713,0.11415322580645174,-1.2600000000000007,-9.720000000000015,-0.016099953473945407,-0.053144385856079404,-0.02996180986352357,36.0625,0.6875,172.5625,-0.025902287177419346,0.948852539999999,0.3089599599999996,-0.05946005693548383
147.0,-0.0344044418842806,0.08251144073220684,-0.023953533026113687,0.11191532258064528,-1.2600000000000007,-9.720000000000015,-0.02604866711469534,0.006182395673323092,-0.017137596806195594,36.0625,0.6875,172.5625,-0.02584167174027138,0.948852539999999,0.3089599599999996,-0.05948762185483864
148.0,-0.03368911610343064,0.08026529697900664,-0.0242146697388633,0.11079637096774206,-1.2600000000000007,-9.720000000000015,0.00849154345878136,-0.000720546114951356,-0.004867311507936508,36.0625,0.6875,172.5625,-0.025823864257232473,0.948852539999999,0.3089599599999996,-0.05950140431451605
149.0,-0.03252144137224784,0.08007216461853556,-0.02224094342037892,0.11023689516129044,-1.2600000000000007,-9.720000000000015,-0.008618051555299539,0.008178523425499231,0.0028441820276497694,36.0625,0.6875,172.5625,-0.025815452693132374,0.948852539999999,0.3089599599999996,-0.05950771098790314
150.0,-0.028681995647721475,0.08497807859703019,-0.024623095878136214,0.11000000000000011,-1.2600000000000007,-9.720000000000015,0.017330109126984128,-0.010964701740911418,-0.0014060899897593445,36.0625,0.6875,172.5625,-0.02581498469334039,0.948852539999999,0.3089599599999996,-0.059509279999999914
151.0,-0.02641224522240393,0.08799095787291673,-0.023262624291825656,0.11000000000000011,-1.2600000000000005,-9.720000000000015,-0.00047967586054539595,-0.0008952508444411409,0.004609617596171316,36.0625,0.6875,172.5625,-0.025817088735279076,0.948852539999999,0.3089599599999996,-0.059509279999999914
152.0,-0.026344883491898338,0.08922589368300214,-0.021874527711709044,0.11000000000000011,-1.2600000000000005,-9.720000000000015,-0.0007038676281733635,-0.004031854812901574,0.008001173365417967,36.0625,0.6875,172.5625,-0.025817870000000017,0.948852539999999,0.3089599599999996,-0.059509279999999914
153.0,-0.026587260294336276,0.09004389442214622,-0.02118675982359646,0.11000000000000011,-1.2600000000000005,-9.720000000000015,-0.009597775547957649,0.0026306199725814705,-0.005213753035032951,36.0625,0.6875,172.5625,-0.025817870000000017,0.948852539999999,0.3089599599999996,-0.059509279999999914
154.0,-0.028184823183522473,0.08978001172720212,-0.020265678938935973,0.11000000000000011,-1.2600000000000007,-9.720000000000015,0.0031616216986274223,0.016716295649373172,-0.0002467254678492968,36.0625,0.6875,172.5625,-0.025817870000000017,0.948852539999999,0.3089599599999996,-0.059509279999999914
155.0,-0.02586276489437261,0.08892738425581814,-0.02131307500454224,0.11000000000000011,-1.2600000000000007,-9.720000000000015,-0.012180069847050855,-0.006770820429281668,-0.0030355491138529637,36.0625,0.6875,172.5625,-0.025817870000000017,0.948852539999999,0.3089599599999996,-0.059509279999999914
156.0,-0.027683988168685433,0.08877379430972102,-0.02062532002048132,0.11355367530407201,-1.2600000000000005,-9.720000000000015,0.0037214021041608964,0.06366100873078827,0.04804504209580888,36.0625,0.6875,172.5625,-0.025839561634056075,0.948852539999999,0.3089599599999996,-0.059487588365943915
157.0,-0.02647896285034375,0.08849724021681646,-0.02054435483870969,0.1169381279746167,-1.2600000000000005,-9.720000000000015,-0.005163748512691697,0.022837928840560545,0.03039892913802221,36.0625,0.6875,172.5625,-0.02586022033315708,0.948852539999999,0.3089599599999996,-0.059466929666842944
158.0,-0.026894635355023393,0.08850373243559714,-0.021327124935995916,0.11863035430988905,-1.2600000000000005,-9.720000000000015,-0.004362238199638219,0.026638188450618213,0.02009127764504797,36.0625,0.6875,172.5625,-0.025870549682707585,0.948852539999999,0.3089599599999996,-0.059456600317292455
159.0,-0.026401706758412885,0.09008371945640584,-0.02108326932923708,0.11947646747752522,-1.2600000000000007,-9.720000000000015,-0.0049775480712732825,0.022559435607157542,0.019183473643952557,36.0625,0.6875,172.5625,-0.025875714357482836,0.948852539999999,0.3089599599999996,-0.05945143564251722
160.0,-0.027471713811048282,0.0894893753369438,-0.021916504591777755,0.1198995240613433,-1.2600000000000005,-9.720000000000015,0.009887453526798321,0.009686833600925286,0.011767408323016862,36.0625,0.6875,172.5625,-0.025878296694870462,0.948852539999999,0.3089599599999996,-0.0594488533051296
161.0,-0.025439981707216373,0.0887174534008886,-0.02297438132814695,0.1200000000000001,-1.2600000000000005,-9.720000000000015,-0.010474702639033415,-0.002799695309532069,0.01189077713876914,36.0625,0.6875,172.5625,-0.025878910000000026,0.948852539999999,0.3089599599999996,-0.059448240000000034
162.0,-0.02763430536973723,0.09035419041012172,-0.02381833985762187,0.1200000000000001,-1.2600000000000005,-9.720000000000015,-0.012577321077581223,-0.011701006928959583,-0.005852116470938011,36.0625,0.6875,172.5625,-0.025878910000000026,0.948852539999999,0.3089599599999996,-0.059448240000000034
163.0,-0.027112496490097962,0.09136558933320116,-0.020793681763374802,0.1200000000000001,-1.2600000000000005,-9.720000000000015,-0.0025826169003848516,-0.022979857807673882,-0.006191815631039096,36.0625,0.6875,172.5625,-0.025878910000000026,0.948852539999999,0.3089599599999996,-0.059448240000000034
164.0,-0.02788292515237106,0.09164029594668249,-0.021940619683530727,0.1200000000000001,-1.2600000000000005,-9.720000000000015,-0.006843663800934872,0.011247526293295677,0.004808598072857308,36.0625,0.6875,172.5625,-0.025878910000000026,0.948852539999999,0.3089599599999996,-0.059448240000000034
165.0,-0.027656673252894656,0.0910022086574831,-0.0223188142105611,0.1200000000000001,-1.2600000000000005,-9.720000000000015,-0.010964250099103116,0.010809127268016121,0.009507721397395238,36.0625,0.6875,172.5625,-0.025878910000000026,0.948852539999999,0.3089599599999996,-0.059448240000000034
166.0,-0.027866635077548205,0.090861567398378,-0.02191565550517815,0.1200000000000001,-1.2600000000000007,-9.720000000000015,-0.007569758658102505,-0.02412007594292486,0.009125890508605454,36.0625,0.6875,172.5625,-0.025878910000000026,0.948852539999999,0.3089599599999996,-0.059448240000000034
167.0,-0.026398675321672217,0.09244867284409425,-0.02137629453446312,0.1200000000000001,-1.2600000000000007,-9.720000000000015,-0.008156909138959086,-0.03784293807706919,-0.021188452835175,36.0625,0.6875,172.5625,-0.025878910000000026,0.948852539999999,0.3089599599999996,-0.059448240000000034
168.0,-0.028092677931387623,0.09401049667178696,-0.020802611367127508,0.1200000000000001,-1.2600000000000007,-9.720000000000015,-0.01074468766001024,-0.010336661546338964,-0.014528929851510497,36.0625,0.6875,172.5625,-0.025878910000000026,0.948852539999999,0.3089599599999996,-0.059448240000000034
169.0,-0.02726702508960575,0.09418650793650789,-0.0189599334357399,0.1200000000000001,-1.2600000000000007,-9.720000000000015,-0.0072444636456733226,0.017665130568356373,0.0011840757808499738,36.0625,0.6875,172.5625,-0.025878910000000026,0.948852539999999,0.3089599599999996,-0.059448240000000034
170.0,-0.026708269329237082,0.09208813364055296,-0.021238799283154135,0.1200000000000001,-1.2600000000000007,-9.720000000000015,0.0027461757552483352,0.000992063492063492,0.00907258064516129,36.0625,0.6875,172.5625,-0.025878910000000026,0.948852539999999,0.3089599599999996,-0.059448240000000034
171.0,-0.025887416794674874,0.09184027777777773,-0.020593798003072206,0.1200000000000001,-1.2600000000000007,-9.720000000000015,-0.0015711005504352282,-0.008656554019457245,0.010440668202764977,36.0625,0.6875,172.5625,-0.025878910000000026,0.948852539999999,0.3089599599999996,-0.059448240000000034
172.0,-0.025729166666666685,0.09339581733230921,-0.021346566180235546,0.1200000000000001,-1.2600000000000007,-9.720000000000015,-0.008834065380184332,-0.018361175115207372,0.005524353558627752,36.0625,0.6875,172.5625,-0.025878910000000026,0.948852539999999,0.3089599599999996,-0.059448240000000034
173.0,-0.026821236559139802,0.09209357398873524,-0.020186891961085522,0.1200000000000001,-1.2600000000000007,-9.720000000000015,-0.006228398617511521,-0.013968894009216588,0.010448668714797747,36.0625,0.6875,172.5625,-0.025878910000000026,0.948852539999999,0.3089599599999996,-0.059448240000000034
174.0,-0.026219283195414847,0.09181012875146585,-0.019637489057364198,0.1200000000000001,-1.2600000000000005,-9.720000000000015,-0.011374857023107542,-0.016565447285400457,0.014317561485225377,36.0625,0.6875,172.5625,-0.025878910000000026,0.948852539999999,0.3089599599999996,-0.059448240000000034
175.0,-0.02680011778818362,0.0909050643757329,-0.019843066085261724,0.1200000000000001,-1.2600000000000005,-9.720000000000015,-0.017976214993888642,-0.01409109537849132,0.010414989139950119,36.0625,0.6875,172.5625,-0.025878910000000026,0.948852539999999,0.3089599599999996,-0.059448240000000034
176.0,-0.025938501354409275,0.09009962960210097,-0.02106848644764879,0.1200000000000001,-1.2600000000000005,-9.720000000000015,-0.012989863609335513,0.01579891435632525,0.0034823841629090064,36.0625,0.6875,172.5625,-0.025878910000000026,0.948852539999999,0.3089599599999996,-0.059448240000000034
177.0,-0.026625742757213897,0.09088616252085291,-0.02199940021967859,0.1200000000000001,-1.2600000000000005,-9.720000000000015,-0.007279498145945856,0.016688148686677236,-0.000844263710296814,36.0625,0.6875,172.5625,-0.025878910000000026,0.948852539999999,0.3089599599999996,-0.059448240000000034
178.0,-0.025887876178914176,0.09231224088664251,-0.02207984923938359,0.1200000000000001,-1.2600000000000005,-9.720000000000015,0.002055615430355284,-0.0007307564458318896,0.005998029035148571,36.0625,0.6875,172.5625,-0.025878910000000026,0.948852539999999,0.3089599599999996,-0.059448240000000034
179.0,-0.026211822072741704,0.09162165733445646,-0.019826654712353214,0.1200000000000001,-1.2600000000000005,-9.720000000000015,-0.006392538154699964,-0.0031611700568191206,-0.01060650139673455,36.0625,0.6875,172.5625,-0.025878910000000026,0.948852539999999,0.3089599599999996,-0.059448240000000034
180.0,-0.02532617313314505,0.09193986092529273,-0.020878549130370162,0.1200000000000001,-1.2600000000000007,-9.720000000000015,-0.007858567464446756,0.007176975455461407,-0.006925604529012436,36.0625,0.6875,172.5625,-0.025878910000000026,0.948852539999999,0.3089599599999996,-0.059448240000000034
181.0,-0.024662326776010452,0.09139640420857897,-0.022068364633401064,0.1200000000000001,-1.2600000000000005,-9.720000000000015,0.004003094907751515,0.0008032772161934492,0.005430153981467717,36.0625,0.6875,172.5625,-0.025878910000000026,0.948852539999999,0.3089599599999996,-0.059448240000000034
182.0,-0.025439904282906378,0.09171797317608968,-0.023084130287564224,0.1200000000000001,-1.2600000000000005,-9.720000000000015,0.010602614051170241,0.007197944539418265,0.022453630580744264,36.0625,0.6875,172.5625,-0.025878910000000026,0.948852539999999,0.3089599599999996,-0.059448240000000034
183.0,-0.025994401706225342,0.0926024581702261,-0.023884615066977203,0.1200000000000001,-1.2600000000000005,-9.720000000000015,-0.0005070647102059685,0.016175777185223724,0.007434572586839107,36.0625,0.6875,172.5625,-0.025878910000000026,0.948852539999999,0.3089599599999996,-0.059448240000000034
184.0,-0.026971318422443567,0.0914523613382224,-0.022563436317988877,0.1200000000000001,-1.2600000000000005,-9.720000000000015,0.009351727542820805,0.026914383810886476,0.009336226550757314,36.0625,0.6875,172.5625,-0.025878910000000026,0.948852539999999,0.3089599599999996,-0.059448240000000034
185.0,-0.026853434748856198,0.09298480522108252,-0.025839289843582264,0.1200000000000001,-1.2600000000000005,-9.720000000000015,0.013537930943709428,0.05056781698544836,0.031341070344631086,36.0625,0.6875,172.5625,-0.025878910000000026,0.948852539999999,0.3089599599999996,-0.059448240000000034
186.0,-0.026829422889516556,0.09301165339097828,-0.023432131914507055,0.1200000000000001,-1.2600000000000005,-9.720000000000015,0.00450894986311382,0.023836848138926052,0.02446671103079629,36.0625,0.6875,172.5625,-0.025878910000000026,0.948852539999999,0.3089599599999996,-0.059448240000000034
187.0,-0.026862292089919575,0.09477951621161815,-0.022537638537898697,0.1200000000000001,-1.2600000000000007,-9.720000000000015,-0.000533453495862445,0.004641458343656576,0.005066646846043308,36.0625,0.6875,172.5625,-0.025878910000000026,0.948852539999999,0.3089599599999996,-0.059448240000000034
188.0,-0.026989030523759987,0.09433135333564571,-0.02402495953289399,0.1200000000000001,-1.2600000000000005,-9.720000000000015,0.006152780874750177,0.01858602821548321,0.014091740581074607,36.0625,0.6875,172.5625,-0.025878910000000026,0.948852539999999,0.3089599599999996,-0.059448240000000034
189.0,-0.0266734954908082,0.09328950601225572,-0.023042656665510475,0.1200000000000001,-1.2600000000000005,-9.720000000000015,0.014376468481079563,0.024332686324182812,0.009403440529871332,36.0625,0.6875,172.5625,-0.025878910000000026,0.948852539999999,0.3089599599999996,-0.059448240000000034
190.0,-0.02669696279916755,0.09246016519250777,-0.022426346253902198,0.1200000000000001,-1.2600000000000005,-9.720000000000015,0.021533152315296566,0.00847810711498439,0.012438215400624349,36.0625,0.6875,172.5625,-0.025878910000000026,0.948852539999999,0.3089599599999996,-0.059448240000000034
191.0,-0.027090600895231503,0.09273877915283349,-0.02037627956576319,0.1200000000000001,-1.2600000000000007,-9.720000000000015,0.004685186948738914,0.002238175501296599,0.0064476223252481705,36.0625,0.6875,172.5625,-0.025878910000000026,0.948852539999999,0.3089599599999996,-0.059448240000000034
192.0,-0.02687527356589533,0.09167568917959132,-0.02155314714335267,0.1200000000000001,-1.2600000000000007,-9.720000000000015,0.005493545135275754,-0.010437151848686058,0.01469329520960309,36.0625,0.6875,172.5625,-0.025878910000000026,0.948852539999999,0.3089599599999996,-0.059448240000000034
193.0,-0.02703285010240657,0.09150121607782895,-0.022381672427035343,0.1200000000000001,-1.2600000000000007,-9.720000000000015,-0.00601688508064516,0.005349842389912956,-0.0010755688364055306,36.0625,0.6875,172.5625,-0.025878910000000026,0.948852539999999,0.3089599599999996,-0.059448240000000034
194.0,-0.026935883896569396,0.09194420442908344,-0.020912298387096788,0.1200000000000001,-1.2600000000000007,-9.720000000000015,-0.004394781266001024,-0.004469786066308242,-0.010345162090373783,36.0625,0.6875,172.5625,-0.025878910000000026,0.948852539999999,0.3089599599999996,-0.059448240000000034
195.0,-0.025940220174091155,0.09169360000330341,-0.021422346514047876,0.1200000000000001,-1.2600000000000005,-9.720000000000015,-0.016181745309119137,-0.01256196525609897,-0.011683844540244123,36.0625,0.6875,172.5625,-0.025878910000000026,0.948852539999999,0.3089599599999996,-0.059448240000000034
196.0,-0.027527201740911434,0.0924917052755892,-0.021543226508432035,0.1200000000000001,-1.2600000000000005,-9.720000000000015,-0.008402892623837602,-0.033434720467271195,-0.007370020068381151,36.0625,0.6875,172.5625,-0.025878910000000026,0.948852539999999,0.3089599599999996,-0.059448240000000034
197.0,-0.0276076868919611,0.09332982601209056,-0.022502284017144852,0.1200000000000001,-1.2600000000000005,-9.720000000000015,-0.015386162133731398,-0.019373530228515273,0.002011354533141734,36.0625,0.6875,172.5625,-0.025878910000000026,0.948852539999999,0.3089599599999996,-0.059448240000000034
198.0,-0.027767000313826555,0.09405638347951038,-0.02094847876715724,0.1200000000000001,-1.2600000000000005,-9.720000000000015,-0.01627026710354624,-0.016797075012800818,0.008021481116726955,36.0625,0.6875,172.5625,-0.025878910000000026,0.948852539999999,0.3089599599999996,-0.059448240000000034
199.0,-0.02877341311134237,0.09473172476586886,-0.020562565036420406,0.1200000000000001,-1.2600000000000005,-9.720000000000015,-0.019695873439125912,-0.018775201612903226,0.0033066954994797086,36.0625,0.6875,172.5625,-0.025878910000000026,0.948852539999999,0.3089599599999996,-0.059448240000000034
200.0,-0.02866090010405829,0.09460051378772108,-0.02073393600416234,0.1200000000000001,-1.2600000000000005,-9.720000000000015,0.003175606464620187,-0.00855838644640999,0.005880715075442248,36.0625,0.6875,172.5625,-0.025878910000000026,0.948852539999999,0.3089599599999996,-0.059448240000000034
201.0,-0.028280542857968733,0.09413161410072178,-0.020833317848471346,0.1200000000000001,-1.2600000000000007,-9.720000000000015,0.0067238819413474715,-0.005988802638207555,-0.005716946529739193,36.0625,0.6875,172.5625,-0.025878910000000026,0.948852539999999,0.3089599599999996,-0.059448240000000034
202.0,-0.028345607667277818,0.09441443478189052,-0.021193681556909975,0.1200000000000001,-1.2600000000000005,-9.720000000000015,-0.011379986383644682,-0.01746805343929108,0.0047568850858067824,36.0625,0.6875,172.5625,-0.025878910000000026,0.948852539999999,0.3089599599999996,-0.059448240000000034
203.0,-0.026948558256115505,0.09253500094973817,-0.021814322568257286,0.1200000000000001,-1.2600000000000005,-9.720000000000015,0.002650927723890458,-0.02313959383723139,0.005191267725005368,36.0625,0.6875,172.5625,-0.025878910000000026,0.948852539999999,0.3089599599999996,-0.059448240000000034
204.0,-0.02752646585262352,0.0931669266535291,-0.022016303653855693,0.1200000000000001,-1.2600000000000005,-9.720000000000015,0.00516168245685838,-0.010246469917995346,-0.0038244770245940904,36.0625,0.6875,172.5625,-0.025878910000000026,0.948852539999999,0.3089599599999996,-0.059448240000000034
205.0,-0.027149929674903678,0.0920044502699289,-0.023532713398868463,0.1200000000000001,-1.2600000000000007,-9.720000000000015,-0.0019091961339620027,0.01124606267605097,0.001545982813867829,36.0625,0.6875,172.5625,-0.025878910000000026,0.948852539999999,0.3089599599999996,-0.059448240000000034
206.0,-0.02731792438686301,0.09134656717285486,-0.023363898942137768,0.1200000000000001,-1.2600000000000007,-9.720000000000015,-0.0021226728237654356,0.012759488071256412,0.0045732346224997104,36.0625,0.6875,172.5625,-0.025878910000000026,0.948852539999999,0.3089599599999996,-0.059448240000000034
207.0,-0.02630284276655246,0.090359627939265,-0.0218147438359132,0.1200000000000001,-1.2600000000000007,-9.720000000000015,-0.015478159832998543,0.00733127689402891,-0.002423770505927764,36.0625,0.6875,172.5625,-0.025878910000000026,0.948852539999999,0.3089599599999996,-0.059448240000000034
208.0,-0.02539940525424398,0.09065108413092281,-0.020950214659892087,0.1200000000000001,-1.2600000000000007,-9.720000000000015,-0.006478999271337981,-0.023599356512662963,-0.0028184880755445273,36.0625,0.6875,172.5625,-0.025878910000000026,0.948852539999999,0.3089599599999996,-0.059448240000000034
209.0,-0.026172899680964215,0.09214778791996531,-0.022734274685887602,0.1200000000000001,-1.2600000000000007,-9.720000000000015,-0.030997830014967108,-0.023607449338296112,-0.011448286536492183,36.0625,0.6875,172.5625,-0.025878910000000026,0.948852539999999,0.3089599599999996,-0.059448240000000034
210.0,-0.025199687856945936,0.09169376870888965,-0.02160539012958369,0.1200000000000001,-1.2600000000000007,-9.720000000000015,-0.01586718473059199,-0.0033827549578557634,0.01054102077917602,36.0625,0.6875,172.5625,-0.025878910000000026,0.948852539999999,0.3089599599999996,-0.059448240000000034
211.0,-0.02676671737760449,0.09131071034700063,-0.021546336503997808,0.1200000000000001,-1.2600000000000007,-9.720000000000015,0.004008579626019143,-0.009852338241955177,0.0026788637549726253,36.0625,0.6875,172.5625,-0.025878910000000026,0.948852539999999,0.3089599599999996,-0.059448240000000034
212.0,-0.02567234210681793,0.09107242555831262,-0.02232478509393833,0.1200000000000001,-1.2600000000000007,-9.720000000000015,0.010662074680471858,0.003762879285812752,0.0025030755814525974,36.0625,0.6875,172.5625,-0.025878910000000026,0.948852539999999,0.3089599599999996,-0.059448240000000034
213.0,-0.025859860569538005,0.09242679900744413,-0.02370081531371855,0.1200000000000001,-1.2600000000000007,-9.720000000000015,0.002306116822245855,-0.005688979479302061,0.0062615699712473905,36.0625,0.6875,172.5625,-0.025878910000000026,0.948852539999999,0.3089599599999996,-0.059448240000000034
214.0,-0.027025719799913365,0.09313962739769188,-0.02376383473157668,0.1200000000000001,-1.2600000000000007,-9.720000000000015,0.007476170782622396,-0.017364803655126236,-0.01342264366457915,36.0625,0.6875,172.5625,-0.025878910000000026,0.948852539999999,0.3089599599999996,-0.059448240000000034
215.0,-0.02602402615305843,0.09146931742093031,-0.02219457245263698,0.1200000000000001,-1.2600000000000007,-9.720000000000015,0.002241497301981173,-0.002409138800267833,-0.0016787535940761752,36.0625,0.6875,172.5625,-0.025878910000000026,0.948852539999999,0.3089599599999996,-0.059448240000000034
216.0,-0.026155027767931008,0.09096554610264285,-0.022956752924494873,0.1200000000000001,-1.2600000000000007,-9.720000000000015,0.007916998995628028,-0.02655806894718185,0.00589459263854425,36.0625,0.6875,172.5625,-0.025878910000000026,0.948852539999999,0.3089599599999996,-0.059448240000000034
217.0,-0.02546102642876838,0.09423853341998499,-0.02421519161841744,0.1200000000000001,-1.2600000000000007,-9.720000000000015,0.031864285468116114,0.016658881553034778,0.012643916902989482,36.0625,0.6875,172.5625,-0.025878910000000026,0.948852539999999,0.3089599599999996,-0.059448240000000034
218.0,-0.026182126117610005,0.09351132626334235,-0.02468948166528813,0.1200000000000001,-1.2600000000000007,-9.720000000000015,0.014009065810981132,-0.008039976096931741,-0.006433934848753397,36.0625,0.6875,172.5625,-0.025878910000000026,0.948852539999999,0.3089599599999996,-0.059448240000000034
219.0,-0.025873181044877208,0.09169362839221706,-0.025862310671753975,0.1200000000000001,-1.2600000000000005,-9.720000000000015,0.00839481146148192,-0.00043297932357993455,-0.0011287980495267827,36.0625,0.6875,172.5625,-0.025878910000000026,0.948852539999999,0.3089599599999996,-0.059448240000000034
220.0,-0.02539562790083083,0.0933070916538658,-0.02414995333894919,0.1200000000000001,-1.2600000000000005,-9.720000000000015,0.031894428340187964,0.014427697566192624,0.004894700357597079,36.0625,0.6875,172.5625,-0.025878910000000026,0.948852539999999,0.3089599599999996,-0.059448240000000034
221.0,-0.025579278364137904,0.0933394137224782,-0.022499963868655347,0.1200000000000001,-1.2600000000000005,-9.720000000000015,0.0051385224138215824,0.008013899986373321,-0.008849372811472838,36.0625,0.6875,172.5625,-0.025878910000000026,0.948852539999999,0.3089599599999996,-0.059448240000000034
222.0,-0.026503156847199526,0.09284226190476189,-0.022614549266636946,0.1200000000000001,-1.2600000000000007,-9.720000000000015,0.009249688754273823,0.029272566992674626,-0.006744834895239748,36.0625,0.6875,172.5625,-0.025878910000000026,0.948852539999999,0.3089599599999996,-0.059448240000000034
223.0,-0.026054322960540457,0.09254122070264106,-0.025219946979832528,0.1200000000000001,-1.2600000000000005,-9.720000000000015,-0.000515065222238739,0.04481267446277852,0.008988059106750573,36.0625,0.6875,172.5625,-0.025878910000000026,0.948852539999999,0.3089599599999996,-0.059448240000000034
224.0,-0.025678045975587614,0.09030286841583665,-0.025562626975868405,0.1200000000000001,-1.2600000000000005,-9.720000000000015,-0.007362761539319161,0.033901524536279995,0.022086381270336783,36.0625,0.6875,172.5625,-0.025878910000000026,0.948852539999999,0.3089599599999996,-0.059448240000000034
225.0,-0.024130625650364217,0.09031656477627467,-0.02395258844953175,0.1200000000000001,-1.2600000000000005,-9.720000000000015,-0.012105919940166493,0.004893990634755461,0.005826856789802289,36.0625,0.6875,172.5625,-0.025878910000000026,0.948852539999999,0.3089599599999996,-0.059448240000000034
226.0,-0.025884657908428733,0.08977237252861597,-0.02112870707596255,0.1200000000000001,-1.2600000000000005,-9.720000000000015,-0.012485976521852238,0.03158331165452653,-0.01026762486992716,36.0625,0.6875,172.5625,-0.025878910000000026,0.948852539999999,0.3089599599999996,-0.059448240000000034
227.0,-0.026346666831838547,0.09164821903440525,-0.022812897444791317,0.1200000000000001,-1.2600000000000005,-9.720000000000015,0.011953926341608443,0.022141062189270432,0.0036337486889483498,36.0625,0.6875,172.5625,-0.025878910000000026,0.948852539999999,0.3089599599999996,-0.059448240000000034
228.0,-0.02668699312885059,0.09250811922930806,-0.022018905984176544,0.1200000000000001,-1.2600000000000005,-9.720000000000015,0.016380209623738498,0.020384417505946186,0.012195603099243512,36.0625,0.6875,172.5625,-0.025878910000000026,0.948852539999999,0.3089599599999996,-0.059448240000000034
229.0,-0.027532004628941432,0.09281655961465402,-0.024300783637249572,0.1200000000000001,-1.2600000000000007,-9.720000000000015,0.0033702963441273144,-0.010835387013155938,-0.0020139676036040506,36.0625,0.6875,172.5625,-0.025878910000000026,0.948852539999999,0.3089599599999996,-0.059448240000000034
230.0,-0.027302764151099237,0.09373162463042795,-0.02444349470624186,0.1200000000000001,-1.2600000000000005,-9.720000000000015,-0.00848441397023603,-0.0019336721421138693,-0.006572678715953951,36.0625,0.6875,172.5625,-0.025878910000000026,0.948852539999999,0.3089599599999996,-0.059448240000000034
231.0,-0.026943505664759587,0.09306728513999583,-0.02320061551929399,0.1200000000000001,-1.2600000000000005,-9.720000000000015,-0.0020457269563018783,0.03236583022206722,0.0011066206996552985,36.0625,0.6875,172.5625,-0.025878910000000026,0.948852539999999,0.3089599599999996,-0.059448240000000034
232.0,-0.026855462312863475,0.09258898149630457,-0.024387183965878047,0.1200000000000001,-1.2600000000000005,-9.720000000000015,0.01775593836516703,0.015958900774116047,0.005740350012673764,36.0625,0.6875,172.5625,-0.025878910000000026,0.948852539999999,0.3089599599999996,-0.059448240000000034
233.0,-0.02662153555991357,0.09180524343632432,-0.024106034379252395,0.1200000000000001,-1.2600000000000007,-9.720000000000015,0.01511036805611142,-0.01703815073941407,0.01009463737192828,36.0625,0.6875,172.5625,-0.025878910000000026,0.948852539999999,0.3089599599999996,-0.059448240000000034
234.0,-0.02769332826382776,0.09198377091171053,-0.02493104138317459,0.1200000000000001,-1.2600000000000007,-9.720000000000015,0.006704629592571839,0.0032154256383574824,0.023428745097254462,36.0625,0.6875,172.5625,-0.025878910000000026,0.948852539999999,0.3089599599999996,-0.059448240000000034
235.0,-0.02802264267990076,0.0919513027295285,-0.02406017369727048,0.1200000000000001,-1.2600000000000007,-9.720000000000015,-0.0007890043424317625,0.011435716501240695,0.01189322270471464,36.0625,0.6875,172.5625,-0.025878910000000026,0.948852539999999,0.3089599599999996,-0.059448240000000034
236.0,-0.026727202233250636,0.0906964950372208,-0.023371277915632767,0.1200000000000001,-1.2600000000000007,-9.720000000000015,0.008112011476426798,-0.020049821650124068,-0.003250038771712158,36.0625,0.6875,172.5625,-0.025878910000000026,0.948852539999999,0.3089599599999996,-0.059448240000000034
237.0,-0.025502078664051884,0.09139571409989589,-0.02409370747618668,0.1200000000000001,-1.2600000000000005,-9.720000000000015,0.018539616560273753,0.002982373254022253,0.000805841896462019,36.0625,0.6875,172.5625,-0.025878910000000026,0.948852539999999,0.3089599599999996,-0.059448240000000034
238.0,-0.02595416433202595,0.09124473204994792,-0.02190572470583528,0.1200000000000001,-1.2600000000000005,-9.720000000000015,0.009065045175298166,0.006295244086688545,0.001678752601456816,36.0625,0.6875,172.5625,-0.025878910000000026,0.948852539999999,0.3089599599999996,-0.059448240000000034
239.0,-0.026223049907948468,0.09058708376690944,-0.023037035740014422,0.1200000000000001,-1.2600000000000005,-9.720000000000015,-0.014589201202673497,0.005321261156247498,0.0017844367845993758,36.0625,0.6875,172.5625,-0.025878910000000026,0.948852539999999,0.3089599599999996,-0.059448240000000034
240.0,-0.026390641259105115,0.09192621618106134,-0.023048094432882422,0.1200000000000001,-1.2600000000000005,-9.720000000000015,0.03290741252601457,0.02108094595473465,0.013379211108220603,36.0625,0.6875,172.5625,-0.025878910000000026,0.948852539999999,0.3089599599999996,-0.059448240000000034
241.0,-0.02671182568587617,0.09342842587086858,-0.02271008312273922,0.1200000000000001,-1.2600000000000005,-9.720000000000015,-0.007367568298564654,0.003631780821069323,-0.00889989217374428,36.0625,0.6875,172.5625,-0.025878910000000026,0.948852539999999,0.3089599599999996,-0.059448240000000034
242.0,-0.02868517723099541,0.09152158506382618,-0.021674020189401316,0.1200000000000001,-1.2600000000000005,-9.720000000000015,0.0027925926217094287,0.016297750252045908,-0.007012631190530189,36.0625,0.6875,172.5625,-0.025878910000000026,0.948852539999999,0.3089599599999996,-0.059448240000000034
243.0,-0.03136675816234871,0.08820346886319828,-0.022805736093164566,0.1200000000000001,-1.2600000000000007,-9.720000000000015,-0.010380457401382867,0.013143194762479687,0.004638955702097937,36.0625,0.6875,172.5625,-0.025878910000000026,0.948852539999999,0.3089599599999996,-0.059448240000000034
244.0,-0.03213155176422608,0.0863162761622699,-0.022645627583192635,0.1200000000000001,-1.2600000000000007,-9.720000000000015,-0.0004954282334615314,-0.026789287715406344,0.0007361265165635614,36.0625,0.6875,172.5625,-0.025878910000000026,0.948852539999999,0.3089599599999996,-0.059448240000000034
245.0,-0.03397896726928987,0.08485052581826774,-0.023576115640631785,0.1200000000000001,-1.2600000000000007,-9.720000000000015,0.0009817243688211436,-0.00554324707550514,-0.0054812123360510456,36.0625,0.6875,172.5625,-0.025878910000000026,0.948852539999999,0.3089599599999996,-0.059448240000000034
246.0,-0.032514553546811625,0.08480751506557954,-0.02317893575958093,0.1200000000000001,-1.2600000000000007,-9.720000000000015,0.005197132616487455,0.002431170979558076,0.00420703848123203,36.0625,0.6875,172.5625,-0.025878910000000026,0.948852539999999,0.3089599599999996,-0.059448240000000034
247.0,-0.030765961636929396,0.08716678482807513,-0.021093189964157717,0.1200000000000001,-1.2600000000000007,-9.720000000000015,-0.01072339398952302,0.019399518492260428,0.015789933632675567,36.0625,0.6875,172.5625,-0.025878910000000026,0.948852539999999,0.3089599599999996,-0.059448240000000034
248.0,-0.031386565047855385,0.08899045846626491,-0.021140552995391717,0.1200000000000001,-1.2600000000000007,-9.720000000000015,-0.01523432884319981,-0.005821234097443773,-0.006697967131434872,36.0625,0.6875,172.5625,-0.025878910000000026,0.948852539999999,0.3089599599999996,-0.059448240000000034
249.0,-0.03121427586750169,0.08990485544921026,-0.02294866871479776,0.1200000000000001,-1.2600000000000007,-9.720000000000015,0.0013274080310370622,0.004681868870376936,0.008291761441963056,36.0625,0.6875,172.5625,-0.025878910000000026,0.948852539999999,0.3089599599999996,-0.059448240000000034
250.0,-0.02978048071999687,0.09046379091338766,-0.019845794438536388,0.1200000000000001,-1.2600000000000007,-9.720000000000015,-0.016822953592106817,0.0056615161831895695,-0.017188900089605733,36.0625,0.6875,172.5625,-0.025878910000000026,0.948852539999999,0.3089599599999996,-0.059448240000000034
251.0,-0.02804392642419439,0.09314168493880379,-0.019461999116330553,0.1200000000000001,-1.2600000000000005,-9.720000000000015,0.0029108637146325767,0.01984528622735081,-0.011917811127008902,36.0625,0.6875,172.5625,-0.025878910000000026,0.948852539999999,0.3089599599999996,-0.059448240000000034
252.0,-0.027746761599193977,0.09230420940488573,-0.020229991493649156,0.1200000000000001,-1.2600000000000005,-9.720000000000015,0.008417377421832416,0.0153882429120625,-0.0028559569747947738,36.0625,0.6875,172.5625,-0.025878910000000026,0.948852539999999,0.3089599599999996,-0.059448240000000034
253.0,-0.020366338438438117,0.10693387175045932,-0.02410029199981463,0.12169475204622056,-1.2600770341839196,-9.720000000000015,-0.03398838276733004,0.047172707787048976,-0.15793709954875726,36.00520582571016,0.6985736639383726,172.56153707270101,-0.02595695864708714,0.9489997064130951,0.3085137607510831,-0.0594266127298989
254.0,-0.0034577482040387903,0.12471871481261107,-0.02561780491831339,0.09959500410660166,-1.2765091053272537,-9.71681214421253,0.29866156940855515,-0.2218745761942364,-0.03331564269420786,35.89675613866153,0.5801336061627347,172.46239804299188,-0.02521608650570675,0.9492397538706845,0.30762734234897604,-0.060628018091704663
255.0,0.013104163827792737,0.12473613475082485,-0.027065982296881702,0.07644762612277971,-1.279053560107796,-9.718326667639772,0.29429169297163743,-0.20633465506706583,0.05250057402096886,35.81833774675012,0.4561493092848413,172.44545150288553,-0.024180791910421613,0.9493897626971286,0.3071460103208902,-0.06106170407314762
256.0,0.022704527283303244,0.12026348881141657,-0.024997611335745747,0.06209478080332531,-1.2798493606990595,-9.719163333819893,0.15283653327041807,-0.09362323284050482,0.01374703518946466,35.77912855079441,0.37827626754564647,172.4394596224105,-0.023549252245533392,0.9494676752195317,0.30688741096689687,-0.06129453848818669
257.0,0.027037747512619375,0.11914132101861151,-0.023935297603356755,0.054918358143598106,-1.2802472609946913,-9.719581666909955,0.08175785836908,-0.05456111238799434,0.012307615376990395,35.759523952816565,0.33933974667604905,172.43646368217298,-0.023233482413089278,0.9495066314807333,0.30675811128990016,-0.06141095569570622
258.0,0.028976034954924915,0.11620209626447767,-0.023153272144258875,0.05127718581229011,-1.28044380382426,-9.719790833454985,0.0333780312166223,-0.04283617861950404,-0.0058383627954904024,35.75151209677419,0.31952543424317614,172.43499580353233,-0.02307315847664575,0.9495215106609249,0.3067074051779305,-0.06146984015165664
259.0,0.0318741654850526,0.11397391340738114,-0.022591816337784093,0.05017369727047141,-1.2800297766749384,-9.719995037220858,0.0012715583028083026,-0.01274576957540667,-0.011413607393950136,35.75,0.31349255583126545,172.43734491315138,-0.02301736827295286,0.9495237482431755,0.30670278083374714,-0.06146140053598009
260.0,0.030004080261136726,0.11644353238607269,-0.025196652585765502,0.04999999999999995,-1.2800000000000007,-9.720000000000015,-0.011437732014848951,0.03692736335125448,-0.04312926027265745,35.75,0.3125,172.4375,-0.023011726774193556,0.9495239299999993,0.30670313677419375,-0.06146092346774188
261.0,0.032228470980351705,0.1216893952854774,-0.02478695472331126,0.05847376023110251,-1.2681367356764564,-9.720000000000015,-0.06416497969302871,0.07496137215468357,-0.060169410543767336,35.75,0.351017091959557,172.50923808377468,-0.023161916610495905,0.9495765891044772,0.30667324826673104,-0.06080388224422241
262.0,0.03142100121013845,0.12163807363619357,-0.02548976943739196,0.04488671648768776,-1.2496831410967597,-9.720000000000017,0.18466804523120886,-0.23250277764694527,-0.1966908789365634,35.713066853669936,0.2630348433149819,172.6122189717611,-0.022149699499731355,0.9497666627312941,0.3062875150964323,-0.06018808193557543
263.0,0.034331084322427145,0.12011294362813263,-0.028823737765290965,0.03520372690743836,-1.2465558562626655,-9.720516129032273,0.3654170999325527,-0.14667893618650388,-0.4346837651211235,35.43061176784879,0.2057397718879057,172.63223275776994,-0.021447254897331118,0.9505309507803936,0.30393932421181064,-0.06026315602769555
264.0,0.03819972471253323,0.11603024686294217,-0.027895648208158683,0.028916623962028085,-1.2689866280335813,-9.719476050830906,0.37594143959848547,-0.19849315974769965,-0.2591546040292812,35.07906443719908,0.1657670022684885,172.50114203870902,-0.021285602575742784,0.9513700932152216,0.30106390082535783,-0.06153243658667279
265.0,0.05109980126144744,0.1285874291499462,-0.029139509099191753,0.014903082264494005,-1.2938090520422052,-9.714576735092873,0.35145234171395434,-0.19337078564120075,-0.11625576761825741,34.906712081747145,0.08517455685271932,172.35690655210135,-0.020851526903096232,0.9517605484209049,0.29956791158508844,-0.06299285673213464
266.0,0.0584290532547006,0.1275002624806062,-0.030200471930433632,0.006380284512121822,-1.2978289362281321,-9.714129966005757,0.3113935998410889,-0.17501351029773082,-0.054983324348367994,34.822337745254885,0.03634329672197834,172.3342970410964,-0.02041595859839453,0.9519697887988015,0.2988683483659673,-0.06334558391734321
267.0,0.06810592088059587,0.11642154491311929,-0.029289900438191255,-0.0005796998700224498,-1.290708764514254,-9.717064983002885,0.3022678072208645,-0.14804501889540406,-0.03171991405320726,34.77119400119219,-0.0040758972210585085,172.37510784733644,-0.019755317717437274,0.9521261819613455,0.29845603917118807,-0.06313093242301512
268.0,0.07677974440901739,0.11033777985776057,-0.026956149772230667,-0.007986540341379054,-1.2865514217767469,-9.718516362469192,0.29901129503621077,-0.13219743264278652,-0.01852936423230116,34.75387177018135,-0.046548142717497555,172.39903844049547,-0.019202541627815126,0.9522073304043566,0.2982441229529309,-0.06311228360439962
269.0,0.07860868564912857,0.09711478811671395,-0.024956193541653352,-0.008104067975035722,-1.2727747333712671,-9.719282619162268,0.2114626085678084,-0.08998021117063004,0.0039595264709612315,34.751783148042776,-0.04872217835927513,172.48383923491048,-0.018940422061332163,0.952272761333655,0.29814183229641433,-0.06251067676832504
270.0,0.07918346907465826,0.09107611727062856,-0.024932266257254233,-0.009252424994360482,-1.2654611692271782,-9.719802599903723,0.11402939060618406,-0.007348647580953799,-0.0038611364562255272,34.750631921039954,-0.0568482592676141,172.52869869858915,-0.018801982890617956,0.9523063866736707,0.29808329919561666,-0.06219182285874704
271.0,0.0826164373261147,0.08780675238739752,-0.026575832769381167,-0.011772614482291908,-1.2620782013685243,-9.720000000000015,0.06474264982329499,-0.060339123242349045,-0.0332562598691631,34.75,-0.07259286412512218,172.54951124144674,-0.018570791029250307,0.9523251334438689,0.2980525490730129,-0.062099114852394915
272.0,0.09701293330325585,0.08727682532521239,-0.02702488908940523,-0.026510376720054143,-1.260684261974585,-9.720000000000015,0.003889625159786452,-0.09757030603804796,-0.0662326584705617,34.72479838709677,-0.15766739980449657,172.55822336265885,-0.017775264331002332,0.9523618101090318,0.29799765033923586,-0.06229646836540342
273.0,0.10331052553609123,0.07977353616532717,-0.023665345727936014,-0.032286461612532874,-1.2510640346653836,-9.720000000000015,-0.003424236602348061,-0.1278229278545239,-0.08903518619680753,34.705141129032256,-0.19018265527202693,172.6135351468464,-0.017341417457260845,0.9524283000014817,0.2979104153347746,-0.06186060863715234
274.0,0.0946056349764823,0.06543763656901594,-0.02162423613940225,-0.026349186141254033,-1.2352044739083738,-9.720000000000015,-0.016740033933928374,-0.11018937956001629,-0.038438188631902515,34.6953125,-0.14845671225139812,172.68479176697159,-0.01746741991473464,0.9525059277426768,0.2978166814142854,-0.06104854778259604
275.0,0.09345961767729939,0.05868234579642257,-0.019992905024681637,-0.02333588339320767,-1.226957075663864,-9.720000000000015,-0.016469243009738614,-0.08895039500668112,-0.03236135080498194,34.69039818548387,-0.1377364206418281,172.7204200770342,-0.017370332191445056,0.9525447416132744,0.297768163449078,-0.060680563568717344
276.0,0.09640102471954301,0.05715010590069268,-0.021878586507378048,-0.021767197279730387,-1.2246882152512866,-9.720000000000015,0.014578653929373868,-0.05170224464974254,-0.004618950836734147,34.68794102822581,-0.1320040664003185,172.7326898772268,-0.01733161362301782,0.9525640728165632,0.29774390446647436,-0.060566739271951706
277.0,0.09708132811659531,0.05805462025803864,-0.02121534784425974,-0.02055849783341359,-1.2268602366579011,-9.720000000000015,-0.050531169700945816,-0.004818922417923376,0.04490744261823343,34.6875,-0.12670641828080442,172.71211106764565,-0.01743482684586065,0.9525728296340885,0.29773308246761204,-0.06067693798689859
278.0,0.09331674642561738,0.058813058804994274,-0.01948878943637009,-0.02000000000000001,-1.228225496277915,-9.720000000000015,-0.11358800809405648,0.029398619973216744,0.06590141769073221,34.6875,-0.124348635235732,172.70022681451613,-0.017585199764991715,0.9525587188089328,0.2977296111712156,-0.06072780528877166
279.0,0.09795417060538028,0.06575939875536649,-0.018028927389814493,-0.022293906810035853,-1.2292641129032251,-9.720000000000015,-0.09325713768758123,-0.023765921018945212,0.23551407290066562,34.80373143881208,-0.125,172.69285534274192,-0.017633834649914817,0.9522256798550552,0.2987485571172553,-0.06078199999256806
280.0,0.1014463633364843,0.07210524981291111,-0.019763311621174534,-0.026308243727598584,-1.229793346774193,-9.720000000000015,-0.03580387606345268,-0.06327824980798771,0.0657537082373272,34.939164106502815,-0.125,172.68916960685482,-0.017641669529258483,0.9518651496049468,0.2998456300102405,-0.06082490048015496
281.0,0.10203114537791957,0.07618871361613296,-0.019979942100909854,-0.02831541218637995,-1.2299999999999995,-9.720000000000015,-0.02921116182204892,-0.011698348694316432,0.043634792626728106,35.00688044034818,-0.125,172.6875,-0.017645444631060693,0.9516848844798926,0.3003941664567331,-0.060844104970420185
282.0,0.1040292203316397,0.07817748335893494,-0.0203001447477254,-0.029318996415770633,-1.2299999999999995,-9.720000000000015,-0.013279588355193193,0.019771173047382726,0.02190269408011343,35.04073860727087,-0.125,172.6875,-0.01764418033786285,0.9515947519173655,0.3006684346799794,-0.0608482592122572
283.0,0.10492055749632492,0.07907833585220421,-0.02043455168227542,-0.02982078853046597,-1.2299999999999993,-9.720000000000015,-0.003879248271889401,0.014693779111540559,0.0034051211535602796,35.0576676907322,-0.125,172.6875,-0.017640503958013313,0.9515502156733229,0.3008055687916026,-0.06085098752176132
284.0,0.10403989984391257,0.07845749869927159,-0.01994845863683664,-0.030000000000000027,-1.2299999999999993,-9.720000000000015,0.0007245463709677419,0.00909900169094693,-0.0006015868886576478,35.0625,-0.125,172.6875,-0.01763916,0.9515380899999998,0.30084228999999996,-0.06085204999999992
285.0,0.1044046225410039,0.07844729933683497,-0.0221635294336257,-0.030000000000000027,-1.2299999999999995,-9.720000000000015,0.0005435347862263185,0.025644850947880018,0.006457639095353716,35.0625,-0.125,172.6875,-0.01763916,0.9515380899999998,0.30084228999999996,-0.06085204999999992
286.0,0.1047426338511471,0.07842475853938523,-0.01946382116842576,-0.030000000000000027,-1.2299999999999995,-9.720000000000015,-0.0009095582117255504,0.021280716804585167,-0.003670121984581206,35.0625,-0.125,172.6875,-0.01763916,0.9515380899999998,0.30084228999999996,-0.06085204999999992
287.0,0.10421355482879935,0.07889735910840229,-0.01843150735840643,-0.030000000000000027,-1.2299999999999995,-9.720000000000015,-0.007999511968766,0.023934209208744197,0.014246718241580364,35.0625,-0.125,172.6875,-0.01763916,0.9515380899999998,0.30084228999999996,-0.06085204999999992
288.0,0.1049345609731926,0.08004181170820739,-0.019957168871711027,-0.030000000000000027,-1.2299999999999993,-9.720000000000015,0.0006828662840873429,0.016470876716755033,0.017204004282080507,35.0625,-0.125,172.6875,-0.017639159999999997,0.9515380899999998,0.30084228999999996,-0.06085204999999992
289.0,0.10394913532530596,0.08038128891861981,-0.020149955403597455,-0.030000000000000027,-1.2299999999999993,-9.720000000000015,-0.011802594075698263,0.0031793647696678395,0.0059558327862015426,35.0625,-0.125,172.6875,-0.01763916,0.9515380899999998,0.30084228999999996,-0.06085204999999992
290.0,0.10318808532778354,0.08207108480749219,-0.01815101456815818,-0.030000000000000027,-1.2299999999999995,-9.720000000000015,0.0026512503251821017,0.008038095083246618,0.003825970668574402,35.0625,-0.125,172.6875,-0.01763916,0.9515380899999998,0.30084228999999996,-0.06085204999999992
291.0,0.10356152858299059,0.08106074401664931,-0.017978957104867625,-0.030000000000000027,-1.2299999999999995,-9.720000000000015,0.008541336968146605,0.0032234966263647324,0.009286207220487917,35.0625,-0.125,172.6875,-0.01763916,0.9515380899999998,0.30084228999999996,-0.06085204999999992
292.0,0.10434188820342569,0.0789838730323902,-0.01960327783558794,-0.030000000000000027,-1.2299999999999995,-9.720000000000015,0.047005653523115795,0.02062796535107279,0.015915825064417025,35.0625,-0.125,172.6875,-0.01763916,0.9515380899999998,0.30084228999999996,-0.06085204999999992
293.0,0.10358857797668283,0.06930995460632557,-0.021286910669975196,-0.030000000000000027,-1.2299999999999995,-9.720000000000015,-0.019323405928748667,-0.004224408823703181,-0.020142573740103982,35.0625,-0.12996277915632753,172.6875,-0.017623167146401976,0.9515380899999998,0.30084228999999996,-0.06085204999999992
294.0,0.10333449525385009,0.06265482221631413,-0.020559010545905712,-0.03063523573200995,-1.2319057071960293,-9.720000000000015,-0.03161618497429989,-0.03719042634113198,-0.07550121669325298,35.038182382133996,-0.16023573200992555,172.696929280397,-0.017438758054590567,0.9516204777717122,0.3006527906848636,-0.06086513672952851
295.0,0.10818094450352515,0.058161408483989124,-0.020337468982630273,-0.03605238489109458,-1.2320998070030322,-9.720000000000015,-0.06471897278348891,-0.031616546535901374,-0.060823585017133405,35.01808312655087,-0.20406179841663713,172.70501545945092,-0.017087430015518525,0.9516737871116628,0.3004955196972705,-0.060954600328409936
296.0,0.11657237386269645,0.05454968687226751,-0.019489936586710783,-0.045254480286738355,-1.2310499035015159,-9.720000000000015,-0.07873734688250818,-0.012318326834455863,-0.04403531056756864,35.0080334987593,-0.25981625900980737,172.7285157942416,-0.016593676982945366,0.9517004417816382,0.30039653077419354,-0.061054535724999026
297.0,0.12699458426877785,0.053210583323486535,-0.020936724565756827,-0.0556111111111111,-1.2305249517507577,-9.720000000000015,-0.07295482295482295,-0.012815589428492653,-0.052123582063098195,35.00300868486352,-0.3194242585371617,172.7402659616369,-0.01608275833018236,0.9517177071811418,0.30033589038709674,-0.06118857407217697
298.0,0.13456451523387009,0.054723496038012145,-0.018466181667794575,-0.06345071684587812,-1.2261178033436089,-9.721173020527873,-0.23162460299557072,-0.005958042853204143,-0.06771529881408914,34.99316489961651,-0.37210591827527306,172.76960145589175,-0.015601855266301796,0.9517696564009324,0.3002602259902249,-0.06107711148867889
299.0,0.1372705804895084,0.0533151854733923,-0.01680672971873162,-0.07069032704065914,-1.19551357982098,-9.725747800586522,-0.29111061561251317,-0.03982856893791429,-0.15562454475079002,34.926125582197685,-0.41783299124973694,172.9436260819088,-0.014757245998207096,0.9520232978235872,0.2997946441371353,-0.059670272429202996
300.0,0.13855202926387755,0.048591295624115724,-0.015860120352586944,-0.05053995859591005,-1.1695605923103654,-9.728035190615847,-0.06081875423204523,0.09362272102982956,-0.6904629602802904,34.35857471255747,-0.29006673271830336,173.09099284237473,-0.015057695010501845,0.953556004921611,0.29511618200311657,-0.05822376952433682
301.0,0.1423876771629562,0.04418398528104049,-0.014299787223439876,-0.03988784530291782,-1.1688125542196994,-9.729178885630509,-0.05725491061478191,0.07697575257446813,-0.3860038126463487,33.9696099369239,-0.20455569886535513,173.11404480828412,-0.015395915487881186,0.954560223267257,0.29190785607848135,-0.057895078625692015
302.0,0.1432679313234136,0.041645924092133156,-0.011466929902042518,-0.034381926683716986,-1.1684385351743667,-9.72975073313784,-0.014514552081584507,0.052789791609814715,-0.2550766291054324,33.77512754910711,-0.1608085954004195,173.12557079123883,-0.015573277043335745,0.9550622093755639,0.2903040414263375,-0.057728105968592014
303.0,0.14400143690014583,0.04008260562829081,-0.01166552751211608,-0.031545802051535926,-1.1683810466683178,-9.73000000000001,-0.028412532075080543,0.056171570742872615,-0.15052712010200564,33.67811546077057,-0.13821527032973077,173.13060064488627,-0.015669018555880963,0.955311848788466,0.2895035511066194,-0.057650197194950986
304.0,0.1515358228143993,0.04162099920883231,-0.012279632826266772,-0.03002337540906968,-1.1692379616643302,-9.73000000000001,0.01901538956018269,-0.015083095083971664,-0.06383388737548099,33.63157433380084,-0.12628564749883123,173.12812646096307,-0.015735941519401574,0.95542947345021,0.2891168581813932,-0.05765345214586262
305.0,0.15255846774193557,0.03977496898263028,-0.01379993796526055,-0.030000000000000027,-1.1700000000000013,-9.73000000000001,0.02505234181141439,-0.0020044975186104246,0.021021053039702232,33.625,-0.125,173.125,-0.015770698387096774,0.9554443399999997,0.2890625,-0.05767822000000007
306.0,0.14844796836228294,0.036255970843672464,-0.011449596774193552,-0.025725806451612925,-1.1700000000000013,-9.73000000000001,-0.08588418889578163,0.08928156017369727,0.03397516671836229,33.625,-0.125,173.125,-0.015816966290322566,0.9554443399999997,0.2890625,-0.05767822000000007
307.0,0.1508788500925598,0.039036723581078424,-0.010821844598054279,-0.022701612903225823,-1.1700000000000013,-9.73000000000001,-0.03055080140513608,0.03139893260861003,-0.003572982517034931,33.625,-0.125,173.125,-0.015845022016129015,0.9554443399999997,0.2890625,-0.05767822000000007
308.0,0.1498811123911931,0.04106550819252433,-0.010862535202252948,-0.02118951612903227,-1.1700000000000013,-9.73000000000001,-0.029543390777009727,-0.0008560547875063988,-0.011107210861495133,33.625,-0.125,173.125,-0.015859049879032236,0.9554443399999997,0.2890625,-0.05767822000000007
309.0,0.15013216845878144,0.04031346006144394,-0.012267665130568362,-0.020433467741935496,-1.1700000000000013,-9.73000000000001,-0.022806459613415257,-0.0036502336149513573,-0.02166288642473118,33.625,-0.125,173.125,-0.01586606381048385,0.9554443399999997,0.2890625,-0.05767822000000007
310.0,0.1509834229390682,0.04171923003072198,-0.01306427611367128,-0.020055443548387106,-1.1700000000000013,-9.73000000000001,-0.009954137064772144,-0.010677183339733743,-0.011886760752688172,33.625,-0.125,173.125,-0.01586883238911288,0.9554443399999997,0.2890625,-0.05767822000000007
311.0,0.14918970814132113,0.03998991935483871,-0.012363991295442914,-0.02000000000000001,-1.1700000000000013,-9.73000000000001,-0.00033802163338453686,-0.0025571636584741427,-0.006636424731182795,33.625,-0.125,173.125,-0.015869139999999976,0.9554443399999997,0.2890625,-0.05767822000000007
312.0,0.14962685611879167,0.04004744303635433,-0.011179435483870973,-0.02000000000000001,-1.1700000000000013,-9.73000000000001,0.004471286162314388,0.008194024417562722,-0.0011020705325140807,33.625,-0.125,173.125,-0.015869139999999976,0.9554443399999997,0.2890625,-0.05767822000000007
313.0,0.15120455709165398,0.04078229006656426,-0.01170362903225807,-0.02000000000000001,-1.1700000000000013,-9.73000000000001,0.011780753968253968,0.02323448700716846,0.009340597798259088,33.625,-0.125,173.125,-0.015869139999999976,0.9554443399999997,0.2890625,-0.05767822000000007
314.0,0.15141129032258072,0.0411335925499232,-0.01054715501792115,-0.02000000000000001,-1.1700000000000013,-9.73000000000001,-0.028703837045570915,0.039923055075524835,0.03332813300051203,33.625,-0.125,173.125,-0.015869139999999976,0.9554443399999997,0.2890625,-0.05767822000000007
315.0,0.13725604838709682,0.05983688556067588,-0.012717485919098829,-0.014248847926267287,-1.1693364055299549,-9.73000000000001,0.20493991615463386,-0.2885264656938044,-2.806377408154122,32.982142857142854,-0.08675115207373271,173.1097926267281,-0.016031601124423953,0.9570036884976956,0.2836117510967743,-0.05770252252534567
316.0,0.08629894295843633,0.06655505534962934,-0.016270027716556473,0.013992920590396042,-1.1874709143124291,-9.73000000000001,0.2856851621112447,-0.33378005757585877,-2.7935580355403618,29.86411373806184,0.07505009016229212,172.9977142189274,-0.016353962221866025,0.9640109446649301,0.25733974755867234,-0.05862812827062047
317.0,0.0808958994245197,0.2026532216322714,-0.036473022273425484,0.0062718226140386045,-1.1976601883390101,-9.728503973819553,0.6144008260006901,-0.12416279424491863,3.562968025605813,29.18915714953583,0.032996059573899686,172.93138983503638,-0.01582757661817939,0.9654952481295667,0.25167976800561015,-0.05938449366780204
318.0,0.1457186008367487,0.04802562546856639,-0.01055243287683088,-0.10078503371796933,-1.2190867956688232,-9.723436448518143,0.09474061134768724,-0.0013284279465165666,2.319122044876396,35.85187639394102,-0.5907543554924686,172.7996624322842,-0.014378856082828906,0.947547309884865,0.3068380451886297,-0.06134746115012092
319.0,0.12403013594886322,0.11647893832751523,-0.02122275104648111,-0.06794186688305785,-1.2608698301887689,-9.718321498211889,0.5713278986612873,-0.02561745277158616,-0.2510445996051951,34.90791340159256,-0.39591280605629686,172.55164272312334,-0.01604978153684055,0.9508516764975599,0.299248438102259,-0.0629160000550797
320.0,0.09061414631544544,0.06451135856467931,-0.025708149716788947,-0.04953314542309574,-1.281667633988394,-9.716123882746501,0.3345694792845607,0.016194729835405076,-0.5999750647795561,34.370877783745584,-0.2920664260696231,172.4309624905939,-0.016899894494226724,0.9526460973363375,0.294905892106429,-0.06367381829712512
321.0,0.12866217901493235,0.1947044871364771,-0.037165234946553154,-0.02504774548921434,-1.325480247235297,-9.711707102663574,0.5882858750192923,-0.35050186369379815,-2.304003928569568,33.06394729032334,-0.1450627161404016,172.1738872093656,-0.01804106239023765,0.9560115168346017,0.28402749701861885,-0.0656015326015112
322.0,0.08088591636482352,0.1529567777391358,-0.03397552188431504,0.014333023659530621,-1.3473940687940835,-9.708687671527484,0.5547312158943066,-0.19385989746858617,-1.083006440181774,30.897751058590348,0.08669180465556943,172.04287355088644,-0.019213042403923783,0.9611373004044741,0.2659079804228994,-0.0664504907411944
323.0,0.06926268658869171,0.13883994169908986,-0.031128555530475964,0.02024491053742345,-1.3460540438371957,-9.70920299069332,0.47888858992504213,-0.22967106388397251,-0.790840642474652,31.0610956691306,0.11973321365092066,172.05254794965697,-0.019593516874131106,0.9609719793023935,0.2673365100971077,-0.06622693798885151
324.0,0.04256379024075525,0.10637056527197371,-0.027368840559208584,0.04164869503760919,-1.332976653413728,-9.709541312390474,0.3511443245910534,-0.15775570156533353,-0.445659201278806,30.176461411840215,0.23925000929203563,172.12667002497477,-0.02002191555891291,0.9631367862826556,0.259793259957076,-0.06545345424082402
325.0,0.02985420990236983,0.09289070624463626,-0.025115827581979343,0.052282872864426747,-1.3216772667990304,-9.709699227623808,0.17134826119662558,-0.0750161882516494,-0.2404818073037064,29.736805014675866,0.31613998160454315,172.18696692492978,-0.020247128959179968,0.9642190373141397,0.25604407483568103,-0.06489400996372996
326.0,0.020851068084825473,0.08181632086425361,-0.022352844666565716,0.05709765763037007,-1.314965361510115,-9.70988187187642,0.06830661907757547,-0.0563589005774376,-0.05373744743065506,29.552158267706595,0.3514743686824559,172.2233653749073,-0.020337121698484,0.9646769496731997,0.25446457459526006,-0.06456499561780965
327.0,0.02027219465122692,0.07981093189964157,-0.024296594982078867,0.058678315412186426,-1.3116080783016277,-9.71,0.026053298180314308,-0.03469637441411635,-0.03739660876757651,29.506244399641574,0.3643162393162393,172.2416520195754,-0.02036399589240421,0.9648002817925297,0.25406378364247345,-0.06440379235683755
328.0,0.01816253101736974,0.07663709677419353,-0.02268145161290324,0.06000000000000005,-1.3102977667493807,-9.71,0.013488678660049627,0.013957816377171216,-0.006391516749379653,29.4375,0.37391439205955335,172.24854218362282,-0.020385013091811434,0.9649654565459073,0.25347900000000034,-0.06434189407940441
329.0,0.017674317617866017,0.07725155086848634,-0.024931296526054608,0.06000000000000005,-1.3100000000000012,-9.71,-0.006686181761786602,0.023232009925558315,0.0037211150744416877,29.4375,0.375,172.25,-0.02038574000000002,0.9649658200000015,0.25347900000000034,-0.06433104999999995
330.0,0.02705931615822509,0.08155220953145526,-0.026970100167858724,0.056053130929791285,-1.3100000000000012,-9.71,-0.1536450540979419,0.15047073419938695,0.9659597766293241,29.684653700189752,0.336100569259962,172.25,-0.02029679442125238,0.964392761555978,0.25566283286527525,-0.06433800028462992
331.0,0.039903887206247254,0.09279371624580351,-0.026513542730988195,0.04170777988614802,-1.3100000000000012,-9.71,-0.09187678463910379,-0.019644999361407095,0.028441930238286395,30.112784629981025,0.2502371916508539,172.25,-0.019794150929791268,0.963413188842505,0.259355055483871,-0.06441652499051229
332.0,0.046006771112084205,0.09624300827651158,-0.02544735156262672,0.03537001897533209,-1.3100000000000012,-9.71,-0.068483585211897,-0.019842640969746052,0.019451549876567657,30.162239089184062,0.21584440227703985,172.25,-0.019491406110056918,0.9632764457832601,0.2598802509267796,-0.0644682958823529
333.0,0.04820499845926791,0.09909176623503,-0.02762286932970047,0.03220113851992412,-1.3100000000000012,-9.71,-0.020333652484980758,-0.012788003952614962,0.015616651954412865,30.18696631878558,0.19864800759013282,172.25,-0.019340033700189746,0.963207574181953,0.26014484868919646,-0.0644941813282732
334.0,0.050450287641938485,0.10154170808108189,-0.027383926688955167,0.030616698292220135,-1.3100000000000012,-9.71,-0.009872161230083429,0.010549851661094543,0.011268485888979248,30.199329933586334,0.19004981024667933,172.25,-0.019264347495256157,0.9631731383812995,0.26027714757040493,-0.06450712405123335
335.0,0.050452847805788965,0.10277749540676484,-0.025323841902352352,0.02994781783681217,-1.3100000000000012,-9.71,-0.004773011355079666,0.01151603114364025,-0.01891509291888798,30.197788187855785,0.18696631878557873,172.25,-0.019229283942125225,0.9631738285573485,0.2602750522339693,-0.06451337821631875
336.0,0.051168074756784414,0.10303011392729133,-0.02393801203277011,0.030000000000000027,-1.3100000000000012,-9.71,-0.0059443804403481815,-0.03711437532002049,-0.03406618023553507,30.1875,0.171875,172.25,-0.01917931064516129,0.963195831254481,0.2601927449974403,-0.06452942000000003
337.0,0.05266289042498719,0.10120783730158728,-0.022300547235023054,0.030000000000000027,-1.3100000000000012,-9.71,0.002772177419354839,-0.06057587685611879,-0.039874551971326166,30.1875,0.14742943548387097,172.25,-0.019108187096774202,0.9631958000000008,0.26019287000000046,-0.06455329451612908
338.0,0.05519201228878647,0.10107782898105479,-0.0235362263184844,0.030000000000000027,-1.3100000000000012,-9.71,-0.009295594918074756,-0.03432119655657962,-0.021150353622631853,30.1875,0.13520665322580644,172.25,-0.019072625322580656,0.9631958000000008,0.26019287000000046,-0.06456523177419361
339.0,0.055273937532002035,0.10073348694316436,-0.023864887352790593,0.030000000000000027,-1.3100000000000012,-9.71,0.002008628552227342,-0.01975276417690732,-0.006590921818996415,30.1875,0.1290952620967742,172.25,-0.019054844435483886,0.9631958000000008,0.26019287000000046,-0.06457120040322586
340.0,0.055056323604710695,0.10103710637480799,-0.024296354966717885,0.030000000000000027,-1.3100000000000012,-9.71,-0.0018781201996927806,-0.03087247583845366,-0.003972754256272401,30.1875,0.12603956653225806,172.25,-0.019045953991935496,0.9631958000000008,0.26019287000000046,-0.06457418471774201
341.0,0.05446412570404505,0.10202220942140297,-0.026856998847926285,0.030000000000000027,-1.3100000000000012,-9.71,-0.004397281426011265,-0.0795430907578085,-0.05146479374679979,30.1875,0.125,172.25,-0.019042970000000013,0.9631958000000008,0.26019287000000046,-0.06457520000000007
342.0,0.056037506400409616,0.10190828213005632,-0.025593317972350246,0.030000000000000027,-1.3100000000000012,-9.71,-0.0023561507936507935,-0.05205733166922683,-0.05022521441372248,30.1875,0.125,172.25,-0.019042970000000013,0.9631958000000008,0.26019287000000046,-0.06457520000000007
343.0,0.055438108038914476,0.10274113543266768,-0.024355798771121366,0.030000000000000027,-1.3100000000000012,-9.71,-0.00034602214541730664,-0.03460521473374296,-0.02200840853814644,30.1875,0.125,172.25,-0.019042970000000013,0.9631958000000008,0.26019287000000046,-0.06457520000000007
344.0,0.055618439580133114,0.1025725646441372,-0.02283458141321046,0.030000000000000027,-1.3100000000000012,-9.71,0.015243975614439324,-0.017238603270609318,-0.009116083429339478,30.1875,0.125,172.25,-0.019042970000000013,0.9631958000000008,0.26019287000000046,-0.06457520000000007
345.0,0.05560099846390168,0.10347558243727598,-0.02166938684075782,0.030000000000000027,-1.3100000000000012,-9.71,0.008228526625704044,0.009947636648745518,6.600422427035374e-05,30.1875,0.125,172.25,-0.019042970000000013,0.9631958000000008,0.26019287000000046,-0.06457520000000007
346.0,0.055442588325652825,0.103901129672299,-0.021177755376344098,0.030000000000000027,-1.3100000000000012,-9.71,-0.010110647081413208,0.013678375416026624,0.0026411690348182287,30.1875,0.125,172.25,-0.019042970000000013,0.9631958000000008,0.26019287000000046,-0.06457520000000007
347.0,0.05542290706605221,0.10280993983614949,-0.02221438172043012,0.030000000000000027,-1.3100000000000012,-9.71,-0.0005190332181259595,-0.0018081157194060416,-0.012508800563236047,30.1875,0.125,172.25,-0.019042970000000013,0.9631958000000008,0.26019287000000046,-0.06457520000000007
348.0,0.05561595942140296,0.10150993663594468,-0.022910826292882755,0.030000000000000027,-1.3100000000000012,-9.71,0.012325288818484383,0.006928443420378905,0.006754432283666154,30.1875,0.125,172.25,-0.019042970000000013,0.9631958000000008,0.26019287000000046,-0.06457520000000007
349.0,0.056746991807475666,0.10281394009216589,-0.02377144137224784,0.030000000000000027,-1.3100000000000012,-9.71,0.005170330901177675,-0.007624487967229903,0.0007940508192524317,30.1875,0.125,172.25,-0.019042970000000013,0.9631958000000008,0.26019287000000046,-0.06457520000000007
350.0,0.05721630184331796,0.10199324756784432,-0.02539826548899131,0.030000000000000027,-1.3100000000000012,-9.71,0.006153393817204301,-0.004884312596006145,-0.026372687852022528,30.1875,0.125,172.25,-0.019042970000000013,0.9631958000000008,0.26019287000000046,-0.06457520000000007
351.0,0.05574699057662766,0.09981583682894166,-0.02570114148843989,0.030000000000000027,-1.3100000000000012,-9.71,-0.04064400890887786,-0.02399011998306353,-0.014210901805407851,30.1875,0.125,172.25,-0.019042970000000013,0.9631958000000008,0.26019287000000046,-0.06457520000000007
352.0,0.06064277640290219,0.10380894002015209,-0.026110117265645084,0.027766008666345713,-1.30661049590756,-9.711001444390948,-0.0021681448462299788,0.022953840917230878,0.9240205628039643,30.426787433798744,0.12403707270101107,172.27359171882523,-0.01905190234472798,0.9626621466153111,0.26218784120847394,-0.06435139304766493
353.0,0.06223825297034853,0.08441266993785648,-0.02207268471611576,0.021025517573423223,-1.2898170438131928,-9.715662012518063,0.08807439118124225,-0.10286622959254008,0.6431125510517174,31.259478815599422,0.09900096292729899,172.37782859894077,-0.019001827544535402,0.9607929495040923,0.2691467301444391,-0.06340115874819452
354.0,0.05688021519485168,0.06883435916247663,-0.021205193164509497,0.02035146846413097,-1.279263360616274,-9.71799229658162,0.08991988208255661,-0.10955433455433455,0.1789939015339232,31.75574747231584,0.11200048146364949,172.4429465575349,-0.019053898127106415,0.9597252457197885,0.2731458127335098,-0.06269659227732308
355.0,0.053801090700344424,0.060687020851079576,-0.018476380504425773,0.020014443909484845,-1.2739865190178143,-9.719157438613399,0.06198503064701307,-0.049216811414392055,0.08478464917966001,32.00388180067405,0.11850024073182475,172.47550553683197,-0.01907993341839192,0.9591923783437655,0.27514338523772264,-0.06234430904188734
356.0,0.05118590515166105,0.055781475686085685,-0.019627768415984605,0.019845931632161782,-1.271348098218585,-9.719740009629287,0.03539698182474723,-0.03452620967741935,0.045951567766008665,32.127948964853154,0.12175012036591237,172.4917850264805,-0.01909295106403467,0.9589259446557541,0.27614217148982906,-0.06216816742416948
357.0,0.04895467697992373,0.052780765431674176,-0.02069347244193779,0.019831487722676948,-1.2701348098218586,-9.720000000000015,0.015078621748209793,-0.02244266021085051,0.005669124017966999,32.182504814636495,0.1234051516610496,172.4991875300915,-0.0190991807510833,0.9588094044800198,0.27657922176561744,-0.062087090582571024
358.0,0.048371175755248325,0.05225942460317458,-0.020456269201228887,0.02000000000000001,-1.2700000000000005,-9.720000000000015,-0.0118922611047107,0.005449348758320531,0.0011945764528929845,32.1875,0.125,172.5,-0.01910400000000001,0.9588012084677426,0.27661145304939516,-0.06207275000000001
359.0,0.047355510752688165,0.05309971838197643,-0.020794050819252445,0.02000000000000001,-1.2700000000000005,-9.720000000000015,-0.004819308435739887,0.021448872727854583,0.007614987359190988,32.1875,0.125,172.5,-0.01910400000000001,0.9588012700000006,0.27661133,-0.06207275000000001
360.0,0.04677835381464414,0.05246743791602661,-0.01669146825396826,0.02000000000000001,-1.2700000000000005,-9.720000000000015,-0.011649745583717357,0.03461671546979007,0.015245475710445466,32.1875,0.125,172.5,-0.01910400000000001,0.9588012700000006,0.27661133,-0.06207275000000001
361.0,0.03901116775951273,0.05381507879190835,-0.015480348354234978,0.02446798266730863,-1.2685363505055378,-9.720000000000015,-0.13832188245122312,-0.09309751047947666,-0.6617219919985327,31.90295498314877,0.14522147327876744,172.5081848820414,-0.019184871333654315,0.9594416544776119,0.2743460049350024,-0.06199799256138662
362.0,0.02652093765113013,0.06678425488602721,-0.015455931084151093,0.029794191242786525,-1.2595271484467716,-9.720000000000017,-0.057284124771330325,0.03944931201684777,0.08948883596744434,31.56135652383245,0.18054463032407247,172.56224782493712,-0.01926024004665451,0.9602368993673839,0.27159060771284427,-0.061622741094414346
363.0,0.052463565429381506,0.06744362392188684,-0.015762701173606675,0.022716268724528206,-1.2544409935782244,-9.720000000000017,-0.02448756762476103,0.1256304410209182,1.5562040528088015,32.47506433642781,0.13323574087762005,172.59291400787976,-0.019317890891114624,0.9579905705174037,0.2792460014779577,-0.06141692472031031
364.0,0.06699968127196311,0.058278301223315024,-0.014599672324100407,0.01619684403968346,-1.2448390926145394,-9.720000000000017,-0.02987597109589607,0.08031375218119191,0.9241320782100693,33.68896717770157,0.0921159729056032,172.63706421456607,-0.019524115085026002,0.9549872165774869,0.28937547811089526,-0.06086417178140753
365.0,0.07251033730776854,0.053221331871258125,-0.01757889402175323,0.012937131697261087,-1.2367743850169468,-9.720000000000017,-0.014161935880769336,0.010170956991773634,0.3951817585110766,34.31323358885079,0.07277169613022096,172.66530630083142,-0.01958035076831946,0.9534511708693891,0.2945886069586734,-0.06049731363263924
366.0,0.0755004743833017,0.04798043001844081,-0.015572066173129867,0.011167651067696505,-1.2327877702648524,-9.720000000000015,0.005625158684555148,-0.005062872491113663,0.18775848878851853,34.55966205200845,0.06599586250901995,172.6791715664003,-0.019620215896918515,0.9528654371294467,0.2966334603714888,-0.06031080540563108
367.0,0.07792403930956926,0.04812749526644615,-0.016824197557260077,0.009551043232097302,-1.2310531309297907,-9.720000000000015,-0.03676252637889811,-0.02059949097592415,-0.05921856079918422,34.66909901607867,0.05685727840440688,172.68454262100113,-0.01955331768689983,0.9525925590030904,0.29757719746002526,-0.06025718995444944
368.0,0.07860588782659465,0.0429832597431032,-0.014662020143044817,0.00968238213399504,-1.2302039848197337,-9.720000000000015,-0.0095618454422712,-0.02354765727631003,-0.05600265928331628,34.567346007882065,0.05928109263246241,172.68711456356735,-0.019480473254451916,0.952854733968745,0.2967587169940885,-0.06024112875089406
369.0,0.08078165416572673,0.04400104566132792,-0.016103579216482446,0.008902774644710133,-1.2299999999999995,-9.720000000000015,-0.016451380860403035,-0.04312894766523799,-0.05602767947778028,34.56911069441311,0.053707412798894655,172.6875,-0.0194251647582995,0.9528559169753875,0.2967520904344688,-0.06025515178768615
370.0,0.07988287888187079,0.044566706143319035,-0.013679503628092341,0.009451387322355068,-1.2299999999999995,-9.720000000000015,-0.025114890569779683,-0.009732801220956462,-0.018986815855515447,34.52888498430333,0.05821396345589894,172.6875,-0.01941377297390782,0.9529434978878946,0.29643489743668205,-0.0602492411811415
371.0,0.07816301977592299,0.044615083840890274,-0.015037371230919623,0.009725693661177537,-1.2299999999999995,-9.720000000000015,-0.025728438228438226,0.030298330701556502,0.049531919693210025,34.511103278441986,0.06035698172794947,172.6875,-0.019407631003082952,0.9529809664338658,0.2962926738443489,-0.06024645510669981
372.0,0.07709267614106324,0.04449736822317466,-0.0131154598090082,0.00988269794721408,-1.2299999999999995,-9.720000000000015,-0.0025664523648394628,0.03276703135574103,0.03266763478457027,34.50283761936987,0.06158357771260997,172.6875,-0.019407239365065058,0.9529986121400091,0.2962256058005861,-0.06024415331513654
373.0,0.0773490675990676,0.04460724490563199,-0.013934901120384997,0.009941348973607043,-1.2299999999999995,-9.720000000000015,0.0019658432964884567,0.023750140988044212,0.03080342036995263,34.50253543499511,0.062041788856304986,172.6875,-0.019408255151515168,0.952997560288366,0.296223573806,-0.060242684354838774
374.0,0.07814423076923077,0.0454463399503722,-0.013944478908188592,0.010000000000000005,-1.2299999999999995,-9.720000000000015,-0.008715880893300249,0.00023650744416873343,0.01714291253101737,34.5,0.0625,172.6875,-0.01940918000000002,0.9530029299999985,0.29620382204962736,-0.060241700000000065
375.0,0.07810638219307571,0.044850784296348804,-0.015224435286935293,0.010000000000000005,-1.2299999999999995,-9.720000000000015,0.0028257808499743972,0.014113980217810861,0.04214849750384025,34.5,0.0625,172.6875,-0.01940918000000002,0.9530029299999985,0.29620360999999956,-0.060241700000000065
376.0,0.07673443100358421,0.04030281938044035,-0.013657434075780857,0.010000000000000005,-1.2299999999999995,-9.720000000000015,0.004376280081925242,0.019284234190988223,0.011067208301331285,34.5,0.0625,172.6875,-0.01940918000000002,0.9530029299999985,0.29620360999999956,-0.060241700000000065
377.0,0.07851086469534051,0.0460460669482847,-0.01374151945724527,0.010000000000000005,-1.2299999999999995,-9.720000000000015,-0.005655861975166411,-0.03575228814644137,0.012983830965181773,34.512096774193544,0.0625,172.6875,-0.0194057341935484,0.9529896390322569,0.2962725217741934,-0.060245637419354896
378.0,0.06282264653173096,0.047276324508297954,-0.01460350403602302,0.02282732447817838,-1.2296963946869064,-9.720000000000015,-0.0807370495241107,-0.04513650638346736,-0.8089711270933104,33.831949715370015,0.1402988614800759,172.6946157495256,-0.019744714629981043,0.9547330644781779,0.29055195256641364,-0.060111174592030345
379.0,0.043494755429053344,0.05530206168488902,-0.015499984940212652,0.04313092979127135,-1.230910815939278,-9.720000000000015,0.07047780469714768,-0.042098576661847534,-1.6051812021851752,32.99756878557875,0.2569971537001897,172.70718690702085,-0.02033392211574954,0.9567921249810245,0.2836047453059772,-0.05995036291271346
380.0,0.0368564406945574,0.053701722086684126,-0.01662915273636337,0.05679587964217947,-1.2126120899972883,-9.724423963133653,-0.1073654243283335,0.2176731899076835,1.4751551746370588,33.63127287205205,0.33901124966115476,172.82729737056113,-0.0210569272053402,0.9552377492047978,0.2889613687313296,-0.05866268974207103
381.0,0.03292041741310832,0.047288871684718764,-0.013652740619389417,0.06152323201370308,-1.1962476064759706,-9.727373271889412,-0.10425360087495728,0.1341335183047623,0.9482122853305064,34.45133068567539,0.357838373778684,172.91541645059147,-0.02145204528102447,0.9532086071666812,0.29578291333948437,-0.05770999743298035
382.0,0.03345308025033295,0.036305870174156624,-0.012134550033197015,0.06451737637551513,-1.1888657387218564,-9.728847926267292,-0.04636058139946021,0.1597128385014595,0.7429943015074191,35.02090943845981,0.36915536200454935,172.96274854787634,-0.0217511052804892,0.9517565473546539,0.30054405114454064,-0.05718461127582199
383.0,0.03792550798210398,0.037157520792328154,-0.014263971583788438,0.06266428591071774,-1.1887971957366392,-9.72958525345623,-0.036389349983267566,0.14032995800640796,0.4790770412142926,35.52296702803906,0.3746867891616675,172.98619222934616,-0.021861662618969234,0.9504678021334256,0.3046915532068945,-0.056952228004796185
384.0,0.04017356089445852,0.034688327879071224,-0.011784217652380349,0.06130367995725643,-1.1887202297468769,-9.7299539170507,-0.018064549016512554,0.08154029525873846,0.27705927487659604,35.789931687643815,0.37502128831897413,172.99763240499564,-0.02190334778244478,0.9497853703005845,0.3068958844616066,-0.056839915278489195
385.0,0.040538038866229614,0.03588244823588442,-0.014023267989607405,0.06051359113070197,-1.1892725572697511,-9.73000000000001,-0.010041446787589847,0.014933786409943497,0.05689524360632354,35.890573562715915,0.3744490082147866,172.99979546517062,-0.021910802822097973,0.949524901447528,0.30772210549347606,-0.05682148601942895
386.0,0.041713619713619726,0.0362359880263106,-0.012403172096720488,0.06018433179723506,-1.189774193548386,-9.73000000000001,-0.0014267542493348949,0.016239976421428035,0.01985715897006219,35.92516931992738,0.37485599078341014,173.0,-0.02191347985658429,0.9494337905881873,0.3080057399814271,-0.05682192313126662
387.0,0.04238215547892968,0.03680923825278665,-0.01223845240780725,0.06000000000000005,-1.1899999999999988,-9.73000000000001,-0.017015220442639797,-0.010860426535829762,-0.0004976877960748932,35.93746945259042,0.375,173.0,-0.021911649833822107,0.9494019196627579,0.30810529100684253,-0.056823670342131025
388.0,0.041794694552759075,0.03754440407262989,-0.011742393359328848,0.06000000000000005,-1.1899999999999988,-9.73000000000001,-0.004490625861593604,-0.025438766542597184,-0.0002946650124069478,35.9375,0.375,173.0,-0.021911620000000014,0.9494018600000014,0.3081054699999999,-0.056823730000000044
389.0,0.041978287841191064,0.037294199751861046,-0.011672921836228294,0.06000000000000005,-1.1899999999999988,-9.73000000000001,0.0006203473945409436,-0.001641012717121585,-0.0011398883374689826,35.9375,0.375,173.0,-0.021911620000000014,0.9494018600000014,0.3081054699999999,-0.056823730000000044
390.0,0.04194696029776675,0.03634809243176179,-0.012428272332506207,0.06000000000000005,-1.1899999999999988,-9.73000000000001,-0.005063585607940447,0.009833960142679902,0.005300093052109181,35.9375,0.375,173.0,-0.021911620000000014,0.9494018600000014,0.3081054699999999,-0.056823730000000044
391.0,0.04254606079404467,0.03548503411910671,-0.01112089019851117,0.06000000000000005,-1.1899999999999988,-9.73000000000001,-0.004610925868486352,0.00260158188585608,0.010273534429280397,35.9375,0.375,173.0,-0.021911620000000014,0.9494018600000014,0.3081054699999999,-0.056823730000000044
392.0,0.04138647642679901,0.034455412531017374,-0.012909816997518616,0.06000000000000005,-1.1899999999999988,-9.73000000000001,-0.013712100651364764,0.017685716501240695,0.012147662065756824,35.9375,0.375,173.0,-0.021911620000000014,0.9494018600000014,0.3081054699999999,-0.056823730000000044
393.0,0.040438472817505074,0.03905405951575307,-0.012057837995338001,0.06000000000000005,-1.1899999999999988,-9.73000000000001,-0.021629063980374463,-0.02773575550793293,-0.014532783244980824,35.9375,0.36522482893450636,173.0,-0.021903506529814272,0.9494018600000014,0.3081054699999999,-0.056823730000000044
