time,linaccel_x,linaccel_y,linaccel_z,gravity_x,gravity_y,gravity_z,gyro_x,gyro_y,gyro_z,euler_x,euler_y,euler_z,quaternion_w,quaternion_y,quaternion_x,quaternion_z
0.0,-0.020476190476190478,0.0683333333333333,-0.07357142857142857,-2.026904761904762,0.059047619047619036,9.587619047619047,-0.6354166666666666,1.7142857142857142,0.12797619047619047,158.55505952380952,-11.930059523809524,-0.3482142857142857,-0.18477376261904763,-0.016158331190476185,-0.10302879666666669,0.9772120892857143
1.0,-0.024603174603174603,0.08023809523809519,-0.05595238095238096,-2.0513492063492054,0.04857142857142858,9.583333333333332,-0.2743055555555555,0.5853174603174602,0.11706349206349206,158.38839285714283,-12.07390873015873,-0.28869047619047616,-0.1861766016666667,-0.0170370442063492,-0.10409255253968255,0.9768284394444442
2.0,-0.01597278911564626,0.0751020408163265,-0.04126530612244898,-2.1000068027210888,0.03467346938775511,9.573142857142855,-0.2622023809523809,0.8410289115646257,0.06267006802721088,158.32716836734693,-12.364710884353741,-0.20854591836734693,-0.18661195885714285,-0.01825042508843537,-0.10645976165986396,0.976469825904762
3.0,-0.01786666666666667,0.05676190476190476,-0.04528888888888889,-2.244511111111111,0.00653015873015873,9.539593650793648,-0.012837301587301578,0.6202579365079365,-0.6644047619047618,158.6487103174603,-13.232896825396825,-0.039384920634920634,-0.18372419095873016,-0.020990513676190474,-0.1135577099809524,0.9761301776761904
4.0,-0.0162642089093702,0.05228878648233487,-0.043050691244239644,-2.3016605222734254,-0.002124423963133639,9.526162826420887,0.0030049923195084507,0.25327380952380946,0.0594662058371736,158.94292434715823,-13.575825652841782,0.011664746543778796,-0.1811614573149002,-0.021716439643625192,-0.11644671472196622,0.9762670560491549
5.0,-0.008784946236559139,0.05797619047619048,-0.031152841781874045,-2.34578801843318,0.03042780337941629,9.515109062980029,0.05015360983102918,0.27103014592933944,0.4186059907834101,158.5623559907834,-13.838196044546851,-0.1805635560675883,-0.18437170028955452,-0.020771252698156682,-0.11894309517204302,0.9753834854170508
6.0,0.009715053763440857,0.05572695852534562,-0.04991282642089094,-1.843352534562212,-0.06161405529953918,9.606632104454686,-1.2226046466973888,-2.211595142089094,0.21556739631336402,158.97625768049153,-10.849003936251918,0.3735719086021505,-0.18124026851267278,-0.02059076982142857,-0.09249534090092165,0.9783375982162059
7.0,-0.018148883374689832,0.051991374217180676,-0.04220217416991611,-1.9399874748907004,-0.21726928984993485,9.592358856197567,-0.7809169325298357,0.5888758419000355,0.4515168970814132,158.22470090393477,-11.423373065106937,1.304978287841191,-0.18762874555772185,-0.03004424378199219,-0.09576622275339712,0.9767523369061799
8.0,-0.024621067890934146,0.054418470069138844,-0.03932249130360854,-2.0765519405849853,-0.2913797650028962,9.566407688561107,-0.34341662631886866,0.611703689373831,0.2900088044659248,157.82276255248814,-12.231082700737499,1.7545922638861269,-0.19087154865771516,-0.03551536385055175,-0.1018297925862823,0.9754628874127579
9.0,-0.030451667660951698,0.05777890271281304,-0.035617560514492067,-2.1629633180876295,-0.33221239945472825,9.549098246888175,-0.33564700035736617,-0.13013488773225196,0.013508767000112387,157.63759341235735,-12.74268919514789,2.0022212003181714,-0.19234480654149474,-0.03859499138052296,-0.10575506202747108,0.9747299531003694
10.0,-0.03338866025136679,0.05560220097238196,-0.038890193467691514,-2.1626014747120172,-0.37834583106376973,9.549215790110757,-0.21015260924166312,0.21504008301559444,0.036473085496984,157.68664424842137,-12.744203660553975,2.263562597086889,-0.19201974398656912,-0.04082700431852569,-0.10535808098301357,0.9748086720624737
11.0,-0.24484794932316573,0.11302749702434992,0.24840226754624858,-2.248042082753334,-0.48627460711331677,9.514798886400776,-6.6954646553289345,4.948756026952329,-7.3439352216102805,158.31318591256633,-13.273068096996106,2.9553392745465916,-0.18643632351816658,-0.04679872349561218,-0.10948118896003549,0.9747634065075351
12.0,0.04006215578284818,0.3540715971675846,0.022158929976396458,-2.256944138473643,-4.231280094413847,7.317003933910307,-11.45560090479937,43.76944335169158,-38.845584185680565,199.96562745869392,-13.33257769472856,30.125727773406762,0.12247857504799375,-0.1868957517883556,-0.2329275070574351,0.8522907733076318
13.0,0.14906745719530928,0.34128835562549176,0.0337933011127346,-2.9614528492750374,-6.279505395076992,5.607373122026152,-10.043506120977108,-5.014041015698176,3.3823072383949615,231.18340685999024,-17.669022680866206,47.5444974429583,0.335318494646435,-0.21270659797015845,-0.3639510035334008,0.739667146105129
14.0,-0.16669837211044927,0.3230839889850512,0.25006108800719334,-3.0569089580757565,-3.8801122569405413,7.30608624630025,6.859167474523247,-17.60947920179087,19.639245672698657,199.76496759207222,-18.193795368757257,28.472548682140044,0.11756454953879578,-0.15211457780490611,-0.262120318609344,0.856093973833839
15.0,-0.04019999250683753,0.24699763965381585,0.09795796335843537,-2.777212543554007,-1.926487580083174,8.390785058633998,2.9042561162938814,-9.62979000412124,10.839280094413846,180.7010321831329,-16.47293095050766,14.151848937844216,-0.020249811553182756,-0.08561271203551758,-0.19470464230467197,0.917532794610468
16.0,0.015403544265857386,0.17426424637518262,0.04088880146865983,-2.6737317822486983,-0.9387698100483309,8.924095650219178,1.7084527556105056,-3.194306601476153,6.519131682964295,170.50181592109698,-15.831681325165786,6.925555430669514,-0.09474577059432021,-0.05278276838616011,-0.16285491400086172,0.9470801558002324
17.0,0.02759293394777266,0.1248748079877112,0.013082181259600603,-2.7303571428571436,-0.3032834101382488,9.22946006144393,1.3581509216589862,-2.5974366359447005,4.250878456221198,163.94386040706604,-16.17211501536098,2.3106758832565286,-0.14283341355069124,-0.03179695879032258,-0.14889598051996927,0.9646850831981564
18.0,0.02474731182795699,0.10411482334869429,-0.0025372503840245843,-2.9045864055299537,0.026657834101382505,9.347342165898613,0.6469566052227342,0.8657450076804912,1.4949956797235022,160.32480078725038,-17.232409274193547,-0.15756528417818735,-0.16864333833218123,-0.023970032044930874,-0.14857177459562215,0.9736952008648234
19.0,0.04158234985575662,0.0894345753250159,-0.023645002060619688,-2.7315008148814206,0.03463330336068339,9.396648561312801,-0.7297806962084596,-4.797344844704207,0.1584125969427897,160.1056260771421,-16.184856904012587,-0.21653834625903862,-0.17064235127653515,-0.022440500124058668,-0.1392070900138811,0.974773743195787
20.0,0.02118095987411487,0.05566026001273837,-0.021646809786070212,-2.818352365966056,-0.096695253081563,9.364382076355326,-1.1809989790566107,3.8641587988460535,1.3007572777340675,158.8739895938706,-16.74641990745944,0.5982112416170244,-0.18093990253227682,-0.03185439864017833,-0.14231128473005883,0.9719838448676708
21.0,0.022186503943058936,0.035641993686574946,-0.015032135647152207,-2.933766616305644,-0.2203428574913764,9.335878835126902,-1.107414432549775,1.1558496276943804,-0.17123971214929168,158.58883353787053,-17.424568217402783,1.3537727474115915,-0.18323682368674354,-0.03960560740184175,-0.14690316173746182,0.9708524522176205
22.0,-0.018319190424783915,0.0369953440015056,-0.030411613138476255,-3.0300630316551262,-0.29161536115736253,9.308565377624895,-0.09148563409362798,0.2969148292081733,0.8017649365520823,158.0919158088738,-18.002846704707537,1.7924057669469633,-0.18734441323738102,-0.044798223885252675,-0.15097497205536686,0.9693687058399931
23.0,-0.03445068584219227,-0.02585390250001524,0.009388087439978448,-2.7863903867953046,-0.19769170515625425,9.363935722606612,1.2198425804186237,-8.52118784269238,-0.6193532268084443,157.82627184452906,-16.523389558190942,1.219609181476554,-0.18984331165344473,-0.03805155064846351,-0.1391014607790275,0.9703491495313635
24.0,-0.041772943235808956,0.08936809202300575,-0.05818872575286677,-1.932290394027078,-0.1915571035616047,9.547505233451222,-0.5582779623477298,0.17890253813453327,1.037176258350302,158.04555134319295,-11.425502804272497,1.1554527024613295,-0.18889910900610865,-0.029180892091344265,-0.09589456517472225,0.975325191096917
25.0,-0.04132733183295824,0.08077390776265495,-0.05714735826813846,-1.821304183188654,-0.22719022612796053,9.598516057585826,-0.19425034830136104,0.21953479441288892,-0.014130764834065612,157.40965643196512,-10.731683813810594,1.3548864894795127,-0.19458817723116495,-0.030132392768406388,-0.08957792809273747,0.9755388335330976
26.0,-0.027096249672174142,0.044370724214154576,-0.04203799033382038,-2.9832594507511896,-0.28875429920197815,9.177528755011053,-1.0707914184556593,7.361250046832265,1.5401844254617663,156.85315321643998,-18.054112107077287,1.8554332452886741,-0.19701005355501852,-0.046973290844891546,-0.15012067552808062,0.9637772659820538
27.0,-0.0171852122438275,0.041681821587801135,-0.040057154096886594,-3.0864508261211645,-0.2292587576336593,9.216598759881606,0.1847697959986513,-0.7829476696264659,-0.003402949496084773,156.3430225778352,-18.51838213255404,1.4532952352853021,-0.20158250086128282,-0.045225339200217304,-0.15484962367492788,0.963991437137837
28.0,-0.018265342250196694,0.057177222659323367,-0.04155999213217938,-2.891329268292683,-0.17650098347757673,9.318749999999998,0.13167658339889848,0.3738321203776556,-0.15715357002360342,156.41187672108575,-17.2438090086546,1.1023541994492525,-0.20156751834323366,-0.0400181958902439,-0.14488490552812744,0.966756775899292
29.0,-0.012644767899291894,0.06625393391030684,-0.039703383162863884,-2.9819710857592447,-0.14702871754524,9.315475806451612,-0.0026344905586152545,-0.001894423682140059,-0.47950924468922107,156.48217323957513,-17.745190794649883,0.9155672206923682,-0.20099472421597167,-0.039211373049960654,-0.14958616461487018,0.9668259247722267
30.0,-0.0019087332808811917,0.040923682140047206,-0.03709205350118017,-2.9148890637293476,-0.16408811959087333,9.346695515342248,-0.004730527143981112,-0.7160601888276947,-0.029996066089693157,156.71984657749803,-17.302665224232886,1.0110936270653028,-0.1991681070495673,-0.0389773099213218,-0.14581921164594808,0.968046208693942
31.0,-0.009325727773406766,0.04223210070810386,-0.027688434303697877,-2.817424862313139,-0.1501715184893784,9.384579071597162,-0.014707907159716756,0.00143095987411479,0.0892751770259638,156.66566188040912,-16.693425452399687,0.9138129425649095,-0.19982421244295834,-0.0371803028992919,-0.14085330747915029,0.9689063867466563
32.0,-0.004779307631785995,0.03493823760818254,-0.026129819040125887,-2.8735621557828486,-0.1469669551534225,9.368022029897718,-0.09160847757671126,0.4727257081038552,0.08972020062942564,156.61121410306845,-17.042390342250194,0.9039166994492526,-0.2002025097163651,-0.037702429290715975,-0.14378933703697874,0.9683970722018094
33.0,0.018840086546026757,0.02127871754523997,-0.011254523996852873,-3.7200721872541314,-0.2511136900078678,8.9403217938631,-2.7127790617623915,11.228131146734855,0.19184082415420928,156.352110788749,-22.6333952104642,1.7270075236034619,-0.20003786215637298,-0.0537038496839103,-0.18907124347993703,0.9568114857680959
34.0,0.02344888942685953,0.03649099235409227,-0.038985616010006274,-4.783171639532772,-0.4964333958724202,8.392412757973734,0.4988556355786884,2.1749442696039867,0.2692525822590732,155.74110721922975,-29.592367709657243,3.552989519659464,-0.20206130769884406,-0.08019079505959367,-0.24367187294716453,0.9417097411641346
35.0,0.03451752103128972,0.02904407996933567,0.023622848958018108,-4.700511862252618,-0.31084061611087566,8.520663499364522,0.7868491395832072,-1.1831808943089432,0.7217869913655712,155.46258252385564,-28.83441654562327,2.1880063648651373,-0.20514150386515767,-0.06944569585788496,-0.23972827001410157,0.9446359976631058
36.0,0.031247745566785695,0.023782464846980978,0.013495138090338716,-4.641609196271865,-0.19629363614355744,8.594348272105547,0.2814802346224455,-0.7829751835824811,0.527666705753596,155.0606579023684,-28.340472434888742,1.36881140430511,-0.20886585351401074,-0.06330434810596844,-0.23688615331940327,0.9458923699487836
37.0,0.02793962960721419,0.020306451612903228,0.007415476406625106,-4.596531541891103,-0.13908757489560003,8.638567229518443,0.14761821904819544,-0.43826437012043823,0.3020280127196433,154.81200737860354,-27.990672786923277,0.9602121537654582,-0.2111049122613478,-0.06015531438993625,-0.23462514788116567,0.9466310482745366
38.0,0.03409078254554258,0.03193548387096776,0.005090802719441585,-4.533168996752003,-0.10818894873812261,8.680751356694707,0.10626878694345254,-0.5453670640924771,0.167571466037241,154.6946125602695,-27.549519861203574,0.7350455930117614,-0.2123235942395448,-0.05797020633609716,-0.23130672944864733,0.9475367849840426
39.0,0.037759849906191384,0.03526155460065769,0.006755391474510278,-4.502845165325102,-0.09405725352538886,8.704183098307405,-0.06689463172547358,-0.11244225221408544,0.12120579394379552,154.65091463414632,-27.334678932397264,0.6379425649095201,-0.21288795716576886,-0.056914158107325113,-0.22963929939599342,0.9480012388368133
40.0,0.04151879198692733,0.04089749641913294,0.006177066311606043,-4.492689301781354,-0.09659196271863466,8.710672981097058,0.007017869031047626,-0.11683284915975709,0.0364191833605681,154.6280487804878,-27.254927979180536,0.657159716758458,-0.21315275229413533,-0.05695831718269482,-0.2289918212605459,0.9481011646017268
41.0,0.037233825576469176,0.058331517682422514,0.004464614981137408,-4.614250237043313,-0.09533374689826302,8.640062690391172,-0.36553119136960605,2.8131217343500974,0.5620431872743044,154.3766129032258,-28.088951007686255,0.6429435483870968,-0.21481331340355864,-0.05904452766058422,-0.2357464934768505,0.9457777288618392
42.0,0.02767368214004721,0.05658339889850513,0.004615853658536588,-4.867415420928403,-0.07413512981904014,8.498140243902437,-0.029498180566483123,0.5855109166011013,0.2082095790715971,153.85800550747442,-29.786329661683713,0.5059475806451612,-0.21821672872501968,-0.062273244847560985,-0.24962476686703383,0.9411804926937453
43.0,0.03592190251395601,0.05648486381177177,0.00767063804278596,-5.094129369450377,-0.2602006294256491,8.337655183395151,-3.828829591435315,5.439666460604698,-4.2275796382675805,154.84672548799222,-31.37645496141021,1.9227054531490015,-0.20922337990206438,-0.07280612276383425,-0.2614659955955753,0.9386737101565885
44.0,-0.0049816136525420475,0.010870283990858348,-0.0015502041886778272,-5.615868775991908,-0.8399901652242328,7.9130447435465125,0.881390672417669,-1.0331909632460379,0.3050241069086961,157.32122859765462,-35.0646043493125,6.342868265520212,-0.1868507285072871,-0.10355037688545764,-0.2881165421604942,0.9316929544803398
45.0,-0.005990118391967326,0.027734217526507066,0.0066489734367389764,-5.324171602787457,-0.6926858772619984,8.150170778539582,0.6615653450601326,-1.2622657215915476,-0.582952762635345,156.99121028623878,-32.967046593421,5.032200753531152,-0.19070325851328163,-0.09292043590211119,-0.27167960206677344,0.9375640695437693
46.0,-0.027889376525316,-0.005571000764128316,-0.017725119433168395,-5.124082144229437,-0.9899921321793863,8.261848423778417,-0.7385944373724092,-3.101044479325406,-1.9215419055112208,157.7753571123617,-31.543628557400673,6.883338866075404,-0.1848093288537901,-0.10433478805054922,-0.25757529413250524,0.9418836311735161
47.0,-0.03697398652799089,0.02068083658545297,0.0006479494438069409,-4.995646594575473,-1.1960621557828475,8.325065120809816,-0.7012806119648378,0.6387655820749611,-1.76652125248211,159.51058866633034,-30.663959571121,8.196757758690545,-0.17075625862999722,-0.10989974826640457,-0.2499821633044977,0.9461910086542715
48.0,-0.0397135677647635,0.01201860569672034,0.004413068423900398,-5.027141269637967,-1.336047206923682,8.295144695581563,-0.08220712625891657,0.4609438509453147,-0.3245288674084897,160.38033273562291,-30.858040653456044,9.156395392402107,-0.1634732353165347,-0.11559172376761088,-0.25123352644103536,0.9467310695222202
49.0,-0.031934675306457286,0.010532512919170555,0.009210468122257042,-5.084170162749745,-1.3563697875688439,8.264244259671191,-0.2219601720987738,0.4122185816488965,-0.3104745045146303,160.6146156203685,-31.23147410328192,9.317743329560614,-0.1614314685937512,-0.11670374353604776,-0.25432439679408175,0.9462849071450596
50.0,-0.024974493623405855,0.004423463008609293,0.014814667952702462,-5.109671346408029,-1.3715483870967748,8.2476146179402,0.09481142607080341,0.2786957900189333,-0.32502880184331795,160.93591857785873,-31.410018129532382,9.436784865859321,-0.15867625869592397,-0.1170764267462937,-0.2559328732546708,0.9463373616548423
51.0,-0.021651364764267995,-0.0009236677301193443,0.014813127732482572,-5.147474890700697,-1.3821058726220015,8.222892945763913,-0.17604979026349993,0.06319604454685099,0.00037848576155026514,161.0922607969987,-31.65985835401158,9.535281150301312,-0.1572717464454094,-0.11765044878642328,-0.25813696769337113,0.9459225429265035
52.0,-0.020566849816849822,-0.005996396077041237,0.019365089211863404,-5.048406416164481,-1.386665839536807,8.280549391468746,0.5673610495687108,-2.015853014592934,-0.8850450121115444,161.49935620495097,-30.99310122001654,9.500306665780457,-0.15412442663514708,-0.11599228019812716,-0.25289742457633224,0.9479931437412857
53.0,-0.007448747489070073,-0.003078843199810942,0.015743028476899443,-4.797719337114499,-1.3625667907361452,8.42880695379889,0.46934080704242,-0.8762480798771122,-0.3557533528299658,162.14758636860452,-29.31015948097601,9.177547486116033,-0.14937255691838,-0.11084072250632163,-0.23968246354623068,0.9527081001770944
54.0,-0.009997092076557067,-0.0038044688068291535,0.011812013845058693,-4.726664251562756,-1.3343255865561137,8.476110302233826,0.1549816741742391,-0.1325083829755348,-0.1701010568241096,162.44781032139903,-28.824826126207913,8.944444720634728,-0.14706082114201846,-0.10796309526771627,-0.23614702408399257,0.9543513046523748
55.0,-0.012327271076680992,-0.002414523189896912,0.011257005386431035,-4.706373600435754,-1.3213563416651541,8.49231014343642,0.05632628255562951,-0.052467709152898,-0.05321969123847568,162.59307278742762,-28.67753403084589,8.837213719764367,-0.14588789438974964,-0.10674242433585507,-0.23516300946442326,0.9549602201403196
56.0,-0.008497049567269868,0.005454563335955941,0.016999016522423294,-4.6844166011014945,-1.3171862706530293,8.506218922108573,-0.09912470495672697,-0.1678710169158143,-0.060809647915027534,162.65390440597955,-28.531546272619984,8.795669010621559,-0.1454494084950826,-0.10612708536428009,-0.23401450447993702,0.9553991172204956
57.0,-0.0037928796223446115,0.02403776553894572,0.024632572777340687,-4.674547010228166,-1.3627503933910312,8.504145751376868,-0.4818204169944925,0.11422477380015733,-0.05598446105428796,162.61278889653818,-28.463983821793864,9.101740755310779,-0.1457968053806058,-0.10857381187568842,-0.23310394498996845,0.955297441211054
58.0,0.015067269866247058,0.04401888276947287,0.03780015735641229,-4.684833988985051,-1.408766325727774,8.491181746656176,-0.4016964988198269,-0.019878540519276164,-0.024665617623918175,162.58474626278522,-28.53947678992919,9.43978166797797,-0.1459499043072384,-0.11123568513139262,-0.23337476261998424,0.9549071678111722
59.0,0.043742132179386314,0.07291502753737215,0.05864122738001575,-4.677002360346181,-1.4378623131392607,8.490467348544454,-0.16842791109362704,-0.06390760228166797,0.006043469708890635,162.55063926042487,-28.48589693154996,9.621725019669551,-0.14626835971380803,-0.11275338045082613,-0.2326527188387097,0.9548572963029107
60.0,0.057132010790153995,0.0971802480236784,0.07141661983440112,-4.633447416732231,-1.451596287137987,8.51157776029373,-0.37792315293544637,-0.5040148130455959,0.12663924637518265,162.43473783297742,-28.196001461166684,9.6812542149039,-0.14730844864165818,-0.11324127967395378,-0.2300813257580645,0.9552562305923153
61.0,0.05838748079877112,0.09409984639016897,0.0643479262672811,-4.645318740399386,-1.4294980798771124,8.507958525345623,-0.2139184907834101,0.3992631528417819,0.38762720814132107,162.08604070660522,-28.280510752688173,9.533875768049155,-0.15019128256874037,-0.11289495674923195,-0.2306098152599846,0.9546935882638249
62.0,0.06568740399385559,0.09050537634408601,0.06938440860215053,-4.769922427035331,-1.3837791858678958,8.441969278033795,-0.2983822964669739,1.465725806451613,0.35525633640552995,161.71464093701996,-29.12828821044547,9.30411386328725,-0.15302255718279567,-0.11254161586827956,-0.23760669915629798,0.9524638908713516
63.0,0.04578115282304896,0.0768569367951744,0.05793384474167322,-5.007521795736391,-1.3397018470645536,8.294296598104228,-0.533022776872354,3.415697531471282,1.3733352885804202,161.21803545670826,-30.796210391611403,9.173005004027576,-0.15647930960811696,-0.11391654117519015,-0.2512059201701041,0.9478648325557584
64.0,0.03454591435315275,0.10504252369712637,0.059548911618148445,-5.275639354089393,-1.2879907084785134,8.140220111648121,-0.640715737514518,1.160847757671125,1.010972799820164,159.9323976246675,-32.60541006331722,8.9888246506313,-0.16638358611723053,-0.11706457542092838,-0.26532606408639614,0.9420240618725411
65.0,0.027885804203664155,0.11935746131654866,0.05413397774530743,-5.384693529654189,-1.251753212693417,8.082683488816457,-0.5778843992356975,0.6730522460754561,0.3206382769472855,158.98447393316098,-33.33926229815293,8.8067244108501,-0.17391990177569217,-0.11853729691881157,-0.2707419467481548,0.9391221050144243
66.0,0.029252744370761682,0.09337211044921509,0.0568766625454273,-5.536622082349854,-1.241334719568394,7.984109062980028,-0.1613582293657038,1.0732011726799295,-0.36355419429770336,159.13487224157956,-34.40010677756547,8.840785517590199,-0.17226565852459627,-0.11932819301412458,-0.2797403025401821,0.9367897155136562
67.0,0.03941515866771571,0.09249634708328652,0.06203664156457233,-5.47190551122101,-1.2063624442696037,8.033486943164363,-0.015154921134464781,-1.9370457270240902,0.23565761867296087,159.22795839421525,-33.929316061593795,8.545752781836573,-0.17173201116706,-0.11640539156082574,-0.276297930363793,0.9382751335978419
68.0,0.043960136375557304,0.09533157244014838,0.05833932786332473,-5.2293831253980745,-1.1924967217414109,8.193596343336706,-0.550112865759994,-0.8729042561162937,0.006499147652766851,158.64704863062454,-32.25023533213442,8.287185989659434,-0.17728848188565433,-0.11412482522179762,-0.2620216395839421,0.9415606486714622
69.0,0.03654842456258664,0.10076025626615714,0.05759439511445806,-5.070878198643738,-1.1990333071072645,8.293670675508597,-0.019843299239444,-1.2733472893484694,-0.18270952755610506,158.46920403881455,-31.14886478588288,8.22367652017534,-0.17921226992132178,-0.11295330873455472,-0.2527293506683152,0.9439240914770521
70.0,0.04812078977932635,0.1016075081488142,0.051283428871155085,-4.6636176988498,-1.1767353789666926,8.522696864111497,0.2808680828743771,-2.6611376493949273,-1.0101686898205386,159.2467971413585,-28.42528801843318,7.863608519725751,-0.17385839708103853,-0.10573584303368175,-0.23100488874879177,0.9510524869698399
71.0,0.07332250571353638,0.12343891199280657,0.013867708216252675,-3.6791028811209765,-0.9837876812408677,8.911607695477876,3.029716711625641,-10.994006406653927,-2.426049042748492,160.58605686373681,-22.218768498744893,6.390563766812783,-0.1642149839841145,-0.08451183620793525,-0.18083733901847066,0.9629968264499643
72.0,0.0771412835787344,0.14110501667228653,-0.026595331759769206,-2.6182227155220863,-0.692147296841632,9.299048855419432,1.0944234479787194,-2.301126667228653,-1.3253037072421416,162.0195309280282,-15.672892313888575,4.365164755910231,-0.1537191217923644,-0.05817535886817653,-0.12855617273888204,0.9748449250414182
73.0,0.08790187703720356,0.15219688284440447,-0.0037264621033307067,-2.370964229515567,-0.6010539788692818,9.434225450526394,0.9681647137611928,-1.29070888829568,-0.39991581900266016,163.1269222303398,-14.07811118448166,3.697727932636469,-0.14492161163182343,-0.049479424363277874,-0.11653822684937806,0.9798055774420308
74.0,0.08261297902872931,0.1586337002369059,-0.004102915972895662,-2.52470051310737,-0.48283372236787425,9.431619664498005,-0.41550152346448993,2.1315216108033974,-0.35500409292218527,162.88635355703036,-14.95891329104053,2.9472158980511676,-0.14707815435492144,-0.04449685744579873,-0.12517187586833123,0.9794910676779733
75.0,0.08177556148619036,0.14720340363836604,-0.009046512499204944,-2.538097512182924,-0.5058958990618734,9.44161647119097,-0.2787894545500487,-0.3556897771916845,0.23233998830718133,163.01361016430064,-15.007794849409215,3.066286660950952,-0.14605632222204507,-0.04537027514098037,-0.12558375125457322,0.97994512707341
76.0,0.08049991591974649,0.12868618722624905,-0.016965652562966532,-2.5356770203003713,-0.5271568589011364,9.44769379627137,-0.8887946888725665,1.2140281912812698,0.3932917299446813,162.81114455987688,-14.990936595211519,3.1937616100453683,-0.14782271356109933,-0.04665069472870831,-0.12521316796215604,0.9798346569046006
77.0,0.07496577977246924,0.11318333938885419,-0.0061172348836338025,-2.735104255157866,-0.5622266629375114,9.390536606277006,-0.5864624366021819,1.5118240034747363,0.025394904910896715,162.4233574181873,-16.20240954184539,3.4248137927338975,-0.15092902849329928,-0.05047821042887028,-0.13513268646187682,0.9778764097963863
78.0,0.070694459329118,0.10634158539634908,-0.002647804808344944,-2.8095784660450827,-0.6149148001286036,9.366853856321226,-0.6698996177615832,0.4905311149215875,-0.04613206873146857,162.39145723930983,-16.651852695316684,3.756233701282463,-0.15108651523630912,-0.05381305943664488,-0.13853949377344335,0.9772362855317401
79.0,0.06238248847926267,0.10898924731182796,0.003749615975422427,-2.875807987711214,-0.6583133640552995,9.344261136712749,-0.5062692012288786,0.4230318740399386,-0.00030721966205836393,162.3407258064516,-17.054349078341012,4.032411674347157,-0.15146340916129036,-0.056648631823348686,-0.14163051458064518,0.9765904388033793
80.0,0.05621966205837174,0.10612749615975423,-0.0054132104454685075,-2.911098310291859,-0.6725668202764977,9.332565284178184,-0.3479646697388633,0.3748463901689708,-0.1483486943164362,162.30194892473116,-17.265120967741936,4.123118279569892,-0.15170624659139786,-0.05768895743625191,-0.14333762353149004,0.9762615054147467
81.0,0.0643371173803904,0.11358349256303621,0.007889475853283881,-2.945199505451275,-0.6767658761380242,9.322839533925293,-0.4877713929789067,0.4428768124086771,-0.01642665130568355,162.33351668165298,-17.47440265445281,4.154251901389982,-0.15140205738631002,-0.05814565356610843,-0.14508101648784238,0.9760328905728524
82.0,0.06385442658574052,0.1124522685549436,0.008080682627102771,-2.973060582218726,-0.6939359334607172,9.312326064965722,-0.289728630437226,0.32913329867745683,0.050230414746543786,162.2845818815331,-17.645995490052826,4.259129598928478,-0.15176588087057438,-0.059288205381364506,-0.146387163881402,0.9757131033931854
83.0,0.06580816567382264,0.11471922183507549,0.011243106290509914,-2.9958352066239557,-0.6907206549024015,9.30498484507887,-0.23832629678543327,0.3810557046382676,0.022667050691244243,162.23241670881572,-17.78711544855944,4.246346673504178,-0.1521416672325222,-0.05940221502478364,-0.14758796966804352,0.9754706526313085
84.0,0.06234359896594359,0.11992009478850549,0.00946429508073883,-3.067465990408752,-0.7055538758382975,9.280169841894276,-0.6185835112959424,0.5621256345771983,0.6099726382488478,161.96464585440782,-18.22871397427972,4.346585635139186,-0.15434573930577722,-0.06111420439142408,-0.15105651854773144,0.9744676616987186
85.0,0.07594061668727285,0.12070563111161065,-0.0020385897868195214,-3.0491471657112887,-0.7068687197931887,9.28600715597018,-0.3638712487355288,0.07080336068337642,0.15409946236559138,161.5007273050841,-18.115409454497772,4.347713180472818,-0.15831953759720502,-0.06161161310393016,-0.1498384909439886,0.9739857517291595
86.0,0.0775847851335656,0.1270129257052939,0.005585740511783002,-3.0610055262073343,-0.7065736203214568,9.282653459967777,-0.4578748454535237,0.335559036753962,0.3032003999475478,161.21407332996142,-18.190818417256754,4.3490877074669365,-0.1607400259347158,-0.06210534075731519,-0.15034126750975985,0.9734880915451465
87.0,0.0713783766063467,0.1162251695328013,0.012733112285039903,-3.0606277115881753,-0.700775945075119,9.283975469259296,-0.3988718107227155,0.2397531002959799,0.12948776038739648,160.99198676520174,-18.187579790472444,4.31460218332022,-0.16257294596331162,-0.06209588162177326,-0.1502627108765689,0.9732004905199603
88.0,0.0650480592709153,0.09816903637930388,0.011173007755423178,-3.0921565977295717,-0.684601682214979,9.273935315274809,-0.3671274376194223,0.5883745340189577,0.010031178580795032,160.88006596324604,-18.378492516203963,4.223782946498819,-0.1634425725905268,-0.061698541621370506,-0.15198197593021995,0.9728159961349803
89.0,0.06473773931287702,0.0975240343186842,0.012945374845453526,-3.1558081375744633,-0.6963734217526507,9.25178217376644,-0.4129235978419692,0.5242527912030273,0.07661337154846203,160.83171644936496,-18.775839000037465,4.302365263571991,-0.16389973379929562,-0.06293313977842718,-0.15517740923123902,0.972149250974748
90.0,0.06535274062418044,0.10636452218120196,0.017146502854606713,-3.21628023563114,-0.7098459924549617,9.229289999798262,-0.3841488632007908,0.5539426103007928,0.09195565776997719,160.78725614799572,-19.140044559099437,4.40701131251387,-0.16407635133690407,-0.06430873526673932,-0.15818127955328934,0.9715420888121409
91.0,0.07475662208234987,0.11207053803788658,0.022163337973330116,-3.264180243700701,-0.717223546974924,9.212056486917223,-0.29038285016845206,0.37134089602372455,0.03884761645383203,160.76987709052028,-19.433805717787322,4.451174814400129,-0.16415465512006494,-0.06508636465854668,-0.16063575095839133,0.9710842383407676
92.0,0.07090860215053764,0.11123511166253101,0.019154052936311006,-3.2840531430934656,-0.7231381306865177,9.204643507030598,-0.38983147229114967,0.3429629342431762,0.08377274607113316,160.72904259718774,-19.569769696029773,4.488780758891646,-0.1645258165734078,-0.06562712275413568,-0.16166625238399496,0.9708126751743178
93.0,0.07793305795961186,0.1164943260909036,0.01596579515422946,-3.294044569186387,-0.7343507333212288,9.20076982589925,-0.22497818697169603,-0.04635205471161413,0.08451274990417397,160.67242354092275,-19.631271182593956,4.5545503174867354,-0.1650490779632381,-0.06635429126426297,-0.16204523765964107,0.9706094955274619
94.0,0.07909467610805139,0.1091646492767657,0.01819749238435313,-3.265634892775727,-0.7205630535213539,9.212103835058203,-0.14652725241582443,0.14707623464261937,-0.04632545038229538,160.6000542173536,-19.4515890728076,4.467796278924327,-0.1656760615287276,-0.06550278571051465,-0.16059146181634687,0.9708063584217759
95.0,0.0771188040912667,0.08847265932336741,0.01355566483084186,-3.2344744295830052,-0.7115499606608966,9.223396931549964,-0.24232026947285604,-0.046315647128245485,-0.02468774586939418,160.558531667978,-19.25619345003934,4.411410798583792,-0.1660897935926436,-0.06483471780310779,-0.15900830279917386,0.9710431754685287
96.0,0.0813213068075381,0.08030142182758232,0.014088316286388673,-3.1569342193997967,-0.7058794350155482,9.250325577910154,-0.15544272882244953,-0.22533356281143457,0.054476403562998765,160.49128820342062,-18.776094996909073,4.363690710351804,-0.16679698850964747,-0.06390358267440334,-0.1549156545268911,0.9716366986052322
97.0,0.08754224270353303,0.07664156457232774,0.014838709677419359,-3.127945374845453,-0.7070199692780339,9.260788280693863,-0.1226232625229478,0.03340545502229214,0.06301281330785657,160.41386609718631,-18.598916769697652,4.364666460604697,-0.16746589388857672,-0.06377783276422765,-0.15337456058671461,0.9717767433988985
98.0,0.09105908358622757,0.06579678543329212,0.015472856018882774,-3.1023873215690676,-0.6913298115469633,9.270022779213962,0.05511736165748754,-0.023728035667453448,0.0028085309654939904,160.35819189989132,-18.43886141395976,4.261281892772844,-0.1680001495611255,-0.06280177344977708,-0.15212219551601663,0.9719477259181744
99.0,0.09998508860664643,0.06622569405417557,0.026119590873328095,-3.051635832303023,-0.6719418530590835,9.288436251920121,0.03289404668240231,-0.060969053238919484,-0.14268995166910192,160.4276994117867,-18.1280066314488,4.135784534112622,-0.16749263912674686,-0.06126344355573041,-0.14968086303652917,0.9725103000487804
100.0,0.09966040987598815,0.05878517103143382,0.022372672436401786,-3.047574688097111,-0.6867800007493161,9.288279607358284,-0.17317916151511745,0.3954092671687085,-0.2349394458806339,160.6431798171668,-18.104297797010226,4.226452268554944,-0.16567636434813232,-0.06169962414251995,-0.14948106068146566,0.9728246194961223
101.0,0.09490316960773293,0.05439005657337681,0.019756359821662735,-3.074635663706867,-0.6828002884867559,9.27969242441272,-0.12239226237308455,0.3109233917800007,-0.0723509328987299,160.7945185174778,-18.271696217826232,4.204029213967255,-0.16433537980622678,-0.06155525384086397,-0.15101392693171858,0.972827216207542
102.0,0.10079147465437785,0.05270879697276235,0.016723183844741675,-3.112525542317634,-0.6879036847626541,9.266474851073395,-0.1087423546326477,0.4612248744895283,0.05457984432954929,160.82310504945485,-18.507455111273465,4.246039980705107,-0.16400023215094972,-0.06214251306913379,-0.15296628687498598,0.9725369503138421
103.0,0.09331302686298751,0.04897556292383201,0.01590840545502229,-3.149451697201304,-0.6744208628376607,9.255036501067774,0.047453788261960964,0.2777074903525533,-0.14887918680454088,160.89982455462518,-18.737914465550183,4.164307608369862,-0.16329460446709562,-0.06168186278781236,-0.15505880932291788,0.9723525471904577
104.0,0.08362425536697762,0.04244265857405119,0.011670600576973512,-3.1645467011352144,-0.6698838185156047,9.250905923344948,-0.08853429058484133,0.22239589187366526,-0.01071311490764678,160.87505268629874,-18.822787877936385,4.139404668240231,-0.16352978478711927,-0.06162693061856057,-0.15584025532658952,0.97219569373463
105.0,0.09067387883556255,0.036513187965981055,0.01908798846052977,-3.1728447791390355,-0.6579472856018885,9.248446049230079,-0.013977206736353075,0.18509387527631035,-0.012341004458431684,160.83190998370236,-18.876529307631785,4.062953102169271,-0.163906005727661,-0.06110905734000226,-0.1563415936102993,0.9720852055977294
106.0,0.09695397829288467,0.039671591259514166,0.02342908370150699,-3.178619428041144,-0.6577325445338824,9.246498640423308,-0.19111010571843579,0.18597730742572402,-0.015089887328774036,160.82362031695357,-18.91593088674373,4.062389268710572,-0.16395321803117302,-0.0611887999954263,-0.15666153518094905,0.9720257708918261
107.0,0.09695682785611975,0.04003337627491839,0.021041154753979302,-3.1765839075689604,-0.6601324012991991,9.24831786859875,-0.05772743189147596,0.03247958113221685,0.10329174988400008,160.77332729557355,-18.89854004014606,4.074894231129479,-0.16433338813655426,-0.06135348507835829,-0.15649989553805518,0.9719760794701067
108.0,0.1095287679799875,0.054654768389229454,0.023116958179507353,-3.1560850301023393,-0.6552589622546349,9.254406770648703,-0.025864109336768665,0.10450690307594318,0.01783883324255079,160.69382828193312,-18.774653576327946,4.03921737520282,-0.16513385660564933,-0.061051098101728346,-0.15543754747791824,0.9720321179687277
109.0,0.12142567431257444,0.062216017067118566,0.026778909197280563,-3.166844358369142,-0.6730327069337689,9.249258684863523,-0.12313750781738586,0.15049173878835562,0.06110355640622163,160.61644179073613,-18.839342917196234,4.151679540135972,-0.16567794626826243,-0.062118203924136056,-0.15579585560224635,0.9718141812216909
110.0,0.11578138554338399,0.0571846214367851,0.028966067501866092,-3.15359959853941,-0.6695526437894651,9.254705955334984,-0.2373248022957897,0.18220151455546812,-0.09003793953882466,160.54869468569063,-18.754273273114244,4.133954689422825,-0.16625766549703447,-0.06195002803464867,-0.15508616126483282,0.9718400617721357
111.0,0.11527242328874904,0.05672521636506689,0.01932769472856019,-3.1535529110936276,-0.6683300550747444,9.255071007081035,-0.026326465381589295,0.2501536683713611,0.03861255900865461,160.52471110346184,-18.754594069630212,4.134367623918175,-0.16646462952301339,-0.06192899025983477,-0.1551022603121558,0.9718024629728557
112.0,0.12419669551534224,0.05751180173092055,0.024849331235247844,-3.1622321007081045,-0.6746892210857591,9.25137018095987,-0.02800698269079465,0.1177935680566483,0.07865607789142406,160.46031422108575,-18.80912667191188,4.170510424862313,-0.16706646478166798,-0.062425804319433516,-0.15546597764398112,0.9716069954299761
113.0,0.11931313926042483,0.051065106215578304,0.024863690007867825,-3.1378194335169156,-0.6518843430369787,9.261349921321791,0.060544108969315495,0.026982936664044065,0.035836693548387095,160.3719254032258,-18.658275963808023,4.02693499213218,-0.16791082999114876,-0.06115552045239968,-0.15434562782277736,0.9717189268652634
114.0,0.130051730920535,0.05164948859166013,0.02962942564909521,-3.13972423288749,-0.6606195908733281,9.260025767112506,-0.15085193745082612,0.2675993312352478,-0.06925403225806451,160.33114919354836,-18.666184352871753,4.077832415420929,-0.16818887837863888,-0.06164979906490952,-0.15432270361703387,0.9716429235818249
115.0,-0.06678363493312353,0.436638473642801,0.232347757671125,-2.2548654602675056,-2.8425656963021244,8.364344217151848,-19.038485936270654,11.194888375295044,-36.919123721479146,179.5534126671912,-13.363092545239969,18.718454956726987,-0.01471042892486231,-0.16726076409756097,-0.15546834177655391,0.9333533140326513
116.0,-0.07514240755310786,0.7791178206136901,0.22691345397324936,-1.2175468135326513,-4.946766719118805,7.365830645161289,6.03509416797797,-6.264426386703383,15.145227675059004,200.05485837922896,-7.269592102675059,33.04552271833202,0.1458191133031078,-0.26971574481431937,-0.1590413549795437,0.8871959661075923
117.0,-0.07490288285016847,0.4730608747402611,0.27297285601888277,-1.6600269220682278,-2.6929451875163917,8.46384904880066,4.772317943170126,-4.223747390001816,10.96849757408864,180.8331182921786,-9.816062206217595,17.82965884675906,-0.006397868312776098,-0.1546075470403276,-0.13104513634709195,0.9341574971517075
118.0,0.020746827654380733,0.2932023492505397,0.13356746656176244,-1.839108661663539,-1.5012247574088646,9.025649937460912,2.2492834798462744,-1.6278797925618835,5.53868427091529,170.71629852453145,-10.841548018923117,9.83482352251407,-0.08686629602106156,-0.09396627494423933,-0.11527630537653574,0.9572571536702676
119.0,0.06352971183026257,0.18826956940253556,0.058243602712524836,-2.0076666580207094,-0.9070563111161067,9.289458417271163,1.0297984699538592,-0.5977088574944595,2.7935188827694724,165.66516371119047,-11.83067704325572,5.852289593438295,-0.12693287625016209,-0.06442324545291843,-0.11143961152044912,0.9683757172126299
120.0,0.09247374655242477,0.11494831735272332,0.008888913866097194,-2.1284564604029588,-0.5432008542205238,9.44633188369459,0.7963754348195733,0.27634718415599613,2.4398406766325724,162.44743236700356,-12.546116452391038,3.415739603957543,-0.1524922649205177,-0.0465700111001807,-0.10993157267289176,0.9749459069548593
121.0,0.09341940671445001,0.07037266379044504,-0.0005697051440560477,-2.3154351538836195,-0.3702542430032595,9.514882700305204,-0.3476472550528412,0.7707955432975102,0.19710857592446887,160.54742782787628,-13.658129036581043,2.2333320364398253,-0.16740693542485366,-0.03910730626999594,-0.11424976155045061,0.9784294012862417
122.0,0.10433220935895993,0.062256678281068525,-0.006543703870218427,-2.396343936158255,-0.38940983852234845,9.494642726012518,-0.22235257202802444,0.5099968154059421,0.026989902963545767,160.51032979281405,-14.144881233374544,2.3467203364429956,-0.16765901319871862,-0.040820964816492444,-0.11823200315312277,0.9778545412481363
123.0,0.10379080963620696,0.05702920460080178,-0.004074369637705596,-2.46042609868495,-0.41047989959162257,9.477942920834737,-0.22105531827207672,0.5003268892135926,0.08890309467610805,160.47539011277206,-14.52914301637256,2.4856880596455735,-0.16790565028543325,-0.04256331530753811,-0.12132316705649843,0.9773675199159646
124.0,0.09571184107002359,0.05273426435877263,-0.003981117230527145,-2.5022383949645945,-0.41459402045633365,9.466583595594017,-0.046093135326514566,0.6520259638080251,-0.026381785995279308,160.4973052714398,-14.784684795436664,2.507513768686074,-0.1676694000666798,-0.04307647285346184,-0.12343987960582216,0.977128057219119
125.0,0.1259567269866247,0.048282454760031485,0.015590086546026751,-2.6231272619984267,-0.4222889457120378,9.429900668764752,-0.5544477773406765,5.142394030291109,0.6087849134539732,160.45384416797796,-15.532513768686073,2.5640391424075535,-0.16784833675511412,-0.044643266979150276,-0.12970970779484656,0.9761414782547208
126.0,0.06103933910306845,0.04144295830055075,-0.030425649095200624,-4.264992918961448,-0.8457411487018098,8.558177812745868,-2.2101003147128244,1.9918027143981116,-0.34241247049567264,158.47103658536585,-26.2930615656963,6.007941581431942,-0.1800326532155783,-0.08857705176947284,-0.21396409950590084,0.9504837769268293
127.0,0.1193217001985688,0.0560449964407478,0.01788335019294894,-3.4160922408302423,-0.6987808062642837,8.996651567944252,0.9200987692480609,-3.7657587061181665,-0.5486321466037241,158.90551824585066,-20.733390585777975,4.67386654209284,-0.17869997649501704,-0.07016809531881532,-0.16945480418609266,0.9625707282380576
128.0,0.11048303735341501,0.04755042898355251,0.007962131430070065,-2.8309965531452543,-0.5826752182383577,9.262991401596047,0.5084610683376417,-2.3560058282754484,-0.3262928632310516,159.1568307200929,-16.98124584363643,3.745002704563336,-0.17800792188244158,-0.05734183062164214,-0.13939379648722416,0.9698095785092725
129.0,0.11789366265782474,0.05532930575849537,0.001909566895208124,-2.5290020137874185,-0.5219254336667792,9.397908761380236,0.29637500702483977,-0.8139115244839081,-0.2010797764227642,159.3127202872691,-15.053943510921284,3.2545043273013374,-0.17740053857723576,-0.05064097530836237,-0.1239450105807482,0.9735399438879957
130.0,0.11027574837960362,0.05373646547525385,-0.004865685062380577,-2.4023176351579183,-0.4783500056198719,9.459943051965075,0.06371529729122173,-0.5737280356674532,-0.07839487093027611,159.36094563710614,-14.232957738563561,2.942459536922558,-0.17730603358585284,-0.04691741947023341,-0.11753936384586566,0.9752348043752577
131.0,0.13345416057847215,0.05374077404368515,-0.007027649769585255,-2.2438771496009893,-0.4486281892772845,9.528582855644224,0.03429175564797122,-0.42479674796747957,-0.10555758495372972,159.48803084373012,-13.225005619871865,2.71412414296954,-0.17657144613596337,-0.04352835088775242,-0.10944240345322395,0.9771989989264172
132.0,0.14854198044284594,0.05218912742122815,-0.0033855606758832575,-2.226518451912629,-0.44696924056798154,9.53376838634745,-0.10743649544790379,0.11696030497171331,-0.003921265595144434,159.52826561387735,-13.118071166310742,2.69073142632348,-0.17628404609486345,-0.04315319547383013,-0.1085992686313739,0.9773739627097524
133.0,0.1628302424038065,0.05286126409651194,-0.013212768348881649,-2.2518329024764894,-0.4510632048255966,9.52750350305346,-0.04743921171930613,0.26425527331310183,-0.17322271552208607,159.6694695777603,-13.271894084148215,2.713262429283279,-0.1750247135399198,-0.04347431777737814,-0.10992563943688885,0.9774352082113072
134.0,0.1607345547188191,0.05676501442433781,-0.0015041025064628545,-2.295570267131242,-0.40883215316024113,9.518295417931132,0.007948372110449214,0.420901240118392,-0.05703326964145217,159.76881720430106,-13.534230873702747,2.458519491588925,-0.1741059478793226,-0.04163567639852384,-0.11258968293638305,0.9773756060490051
135.0,0.14191105616125285,0.04664210782660824,-0.0032965981042298916,-2.3113696189726864,-0.3914721441684461,9.514017140609187,-0.044470514405604886,0.25770484432954927,0.021800185455771615,159.79504608294928,-13.630849115806825,2.3553974186055227,-0.1739328381193848,-0.040913494873609096,-0.11355810399430519,0.9773278151135958
136.0,0.12734734554718818,0.021431203401895787,0.017758467273612823,-2.3121773350567594,-0.38869358585290925,9.51321392042261,-0.3510609849762092,-0.5727309767337304,-0.41381469877486793,159.82540463077441,-13.632827193623317,2.322914090892061,-0.17368585512892917,-0.04070202151233562,-0.11360712324026823,0.977375519735397
137.0,0.12738795848787982,0.06862938818328276,-0.018069499082087596,-2.0196944662995007,-0.4405076992244577,9.573618672960919,-0.1697749241317298,-1.7167418324528865,-0.2564537203551759,160.08104908958074,-11.881973792664194,2.628094910269379,-0.17173309881312054,-0.04046749373946274,-0.0982634623728223,0.9792699124686971
138.0,0.13571394852197372,0.06282851897643402,-0.028458712674684354,-1.5751582930575847,-0.4634758158180661,9.648291671349892,-0.16500458956202463,-3.312888005320145,-0.3179109999625342,160.80490146491326,-9.242182172829793,2.745307055749129,-0.1658120327667753,-0.03726264916235811,-0.07567939907427597,0.9821841435423364
139.0,0.09175154546476341,0.06996264658499118,-0.03805311715559553,-1.4305610505413808,-0.4720093477202053,9.674193042598624,0.003797862575399963,1.318428145254955,0.5136448147315574,160.13332209358958,-8.398874327956989,2.7852961321231877,-0.17166662062807686,-0.03674335088330337,-0.06821124428143382,0.9818183538797439
140.0,0.09151286950657525,0.0574813232924956,-0.030296719868120346,-1.6004740736577872,-0.4494240286988123,9.652354585815441,-0.21019784290584842,2.917429798433929,0.1503707944625529,159.76086467582707,-9.401528897849461,2.6609696386422392,-0.1747433207495223,-0.03735786658278071,-0.07691858458829756,0.9806927280326136
141.0,0.07771188790228917,0.04278213630062568,-0.02017312951931363,-1.954139110561613,-0.4583350942265185,9.581862200741819,-0.05405965493986738,1.701221619647072,0.11081567756921808,159.75543113783672,-11.507296466973884,2.7311256603349445,-0.17443005730141245,-0.04101359741197407,-0.09483379484695216,0.9789632074291335
142.0,0.08298205387583829,0.0441030309842269,-0.014280956127533627,-2.1069801056535913,-0.45350702483983396,9.552792214604171,0.16089107751676593,-0.08126287887302841,-0.08863474579446254,159.78612921958714,-12.412518498744895,2.7078329305758495,-0.17406137888805215,-0.0420792109311753,-0.10262894754280469,0.978299025223034
143.0,0.10044263984114495,0.06190789030010116,-0.013102843655164662,-2.06564443070698,-0.45195550934772055,9.566256322355848,0.01197395657712337,0.06411126409651188,0.03597256565883632,159.84589199074594,-12.158428988235734,2.6811966112172643,-0.17365452994325806,-0.04151690054853696,-0.1005233139050429,0.978714516756678
144.0,0.10642745682065113,0.06571869731370125,-0.01277958862537934,-2.0850999494211533,-0.45067012288786507,9.56406128470271,-0.14029055908358623,0.6008941450301598,-0.3216085244089768,160.09513816689145,-12.277601590892061,2.6856563307856582,-0.17151576810695557,-0.04145981272430782,-0.10159672810279682,0.9790249913673242
145.0,0.09353227679742233,0.06362144543104417,-0.011325278183657413,-2.1253282005170275,-0.4575729646697392,9.555792739125554,-0.0037894327675995765,0.3782192499344348,-0.1526893428496497,160.37980194634895,-12.516094142220222,2.732697117005732,-0.16908527070267138,-0.04194639083796037,-0.10368626223285002,0.9792207377764037
146.0,0.08750393391030684,0.06573957513768686,-0.008671518489378442,-2.157273800157356,-0.4602202989771833,9.54873485444532,-0.2549370574350905,0.4497270849724626,0.3265784815106215,160.33865312745868,-12.708819335169157,2.751787470495673,-0.16939471869394176,-0.04240224361369001,-0.10527724145043274,0.9789771206471282
147.0,0.0859334138848301,0.05778623880708854,-0.016098525720280244,-2.2277023153872086,-0.4675218238357499,9.532041362256937,-0.12796846315237348,0.6839473628751265,-0.16626355794087896,160.3425380395077,-13.13195055215241,2.7986790374096135,-0.1693165825487992,-0.04341312671486644,-0.10881600882176577,0.9785578450154078
148.0,0.08688855794087895,0.053425377468060406,-0.012144692967667004,-2.2337071484770146,-0.454189867371024,9.531501479899593,0.02348696658049529,0.1590639752163651,-0.1154042444082275,160.37937313841744,-13.170697578303548,2.7204764714697838,-0.1689615600743228,-0.04276396768423813,-0.10926266144563711,0.978605693131936
149.0,0.08899482971788245,0.04623285002435279,-0.009127617923644672,-2.2205514499269405,-0.4432789423401148,9.534450189202357,-0.03963215597017722,-0.043440204563335943,0.1072485809823536,160.43398055524332,-13.090339323180098,2.654320159417032,-0.1684614531169214,-0.04204284648314975,-0.10870733700743698,0.9787892306477932
150.0,0.08804503390656028,0.042163276010640294,-0.014966842755985161,-2.2392859016147764,-0.44617998576299134,9.530182083848487,-0.08158883144130981,0.46826645685811696,-0.13009066726611968,160.43194803491812,-13.204638267580833,2.6695491926117416,-0.1684729949196358,-0.04233063914652878,-0.10966545786969392,0.9786671107384511
151.0,0.08287381514368139,0.038386909445131324,-0.01141339777453074,-2.2872314637892925,-0.4407060432355475,9.519595369225577,-0.10924445505975797,0.4366312614739051,-0.01156874039938556,160.4144397924394,-13.489071690832116,2.639406775692181,-0.1686001929987636,-0.042494656811659356,-0.11211395913154248,0.978358871360571
152.0,0.08086040238282569,0.03097935633734218,-0.010369600239781198,-2.2883861601288826,-0.4393003259525683,9.518733842868379,-0.14054948297178824,0.31664582630849347,0.009376990371286203,160.43399226330973,-13.49302901727174,2.6302967292345736,-0.16846234389194856,-0.04243462203982615,-0.11219992083923423,0.9783805259130417
153.0,0.08469409164137723,0.030292982653328845,-0.010337566970139747,-2.2962946311490766,-0.43723914428084376,9.517652766850246,-0.056416488704057535,0.14434172567532128,-0.06754617661383987,160.4622859765464,-13.540491176801169,2.620279307631786,-0.16827765405305156,-0.042386528747892546,-0.11261402536210707,0.9783686851504252
154.0,0.09002918586789556,0.027662620358922488,-0.00713101794612416,-2.288995466636694,-0.4378304297328688,9.520208759506946,-0.07646257165336631,0.20278651980068188,0.06057683301487393,160.46286505751004,-13.495466870855344,2.6272128245476,-0.16823431486916937,-0.042363233532089456,-0.11223676298239108,0.9784180284516875
155.0,0.08864516129032257,0.030882769472856016,0.0170228166797797,-3.302453186467348,-0.5186325727773407,9.057158143194332,-2.352488198269079,12.724645948072384,1.9505409126671913,159.40907749803307,-20.078392997639654,3.379130605822187,-0.17472277351062152,-0.05917728581904013,-0.1660312128560189,0.9647428465177024
156.0,0.10832111947847586,0.02039698774867933,0.04599520437600689,-4.2010381401970704,-0.6352010415495861,8.67245771983065,0.2838981304559589,-1.4130835300288487,-0.7042142014162075,158.48621375182648,-25.773692677306954,4.291791942977033,-0.18059680726353453,-0.075849727064666,-0.21208423830204937,0.9535175053698625
157.0,0.10512830167472181,0.01886883219062605,0.041408302424038076,-3.955011595668952,-0.6208263272264061,8.863250889813042,0.2382561069274287,-0.7163273669027013,-0.5064639063729346,159.10210077835228,-23.999577455884005,4.048433343636432,-0.17648703179069725,-0.07047655440959501,-0.19830607439492712,0.9595060684717134
158.0,0.10932968978307296,0.023011127346296505,0.03751453673522911,-3.8441194878423435,-0.6202943595219361,8.9538662002173,0.004095598703682923,-0.1567425583530028,-0.2953002065302911,159.47221482662695,-23.183261387265368,3.97806698653104,-0.17391879512980968,-0.0681894477704938,-0.19201197271044546,0.9624513780368008
159.0,0.10914743733842869,0.02380867146229066,0.027885513843617708,-3.802654059420778,-0.631638820201566,8.992285873515415,-0.3103157431343899,-0.32546879097823234,-0.30889309598741144,159.62319373805778,-22.86194012026526,4.026033763721854,-0.1729218309493462,-0.06786324805765051,-0.1894566521142707,0.9637026339474916
160.0,0.10477936383050465,0.024623805777228287,0.028670675508598413,-3.653215278558315,-0.6193449477351916,9.065506800044957,0.3872672436401783,-1.1598446105428797,-0.23117225843917424,159.7909927503653,-21.887868101607282,3.906408058896257,-0.17186124425117077,-0.06530636864115244,-0.18153015688970064,0.9658691127383389
161.0,0.10686664044059796,0.03510683376419019,0.019877580457832233,-3.2866544902776216,-0.5851901389981642,9.20620578097486,0.36178838372485106,-2.604888703120902,0.030381612715896733,159.87691918624256,-19.589656977070923,3.6334699664680974,-0.17178339002573903,-0.05980087651028435,-0.16246790951935108,0.969609958472088
162.0,0.09605881195908733,0.04243146566258291,0.014400631298939719,-2.9839621782623356,-0.550381851560451,9.309997461691209,0.18280705574912892,-1.731279914109625,-0.00015144383874714923,159.88054259862872,-17.72301003849612,3.3833754238320033,-0.17220193190901428,-0.05515339098763626,-0.14698740659838522,0.97225017764045
163.0,0.08233988985051141,0.046066539282904356,-0.0033843617698849793,-2.6401020568731033,-0.494061893522161,9.414946311490763,0.12885312464875803,-1.3582054812483608,0.025503915177400617,159.71426323479824,-15.627760059570642,3.0002814619160016,-0.17410170044644263,-0.04921260031639878,-0.1296035929524184,0.9746767646549025
164.0,0.08159087332808812,0.04932359222209734,-0.014689820538758384,-2.4367819489715634,-0.4487539994754788,9.476375594769767,0.08682526413397774,-0.8005376344086022,-0.04052794012963171,159.62832555917726,-14.390394585253457,2.7050236971263724,-0.17511312771338655,-0.045087076775036525,-0.11948459031963958,0.9760981658364994
165.0,0.09759323367427222,0.05118646734854446,-0.002285995279307636,-2.3560255704169943,-0.4333804091266721,9.501324154209282,-0.001960808418568053,0.05521243115656965,0.18876130999213217,159.509544649882,-13.901611673878836,2.6099306648308414,-0.1762439481502754,-0.04369811053796223,-0.11540530698524784,0.9765374499221089
166.0,0.10793371361132965,0.05210129819040127,-0.004191384736428011,-2.3636660110149497,-0.4505450432730136,9.49951691581432,-0.2213685090479937,0.36056992525570414,0.16484436467348546,159.3766977281668,-13.946496361132965,2.7071326711250983,-0.17732259107513762,-0.04480107932946498,-0.115584851399882,0.9763010587433123
167.0,0.12270180959874116,0.05837214791502753,0.0016494885916601078,-2.3891374901652256,-0.46465558615263597,9.491000393391031,-0.15253491345397324,0.26214226003147123,0.04292633752950432,159.3031926140834,-14.100737608182532,2.7865804484657746,-0.17784395921675844,-0.04582702979386309,-0.11674123098288745,0.976023022555861
168.0,0.13893154996066093,0.06142800944138474,0.004752163650668764,-2.414121164437451,-0.4761463414634149,9.485088906372937,-0.17490656963021245,0.19304189614476785,0.027965184893784426,159.27163158929974,-14.24633654602675,2.8641571597167585,-0.1780581401487018,-0.04670760260660896,-0.11786702118095987,0.975809327785995
169.0,0.15244899029635456,0.06711503877711589,0.009286463601963208,-2.4258356374807994,-0.48447457944625544,9.48185995279308,-0.09629521655239595,0.23035351335656212,-0.22613345790715972,159.35428245944325,-14.32041289666929,2.918508930913042,-0.17738211336047732,-0.04713169841937356,-0.11842857529206474,0.9758480765611249
170.0,0.14137004982953055,0.05940331010452962,0.008120808512232588,-2.421348188527968,-0.47596663669401695,9.485170731707322,-0.06213757680491552,0.28327766147765165,0.08655463217938632,159.47584795670826,-14.294057746525045,2.8759539147090782,-0.1764323601263441,-0.04655708676672847,-0.11832537204021015,0.976063528441853
171.0,0.13310910044584318,0.04962189502079354,0.004652654452811809,-2.4255558802592643,-0.4729752538308794,9.482643587726203,-0.09834787475178898,0.24045066689146152,0.051212136113296614,159.4917294219025,-14.30972741279832,2.8440505460642163,-0.17622521051075263,-0.04634426330596454,-0.11856279561520738,0.9760747091459856
172.0,0.1441052976658799,0.03655052264808363,-0.016505301412461114,-2.1438762878873034,-0.4749392398186655,9.53848308418568,-0.27045147474804243,-2.907720181896519,0.01798903422501967,159.56441309804802,-12.618396357854706,2.8393639827095276,-0.17588648537654075,-0.043756206720645535,-0.10409595505544006,0.9776011060159512
173.0,0.09630264883293996,0.050791390356299884,-0.04436555393203702,-1.789938143943652,-0.47311074894159083,9.611693154996068,-0.328950535761118,-1.020644365141808,0.512799960660897,159.29672267805626,-10.516078219249934,2.815926951032183,-0.17853715900681877,-0.040565665332096955,-0.08607640598336519,0.9790089882216853
174.0,0.0984815855531827,0.04708924356524673,-0.028039151774006222,-1.6710942639841146,-0.47553002884867573,9.63899557903413,-0.16421125098347755,-0.052012850773668906,0.4966793582106328,158.7027008167547,-9.809762419916826,2.8234060638417446,-0.18381032482983028,-0.0399822813258027,-0.07979514937417108,0.9787290693220561
175.0,0.08843827507399499,0.049901820838484885,-0.030876381551833955,-1.6790719156269904,-0.4672890112772095,9.639285358360496,-0.5843922108575925,2.5812172174141095,-1.7321382909969651,158.924422792327,-9.870975820501291,2.779990797459818,-0.18187350361082388,-0.0395390782002735,-0.08047409238574801,0.9790654397279045
176.0,0.07175729646697389,0.04430181521861302,-0.022292636094563712,-1.9201079483721106,-0.5747090217676369,9.586344488778987,0.19317958300550742,0.15178091397849447,0.02635315977295727,160.20737268648608,-11.299704078622007,3.4349550761492638,-0.17067918332154097,-0.04607859226850811,-0.09227781942969542,0.9796559302077759
177.0,0.06890130568356376,0.04497752051253232,-0.01891801543591473,-1.9369243658911244,-0.5980634202540182,9.58496506312989,-0.04468805027912032,0.24187548003072193,-0.5295569550597579,160.56672397765163,-11.394330485931587,3.5718902204863063,-0.16757204092133116,-0.047183951712403055,-0.09300963402014724,0.9801899527419448
178.0,0.0819109062980031,0.044420403881458174,-0.02136012138923233,-1.9227384886291263,-0.5819297516016634,9.590479075343751,0.11360547562848898,-0.1775921658986176,-0.06854791877411856,160.80735992469369,-11.309607639279157,3.475857264621033,-0.16553956322161031,-0.04611704154763778,-0.09244328611932862,0.9807098749736992
179.0,0.09267560226293509,0.04956830017608933,-0.011762260687123001,-1.9364242253943276,-0.5651066277022215,9.589354595181895,-0.3523239340976359,1.7590681315799332,-0.09347404087520136,160.815103171481,-11.398319892473118,3.3759193173728974,-0.16546556576389043,-0.04541166482874378,-0.09335566101824584,0.9807022978769623
180.0,0.05864307257127871,0.02531916188977559,-0.004980264883293996,-2.4895260387396503,-0.746459686785808,9.428953458094487,-1.0510882062305646,3.2982742310141995,0.18174940757184072,161.40221621988684,-14.740564352216103,4.545429170881571,-0.15976263163096174,-0.058894613897456066,-0.12079763275931965,0.9774433419479225
181.0,0.060840545502229205,0.021496946536285644,0.005342624854819978,-2.8320137874189806,-0.8143162489228577,9.330139747480427,-0.6919455528080627,2.1116563167359783,-0.05299890412498594,161.1849862781462,-16.81472102019407,4.999250683751077,-0.161207731958338,-0.06568877016915814,-0.13776550529747855,0.9746317032074481
182.0,0.06470214679105316,0.01813326589487093,0.01362369337979094,-2.9942403806526543,-0.895026788055899,9.280016110299355,-0.4534756565883631,0.7801705162788954,-0.5679021018320782,161.42537044322054,-17.792945187516395,5.513210211307182,-0.15896726455827806,-0.07091925940485555,-0.14558816963414634,0.9736909721413582
183.0,0.06445318646734854,0.014139222959049867,0.0156532164399985,-3.0688254467798135,-0.9457521261848563,9.25548349630962,-0.17257221535348993,0.6562675620995841,-0.2071765763740587,161.6488024989697,-18.246253418755387,5.832204675733394,-0.156943341971451,-0.07386606976546399,-0.14918025321756395,0.9733923240054699
184.0,0.06819826907946497,0.021172679929564276,0.01718144692967667,-3.1089367202427787,-0.9654685099846388,9.243095800082429,-0.14588484882544678,0.3973951893896819,-0.11848797347420481,161.77628460904424,-18.48342371960586,5.957113352815556,-0.15581281862537932,-0.07503191439886102,-0.15113527202577648,0.9732592317942379
185.0,0.07664201416207708,0.03234951856431007,0.02586924431456296,-3.130194559964033,-0.9800056948034918,9.234451125847666,-0.32333581544340784,0.27136675283803524,-0.012037063054962355,161.76635335881008,-18.611351907009855,6.046751011576935,-0.15587183912936947,-0.07597194224506386,-0.152122457436177,0.9730281694266231
186.0,0.09647319321119477,0.04319613352815557,0.028558053276385303,-3.1575807950245407,-0.9756423888202019,9.225758495372977,0.14833183470083547,0.16325118953954515,0.007047085159791685,161.72020742010415,-18.783797675246337,6.03054376943539,-0.1562709302199618,-0.0761115569322618,-0.1535506291385486,0.9727285791275333
187.0,0.11115518339515192,0.05550743696377056,0.031395002060619695,-3.1327880933648045,-0.9405900116144018,9.237656513431496,0.3226778221123225,-0.7285702577647897,0.2736608313663782,161.55098792664194,-18.6258418099734,5.809410709602488,-0.15775779512150162,-0.07429235545921845,-0.15237656737649394,0.972803912962384
188.0,0.11960984976209207,0.06433121651493012,0.02777067176201717,-2.9410911355887754,-0.8755271065153045,9.30525626615713,0.2484258504739425,-0.8522621155070997,0.10511326383425124,161.3586469924319,-17.45808219530928,5.374955158105728,-0.1597245477417107,-0.06952297554235512,-0.14281920153246408,0.9742325737510585
189.0,0.13541861488891388,0.07852674122363344,0.028952212356224954,-2.8326698793600844,-0.8441876287887302,9.341707598066765,0.06746626906073207,-0.39392216711625644,0.04913904733805402,161.26210772123562,-16.791909901745907,5.162792291877412,-0.16067601411869165,-0.06703355120548125,-0.13737275798495746,0.9750504138700218
190.0,0.15397946873477952,0.08206578996665544,0.028774493274886678,-2.78506477838972,-0.8288034918137199,9.358539282904351,0.008556723240043453,-0.150060881945225,0.04228625753999475,161.21555486868232,-16.49335918474392,5.06010078303548,-0.16115345180128127,-0.06592558141725673,-0.134947523855382,0.9754104177132366
191.0,0.14223757071672097,0.07256633322093589,0.02473028361620023,-2.731892735378967,-0.803687347795137,9.376014724064287,0.012480564609793562,0.03820716720992093,-0.021893849986886968,161.18999615975423,-16.170096193473455,4.897059636206961,-0.16146257885107335,-0.0641861625662208,-0.13238145686474842,0.9758422405065003
192.0,0.13569866247049564,0.05637686860739576,0.02007789142407554,-2.714521636506687,-0.7794665617623922,9.383212431156565,-0.07560975609756097,0.19468922108575923,0.010995279307631785,161.18548387096774,-16.0621410306845,4.745308811959088,-0.161504127195122,-0.0628799680519276,-0.13164888954681353,0.976030177701023
193.0,0.14246066089693155,0.05194295830055077,0.021653422501966967,-2.7284787568843427,-0.7769614476789934,9.378819433516915,-0.050260621557828476,0.24218135326514556,-0.006495869394177813,161.18649193548384,-16.141421616837135,4.730305861526357,-0.16152458252989776,-0.06277564535877259,-0.1323980833509048,0.9759316541022819
194.0,0.15399193548387097,0.054959677419354855,0.024669354838709686,-2.735975806451613,-0.7681935483870973,9.378088709677417,-0.10473790322580645,0.1909274193548387,-0.004737903225806452,161.20877016129032,-16.198941532258065,4.678326612903226,-0.1612744239596774,-0.062322259532258055,-0.13291227317741933,0.9759327046774195
195.0,0.13529032258064513,0.03786290322580646,0.020645161290322588,-2.7158870967741935,-0.7614677419354843,9.384870967741932,-0.17469758064516128,0.14949596774193546,-0.12474798387096774,161.2328125,-16.071673387096773,4.6360383064516135,-0.1610575031774193,-0.061798341975806456,-0.1319015011612903,0.9761405684596776
196.0,0.11955310778914238,0.028493705743509054,0.012879228953579859,-2.719110149488592,-0.7612199055861527,9.384320613690004,0.07260031471282455,0.22931254917387883,0.07507499016522423,161.33852773406767,-16.092605477970103,4.635206038552321,-0.16017377347698658,-0.061669073777143986,-0.13212607170771046,0.9762590131939419
197.0,0.11824665617623917,0.030957710464201427,0.013105232100708106,-2.707379622344611,-0.7490285208497243,9.3883577891424,-0.06051583398898506,0.1949412372147915,0.09954760031471283,161.2630138670338,-16.01823613296617,4.557719069630212,-0.16079535148013369,-0.06099597687962235,-0.13157761720790717,0.9762697009278125
198.0,0.11530881195908732,0.028894177812745885,0.023984067663257273,-3.069318843430369,-0.7701311959087331,9.231497442958293,-1.819471626671912,10.478090578284815,1.9872738001573564,160.78896661093626,-18.37000516325728,4.798642800944139,-0.16401158292958293,-0.06659767485916603,-0.15090703430153424,0.9714301924840678
199.0,0.11370279307631784,0.021753540519276165,0.058512195121951216,-4.54615538945712,-0.9865938237608181,8.444889850511405,-3.6539646439811175,6.059408192368214,0.6719131097560975,158.94642382966168,-28.096217299370572,6.8583939811172305,-0.17557699284382375,-0.09748970784893785,-0.228494249445122,0.9482355479315501
200.0,0.12384736428009441,0.04702596380802518,0.041498033044846575,-4.451247049567269,-1.161865460267506,8.49265460267506,2.818002557041699,-8.05348642800944,-1.9852380015735642,158.9368459874115,-27.35690401258851,7.994418764752163,-0.17591112880094412,-0.10530404144059795,-0.2208766501298191,0.9495602295625494
201.0,0.10791652616986999,0.04800588213255406,0.017340564235135435,-3.287351073395527,-0.8854520437600688,9.019828106852493,1.6505293216814656,-5.878843406953655,-1.088270390768424,160.2363527265745,-19.920945964932,5.823312984713948,-0.1674967018913866,-0.0769526395704732,-0.16175819033990863,0.9651150933330339
202.0,0.09297871941853057,0.04750412123936909,0.0010266943913678763,-2.664422979656064,-0.7600194915889251,9.29249469858754,0.703264267449702,-2.6179228836499187,-0.43988657225281935,160.8724299038065,-15.966840999775204,4.80155617764415,-0.1635164494114683,-0.0630022961621052,-0.13006918130685438,0.9730931363872095
203.0,0.09498129519313624,0.0618891573938781,-0.017720523772057996,-2.327280038215129,-0.6944815199880111,9.436892510584094,0.443038383724851,-2.387514869244314,-0.49418723773931295,161.25569579867744,-13.828884209565022,4.284170225918849,-0.16105967624605674,-0.05569344214153647,-0.11287534885907233,0.9773694901290886
204.0,0.10255604885541941,0.07273214754036941,-0.002145470383275264,-2.1476130718219624,-0.6183504177438087,9.527119740736582,0.3356800396200967,-0.1148210656213704,0.08396890571728294,161.40497405492488,-12.677193506238057,3.7415503470270877,-0.16015051721075457,-0.049589704964651,-0.10400573195904049,0.9799480514435766
205.0,0.09293282379828406,0.05498891011951595,-0.00599572889738114,-2.098698550073058,-0.571897868195272,9.55466647933761,-0.03148322468247723,0.3691366003521786,0.05012457382638341,161.39682219662058,-12.363120995841294,3.4354677138361245,-0.16026275895343,-0.04662371222445767,-0.10181005205121572,0.9806988605870517
206.0,0.10603068450039338,0.046986231313926055,-0.007174272226593233,-2.114908733280881,-0.576788355625492,9.55107907159717,-0.1981117230527144,0.4830473052714398,-0.08144423682140048,161.43214742328874,-12.453579858379229,3.465568450039339,-0.1599600708815893,-0.047014624035405184,-0.10257903702360344,0.9806480363076314
207.0,0.12600904799370577,0.04678579858379231,-0.0010891030684500396,-2.1805778914240754,-0.590805664830842,9.535779504327301,-0.12819138473642802,0.6114095692368213,-0.0015551239181746668,161.43934770849722,-12.849306648308417,3.5471528324154207,-0.15984592959107002,-0.048250128740755294,-0.10584668844885915,0.9802537449004718
208.0,0.15068450039339107,0.06083398898505115,0.005043273013375296,-2.2614398111723046,-0.5996380802517702,9.516325727773408,-0.014850511408339886,0.561369000786782,-0.1892210857592447,161.51293273013374,-13.334677419354838,3.6020357985837923,-0.15915903793076314,-0.04930968273800157,-0.10994222785208498,0.9798579661054285
209.0,0.14453186467348547,0.0534901652242329,0.011685287175452403,-2.2507930763178594,-0.6033926042486231,9.51781117230527,-0.3946007081038552,-2.0610936270653033,-0.46915814319433513,161.7505114083399,-13.2588512981904,3.6248328088119592,-0.15712992406294257,-0.04919207848937844,-0.1093507296443745,0.9802284316978757
210.0,0.14715499606608973,0.0687081038552321,-0.004854445318646733,-1.9484893784421713,-0.6471439811172304,9.576865460267504,-0.4077006294256491,0.02984854445318641,-0.8035306845003933,162.19761014948858,-11.465007867820614,3.860601888276947,-0.15353713800786778,-0.04856471796066089,-0.09381489566483085,0.9823158626986626
211.0,-0.0003427372522573219,0.13362852646959644,0.02351298190401259,-1.7175006556517176,-0.8534058296804165,9.590879997002732,-2.633875885129819,4.503560422989022,-2.921389232325503,167.57663936345585,-10.121551271964332,5.089646556891836,-0.10705783885238469,-0.05445492628541456,-0.08343062830130007,0.9872083880787532
212.0,-0.09929804053800909,0.4321368438799596,0.19724036191974828,-2.2758313663781804,-3.8032410737701854,7.941313326589486,-7.153828186467349,28.809534932186878,-40.98916629200854,203.05449788786484,-13.459821662732757,25.975586457045445,0.16136707739914208,-0.15024840692319508,-0.21001048918212137,0.8794271292990147
213.0,-0.17372848525720277,0.23911877599190742,0.11549508261211647,-2.336549829530554,-5.693600080551497,6.90351110861339,-4.992197334775767,18.050740125416805,-20.15380816567382,233.23794426257916,-13.822456071334909,39.21421927100896,0.3816709392432374,-0.19415239648362742,-0.29664759190183954,0.7779211879059982
214.0,-0.36263037166085943,0.4920467011352141,0.2617647521636507,-3.479346708628377,-5.230861507624294,6.655303744707954,-10.1905573859166,-19.977272418605523,31.559978784983706,220.860993054775,-21.108943908995542,37.46895009085459,0.28769352590908914,-0.1885225535791465,-0.3274209397980874,0.8002325910131878
215.0,-0.10271514742797193,0.28586014012213856,0.1696849874489528,-3.745816979506201,-3.0951723052714404,7.777499606608968,-5.312152972912217,-11.49804241129969,16.13270156607096,189.02906363568243,-22.617492787831104,21.808584588438052,0.0474496451269716,-0.13952262771660856,-0.26148974060968116,0.8788921889466859
216.0,-0.04432355475628487,0.17430047581581806,0.10367412236334345,-3.752242347607808,-2.031632085721779,8.391736858866283,-1.3706835871642127,-4.469384577198307,3.7911439015023802,175.9305562970664,-22.572818318908993,13.974529569892475,-0.0492248962801319,-0.10918085465529578,-0.22388536612356225,0.9237207225664266
217.0,0.04447630287362782,0.15287171705818442,0.06332879997002736,-3.68283714547975,-1.1502519201228878,8.784889672548797,2.1293513614139594,-3.6867674262860137,1.2356339098385223,172.19796402579522,-22.089054714135848,7.768544289273539,-0.07264502705981418,-0.07120526767304522,-0.20127799714203287,0.9541923091872258
218.0,0.07481495635232849,0.11168393840620434,0.05067131242740999,-3.660850024352779,-0.9969032258064516,8.967956164999435,-0.62232868757259,-2.500557772282792,1.2064366265782476,169.53368223371172,-21.927315855531827,6.466844629275785,-0.09058086405102844,-0.06860848674954104,-0.1884209544220149,0.9701879747086284
219.0,0.08491131842193995,0.07662032145667078,0.03738409950919787,-3.538459742984526,-0.9539055112210107,9.082847364280092,-0.356817607058559,-0.5475303004758159,-0.6484231576186729,168.53439853321342,-21.149292832790078,5.9913779457495036,-0.0977489100799146,-0.06799944757187815,-0.1780442139885729,0.9763130229931061
220.0,0.06975971301187664,0.06660668390094039,0.027812633471956845,-3.3734268854670106,-0.9528185905361357,9.140862163276008,1.0071751714060921,-3.2834957242141543,-0.8272018189651942,169.00362376362818,-20.1274550644412,5.954219001723427,-0.09392598740133379,-0.066258347326833,-0.1695768051031059,0.9784481573004757
221.0,0.07350006033738399,0.0658338526269198,0.017973797020683743,-2.9254694122136797,-0.8242071288728106,9.299411101033098,0.3825266421134901,-0.42056089615827297,0.1898300549658321,169.15713844211268,-17.377909164518915,5.07832421002681,-0.09301780478166886,-0.05696541576147151,-0.14668846550537068,0.9827020356160954
222.0,0.062289008663315645,0.04672683414756128,0.013484978387454005,-3.132413277535411,-0.8648105536837173,9.23352198676847,-0.48623283869747924,0.6901023764216315,0.29008351826632617,168.7911856285064,-18.64480495668342,5.359703819683143,-0.09597697637355335,-0.06069992994275572,-0.15722999727764692,0.9807022583161122
223.0,0.06009611723488363,0.032806581436299845,0.013505162004786912,-3.444117545065709,-0.9769866900523042,9.097613527946447,-3.1990015960000453,6.279070965476561,1.212342066352825,168.25155959612727,-20.623405742550617,6.1763956886434155,-0.10017453086726821,-0.06940407362729184,-0.1732821196910508,0.976661183113509
224.0,0.05205650715814843,0.02132494970432504,0.03933783445861466,-4.248455085896909,-1.2396646199877495,8.682329805447878,-1.4599030637450303,3.8685485395739176,0.9070542897048304,166.77708068132011,-25.81561992196655,8.225640240635071,-0.11136927623317328,-0.09146363071840782,-0.21476308765428115,0.9644409112764165
225.0,0.05483478012360234,0.03198070946308007,0.056950023220090754,-4.633094202121958,-1.3490597649412348,8.490815346693818,-0.67461686850284,2.1188636444825493,0.4835115028757189,166.08056433751295,-28.294739309827456,9.09026453041832,-0.11667202318908297,-0.10104338541128143,-0.23464503780245063,0.9587952955803238
226.0,0.06439938556067591,0.04435944700460831,0.07181259600614441,-4.839718894009217,-1.406397849462365,8.388691244239627,-0.42019009216589853,0.9505280337941628,0.25698924731182793,165.73193164362522,-29.61814516129032,9.540889016897081,-0.11934109482334866,-0.10604643537480801,-0.2453473673333333,0.9558258379447007
227.0,0.07842051627889554,0.05918657974598181,0.08421462290659774,-4.876526301000337,-1.4199580382900598,8.373568768498743,0.14682243078191154,-2.4641461541343523,0.08097333839121802,165.57163264302574,-29.832537301899514,9.631255502791202,-0.12068873686795172,-0.10729014600809264,-0.2469867082784272,0.9553093769011468
228.0,0.0854836836386797,0.05894044809111687,0.07142528380352929,-4.485247789517066,-1.4195297103892695,8.58206625828931,-0.06236547431718556,-1.671819620845978,0.07912914231388857,165.24344880999212,-27.25145490286988,9.394972029429395,-0.12415449132721704,-0.1046411362820801,-0.22497257975979734,0.9603987229344443
229.0,-0.10520362669064477,-0.1331730171218763,0.1288084560338691,-4.095206268030423,-1.3628850548874152,8.769371454797493,2.2827069517814995,-7.729458197519763,-7.190316141208648,166.02293048218502,-24.72224122831666,8.848600886066464,-0.11799203753630437,-0.0977910739574763,-0.20436823046764827,0.9659172436820838
230.0,0.017565621370499412,0.38510550372784824,-0.16554508073882584,-0.5665401539844899,-0.7428196395788843,9.033731810348058,5.413473291558953,-19.7715455350118,-16.144807648177288,181.60098137012477,-3.418157864542355,4.699641264845829,0.014588495271018312,-0.0636199352813495,-0.025380985838278816,0.9707747294493367
231.0,-0.1509913828631374,0.2347301712187629,-0.15626044359521937,-0.1987660447341803,-0.6347646584991197,9.330628001948222,0.7698918877149605,8.527684893784421,10.583115329137161,179.35291003990108,-1.2334488919485966,3.8980061162938817,-0.005532068715297302,-0.04982333748744895,-0.007845926088494243,0.9806857139625715
232.0,-0.04184502266681652,0.15924549473605332,-0.07297286538533589,-1.4081792458131954,-0.6689165542692295,9.378433591847436,-0.3274360388333146,6.568843430369787,5.704396964332546,172.09588361947849,-8.35118550026226,4.07833035948447,-0.06795350279982015,-0.05190282202067176,-0.06842723067603312,0.9812236478624816
233.0,0.016248417069424145,0.10097699599115807,-0.030989678168671094,-2.1629514443070694,-0.7401235997152602,9.350744726686901,-0.46574090985725525,3.717247738001574,2.8105912339365324,168.38264197201306,-12.82831022161028,4.514886806414148,-0.09977109538456781,-0.05685395936487956,-0.10617696504336666,0.9800791708681013
234.0,0.058015145554681354,0.06898465774980332,-0.008888080251770259,-2.573577104642014,-0.7876117230527149,9.324663453973246,-0.38917805861526356,2.2136641915814317,1.6502888965381588,166.50166084775768,-15.269665863493312,4.814538257277734,-0.11589596890656957,-0.06023135848505115,-0.12672033822521633,0.9791704336898109
235.0,0.07865676632572777,0.03532297403619199,0.013930959874114876,-2.896119197482298,-0.830902635719906,9.302271243115651,-0.39511826317859955,1.7312524586939417,1.205209972462628,165.08649070613689,-17.19977748819827,5.107420338316286,-0.12796699844925255,-0.06313360687962236,-0.14295591838276944,0.9785334481150667
236.0,0.10725177025963809,0.03670180959874116,0.02418725413060583,-3.0418741148701818,-0.8694634146341462,9.273800944138468,-0.30952989771833206,0.4394669551534225,0.04862313139260424,164.66353265145554,-18.068764752163652,5.360060975609756,-0.13136988178914244,-0.06589250740755309,-0.15009830437686866,0.9776748188599522
237.0,0.12930251770259638,0.04087647521636509,0.03188512981904014,-3.078746656176239,-0.8875483870967737,9.259583398898503,-0.15944630212431155,0.2247393784421715,0.005807435090479938,164.64451219512193,-18.29785601888277,5.479622344610543,-0.13142392536900077,-0.06714832755114084,-0.15188017342210858,0.9773157879925252
238.0,0.13041129032258067,0.038451612903225824,0.0326451612903226,-3.080370967741935,-0.8876774193548385,9.259814516129026,-0.12973790322580647,0.23215725806451612,-0.004737903225806452,164.66612903225806,-18.306451612903224,5.480443548387097,-0.13138428006451613,-0.06710254276612904,-0.15196774383064518,0.9773099847822582
239.0,0.12056451612903227,0.027870180959874126,0.02773151062155784,-3.093683516915814,-0.890616837136113,9.254809992132177,-0.20780266522423288,0.44292879622344605,0.04187278717545239,164.6571449645948,-18.38444753147128,5.494021685680567,-0.1314750054942958,-0.06733553982061369,-0.15263846802694733,0.9771791810356019
240.0,0.10687529504327302,0.024293469708890646,0.02597757671125099,-3.0941418174665625,-0.8931872541306058,9.256083398898504,-0.06876475216365066,0.24501991542092838,-0.036907454760031475,164.60780635326515,-18.390165224232888,5.512718823760817,-0.13184888631235248,-0.06744341790479937,-0.15261030940893,0.9771258741467346
241.0,0.1030828088119591,0.02518705743509049,0.02387588512981905,-3.0983007474429582,-0.8972871754523999,9.255009441384736,-0.13947310188827694,0.20817023996852868,-0.004844856412273802,164.58404430566483,-18.416100757277732,5.53957513768686,-0.13204700166424074,-0.06767413929917385,-0.1527694581843037,0.9770510920653027
242.0,0.11688414634146344,0.03507336742722267,0.03040971675845792,-3.107888276947286,-0.9089661683713617,9.249278914240758,-0.09551780094413846,0.16789560385523206,0.025173337922895354,164.56407356412274,-18.471029209284026,5.611521439811172,-0.13219287036034622,-0.06839734086329659,-0.1531609993219906,0.976925225056845
243.0,0.13452399685287175,0.04426907946498822,0.03607710464201418,-3.1277136113296633,-0.9150314712824557,9.240642014162079,-0.043533634933123525,0.24265342250196695,-0.044571203776553894,164.5612706530291,-18.600614673485445,5.653038945712037,-0.13216980104169945,-0.06894230687411484,-0.15421928185995282,0.9767274435452403
244.0,0.1467781274586939,0.04894807238394966,0.041414634146341486,-3.123084185680567,-0.9162867820613695,9.243369787568842,-0.026089201416207707,-0.16563729346970885,0.04082907159716758,164.525,-18.570571892210857,5.658802124311565,-0.1324759042415421,-0.06901718650314712,-0.15391968659874117,0.9767248458796227
245.0,0.14086742722265932,0.05485169158143196,0.022080251770259646,-2.5697246262785214,-0.9089891817466565,9.379615656963018,0.000871607002360348,-5.455827104642014,-0.7236354248623131,164.6200678599528,-15.207492869787568,5.531825334382376,-0.13208559365892997,-0.06449440673701809,-0.1251401118241542,0.980343095099528
246.0,0.11060268442546176,0.05231332658948711,-0.01143452849275037,-1.847548949083961,-0.8893592222097337,9.541225647221907,0.43630009881608034,-2.284499573826383,-0.40605014330673256,165.20495520493802,-10.892363706399161,5.324378008973062,-0.12761403554144657,-0.0579827823506519,-0.08847435821814469,0.98510343064961
247.0,0.08264152710651529,0.0522443894945862,-0.015251882657075423,-1.851627739687535,-0.817063560750815,9.56754683226556,-0.007611531040425612,1.292347724888539,0.626959930313589,164.80215428421565,-10.901153947023342,4.878212927578584,-0.13115566897617176,-0.05451859111897269,-0.08895619910887564,0.9853115086691204
248.0,0.07552296654302948,0.05172014911393355,-0.012423738338765877,-1.9215337754299204,-0.7867253287625041,9.567758467273613,0.07434628011314674,0.7564069466299501,0.23543610205687315,164.6024884324304,-11.305150144243377,4.699791947660259,-0.13288200673434866,-0.05353712481519052,-0.09253608175978793,0.9851001166791709
249.0,0.07560825746506314,0.05456168746019259,-0.00953444981454423,-2.003121726424638,-0.7611570192199618,9.558617136862608,-0.06577544865310406,0.7239444007343299,0.07860514780263013,164.549732119441,-11.78906700760556,4.549744764152711,-0.13338547077846466,-0.0528081540971114,-0.09687221551699074,0.9847930806823272
250.0,0.09180810010865084,0.05495384211906636,-0.001750103030984228,-2.1009080214304454,-0.7751324791128095,9.539259488216999,-0.32060526020006747,0.7948287812371211,0.16860177587950997,164.4938232924956,-12.37300939455247,4.643091070023603,-0.13376629553516167,-0.0542791086033869,-0.10175637492533063,0.9842236483577235
251.0,0.09457476302873627,0.05601706567756923,0.0012009291521486636,-2.1802601251358134,-0.7884398486381177,9.52212337492038,0.030747841032557788,0.5290241794987074,-0.011892000112397438,164.40827631505002,-12.844701163313475,4.728166680716346,-0.1344404035599827,-0.055563394189296025,-0.10567718336783932,0.9836917419453373
252.0,0.07849587876063092,0.05246093252407179,-0.0026040987598816086,-2.2180151923869467,-0.7799256678281068,9.514756416020376,-0.07593213770559364,0.22626956417893668,-0.1270710984039564,164.41213874761155,-13.067546293694502,4.681485976078079,-0.1343611778704713,-0.05540728513005319,-0.1076554758711738,0.9835018803456033
253.0,0.06803826196096062,0.05017804690719718,-0.004914952605747258,-2.155660821999925,-0.7607773500430858,9.52967659510696,0.16523453598591284,0.043401919186242546,0.22283037821737664,164.35836272057998,-12.699448550073058,4.5599718186842,-0.13486961089088081,-0.054040016964220144,-0.10458673971784496,0.9838296102131241
254.0,0.07404735678693192,0.05230695740137125,-0.008767000112397439,-2.1545915477127124,-0.7232102956052603,9.53287209171631,0.13653431868420066,0.15479187741186168,0.15097692105953317,164.15196601850812,-12.69316225506725,4.3328120902176765,-0.13670520544505635,-0.05229639415492113,-0.10470627755093476,0.9836581428143196
255.0,0.07178481510621557,0.04654902401558579,-0.007705312652204864,-2.1755853283878466,-0.6890790341313553,9.530830823123896,-0.0695304597055187,0.3957283119778202,0.12701495822561912,164.13329867745682,-12.816281588363118,4.121124747105766,-0.13687990420486307,-0.05072243775103968,-0.10598646858499118,0.9835871222973287
256.0,0.0756209677419355,0.041583717357910915,-0.011508832565284179,-2.210855606758833,-0.6789281874039941,9.52311328725038,-0.08067396313364056,0.369928475422427,0.14478206605222732,164.10024001536095,-13.02640889016897,4.0634144585253456,-0.13711382521966206,-0.050435148135944685,-0.10789919707219661,0.9833611440660521
257.0,0.07683792289535799,0.020630961747405502,-0.00098779551159567,-2.222333979618598,-0.6652859859128545,9.522099621595292,-0.4180649024952231,-0.1946624096137275,0.11313036229440636,164.089836520269,-13.096933423251283,3.987719350623806,-0.13714059078410323,-0.049840280906878726,-0.10855988224695587,0.9833179729700836
258.0,0.10347426098684952,0.03805127196433254,-0.02360276872353978,-1.764503203326964,-0.6809784384249373,9.598311715559554,0.1647254692593009,-3.685126423700873,-1.1742719924319056,164.58142819677045,-10.367442326064964,4.049707649582256,-0.1331452280399011,-0.047114848290228925,-0.08509742309698023,0.9858508878617699
259.0,0.10999047431718559,0.034259516316361316,-0.037030487804878054,-1.5091880221797611,-0.6339185586901953,9.64751785245963,0.36638052152410927,1.2457887841407214,0.18900460361170435,164.96243923513543,-8.864333892978905,3.7499683296804163,-0.1300521167622607,-0.04268640632702971,-0.07265602992331685,0.9875210434095483
260.0,0.09194934622157282,0.015481332658948709,-0.024558830691993563,-1.8073386347457945,-0.5962186879472481,9.601071906260536,-0.21160860636544154,1.6564665406878722,0.0735873632497846,164.88550149160764,-10.636682835506349,3.544220195946199,-0.1305568399287494,-0.04281901378006632,-0.08811653229479977,0.9862543220479
261.0,0.08874414596680527,0.028288561687460204,-0.02173466711625642,-1.8932894983327713,-0.5702442770971488,9.591706193098794,0.20699627215166155,0.46079436888838926,0.0005174965344123678,164.87581956464726,-11.137953804653254,3.4018184968716048,-0.13061398656026374,-0.04208251279532427,-0.09260370942415047,0.9860245168892137
262.0,0.08325012176389045,0.037221385485744274,-0.02094837211044922,-1.8924165823685883,-0.5430678505863397,9.5964864561088,0.14362402120564982,-0.47067972350230414,-0.04366336030871828,164.8719430238657,-11.126731623018994,3.249547131992057,-0.1306663149536173,-0.04071716540395639,-0.09268405429822785,0.9861562144627029
263.0,0.09982091341650742,0.04817136862612867,-0.018909669926192352,-1.8222858641489639,-0.5383388408077625,9.612590386272524,-0.07474616912067739,-0.2917050691244239,0.06958057022966543,164.84888913866095,-10.707975066501817,3.2276441497133863,-0.13094086463272264,-0.04002418583485069,-0.08910306979888352,0.9865245819133788
264.0,0.12534318684200668,0.06600543254280469,-0.015835637480798772,-1.7958321531602417,-0.5410065565171778,9.618663407140982,0.0473289217339178,0.05175269753849607,0.06872026151137087,164.82046640253267,-10.547290050953505,3.2415512251320666,-0.13125461390959497,-0.039982666481548086,-0.08772370313704993,0.9866350548630622
265.0,0.12489125547937506,0.06375540444344535,-0.016205069124423967,-1.8180120827245139,-0.5168051215765614,9.616221104492151,-0.10287163744333296,0.69218299239444,0.08795556086321232,164.78463316286388,-10.678454933310853,3.0827571793863098,-0.13151878977353787,-0.03887233943509048,-0.0890284064533176,0.9865339537026527
266.0,0.12726230751938858,0.05431357948372112,-0.015154462178262336,-1.8902389288524222,-0.5107204207410738,9.602880811884154,-0.14746256931175303,0.46546600445843167,0.06680921237495785,164.6972929779701,-11.1063399764902,3.0368054189614475,-0.13224962469715446,-0.03908749836428009,-0.09271896272783897,0.9860834314107285
267.0,0.11669970214679107,0.03585437038702185,-0.01629900528267956,-1.9197283353939536,-0.5100658555318273,9.596299276909814,-0.19316172820426358,0.4203338086808287,6.287231651118386e-05,164.62536019866246,-11.282529867277358,3.0414117820613686,-0.1326899997316418,-0.03934168474665617,-0.09423124912601626,0.9858748099029452
268.0,0.11059739237945375,0.022514518002322882,-0.01440923906934922,-1.9527441834326178,-0.5127163463339701,9.588602038140193,-0.2025216833389532,0.40190138998164177,0.08334059233449478,164.5990116050354,-11.480506303622944,3.0523308418568056,-0.1329170238263834,-0.039719087291896146,-0.09592498226855495,0.9856644736039119
269.0,0.10336321231875914,0.014589281031059161,-0.013778183657412613,-1.981470439473981,-0.5138129331984564,9.583293938031542,-0.12385623899441758,0.34911159192237085,0.04614511914128358,164.57679730527144,-11.648125889813045,3.0573416601101497,-0.13308289902176765,-0.03999118077419356,-0.09735280171256228,0.9854951478719793
270.0,0.12299036191974824,0.013947482297403621,-0.010107985837922898,-1.9867260031471283,-0.512152242328875,9.58371302124311,-0.09548706726986625,0.07368214004720691,-0.04068032061369001,164.56662445908734,-11.677125540912666,3.061936959087333,-0.13315437481195913,-0.04000502927419354,-0.09761118217348545,0.9854602200051141
271.0,0.1358137293469709,0.014380999213217937,-0.008049960660896931,-1.98118154996066,-0.5111406372934699,9.584546026750584,-0.09020825137686861,0.14717373131392603,-0.07263350708103855,164.5814221085759,-11.647610149488592,3.059194285995279,-0.1330739314382376,-0.039882330580645164,-0.09735480011900077,0.985504482405783
272.0,0.12814476789929188,0.01608575924468922,-0.011799370574350907,-1.9618505114083393,-0.5132179386309993,9.587273013375288,-0.1421075924468922,0.06920731707317074,-0.0729986231313926,164.61051337529503,-11.536845987411487,3.0744492525570415,-0.13290923894571205,-0.039883291896931544,-0.09636128591581432,0.9856262919866247
273.0,0.12999370574350907,0.020385916601101492,-0.005049960660896933,-1.9638599527930762,-0.5038977183320221,9.588629425649088,0.06787224626278522,0.21748623131392603,0.03423239575137686,164.56605035405192,-11.552574252557042,3.008698859166011,-0.1332904641463415,-0.03939351563296616,-0.0965417220837923,0.9855755188391032
274.0,0.14122580645161292,0.026821597167584584,-0.0051512588512981905,-1.9678300550747445,-0.5062092840283241,9.587677419354831,-0.09125565499606607,0.15463217938631,0.005629179779701019,164.59411388670338,-11.575185631392603,3.0161462431156565,-0.13305323521793863,-0.039474228183910304,-0.0967457119207317,0.985585274469119
275.0,0.1347899291896145,0.03142623918174667,-0.009390440597954368,-1.9487429189614482,-0.5081046420141622,9.59231825334382,-0.012185287175452392,0.12148529701022816,0.022851101494885916,164.61056500786782,-11.452082513768687,3.0393231215578282,-0.13301529754760033,-0.03947373711939417,-0.09569364162372146,0.9856880276782061
276.0,0.14418961447678993,0.047056254917387894,-0.009252163650668766,-1.9351168371361136,-0.5070381589299764,9.592994099134543,0.08186467348544454,-0.04587922895357986,-0.025513867033831628,164.61823613296616,-11.379762490165223,3.0274341070023603,-0.1330093688261212,-0.03931315771321793,-0.09504693696774194,0.9857624406793861
277.0,0.1459012588512982,0.05575708103855231,-0.005922698662470492,-1.892224822974036,-0.4791461447678992,9.602851888276952,0.08278914240755311,-0.06570613690007868,-0.04625417977970102,164.64561491935484,-11.123319482690796,2.8518071400472067,-0.1327291593414634,-0.03755866546164437,-0.09305071540204564,0.9860554590320609
278.0,0.1380603855232101,0.04209008654602675,-0.009527537372147916,-1.8723845397324945,-0.4649761998426438,9.606752557041705,-0.17133654602675058,0.136702153815893,0.009197974036191978,164.6369455645161,-11.006041011014949,2.7717643587726197,-0.13277340548505112,-0.03669442329819039,-0.09213204230704172,0.9861717235145553
279.0,0.13948623131392607,0.026437450826121162,-0.010339889850511408,-1.8762069236821408,-0.4617018095987415,9.607622344610549,-0.17379032258064514,0.14780192761605038,-0.0461890243902439,164.63104838709677,-11.03184500393391,2.756446695515342,-0.13273047077576705,-0.03663697825727772,-0.09236776232258065,0.9861604376372932
280.0,0.13161565696302124,0.02422974036191975,-0.010870180959874114,-1.8512151848937841,-0.45626789929189615,9.613055861526362,-0.028107789142407538,0.04191335562549174,-0.0063508064516129,164.64612018095988,-10.879047010228167,2.724579563335956,-0.13267575314948854,-0.03619554820023601,-0.09112750864752166,0.98629460954642
281.0,0.1401075924468922,0.03215971675845791,-0.01277340676632573,-1.8246532258064514,-0.44990656963021225,9.618634146341467,0.018725413060582223,-0.06453211054287963,-0.056809352871754516,164.6524955743509,-10.716667486231314,2.6845999704956727,-0.132600080507081,-0.03565918356117229,-0.08979098582808813,0.9864501686622738
282.0,0.12936428009441386,0.029902439024390253,-0.01678992918961448,-1.7931612903225802,-0.4382879622344609,9.624607395751376,-0.04829858379228953,0.11906963021243115,-0.008772619984264356,164.6702498033045,-10.527134146341464,2.6086054287962233,-0.13254740179386304,-0.03480061416365067,-0.08823631124468923,0.9866301136900079
283.0,0.13232179386309995,0.030230527143981126,-0.01725413060582219,-1.7844720692368217,-0.4337859952793075,9.627626278520848,-0.06090676632572777,0.09889850511408338,0.0016129032258064531,164.67988296616838,-10.47548190401259,2.5817663257277736,-0.13252193437450832,-0.03448040223918175,-0.08779195468214004,0.9866799218686073
284.0,0.14568961447678996,0.03170456333595595,-0.01554681353265146,-1.7954146341463417,-0.4348929976396537,9.625300157356413,-0.11789929189614476,0.2509490558615264,-0.044369590873328084,164.6846995476003,-10.544600708103854,2.5755605822187255,-0.13242580773485446,-0.03458200829110937,-0.08840334162195121,0.9866363523851297
285.0,0.15807218725413064,0.03123229740361921,-0.014685287175452403,-1.8081990558615266,-0.43724193548387086,9.622685483870969,-0.09549567269866246,0.16998180566483084,-0.006596675845790715,164.68654233870967,-10.621567663257277,2.5990017702596377,-0.1323700437258065,-0.03487335546813533,-0.08905424573937842,0.986578599735445
286.0,0.1472584579071597,0.02716974822974037,-0.015543076317859953,-1.8130051140833987,-0.43651809598741137,9.620786782061373,-0.2046395554681353,0.5315081628638867,0.035394128638867026,164.6898603461841,-10.650790470102283,2.5949744295830053,-0.13229679260031474,-0.034845033937844216,-0.08930394182592447,0.9865629920582222
287.0,0.13036428009441384,0.02520613690007869,-0.011095594020456333,-1.859191581431943,-0.4436219512195121,9.61204956726987,-0.0564958693941778,0.35705399291896145,-0.014353855232100712,164.69576121164437,-10.926283438237608,2.638149095200629,-0.13222556044217154,-0.03549636336860739,-0.09160182406018882,0.9863366054838709
288.0,0.11758339889850511,0.021143587726199852,-0.012232297403619198,-1.8379459087332806,-0.44468194335169137,9.615476396538162,-0.13173436270653027,0.03841586349331236,0.037763080251770255,164.7238886703383,-10.80041551927616,2.6487608182533435,-0.13200338202753742,-0.035417874605625496,-0.09051844663827693,0.986470245007868
289.0,0.1144287962234461,0.01907985837922896,-0.012862116443745086,-1.851218922108576,-0.44729661683713606,9.61343981117231,-0.0614316974822974,0.305573859166011,0.006633556254917386,164.77988788355626,-10.881205743509048,2.6651062155782848,-0.1315854675137687,-0.03553861077458694,-0.09119908091994491,0.9864597287700629
290.0,0.1117663257277734,0.014838709677419359,-0.013258851298190405,-1.8508214004720696,-0.44264122738001555,9.612943351691587,-0.03592643587726199,0.10028520849724626,0.03271046420141621,164.8281077891424,-10.878565106215579,2.6245967741935488,-0.13124335875295037,-0.03517713359008655,-0.09121729491109362,0.986516115743509
291.0,0.10742918961447681,0.018241542092840284,-0.013163650668764754,-1.8281526357199054,-0.4373552321007079,9.617620377655392,-0.11695023603461842,0.2691630605822187,-0.3160356018882769,164.89384343036977,-10.741505212431157,2.5938434303697875,-0.13066962086742717,-0.03475089863611329,-0.09011460908811958,0.9867066952399686
292.0,0.09644472856018882,0.01843627065302911,-0.015027930763178602,-1.8552486231313927,-0.46130153422501974,9.611009244689228,-0.10312500000000001,0.41875737608182534,-0.17827743902439022,165.20901848937842,-10.907264211250983,2.74155192761605,-0.1279128699537765,-0.0359382757106609,-0.09146323166443743,0.9868947624704953
293.0,0.1058715578284815,0.022945093851860172,-0.033225562923832004,-1.8737030366040988,-0.473791896144768,9.607037456445997,-0.19191148233486943,0.09466574641264845,0.07534860767674499,165.3020898898505,-11.014299588344386,2.821788828631374,-0.12710124281886212,-0.036642196244923375,-0.09234567880495297,0.9868942089675825
294.0,0.10457345172530065,0.02126709377692855,-0.015166160878198644,-1.9415229852759357,-0.46927728447791395,9.594481285826685,-0.1098310291858679,0.7209803866471844,-0.1277958862537934,165.2551492075981,-11.41806929302012,2.7962702783709865,-0.1274086464414971,-0.03689438312764602,-0.09583731740324453,0.9865063919924316
295.0,0.10941103742834662,0.027824734929376944,-0.022217226780562736,-1.9689086208834436,-0.47934359896594364,9.588853546139148,-0.03268892135925967,0.8711363380914916,0.05947931887152971,165.35783129144656,-11.580125323142632,2.859976209209097,-0.12646570391705064,-0.03749354600914166,-0.09720147413435237,0.9864740445839421
296.0,0.09595256828144316,0.02526956652055,-0.013791540219549658,-2.0443598965943575,-0.4988220748566935,9.572668315162417,-0.21215484620283992,0.5769922445768236,-0.03386675283803529,165.36459621220635,-12.030473755198383,2.9865872391442805,-0.12633417520400128,-0.03900727543966132,-0.10095487891611402,0.9860555459544418
297.0,0.08674103630437226,0.022402682552171146,-0.022363905436289383,-2.08625547937507,-0.5089822412049008,9.56335225356862,-0.13226251358135702,0.4714967123749578,-0.0776385298415196,165.37016691019443,-12.283480386647184,3.0486879940804013,-0.1262956867680117,-0.03981117705499983,-0.10307130369487841,0.9858121064469298
298.0,0.08590277621670228,0.024828069386684658,-0.010758757633659284,-2.1227122250946007,-0.5159588625379341,9.555424974710583,-0.29309458244352027,0.3612427878311041,0.006802854894908401,165.37338990671014,-12.501302405305157,3.0962093964257615,-0.1262424902081226,-0.04038855980476566,-0.10492302775680941,0.9856051466942788
299.0,0.09147442958300553,0.027195908733280892,-0.01406294256490952,-2.148376081825335,-0.5223619197482297,9.547408339889856,-0.05176042486231315,0.2689614476789929,0.03842446892210857,165.34562352478366,-12.653963414634147,3.1316876475216366,-0.12635929104799368,-0.040852677674272225,-0.1061862840220299,0.9854343135798584
300.0,0.09641227380015738,0.02673249409913455,-0.010051140833988986,-2.1597411487018103,-0.5254421715184893,9.54466955153423,-0.4096331628638867,0.23389555468135326,0.029843627065302913,165.32374606608968,-12.725127852084972,3.1519226986624704,-0.12651667125334382,-0.041124699878835574,-0.10676399103933909,0.9853422127419356
301.0,0.10049173878835561,0.024959480723839505,0.0048839496459480705,-2.165964201416208,-0.5399122738001574,9.541909913453978,0.10746213611329664,0.06352035798583792,0.026674370574350906,165.22139801337528,-12.764880015735642,3.234915912667191,-0.12745034460385526,-0.04200019183556255,-0.10693407869040125,0.9851641667171518
302.0,0.11659126671911879,0.03432081038552322,-0.006633556254917389,-2.163115853658536,-0.532127655389457,9.54347265932337,-0.1082722757671125,0.5536917289535799,0.2324068154996066,165.01488370377655,-12.745884146341464,3.1865964299763965,-0.12922645987077105,-0.04178583176357199,-0.10678381740184892,0.9849554983074353
303.0,0.1044188757086082,0.03220476003147129,-0.00978937945086647,-2.2094821410559007,-0.530270506768343,9.532852644798158,-0.07254430062135608,0.25897921331880813,0.16424349770017552,164.85662053778572,-13.016415501623998,3.182089959198289,-0.1305664010783756,-0.04219982131975125,-0.10909591471653651,0.9845131032524562
304.0,0.10913551312312131,0.03271201903263273,-0.008188276514987767,-2.2293311242913916,-0.5263781489294864,9.529163841600305,-0.06533441029531706,0.22821272493897393,-0.20068475076588763,164.83184689523694,-13.143941237755163,3.1615146896605886,-0.13081440755378076,-0.042221530851311896,-0.1101670318563481,0.9843640308359058
305.0,0.1075072726905929,0.03515439661309057,-0.006694944709106787,-2.2287704008553733,-0.5264269776905495,9.529368211122728,0.0026906577555672745,0.20727672537271277,0.0854943181654433,164.98356457665074,-13.13789803823242,3.161982143217391,-0.1295227402688259,-0.04205360138130111,-0.11017377461769018,0.9845367228534366
306.0,0.1338842421674837,0.04313896069836275,0.005248908447964308,-2.3129296536141544,-0.5293881544628984,9.507333200761995,-0.7638641518460558,3.7422595271238075,0.6940650190355148,164.79861254009563,-13.652131552554447,3.1880721101610163,-0.13102114566155693,-0.04297467797467887,-0.11450154295085924,0.9837652131332486
307.0,0.09327965058806915,0.030947922520699864,0.03955600418464306,-4.013349169844055,-0.7859647302605601,8.671337725479344,-4.9567009586925,12.255103996449394,1.5125517856782609,162.65978030623978,-24.731848624428288,5.4521694146399104,-0.14560723441614432,-0.07560014354280756,-0.20444106053129119,0.9592270213738625
308.0,0.09840453710988722,0.039034150088044665,0.0291702633846615,-3.990547469184369,-0.9354621407965232,8.695933947772655,2.1141109128545206,-8.418822121688958,-1.485243504364767,162.14833956202466,-24.443826453673523,6.40341454048181,-0.15005099134594058,-0.08337012537274738,-0.20059951533574982,0.9594264704874111
309.0,0.08891040987598817,0.04233197519763217,0.0003186186354951128,-2.9331692799070845,-0.8207149413660035,9.14436866359447,0.9941234287774907,-4.214907412610993,-0.9158408382038888,163.0532164399985,-17.732377896575624,5.307722055187141,-0.1442779435185924,-0.06645188163030609,-0.1454846418691038,0.9722012936384827
310.0,0.08035324641264846,0.04219344535611255,-0.00590040650406504,-2.4798939717507773,-0.7323110037091154,9.355863287250383,0.34886542982653335,-1.0812920319583381,-0.38002463377168333,163.46212809327113,-14.830454261267842,4.578275390112772,-0.14170036294036376,-0.05700823041115919,-0.12202480623121087,0.9781992062476209
311.0,0.06669963658161929,0.0380360421115732,-0.013047469184369262,-2.344435577535499,-0.7230032595256828,9.437456820651153,0.16264143344198423,-0.5724799557903415,-0.3315396575624742,163.76968828444043,-13.920710632797572,4.427648832939942,-0.1394676469319246,-0.05463485440335694,-0.11475659936570377,0.9807513192488104
312.0,0.07224045558427936,0.04085909107939007,-0.011948596905323891,-2.243897568468773,-0.7091334157581208,9.500632422914087,0.12688031546214082,-0.3374545727024091,-0.08832096961522609,164.02769426023752,-13.241752838035293,4.282864542355101,-0.1375626340009741,-0.05245286691056911,-0.1094123788134577,0.9827215580390393
313.0,0.08477876437750553,0.04200074931624894,-0.004584054550222922,-2.253656101307556,-0.7067673373047094,9.509774118616765,-0.11150083361432693,0.39150579783447603,-0.04432275860777041,164.08508532838783,-13.285141761267843,4.239430894308944,-0.1370450206480086,-0.052171133797534755,-0.10988442859713009,0.9830538472618486
314.0,0.10101270091041924,0.04192297028961075,-0.0020944887789891716,-2.3016106552770585,-0.7104293956764451,9.49864029073471,-0.19223193211194786,0.5066038177662883,-0.03063509235322768,164.07425396200966,-13.575410484807612,4.271044546850998,-0.1371004644154583,-0.05275470831478775,-0.11233608433415755,0.9827454364322432
315.0,0.10610542879622345,0.03705979543666406,0.006370574350904797,-2.374146341463414,-0.7064366640440597,9.481478363493313,-0.15602380015735642,0.776785011801731,-0.08164339103068449,164.06759933123524,-14.011644374508261,4.262499999999999,-0.1371133997891424,-0.05313794235247836,-0.11611009266247047,0.9822759630448468
316.0,0.10098741148701809,0.038116837136113316,0.0009744295830055056,-2.448347757671125,-0.709005114083399,9.463508654602672,0.00806697482297404,0.6061344413847365,-0.011858280881195907,164.24313286782063,-14.457877655389456,4.281525373721479,-0.1356124622116444,-0.053638758776553885,-0.1199998477277734,0.9819898383752954
317.0,0.10827457685246827,0.04787804373701306,-0.0052020264681555016,-2.3390923762835643,-0.7147346577498033,9.487524768504507,-0.21376140455728376,-1.6004435420827534,0.30564222977062283,164.16758877145998,-13.790806502047651,4.3030572913514495,-0.1363275186364361,-0.053162599318172646,-0.11420106050059513,0.9825304883111924
318.0,0.10073675079182554,0.04118306948755414,-0.0038823112371499467,-2.290917155883718,-0.8184497021467911,9.488562883484205,-1.853977716487551,1.5490113798802825,-2.265877281812077,164.47057553972382,-13.508474487582966,4.930251283924573,-0.13374684549064508,-0.057837160893725335,-0.11132947193923766,0.9828659948671937
319.0,0.07356495851381768,0.026059295412167165,-0.0032850543110181122,-2.608501925886859,-1.0834285152298528,9.366996214511952,-2.4794971943870445,4.668787704476876,0.7407758134044029,165.2312320956646,-15.451350737103835,6.6231330227273375,-0.1268321486718521,-0.07301894616658092,-0.12675921958169784,0.980588040677949
320.0,0.04145989861174756,0.016763518673825518,0.007938118005781265,-2.985513059717623,-1.252609418905249,9.22937713951404,0.7493643060322841,0.09122348933521263,-0.49939535942683067,165.20664427363874,-17.74308968306805,7.748008043621733,-0.1265284685415712,-0.08443491778087109,-0.14519521833520374,0.977105750488168
321.0,0.03607219950256929,0.009137070115827001,0.01311146655599842,-3.090368646302556,-1.1969223333707992,9.21119525740454,0.6536947415291239,0.8278698091837354,-0.3968259251894185,166.14275958764551,-18.38110916096754,7.411277821968223,-0.11848018523852752,-0.08104170067643082,-0.1516744645255877,0.9776140159443198
322.0,0.038188527968229,0.0061040425611629395,0.014356749466112172,-3.2347997077666624,-1.174375145180023,9.169727960735827,-0.14397783897193805,1.5315239687535125,-0.18521950282866884,166.58214355962684,-19.26605972050504,7.301057940878948,-0.11465624305646097,-0.08027150461447678,-0.15967156497459817,0.977022978765614
323.0,0.07209714885167284,0.008659716758457909,0.015147540369412914,-3.320167359784196,-1.1907657450076803,9.140788355625489,0.24621056723240042,-0.37148406766325726,0.23009265763740586,166.7195489584504,-19.788488980367916,7.41912372147915,-0.11338456819321119,-0.08148633498744895,-0.1641384741007643,0.9764362168160241
324.0,0.05655548686823274,0.0147184912517328,0.02490633546888464,-3.2417027275111456,-1.062986559139785,9.182957157843466,0.8265951069648945,-1.8649999063354687,0.33070013066202086,166.508459195047,-19.299385619216217,6.599231599602862,-0.11534119042686675,-0.07460392947836349,-0.1605273566279551,0.9773164559126203
325.0,0.07762451762766476,0.029290697238769633,0.002082199992506837,-2.8598594282717014,-0.8953763440860215,9.318454385373347,0.8608781986437375,-0.3105241467161215,0.17727042823423625,166.373634839459,-16.972953898317783,5.50077507399498,-0.11689037396343332,-0.06363937327143981,-0.1414494534793001,0.9806590048151811
326.0,0.06691798733655539,0.029225731519988023,0.001863849237570716,-2.850074144842831,-0.8006191225506725,9.336262148289688,0.17662929451875162,-0.16379374133603086,0.24681821587801128,166.21300485182272,-16.9014822412049,4.899585768611142,-0.11837424559829156,-0.058891987115844285,-0.14134056503252032,0.9809359154391367
327.0,0.060790022854145594,0.0258417444082275,0.003028698812333746,-2.939161496384549,-0.7947296841632012,9.31001663482073,-0.3276319733243416,1.9195912245700797,-0.1660974204788131,166.1521773491064,-17.453381289573265,4.87750025757746,-0.11878148364015961,-0.05930348233672398,-0.14608404659844143,0.9801970585337005
328.0,0.06620539695028288,0.023176576374058677,0.015239762466749088,-3.0998325184519127,-0.855523772057997,9.252211307182197,-0.2617457663631936,-0.33505096521299327,-0.16315295886253794,166.28441381224008,-18.430983524408976,5.280434825877636,-0.11745733728428123,-0.06331692705349182,-0.15415971472723017,0.9788731749316812
329.0,0.07249881982690795,0.02010556929302012,0.015804597055187136,-3.1178269735116704,-0.8887929920197819,9.245839908583422,-0.21585272189127422,0.5209237781461915,-0.26065194026076205,166.33191144721067,-18.53959890506163,5.485879135289048,-0.1170272784733618,-0.06507586922125436,-0.15492746052989773,0.978745173475441
330.0,0.06800363418380728,0.019562961297815748,0.023946461354014466,-3.1799582256191226,-0.9161294069161889,9.22293301112735,-0.2544221366752838,0.9551803510546627,-0.1344554344160953,166.49368349818292,-18.925715831179048,5.668217985463264,-0.11553874934996818,-0.06669599003727848,-0.15816494109175375,0.9783310035710537
331.0,0.0748889138660972,0.01448578172417669,0.022875688434303702,-3.245013675021543,-0.9515362856393541,9.196646997115138,-0.3622581113483946,0.6498972031771009,-0.06281143456595856,166.60804086583494,-19.325545127571093,5.903209415158667,-0.11447480930632048,-0.06879179499175753,-0.16145597675171403,0.9777842735481997
332.0,0.07672623730845604,0.01733805402570155,0.026722865385335887,-3.3092094713573856,-0.9703117155595521,9.172371211269716,-0.08819920572477613,0.5123520100408377,0.03741429695402945,166.6624704956727,-19.72151193286126,6.0413177662882624,-0.11396557137611929,-0.0701422590551122,-0.1647546185646847,0.9772041695860028
333.0,0.08093889325990035,0.015101345022666818,0.025827994455059757,-3.3265694428833683,-0.968544827844592,9.166403656663297,0.03013187965981043,0.10029012588512984,0.11774334045183771,166.69222186317484,-19.83078097486044,6.034079839646322,-0.11375014610917539,-0.0701067928168671,-0.16570859460286239,0.9770759240922036
334.0,0.08257236521673973,0.022758045783222818,0.027221984938743404,-3.2974713573863843,-0.933000524521374,9.180894608669586,-0.028079221460417365,0.07773242853396278,0.07952259188490501,166.66261918811585,-19.65568426623206,5.799355588025926,-0.11408476340020983,-0.068095283946836,-0.1643554416462853,0.9774092322527069
335.0,0.09250354051927617,0.014802217976096816,0.02499040875201379,-3.258751039676295,-0.9264779888351877,9.195356674534487,-0.06560451088381852,-0.017254177438087746,0.13184078903001012,166.59193267393505,-19.41137227904537,5.745491926117418,-0.11474720731224007,-0.06757686050721218,-0.1622910188146941,0.9777124368629124
336.0,0.08812468622382078,0.029269716383799795,0.02511959087332809,-3.238280206811285,-0.9188953954516502,9.204234573451723,-0.058262616612341236,0.21020545314900152,0.10654504327301337,166.48762738376234,-19.28038594470046,5.692015567045072,-0.11560179785594393,-0.06718090848915365,-0.16116810778367235,0.9778230465132063
337.0,0.10818376981004832,0.04109789816792177,0.01994468172792327,-2.7349147090779673,-0.9669695215615749,9.339170975235097,-0.3157927765913604,-3.8412965746880974,0.08058978213630062,165.8761780656401,-16.222281738226368,5.90211752088719,-0.12126736635144805,-0.06688818802637593,-0.13424432051035926,0.9806406171161438
338.0,-0.047404274849200116,0.09478934846952156,0.09885943763815513,-2.4156278614514264,-1.5548803060956875,9.252788252594506,-9.237547885991532,3.9798749461428935,-23.44821317344798,171.30239874864185,-14.26801010874452,9.63706106459106,-0.07553509285237534,-0.09115373876894833,-0.12488464576362818,0.9779784138023115
339.0,0.026943023865722546,0.23555596455734146,-0.03283237795511598,-1.4527131242740998,-3.1438554756284898,8.59328525532951,-2.864136846221572,20.515869932748867,-14.891520901240117,193.17498969690158,-8.735542352759357,20.327099080682625,0.10561129594074783,-0.15762410179576447,-0.11355936451891085,0.9431028038447042
340.0,0.23969053238919483,0.2916342962047132,0.046029523060207536,-2.359015885504477,-3.9086151886403666,8.246288674084896,0.22348638117717567,1.2377503184594048,-3.443125960061443,204.78359044247125,-14.171919607732944,25.487897371773254,0.20167025605987038,-0.170398229791765,-0.17858839467045073,0.9241773196300626
341.0,0.029117492787831073,0.3177172267805627,0.20023348694316434,-2.4632097523509797,-2.448151024689971,8.77670452587014,5.718598029298265,-10.42353731126597,19.439235603761567,190.38230466262036,-14.664342966730358,15.810136726799293,0.08295871871836949,-0.11155069491161816,-0.1574920044044622,0.9530365121163689
342.0,0.16156372934697094,0.20031884343036976,0.12794335169158141,-2.47353127458694,-1.3863509047993707,9.126973052714398,1.7399341070023604,-3.8219696597167587,10.64553501180173,179.19835513375295,-14.66869467938631,8.888295387490164,-0.010161781285601884,-0.07090710640283242,-0.14149542914024393,0.9696505650169158
343.0,0.17655605822187254,0.11241345397324941,0.07395554681353264,-2.376906766325728,-0.8482399685287176,9.328547010228167,0.7471847954366642,-6.376635031471283,6.170398554287962,173.1819900668765,-14.063354396144767,5.365241443745082,-0.06041575769925256,-0.04996360322560976,-0.12786591478383164,0.9784283788874903
344.0,0.14518961447678994,0.08518174665617623,0.013601888276947274,-1.859941778127459,-0.6090401258851299,9.539858379228953,0.6366640440597954,-2.6752458693941783,3.4288552321007075,168.9895357985838,-10.95766129032258,3.725462234461054,-0.09579154202832416,-0.03889912150275374,-0.09534829489535798,0.9856144117608184
345.0,0.12274017459068598,0.053744071035180405,-0.011137499531677359,-1.6635638604773144,-0.430358735154172,9.63454891161815,0.04314797122625605,-0.0188427278858041,1.6499313907309578,167.17947552545803,-9.777229450001872,2.5599300794275224,-0.11093638009343973,-0.03140838112060245,-0.08271135707264622,0.9892764042660072
346.0,0.12142890862088343,0.03290721591547713,-0.02021319920572478,-1.7362797010228168,-0.4279806863736841,9.63064843954891,-0.51843130643288,1.532055632048256,0.21587812839533924,166.8567811949721,-10.208182884680228,2.5415127055936457,-0.11367866432494098,-0.032176844353152746,-0.08611402237169834,0.9891065897254505
347.0,0.11408974935371473,0.0265873609081713,-0.018411084260612193,-1.854402635719905,-0.4616890056573378,9.609002425911353,-0.18540566108426063,0.7083468561500131,0.030195161758645228,166.80875055027911,-10.906633731875912,2.740489830373534,-0.11406747459362707,-0.03460913469034506,-0.09193985646122288,0.9885151355393579
348.0,0.10966505563673147,0.025300663144880303,-0.017787269116930807,-1.9183477576711248,-0.46776966018508115,9.598006818777861,-0.1665472443894946,0.8467414109624967,-0.03251564197669627,166.8136427072796,-11.281555580532764,2.788023116406279,-0.11395415629425648,-0.03535680808474766,-0.09517996432168147,0.9882386328361622
349.0,0.11305046644936495,0.010301787119253687,-0.012740998838559815,-2.021140833988985,-0.4718864036566634,9.578200891686336,-0.2482028118092241,0.7417223970626803,0.021729000412123934,166.85327099958786,-11.897022872878498,2.8206195440410626,-0.11365033462627849,-0.036245529435764874,-0.1004503414684725,0.9877422232473492
350.0,0.12514097232429255,-0.0011905338301876432,-0.00851808301847641,-2.1144703342815063,-0.47745625866396935,9.55787629365127,-0.17915169835409805,0.6949520941948164,0.008968378854295455,166.8634874583193,-12.45029862774257,2.8573383818515605,-0.11350926030025962,-0.03715749579669608,-0.10520433810189544,0.9872365482935908
351.0,0.13672563209148575,-0.008694345256107648,-0.004343526916304258,-2.2157451517797693,-0.4835015548312165,9.534675474014572,-0.12502611799425334,0.720987951859313,-0.02326158630249897,166.8724359334607,-13.055818476697706,2.8984512569780074,-0.11326849672079033,-0.037950963808486296,-0.11039414136277567,0.9866673684363496
352.0,0.13442025113622283,-0.009221287498234783,-0.0024557917823063383,-2.2657388229394524,-0.4867389756846876,9.521274794442373,-0.1096855609640818,0.3699304432782009,0.014087145479749728,166.89190738451163,-13.356946413801252,2.9296593421003334,-0.11308635023844398,-0.038424038248853674,-0.1129365918898851,0.9863909896210072
353.0,0.1370881743485992,-0.00990332667594666,-0.00019799817282114694,-2.2897812918788527,-0.4972003296991495,9.514429686756984,-0.22471886230737528,0.33826970629685027,-0.06899891349143905,166.91307603686636,-13.502474977160265,2.9944175939455246,-0.11291613784384828,-0.039087755339218336,-0.11415177614950586,0.9862510760669944
354.0,0.12473212808696679,-0.014331679073614559,-0.0007276379534444049,-2.3070393477490247,-0.514457757296467,9.510074796171565,-0.16074161053999764,0.3371521623537752,-0.05769969278033794,166.93919930875575,-13.60748257119225,3.0962941628264207,-0.11264535291326949,-0.04003878585371616,-0.11497302013612191,0.9861465015323168
355.0,0.1254562211981567,-0.014854838709677423,0.0003640552995391705,-2.3378678955453136,-0.5231643625192012,9.502169738863287,-0.13004512288786482,0.4098550307219662,0.06550499231950845,166.939357718894,-13.793634792626728,3.151776113671275,-0.11262331662288783,-0.04068887529493087,-0.11651983940552993,0.9859415778678956
356.0,0.11788434303697874,-0.015745672698662474,-0.002827694728560189,-2.3599417781274576,-0.5324193548387093,9.495685483870972,-0.13908954563335957,0.34865632376081823,0.029634638080251772,166.93936491935483,-13.927333300550746,3.206048387096774,-0.11255635442230524,-0.04120727688316286,-0.1176210776447679,0.985795330581039
357.0,0.11824055861526359,-0.02218332022029898,-0.004365460267505901,-2.3835595987411478,-0.5374032258064513,9.489806451612907,-0.13826957120377656,0.3925993312352478,-0.0585193745082612,166.95181451612905,-14.062104150275374,3.235131048387097,-0.11240763232002358,-0.04161445004642014,-0.11879965549980331,0.9856531852905197
358.0,0.1038375295043273,-0.013204366640440598,5.9008654602673866e-05,-2.419642210857592,-0.5612718332022025,9.479383949645953,-0.14871410306845004,0.4515833988985051,0.10376548977183321,166.88574940991344,-14.28082095790716,3.385026553894571,-0.11298937765224229,-0.04311297293076318,-0.12051758720948072,0.9853155618444138
359.0,0.11806123787044323,0.004997855082237457,-0.003264274474541978,-2.2388669963658154,-0.5898755479375067,9.510953495560305,-0.3945063410887565,-4.791323795942453,-0.051123447510396755,166.79063776179237,-13.188738771964331,3.5443277930763175,-0.11389341399278782,-0.04354955609134166,-0.11089573641099996,0.9860155681240119
360.0,0.10016889588250721,0.018228766250796155,-0.01008660222546926,-1.753673073320595,-0.6349612790828368,9.603106271777007,-0.22868511389606982,-0.9157451247611554,0.1587438181409464,166.49506809411412,-10.315943810647784,3.772529012588513,-0.11673351842774717,-0.04307978186864486,-0.08572481829952044,0.9880509731969389
361.0,0.08441568318908997,0.027575437413360313,-0.018110177587951,-1.6412960173841369,-0.6345774137349669,9.631198297178825,0.48479198278445923,0.27029915280431605,-0.43260193042598627,166.53160662770222,-9.640298813270391,3.75965160306845,-0.11650282708248097,-0.04235443009875989,-0.079937184782333,0.9888060485465419
362.0,0.0951744033569368,0.027457270240905177,-0.022809711138586042,-1.4593875838297552,-0.5558053276385299,9.668567382263682,0.2917954553969503,-0.31935905361357764,-0.379257052939193,167.07876063092428,-8.558425124573827,3.281304091266719,-0.1118509510500918,-0.036928202807837845,-0.07118456546109175,0.9903144616750215
363.0,0.08841725675321269,0.024625566670413254,-0.028344273350567616,-1.4226874976583868,-0.5205265819939304,9.679555130943015,-0.01745789779326365,0.15712318759132288,-0.0874943801281331,167.3648130455959,-8.338491673223183,3.073259244689221,-0.10939318420718594,-0.034759694771346134,-0.06958286154250497,0.9908849145039151
364.0,0.09420141620771046,0.020771439811172306,-0.02464280094413848,-1.4238874901652239,-0.5077675059008654,9.681760818253347,0.008408733280881195,0.6757695712037766,0.08616492918961448,167.50189565302912,-8.345493214004719,2.997216758457907,-0.10822753541266719,-0.03401113705428796,-0.06978230828520848,0.9910700399386307
365.0,0.09623131392604249,0.021231510621557828,-0.026408733280881197,-1.4510271439811167,-0.4635415027537372,9.680231313926047,0.24205841856805665,0.29060410110149487,-0.012336496852871755,167.59550919551535,-8.506538896538157,2.7381835169158144,-0.10740785509815105,-0.03185257432572777,-0.07145755155409125,0.9911216170346182
366.0,0.1124858566558016,0.029955041025064633,-0.02766250796148515,-1.515908733280881,-0.447702971038927,9.671441309804806,-0.12189033756697014,0.4449744295830055,0.005994529991382867,167.5733510359297,-8.890295417931137,2.6476199842643586,-0.10757628632422914,-0.03141913534412348,-0.07485699281218386,0.9908648303829007
367.0,0.10500768049155149,0.030929526806788815,-0.022588138323779556,-1.535019669551534,-0.4427185193510921,9.670000749316252,-0.010492769098197886,0.2529996066089693,0.0026530478438424937,167.56566351953842,-9.000960061443932,2.6166896144767895,-0.1076714532958675,-0.03125686870668015,-0.07584772571765762,0.9907922309939681
368.0,0.11110336817653889,0.041310554119366086,-0.046266531789741855,-1.5510385523210068,-0.43919560900678134,9.667514143344201,-0.0055660147615301,0.33428402832415416,-0.006713405267693229,167.5701547338054,-9.098041006331723,2.5977576711250983,-0.10761110912629722,-0.031184331619272417,-0.07670707022704282,0.99073811558353
369.0,0.09521336780188078,-0.007314825221984938,0.031579558652729364,-2.6801416207710465,-0.6525285676819901,9.1665737514518,-5.143838278820576,16.587677025963806,-0.16073770184706454,166.82992394440072,-16.360463264770896,4.404012588512982,-0.112205322309018,-0.05181470570342064,-0.13675286798920985,0.9768539881143457
370.0,0.18450282866883969,0.12980442845903117,-0.0542574275973174,-3.1105586152635722,-0.8407882806938667,9.031170431980819,4.53948428309168,-4.891030684500395,-1.975751423700873,168.30663191712563,-18.915848272826047,5.655364870180959,-0.09932506014742797,-0.06165232056610842,-0.15855662209059238,0.974779009407291
