time,linaccel_x,linaccel_y,linaccel_z,gravity_x,gravity_y,gravity_z,gyro_x,gyro_y,gyro_z,euler_x,euler_y,euler_z,quaternion_w,quaternion_y,quaternion_x,quaternion_z
0.0,0.002461538461538461,-0.1915384615384615,0.059846153846153854,-0.8100000000000006,-9.740000000000006,-0.7100000000000006,-0.004807692307692308,0.035576923076923075,-0.0019230769230769232,14.3125,-4.75,94.125,0.6756591799999992,0.15173340000000002,-0.7164306600000002,-0.08483886999999989
1.0,0.0007195027195027196,-0.1937451437451437,0.0655042735042735,-0.8100000000000005,-9.740000000000006,-0.7100000000000006,0.015442890442890442,0.07562160062160062,-0.012004662004662003,14.3125,-4.75,94.125,0.67565548060606,0.1517401816161616,-0.7164306600000002,-0.08484626818181809
2.0,0.00047642553524906474,-0.19328573387396913,0.07546821805645336,-0.8100000000000007,-9.740000000000006,-0.7100000000000005,-0.028570694011870484,-0.05740166696049048,-0.025628048422166066,14.3125,-4.75,94.125,0.6756227145454535,0.15180606069264063,-0.7164306600000001,-0.08491179493506495
3.0,0.0001402806343982813,-0.19325641939759586,0.07755696329813977,-0.8100000000000007,-9.740000000000006,-0.7100000000000006,-0.028204785410667767,-0.02730026509438274,-0.026318730289318526,14.3125,-4.75,94.125,0.6756096081212111,0.15183241232323225,-0.7164306600000003,-0.08493800563636372
4.0,0.0006750883525077074,-0.1934732200121194,0.06705317958448888,-0.8100000000000006,-9.740000000000006,-0.7100000000000006,0.00627662186011332,-0.020325555216447057,-0.011311719589708204,14.3125,-4.75,94.125,0.675603689090908,0.15184431305962842,-0.7164306600000001,-0.08494984272727282
5.0,0.010999929229530744,-0.1946719479129346,0.05943039945506738,-0.8114421252371921,-9.740000000000006,-0.7085578747628092,-0.01765701092076804,0.07322924545410314,-0.04025482344979499,14.293050284629981,-4.757590132827325,94.125,0.6756411614524747,0.15180368059053528,-0.7164162991650855,-0.08485173541486984
6.0,0.008046706453874316,-0.1934208802662714,0.0398806548237021,-0.8180631798380417,-9.740000000000006,-0.6988836625063481,0.01711076284740996,-0.10849912550033818,0.10054733322574477,14.388190862442205,-4.794685570729882,94.080474784189,0.6759155866066222,0.15274493785952908,-0.7158857287420157,-0.08547427512307243
7.0,0.012519558160523499,-0.1898413699244071,0.021107310334052186,-0.8295154608867634,-9.740000000000006,-0.6863773151241422,0.05271750191706361,0.030828117515485552,0.0778916694591722,14.2587894539915,-4.848244113638186,94.02066908089905,0.67646983066574,0.15257121356923325,-0.7154795150541194,-0.08478074752358558
8.0,0.017633228211775404,-0.18962664029719112,0.007902290402758102,-0.8352416014111244,-9.740000000000006,-0.677543496271749,0.04999398669054173,0.01946182550712243,0.056013142421893786,14.221128597963492,-4.86363818585135,93.97606034690114,0.6768530408167408,0.1524338527523585,-0.7151675417206077,-0.08452431989082505
9.0,0.01990223310422018,-0.18991042497292993,0.0001350190441713017,-0.8381046716733048,-9.740000000000006,-0.6731265868455525,0.02144181394213131,0.004576935840215232,0.03138340764933456,14.202298169949488,-4.871335221957933,93.95375597990218,0.6770446458922411,0.1523651723439211,-0.7150115550538518,-0.08439610607444481
10.0,0.020478496257001197,-0.1907871179496613,-0.004161653014378141,-0.8394911403907328,-9.740000000000006,-0.6709631985461164,0.012817574959397242,0.007849417323942332,0.018218281680171543,14.1934907595478,-4.874946548360371,93.94260379640271,0.6771391599480179,0.1523323377587726,-0.7149340104965649,-0.08433529994187138
11.0,0.021832195390234784,-0.1897219761278729,-0.006800184840813647,-0.8400000000000013,-9.740000000000006,-0.6701612903225815,0.0070741319035619,0.008411305663334184,0.013783371085079307,14.185810009487666,-4.875711574952561,93.93841911764706,0.6771784294924095,0.15228586616698275,-0.7149115941555969,-0.08428390398956359
12.0,0.021050057875241446,-0.18945570895662667,-0.0038635365847841776,-0.8400000000000013,-9.740000000000006,-0.670000000000001,-0.006478307253350886,-0.0027069792168191303,-0.012248928394416927,14.1875,-4.875,93.9375,0.6771850599999996,0.15228270999999985,-0.7149047899999992,-0.08428955000000003
13.0,0.020651075773849017,-0.1875120899001495,-0.008638305203062068,-0.8400000000000013,-9.740000000000006,-0.670000000000001,0.0397087565780392,0.021349286446181007,-0.021532584932320124,14.1875,-4.875,93.9375,0.6771850599999996,0.15228270999999985,-0.7149047899999992,-0.08428955000000002
14.0,0.02173038035628311,-0.1874012814340209,-0.009945853857264549,-0.8400000000000012,-9.740000000000006,-0.670000000000001,0.014983241361431058,0.003894763156920115,0.00500768490055924,14.1875,-4.875,93.9375,0.6771932982928035,0.15228270999999985,-0.7149047899999992,-0.08429778964267992
15.0,0.019461723639865196,-0.18797844524276874,-0.009951261064405026,-0.8400000000000013,-9.740000000000006,-0.670000000000001,0.019964538350431466,0.00024721306618273424,-0.01920715899411133,14.1875,-4.875,93.9375,0.6771891791464015,0.15228270999999985,-0.7149047899999992,-0.08429366982133997
16.0,0.021991407725639803,-0.18892966927150842,-0.012223769490018892,-0.8400000000000013,-9.740000000000006,-0.670000000000001,0.02135013518017851,0.007071497351949928,5.8331172919520724e-05,14.1875,-4.875,93.9375,0.6771871195732005,0.15228270999999985,-0.7149047899999992,-0.08429160991067
17.0,0.02445983482093257,-0.1911740305914596,-0.01195444613162476,-0.8400000000000013,-9.740000000000006,-0.670000000000001,-0.020349246324210216,0.004152623976889745,0.007822858412651384,14.1875,-4.875,93.9375,0.6771860897866,0.15228270999999985,-0.7149047899999992,-0.08429057995533501
18.0,0.026995238111270865,-0.1904218900983465,-0.014290254120778924,-0.8400000000000014,-9.740000000000006,-0.670000000000001,-0.01984828283576478,-0.016721153986440456,0.008775516731703539,14.1875,-4.875,93.9375,0.6771855748932998,0.15228270999999985,-0.7149047899999992,-0.08429006497766753
19.0,0.027206619732378055,-0.18939291361823857,-0.016037825759539777,-0.8400000000000014,-9.740000000000006,-0.670000000000001,0.003427426369169269,-0.012542282384603039,0.0009589291305709211,14.1875,-4.875,93.9375,0.6771850599999996,0.15228270999999985,-0.7149047899999992,-0.08428955000000003
20.0,0.025264359456944933,-0.18910184920199358,-0.0170270977618113,-0.8400000000000014,-9.740000000000006,-0.670000000000001,0.022988388196621225,-0.009596249521622656,0.013674577709243092,14.1875,-4.875,93.9375,0.6771850599999996,0.15228270999999985,-0.7149047899999992,-0.08428955000000003
21.0,0.028044090398447657,-0.1971340511518653,-0.01900858610174932,-0.8396774193548399,-9.740080645161296,-0.6669354838709683,0.15529072015290116,0.056980721393034825,-0.005065626778132796,14.190020161290324,-4.875,93.91885080645162,0.6772854723387092,0.15228517153225796,-0.7148083142741929,-0.084330404516129
22.0,0.031620300058379215,-0.17767668057095312,-0.010593983792922267,-0.8294454264250999,-9.745343018117545,-0.6046939902783914,0.5152119323190819,-1.0108530102745221,-0.013805781843304266,13.947929325011048,-4.832578435704816,93.54814888974812,0.679725650826889,0.149789673757733,-0.7131269596315728,-0.08324581351082633
23.0,0.01919129220974115,-0.20514508102315782,-0.00924688381886555,-0.8289071748209091,-9.746233526323653,-0.6035441782377868,-0.5140562345618942,-1.1486596515720773,0.03066977749353105,12.670622431701343,-4.842885083368083,93.5406436179772,0.680572200847338,0.14196849421416857,-0.7146885060924788,-0.07573023165091522
24.0,0.008946521907359284,-0.19083394707943707,-0.01961459141671131,-0.8191092107757554,-9.744093223493127,-0.659718906904421,-0.27008218124226907,-1.073320522861413,-0.04298672098613453,12.131763918553375,-4.789195375162682,93.87028366600691,0.6788322281917595,0.1383395223163258,-0.7174202525798052,-0.07234000179319952
25.0,0.002594750281235412,-0.1996118593258417,-0.004502903689953051,-0.8244649996531112,-9.744197149380975,-0.6416336470005979,-0.05776115963092432,-0.3071642602537955,0.05159215280067906,11.41859253275339,-4.820448942061628,93.76500294411457,0.6799416418736575,0.13414934153450697,-0.7175971734045983,-0.06817025195394744
26.0,0.010194104531298705,-0.20489161514679183,-0.009873259640675447,-0.8246440141634732,-9.746253760622388,-0.6207871416006574,-0.07057174805022917,1.6872224313650377,0.08440207718438972,11.837017690547842,-4.821290779274541,93.6430528973485,0.6804363321193444,0.13661540432824143,-0.7163835023034973,-0.07075646205112246
27.0,-0.0026503172868461676,-0.20177681998218117,-0.009151436761613955,-0.8316005896855518,-9.742961171075669,-0.6462705458752709,-0.15616553627684931,-1.1600911167869365,-0.03766297533335242,11.719871990345638,-4.862984577035009,93.7929979616145,0.6795629915739978,0.1365744491458837,-0.7172839371555586,-0.06992638801275833
28.0,-0.009972907690299014,-0.19604561784786184,-0.0061643901966482615,-0.8342616003099884,-9.74136927249831,-0.6501406525740321,-0.07920565200544162,-0.47904794696519787,-0.02374999473526822,11.067471354594424,-4.86933304272014,93.80705100261551,0.6797870991264234,0.13269141859854955,-0.7181885418307471,-0.06608917803182217
29.0,-0.009046386211533485,-0.19401624370768822,-0.0033086752441591153,-0.8376103119248293,-9.740654121863805,-0.6490306575860566,-0.04507287633164211,-0.29332993303452626,-0.008583307584008843,10.73254234687001,-4.874346120313863,93.80365900174368,0.6799728965928807,0.1307178399672228,-0.7185800839432985,-0.06414034626908803
30.0,-0.007284499241124112,-0.1921767914722291,-0.0038604835212994603,-0.8389642061416268,-9.740259856630828,-0.6499185545994794,-0.0448966927515263,-0.09216359607661376,0.010489998116070636,10.578944784546117,-4.875037083454423,93.81040364961734,0.6800306701804013,0.1297523062470522,-0.7188397408672584,-0.06319123676581641
31.0,-0.008549589144837066,-0.1900620027742377,-0.003245613217150219,-0.8397195582679466,-9.740000000000006,-0.6507343669054741,-0.038881579920891855,-0.11930775722696768,-0.018080493773505898,10.477924453204958,-4.875844594594595,93.81596011333914,0.6800613344338389,0.12912700094610666,-0.7190103551536111,-0.06257067071041715
32.0,-0.007747936708295383,-0.1889096790537117,-0.005187491900511244,-0.839892473118281,-9.740000000000006,-0.650079476390836,-0.004053065331628377,0.00590264294177387,0.0026141012505032273,10.437850631136044,-4.875,93.8125,0.6801093540303462,0.12885659858770016,-0.7190501549373112,-0.062327816148582585
33.0,-0.00822953972590043,-0.18912098984120274,-0.0060065207857555435,-0.8400000000000014,-9.740000000000006,-0.6499999999999992,0.027650206359954584,-0.003909317480220083,-0.011575590865750598,10.4375,-4.875,93.8125,0.6801130793059635,0.12884852155425208,-0.7190535093059626,-0.06232014162267838
34.0,-0.01192813928922287,-0.1885037989284215,-0.006316253851032521,-0.8400000000000013,-9.740000000000006,-0.6524615384615376,-0.015272009384877206,-0.19283790184109506,-0.0058336165472448005,10.343703473945409,-4.875,93.82738833746899,0.6801321965905707,0.12835668807444164,-0.7191496849727046,-0.061762455379652595
35.0,-0.010020981265564805,-0.18923766796515956,-0.010210409715465087,-0.8400000000000013,-9.740000000000006,-0.6516217760733882,-0.03242882137923062,-0.15504212526359853,-0.027399658598503084,10.198519625535752,-4.90628054740958,93.82043292728775,0.6802800278993908,0.12756901957485517,-0.7192002785860593,-0.060928034840363895
36.0,-0.0072905492838087945,-0.1899536335915729,-0.011077834378749164,-0.8400000000000014,-9.740000000000006,-0.6508108880366936,0.03663260788320971,-0.08534119948419419,0.006033797289213756,10.124461425671102,-4.922898338220919,93.81646646364388,0.6803548960464691,0.12716754833581462,-0.7192222325188358,-0.06048839274276259
37.0,-0.005328354842076557,-0.18969530645890775,-0.010741058973124456,-0.8400000000000014,-9.740000000000006,-0.6504054440183464,0.0125638163794158,-0.053483470870326906,0.012506200668213186,10.087432325738778,-4.931207233626589,93.81448323182192,0.6803923301200083,0.12696681271629434,-0.7192332094852241,-0.06026857169396193
38.0,-0.0033671143493001956,-0.19008838505420111,-0.011656037430712448,-0.8400000000000014,-9.740000000000006,-0.6502027220091728,0.011638191290333805,-0.05164243355745522,0.008103726236850937,10.068917775772615,-4.935361681329423,93.81349161591096,0.6804110471567779,0.1268664449065342,-0.7192386979684182,-0.0601586611695616
39.0,-0.004016063378124044,-0.18926999897871338,-0.01201412293371851,-0.8400000000000013,-9.740000000000006,-0.650024437927663,-0.017963472593046495,-0.0248286609474621,0.008588153441006113,10.062591642228739,-4.937438905180841,93.81253054740958,0.6804198604692073,0.12683152731182784,-0.7192384889296184,-0.060121031989247294
40.0,-0.004224551728162706,-0.18916579127821298,-0.012744598123750756,-0.8400000000000013,-9.740000000000006,-0.6499999999999992,-0.003788676667979749,-0.010153822164835645,-0.007176475576662143,10.0625,-4.9375,93.8125,0.6804199199999992,0.1268310499999999,-0.7192382799999995,-0.060119629999999986
41.0,-0.0048517675551859474,-0.18910391225689727,-0.012831243343400307,-0.8400000000000014,-9.740000000000006,-0.6499999999999992,-0.002551107639952729,-0.017036221932857705,0.006080017343633737,10.0625,-4.9375,93.8125,0.6804199199999992,0.1268310499999999,-0.7192382799999995,-0.060119629999999986
42.0,-0.004990023938507329,-0.18837066430199545,-0.014428103813214558,-0.8400000000000013,-9.740000000000006,-0.6499999999999992,0.05149791598978377,-0.006693255714154246,0.016134038298104558,10.0625,-4.9375,93.8125,0.6804199199999992,0.1268310499999999,-0.7192382799999995,-0.06011962999999998
43.0,-0.0037010784112372934,-0.18994845203544647,-0.014486560332221149,-0.8400000000000013,-9.740000000000006,-0.6499999999999992,0.024590436088295833,-0.02567450460238285,0.01524383667432912,10.0625,-4.9375,93.8125,0.6804199199999992,0.1268310499999999,-0.7192382799999995,-0.060119629999999986
44.0,-0.0024867399224645288,-0.18756215164496343,-0.058014449520949286,-0.8425806451612905,-9.744372759856635,-0.5634050179211465,1.6743573400199543,1.2538973187113533,0.1566737076516807,10.648073476702509,-4.935707885304659,93.30085125448028,0.6833071678853042,0.13004425817204293,-0.7155004782795696,-0.06393531078853046
45.0,0.007610840344590947,-0.1961690104684809,-0.0410561704384526,-0.8594553833263513,-9.746945491784203,-0.5121905692873434,-0.5919491578073666,-1.2746166771894987,-0.10016693405294753,10.790561141367592,-5.034634943909136,93.00242342782664,0.6850665225434063,0.1318619665786901,-0.7133489860773633,-0.06495797542987478
46.0,-0.03516501654007671,-0.1984696998129834,-0.038315131796595445,-0.8330581188645709,-9.751981900207705,-0.4803106290203063,0.2933584307922296,1.804224332272599,-0.028608225289135255,12.067332663098792,-4.874472005520392,92.8163544776448,0.6854085484905348,0.1376609142178542,-0.7110481221755605,-0.07273779242723032
47.0,0.010144096985068903,-0.1985142271796825,-0.0273155930236249,-0.8358220333606987,-9.750091701319054,-0.532844223038655,0.11277723028445227,1.8843899882920492,0.020628456443436714,12.892136835305472,-4.888310350970537,93.1217626343151,0.6829880277583033,0.14338475195426514,-0.711837215970679,-0.07739917993654934
48.0,-0.008605740204281955,-0.19479866126463563,-0.021130870822099284,-0.8246189265345256,-9.750207140982107,-0.5605957747981614,0.162472617358278,1.4590462218783309,0.02290338968352114,14.492342721673946,-4.82762015560016,93.2899329079662,0.6808042255097306,0.15278182924933761,-0.7108840807471601,-0.08675439165850887
49.0,-0.008659745305790376,-0.19529074477373193,-0.01296096327028718,-0.8167449471382309,-9.750128212068116,-0.5770362386535612,0.05718022363515074,0.7290432620470181,-0.003963291717379213,15.323638318722278,-4.785841887835922,93.40591515469995,0.6795452836778044,0.1576946355887452,-0.7104841853870214,-0.0916528982337429
50.0,-0.011383283854115734,-0.19410970968654268,-0.008254112433810499,-0.8123209444530706,-9.750076674111142,-0.5855038755060854,0.07661630625385646,0.4364631253741271,-0.007946597493477543,15.743982963299135,-4.7618332815803,93.465237636001,0.6789059461769835,0.1601434872225252,-0.7102930686863891,-0.0941288587377345
51.0,-0.011866348169169025,-0.19327364103437333,-0.008109736538054517,-0.8111975254087501,-9.74993371630579,-0.5899337163057893,0.030001278606765318,0.14001974470634812,-0.004172959770304465,15.916482545293857,-4.75637980556783,93.49605059655325,0.6786030790322581,0.16121509761954517,-0.7102357952673449,-0.09513969884358393
52.0,-0.013087394146449296,-0.19223005958037703,-0.006775813916398006,-0.8101369863013705,-9.75,-0.5900088378258953,0.000887736077576206,0.048888849374826744,0.011425727361865,15.99690676093681,-4.750718073353955,93.49900574458684,0.6785326308882016,0.16166264144565426,-0.7101465483782596,-0.09562101017742612
53.0,-0.012585933966530986,-0.19310024292029573,-0.010234221123123392,-0.8100000000000007,-9.75,-0.5900000000000005,-0.005759098568739878,0.005426610532382078,0.003868008746589633,16.0,-4.75,93.5,0.6785278299999999,0.16168218965786924,-0.7101440400000008,-0.09564214965786907
54.0,-0.013474362060664425,-0.19523681993259498,-0.012156656234954266,-0.8100000000000007,-9.75,-0.5900000000000005,0.0034718042850264805,0.01786117296581608,-0.0020631469667790085,16.0,-4.75,93.5,0.6785278299999999,0.1616821300000002,-0.7101440400000008,-0.09564209000000007
55.0,-0.013433525610162592,-0.19383592042887288,-0.011489831395133519,-0.8100000000000007,-9.75,-0.5900000000000005,-0.0018433634402429538,0.01300589850838858,0.00925508256638643,16.0,-4.75,93.5,0.6785278299999999,0.1616821300000002,-0.7101440400000008,-0.09564209000000007
56.0,-0.01364983935780157,-0.19256793614125395,-0.012998165577200852,-0.8100000000000007,-9.75,-0.5900000000000005,0.0030955306053479506,-0.0021032134805192403,-0.0035723864972593616,16.0,-4.75,93.5,0.6785278299999999,0.1616821300000002,-0.7101440400000008,-0.09564209000000007
57.0,-0.012901299951853643,-0.19181711788452271,-0.014505092403985046,-0.8100000000000006,-9.75,-0.5900000000000005,0.03278952631384023,0.008078404503536907,-0.013161086626421244,16.0,-4.75,93.5,0.6785278299999999,0.1616821300000002,-0.7101440400000008,-0.09564209000000007
58.0,-0.013442961147342473,-0.1944432316199287,-0.014616605670048141,-0.8100000000000006,-9.75,-0.5900000000000005,0.011108693505178822,0.006573269452422077,-0.018265611374662892,16.0,-4.75,93.5,0.6785278299999999,0.1616821300000002,-0.7101440400000008,-0.09564209000000007
59.0,-0.014386523480578828,-0.19316627581166357,-0.013991443110874423,-0.8100000000000006,-9.75,-0.5900000000000005,-0.0003639389536044769,-0.001494370116746848,-0.015164376958112265,16.0,-4.75,93.5,0.6785278299999999,0.1616821300000002,-0.7101440400000008,-0.09564209000000007
60.0,-0.013912864717956911,-0.19355956470483923,-0.014405150835834237,-0.8100000000000006,-9.75,-0.5900000000000005,0.019583849381758556,0.005161623874629057,-0.011420587982778218,16.0,-4.75,93.5,0.6785278299999999,0.1616821300000002,-0.7101440400000008,-0.09564209000000007
61.0,-0.013223265349451317,-0.1928529356475276,-0.015260817929698392,-0.8100000000000005,-9.75,-0.5900000000000005,0.005746444613261502,0.00627294511307794,-0.01474092893981414,16.0,-4.75,93.5,0.6785278299999999,0.1616821300000002,-0.7101440400000008,-0.09564209000000007
62.0,-0.013964952922123904,-0.1927957134072607,-0.016544375114251074,-0.8100000000000006,-9.75,-0.5900000000000005,-0.023124425928619796,-0.0019728289508126086,-0.019547328289765593,16.0,-4.75,93.5,0.6785278299999999,0.1616821300000002,-0.7101440400000008,-0.09564209000000007
63.0,-0.012309944691755993,-0.19425709424028725,-0.019061532620664158,-0.8100000000000006,-9.75,-0.5900000000000005,-0.03583212987535584,0.0004034926604685736,-0.006474543910278691,16.0,-4.75,93.5,0.6785278299999999,0.1616821300000002,-0.7101440400000008,-0.09564209000000007
64.0,-0.010917780695024106,-0.19346156419794247,-0.02191454240141368,-0.8100000000000006,-9.75,-0.5900000000000005,-0.03623911996614092,-0.030974131278873874,0.008340645502166157,16.0,-4.75,93.49715370018976,0.6785384851802656,0.16166313569259982,-0.7101417241745736,-0.09562448559772303
65.0,-0.00915222490274177,-0.1914331739611413,-0.029488704485164323,-0.8100000000000006,-9.75,-0.5900000000000005,0.01694552509146522,-0.010299733650189626,0.01649954363940175,16.0,-4.75,93.46631878557875,0.6786906698481967,0.16157812445920322,-0.7100483788614804,-0.09557028392789382
66.0,-0.009693376907345022,-0.1929851034103774,-0.034018808968651795,-0.8100000000000006,-9.75,-0.5900000000000005,0.015046565087277086,0.0021873859758676653,-0.00585208734264216,16.0,-4.75,93.45090132827325,0.6787667621821623,0.16153561884250492,-0.7100017062049337,-0.09554318309297923
67.0,-0.0073432190832570365,-0.1916769239615539,-0.03122008731306645,-0.8100000000000006,-9.75,-0.5900000000000005,0.015421410499683742,0.00741113330060199,-0.015343203602216884,16.0,-4.75,93.44319259962049,0.6788048083491451,0.16151436603415575,-0.7099783698766606,-0.09552963267552192
68.0,-0.008659390577796654,-0.19293523617432526,-0.03137495079240811,-0.8100000000000006,-9.75,-0.5900000000000005,0.007496873382784199,0.025653880433292194,-0.01900469075516514,16.0,-4.75,93.43933823529412,0.6788238314326365,0.1615037396299812,-0.709966701712524,-0.09552285746679329
69.0,-0.009411473305834521,-0.1909627184864942,-0.03247236026974905,-0.8100000000000006,-9.75,-0.5900000000000005,-0.026005618577802724,0.01332389212692393,-0.019487405843752664,16.0,-4.75,93.4375,0.6788330099999988,0.16149902000000016,-0.7099609400000002,-0.09552002000000011
70.0,-0.009282632233664552,-0.19233751103560498,-0.036217796977348365,-0.8100000000000007,-9.75,-0.5900000000000005,0.014288565581614097,0.011308571805718424,0.020206664376529,16.0,-4.75,93.4375,0.6788330099999988,0.16149902000000016,-0.7099609400000002,-0.09552002000000011
71.0,-0.007837721861625117,-0.19140960069413154,-0.03509378457033446,-0.8100000000000007,-9.75,-0.5900000000000005,0.008408945547405289,0.03328089316656325,-0.01583987782752616,16.0,-4.75,93.4375,0.6788311006353851,0.16149902000000016,-0.7099609400000002,-0.09552002000000011
72.0,0.0054285696012765505,-0.19034417156174693,-0.03370896891431646,-0.8309986743261162,-9.75,-0.5750110472823684,0.08705766901242791,-1.2822707868782868,0.17321386154632373,15.146266018559434,-4.864449845338047,93.35795956694653,0.6799566332408034,0.15746417450287237,-0.710366149792311,-0.09053493330092802
73.0,0.005683924269328977,-0.19071087020960092,-0.037148027094154386,-0.8411444984533811,-9.75,-0.5618603623508616,0.10095976142243498,-0.6176291617675892,0.22785006659053864,14.351121624080477,-4.912063632346443,93.30095558992488,0.6809476855293202,0.1530334148605444,-0.710954337381924,-0.08585242852902189
74.0,0.005263724291621638,-0.18972471772396265,-0.03884363319079409,-0.8462174105170136,-9.75,-0.5552850198851083,0.05546002033567585,-0.3279527609511995,0.08347998033426789,13.982012424943465,-4.927806009721609,93.27245360141404,0.6814024458291763,0.150965814849627,-0.7112451896587038,-0.08366127458709158
75.0,-0.0018246044315031297,-0.18708444372970898,-0.028404171603269635,-0.8424068743953856,-9.75,-0.5656677932904179,-0.05423876951699858,0.8842602589081268,-0.0010561913056243294,14.495365410379316,-4.911265690126715,93.32402649556317,0.6806622005213886,0.15399109334460426,-0.7109193611153153,-0.08672098389337142
76.0,-0.0018086635177459922,-0.1931544977289359,-0.01896759111961967,-0.8313647275202736,-9.75,-0.5859995201406354,0.031573359365455717,0.29778336073169287,-0.07047847206984723,15.044505045102994,-4.8547060275380804,93.43565010382395,0.679514455491651,0.15676661491977448,-0.711024113119044,-0.08992060478732114
77.0,-0.0039308184552668945,-0.19510735773041415,-0.017644925194646943,-0.8251874455100264,-9.75,-0.5936294551653247,-0.017112461976908723,0.20511690767205032,-0.054572398637529426,15.290867193342482,-4.831034520618355,93.47131875496103,0.6790755858147606,0.15796732444618866,-0.7110153992373829,-0.09139550280461939
78.0,-0.004709716628012955,-0.1935214208006909,-0.024415441724458198,-0.8221098517872714,-9.75,-0.597621179195566,0.05037106977055891,0.11982897091382402,-0.018880720191629986,15.44832733481166,-4.819499115147888,93.48969163554503,0.6788580534908716,0.15866533446929942,-0.7109614653990524,-0.0922463246542073
79.0,-0.004441551862393573,-0.19436151685195835,-0.025993003120293623,-0.8205710549258938,-9.75,-0.5996170412106867,0.05731759133689236,0.0630331850536862,-0.004447290539363383,15.5356556028897,-4.813983428541686,93.49887807583704,0.6787667741647905,0.15901898739594017,-0.7109091181833975,-0.09268511232710372
80.0,-0.004300247462281222,-0.19488611017971796,-0.029450059336285243,-0.8200000000000002,-9.75,-0.6001877708233037,0.03913302610235403,-0.004223171741146974,7.6669933859319e-05,15.557510124897334,-4.811988444872412,93.50141429947038,0.6787513727973036,0.15906896765612194,-0.7108976712843758,-0.09277465346738803
81.0,-0.004892059215011579,-0.1934541287537973,-0.030350932412485432,-0.8200000000000002,-9.75,-0.6000000000000008,0.027360205877368638,0.023074981293605613,0.004657376854267165,15.559297912713472,-4.8125,93.5,0.6787679746774191,0.15905449271347272,-0.7108835832637579,-0.09276724384250487
82.0,-0.00458382192271746,-0.1932845874989379,-0.031023311908927136,-0.8200000000000002,-9.75,-0.6000000000000008,0.019093573876348805,0.0001306179496075293,0.015659577967700542,15.561907020872864,-4.8125,93.5,0.678770956693548,0.15905704087286554,-0.7108780525996214,-0.09277231079222026
83.0,-0.004398532202230445,-0.19270627799419313,-0.030331534052330286,-0.8200000000000002,-9.75,-0.6000000000000008,0.020356976116485022,-0.013694502134390647,0.013783389265605201,15.562499999999998,-4.8125,93.5,0.6787719699999997,0.15905762000000023,-0.7108764600000008,-0.09277344000000014
84.0,-0.004482303124575633,-0.19400954173414445,-0.03262277154718177,-0.8200000000000002,-9.75,-0.6000000000000008,0.040939729504967826,-0.024032555472131782,0.018984650400153527,15.562499999999998,-4.8125,93.5,0.6787719699999997,0.15905762000000023,-0.7108764600000008,-0.09277344000000014
85.0,-0.0047920200486401745,-0.19494025473804,-0.03166870587284648,-0.8200000000000002,-9.75,-0.6000000000000008,0.008311055819481432,0.0054465014202616496,0.004994806589654929,15.562499999999998,-4.8125,93.5,0.6787719699999997,0.15905762000000023,-0.7108764600000008,-0.09277344000000014
86.0,-0.0035237678197830007,-0.19258582025185433,-0.031811440930985535,-0.8200000000000002,-9.75,-0.6000000000000008,-0.011325652525842278,0.00207628393112264,0.01570490704741179,15.562499999999998,-4.8125,93.5,0.6787719699999997,0.15905762000000023,-0.7108764600000008,-0.09277344000000014
87.0,-0.003144017904928721,-0.19204725255768892,-0.032176191929512626,-0.8200000000000002,-9.75,-0.6000000000000008,-0.012858856039596077,-0.014749699225505678,0.010473421265641379,15.562499999999998,-4.8125,93.5,0.6787719699999997,0.15905762000000023,-0.7108764600000008,-0.09277344000000014
88.0,-0.003091672085030719,-0.1934509516416536,-0.03172821928229899,-0.8200000000000002,-9.75,-0.6000000000000008,0.002602736052688615,-0.008947571245958342,7.53733142253056e-05,15.562499999999998,-4.8125,93.5,0.6787719699999997,0.15905762000000023,-0.7108764600000008,-0.09277344000000014
89.0,-0.003583959209670785,-0.1941423868667701,-0.03289978901553855,-0.8200000000000002,-9.75,-0.6000000000000008,0.0335441588376835,-0.011270584254455221,-0.008653051368302791,15.562499999999998,-4.8125,93.5,0.6787719699999997,0.15905762000000023,-0.7108764600000008,-0.09277344000000014
90.0,-0.004056134804474464,-0.19440114305365724,-0.033548924510025085,-0.8200000000000002,-9.75,-0.6000000000000008,0.02398690760141187,-0.014486991503120534,-0.00027687909418222523,15.562499999999998,-4.8125,93.5,0.6787719699999997,0.15905762000000023,-0.7108764600000008,-0.09277344000000014
91.0,-0.004101553688247236,-0.1953238824347695,-0.03471527934431161,-0.8200000000000002,-9.75,-0.6000000000000008,0.005625217356568163,0.01132932927287766,-0.0029973177024588313,15.562499999999998,-4.8125,93.5,0.6787719699999997,0.15905762000000023,-0.7108764600000008,-0.09277344000000014
92.0,-0.004162371090633008,-0.19317597889191526,-0.03447427424124584,-0.8200000000000002,-9.75,-0.6000000000000008,0.013143859430571034,0.005687233245008884,-0.003519019497594365,15.562499999999998,-4.8125,93.5,0.6787719699999997,0.15905762000000023,-0.7108764600000008,-0.09277344000000014
93.0,-0.0038863964634306475,-0.19409171153032484,-0.03383018922980406,-0.8200000000000002,-9.75,-0.6000000000000008,0.015853877606104377,-0.011207251863847915,-0.011181035803387753,15.562499999999998,-4.8125,93.5,0.6787719699999997,0.15905762000000023,-0.7108764600000008,-0.09277344000000014
94.0,-0.0035976459345501235,-0.19486110503202453,-0.03380414642330869,-0.8200000000000002,-9.75,-0.6000000000000008,-0.005330636954523569,0.015153338877460206,-0.010707209006288207,15.562499999999998,-4.8125,93.5,0.6787719699999997,0.15905762000000023,-0.7108764600000008,-0.09277344000000014
95.0,-0.0032895365547628425,-0.19313680862549415,-0.032930909966297564,-0.8200000000000002,-9.75,-0.6000000000000008,0.036221533917655126,0.01907776914547497,-0.007430828354561503,15.562499999999998,-4.8125,93.5,0.6787719699999997,0.15905905178885654,-0.7108750282111445,-0.09277534905180852
96.0,-0.005310795798247654,-0.19210588833410208,-0.02795819879847325,-0.8200000000000002,-9.75,-0.6000000000000008,0.017332042994619726,0.0020105929718652396,-0.009594380640924634,15.562499999999998,-4.8125,93.5,0.6787719699999997,0.15908983524926695,-0.710844244750733,-0.09280589388074294
97.0,-0.003761013516053839,-0.1911924956763666,-0.029771909542070846,-0.8200000000000002,-9.75,-0.6000000000000008,-0.008756488387284756,0.00932923763064892,-0.015489695536318519,15.562499999999998,-4.8125,93.5,0.6787719699999997,0.15910522697947216,-0.7108288530205273,-0.09282116629521014
98.0,-0.003151966313256636,-0.19121941499360845,-0.030539363861944523,-0.8200000000000002,-9.75,-0.6000000000000008,-0.011520133092713738,-0.0017369727047146398,-0.012333164147680275,15.562499999999998,-4.8125,93.5,0.6787719699999997,0.15911292284457476,-0.7108211571554244,-0.09282880250244374
99.0,-0.003189713512294157,-0.19234558989397688,-0.031240845176329066,-0.8200000000000002,-9.75,-0.6000000000000008,0.014969170614331903,-0.008954150688021656,-0.010961350477479509,15.562499999999998,-4.8125,93.5,0.6787719699999997,0.15911677077712605,-0.7108173092228731,-0.09283262060606055
100.0,-0.003625903866635691,-0.19168759630675844,-0.033821645214038104,-0.8200000000000002,-9.75,-0.6000000000000008,0.030335871398702405,-0.008680079750132711,-0.018419098955930926,15.562499999999998,-4.8125,93.5,0.6787719699999997,0.15911864999999994,-0.710815429999999,-0.09283446999999993
101.0,-0.00407846061818137,-0.19257084529978113,-0.0337644206219074,-0.8200000000000002,-9.75,-0.6000000000000008,0.01420639723781274,0.010765419182005605,-0.02043783731915653,15.562499999999998,-4.8125,93.5,0.6787719699999997,0.15911864999999994,-0.7108154299999991,-0.09283446999999993
102.0,-0.003373541159530567,-0.19103859958048683,-0.031613393106652635,-0.8200000000000002,-9.75,-0.6000000000000008,0.015198262157518298,-0.009997911132359857,-0.0043385423154922425,15.562499999999998,-4.8125,93.5,0.6787719699999997,0.15911864999999994,-0.7108154299999991,-0.09283446999999995
103.0,-0.0038021832524721307,-0.19219205770156655,-0.030630634050590737,-0.8200000000000002,-9.75,-0.6000000000000008,0.011664672141772527,0.0005109764453168396,-0.00923848885226473,15.562499999999998,-4.8125,93.5,0.6787719699999997,0.15911864999999994,-0.7108154299999991,-0.09283446999999993
104.0,-0.0034912111840975585,-0.19072615141638966,-0.03239449591092587,-0.8200000000000002,-9.75,-0.6000000000000008,0.011550341184052668,0.010752048114379601,-0.009351743110243952,15.562499999999998,-4.8125,93.5,0.6787719699999997,0.15911864999999994,-0.710815429999999,-0.09283446999999992
105.0,-0.003479239475417858,-0.1897988149007948,-0.03320757753921574,-0.8200000000000002,-9.75,-0.6000000000000008,0.019685640237931703,0.0006088044368165934,-0.0003595681746635642,15.562499999999998,-4.8125,93.5,0.6787719699999997,0.15911864999999994,-0.710815429999999,-0.09283446999999992
106.0,-0.003620212263462745,-0.1923472606724442,-0.03272221872674751,-0.8200000000000002,-9.75,-0.6000000000000008,0.019160250000911865,0.004726727205249413,0.003598225537452036,15.562499999999998,-4.8125,93.5,0.6787719699999997,0.15911864999999994,-0.710815429999999,-0.09283446999999992
107.0,-0.002815650486570082,-0.19214893275557696,-0.033304153718212465,-0.8200000000000002,-9.75,-0.6000000000000008,0.007831763105294641,0.006364119651011803,-0.0064386644490159175,15.562499999999998,-4.8125,93.5,0.6787719699999997,0.15911864999999994,-0.7108154299999991,-0.09283446999999993
108.0,-0.002748044965786901,-0.19195992179863142,-0.035019550342131,-0.8200000000000002,-9.75,-0.6000000000000008,0.0052617913000977505,-0.01653378543499511,-0.004948680351906158,15.562499999999998,-4.8125,93.5,0.6787719699999997,0.15911864999999994,-0.710815429999999,-0.09283446999999993
109.0,-0.003633728352373032,-0.1926844881166017,-0.03537109175529976,-0.8200000000000002,-9.75,-0.6000000000000008,-0.0028637626566580593,-0.018216913507973328,-0.007136239622999372,15.562499999999998,-4.8125,93.5,0.6787719699999997,0.15911864999999994,-0.710815429999999,-0.09283446999999992
110.0,-0.003615495652237347,-0.19321418931734285,-0.03415182153747393,-0.8200000000000002,-9.75,-0.6000000000000008,-0.020035253762346623,0.004149119003589092,0.011430658292117129,15.562499999999998,-4.8125,93.5,0.6787719699999997,0.15911864999999994,-0.7108154299999991,-0.09283446999999993
111.0,-0.0022158612181030334,-0.19301471929210245,-0.036262127777534625,-0.8200000000000002,-9.75,-0.6000000000000008,-0.006886517399257377,0.013652027732488583,-0.00221172363986519,15.562499999999998,-4.8125,93.5,0.6787719699999997,0.15911864999999994,-0.710815429999999,-0.09283446999999993
112.0,-0.0028737999883281544,-0.19296294371252237,-0.035025614230898304,-0.8200000000000002,-9.75,-0.6000000000000008,2.5304197487635485e-05,0.006226998256517997,-0.004275155563823112,15.562499999999998,-4.8125,93.5,0.6787719699999997,0.15911864999999994,-0.710815429999999,-0.09283446999999992
113.0,-0.002956939094848339,-0.19246876413387604,-0.0363959938212165,-0.8200000000000002,-9.75,-0.6000000000000008,-0.00980834008111933,-0.002140655319443836,-0.013317929688069914,15.562499999999998,-4.8125,93.5,0.6787719699999997,0.15911864999999994,-0.710815429999999,-0.09283446999999992
114.0,-0.002869899494463168,-0.1938776175026626,-0.03649602290964532,-0.8200000000000002,-9.75,-0.6000000000000008,0.00633499702732671,0.009822787410090312,-0.015174853144468276,15.562499999999998,-4.8125,93.5,0.6787719699999997,0.15911864999999994,-0.710815429999999,-0.09283446999999992
115.0,-0.0033931150698122297,-0.19284858697713775,-0.03690980580966137,-0.8200000000000002,-9.75,-0.6000000000000008,-0.04717272326053019,-0.016163455085277424,0.03125455931486264,15.562499999999998,-4.8125,93.5,0.6787719699999997,0.15911864999999994,-0.7108159221774184,-0.09283446999999993
116.0,-0.00590476867860113,-0.18997023679257663,-0.04685177485008972,-0.8200000000000002,-9.75,-0.5920234604105571,-0.011474313731926873,-0.029953672801680743,-0.00563371741001736,15.562499999999998,-4.8125,93.4692082111437,0.6789714827272721,0.15909430958944293,-0.7106486183369989,-0.09288745095796677
117.0,-0.007364159772982594,-0.1897075837819699,-0.04961178345807618,-0.8200000000000002,-9.75,-0.5888475511008009,-0.06024946519236661,-0.05155280005762973,-0.00800604291591894,15.553352190659604,-4.8125,93.4619753140456,0.6790282959543923,0.15906557610671002,-0.7106078961376854,-0.0928858800360368
118.0,-0.005459506760692364,-0.1896632136520196,-0.041825178893486546,-0.8200000000000002,-9.75,-0.5944237755504008,-0.08043960589492757,0.010138894354221453,-0.030450733691962027,15.525668030813673,-4.8125,93.48098765702281,0.6788274369970471,0.1590291091823873,-0.710816832776039,-0.09279717114705063
119.0,-0.0035948302729231457,-0.18997505467216796,-0.03595847010040099,-0.8200000000000002,-9.75,-0.5972118877752008,-0.07567021927191364,0.0042640576163755035,0.008290238240540834,15.511825950890707,-4.8125,93.4904938285114,0.6787052002727167,0.15901087572022596,-0.7109421391299555,-0.09275281670255753
120.0,-0.0024382234209190503,-0.19050469498026773,-0.03489654321246834,-0.8200000000000002,-9.75,-0.5986059438876008,-0.038688050587814105,-0.02752521016419739,0.010736677343633075,15.504904910929225,-4.8125,93.49524691425569,0.6786440819105515,0.1590017589891453,-0.7110047769263694,-0.09273063948031099
121.0,-0.0008489335015716391,-0.19077276255893602,-0.036075123249214844,-0.8200000000000002,-9.75,-0.5995522388059709,-0.013770532926059845,-0.013586839986978762,0.009514327091998506,15.501444390948484,-4.8125,93.49858570052962,0.6786072879567417,0.15899796126143487,-0.7110413317598616,-0.09271789521425125
122.0,-0.0009679542468916282,-0.19115261651694282,-0.03731607418514439,-0.8200000000000002,-9.75,-0.6000000000000008,-0.0023387981405059203,-0.01039377684301783,0.01773101582162303,15.5,-4.8125,93.5,0.6785902329528528,0.1589965800000001,-0.7110582676228298,-0.09271239999999993
123.0,-0.0005063096296492881,-0.1914547201691414,-0.03922875669554986,-0.8200000000000002,-9.75,-0.6000000000000008,0.02274499298930039,-0.0033358462378860858,-0.006177916406806351,15.5,-4.8125,93.5,0.6785888699999993,0.1589965800000001,-0.7110595700000009,-0.09271239999999993
124.0,-0.000763931104155976,-0.19187575709383176,-0.038076172791117996,-0.8200000000000002,-9.75,-0.6000000000000008,-0.02652904772920208,0.007976174349124588,-0.01392609427352694,15.5,-4.8125,93.5,0.6785888699999993,0.1589965800000001,-0.711059570000001,-0.09271239999999993
125.0,0.00010223368633405748,-0.19084373781363206,-0.03905880392229481,-0.8200000000000002,-9.75,-0.6000000000000008,-0.00981790979419063,0.015045793510915718,-0.01009620831036759,15.5,-4.8125,93.5,0.6785888699999993,0.1589965800000001,-0.711059570000001,-0.09271239999999993
126.0,-0.0012267987895873138,-0.19318613689689046,-0.04210508434328139,-0.8200000000000002,-9.75,-0.6000000000000008,-0.0021173916216610713,0.013493740427914434,-0.00962316618992325,15.5,-4.8125,93.5,0.6785888699999993,0.1589965800000001,-0.7110595700000009,-0.09271239999999993
127.0,-0.0031726973075071295,-0.19255606655091198,-0.04456060668776972,-0.8200000000000002,-9.75,-0.6000000000000008,0.04297000437892279,-0.021567883106725895,0.002378288821546913,15.5,-4.8125,93.5,0.6785888699999993,0.1589965800000001,-0.711059570000001,-0.09271239999999993
128.0,-0.0017426761971778822,-0.19275942285361974,-0.04393290880294193,-0.8200000000000002,-9.75,-0.6000000000000008,-0.017922566048752,-0.0029365470124200176,0.023025372698614644,15.5,-4.8125,93.5,0.6785888699999993,0.1589965800000001,-0.7110595700000009,-0.09271239999999993
129.0,-0.001401896450524279,-0.1916564071271935,-0.04350524140487039,-0.8200000000000002,-9.75,-0.6000000000000008,-0.01849526633363615,-0.012521876459187058,0.0030309929103437827,15.5,-4.8125,93.5,0.6785888699999993,0.1589965800000001,-0.711059570000001,-0.09271239999999993
130.0,-0.0011708001043864423,-0.19234863744730907,-0.043197153257874314,-0.8200000000000002,-9.75,-0.6000000000000008,-0.011250486546976109,-0.03361674694691772,0.020581102957763296,15.5,-4.8125,93.5,0.6785888699999993,0.1589965800000001,-0.711059570000001,-0.09271239999999993
131.0,-0.0008585032930383974,-0.19194768514218224,-0.041675574899483814,-0.8200000000000002,-9.75,-0.6000000000000008,-0.01989229342763498,-0.022859580331117332,0.01238516385575209,15.5,-4.8125,93.5,0.6785888699999993,0.1589965800000001,-0.711059570000001,-0.09271239999999993
132.0,-0.0013353237527810582,-0.19261283687849146,-0.04194310054272103,-0.8200000000000002,-9.75,-0.6000000000000008,-0.008952906675866828,-0.011489088078272139,0.018289356121424433,15.5,-4.8125,93.5,0.6785888699999993,0.1589965800000001,-0.711059570000001,-0.09271239999999993
133.0,-0.0015229141509976421,-0.19094646656316483,-0.04232706572365016,-0.8200000000000002,-9.75,-0.6000000000000008,-0.011086912770973492,-0.016745371168995455,-0.005696193433385085,15.5,-4.8125,93.5,0.6785888699999993,0.1589965800000001,-0.711059570000001,-0.09271239999999993
134.0,-0.0013795862581441332,-0.19149571617503303,-0.04302280799529376,-0.8200000000000002,-9.75,-0.6000000000000008,-0.00619999071137591,0.017273509618149087,-0.002573170030475533,15.5,-4.8125,93.5,0.6785888699999993,0.1589965800000001,-0.7110595700000009,-0.09271239999999993
135.0,-0.001291835101373746,-0.19139372741261773,-0.045472115147778575,-0.8200000000000002,-9.75,-0.6000000000000008,-0.02133631612376408,0.009481750065241525,0.006305317899033383,15.5,-4.8125,93.5,0.6785888699999993,0.1589965800000001,-0.711059570000001,-0.09271239999999993
136.0,-0.00071554684612262,-0.19011415072037002,-0.044239854851880096,-0.8200000000000002,-9.75,-0.6000000000000008,-0.016180555610569913,0.013360884055855593,0.02443151450256579,15.5,-4.8125,93.5,0.6785888699999993,0.1589965800000001,-0.7110595700000009,-0.09271239999999993
137.0,-0.0029461007617001835,-0.1886953120703722,-0.044161899727619504,-0.8200000000000002,-9.75,-0.6000000000000008,-0.044755637557755995,0.01248765477821809,-0.0026135886661885713,15.5,-4.8125,93.51155512758787,0.6785775848001921,0.15900786519980759,-0.7110708551998082,-0.09270111664901287
138.0,-0.002540987819755273,-0.1906868544711587,-0.044461204018257455,-0.8200000000000002,-9.75,-0.6000000000000008,-0.026043507928438115,-0.011504217576677854,-0.0008638568941891044,15.5,-4.8125,93.53803562831007,0.678551722883967,0.15903372711603297,-0.7110967171160336,-0.09267525896966763
139.0,-0.0029181365897783806,-0.18904069770704335,-0.04622067645081607,-0.8200000000000002,-9.75,-0.6000000000000008,-0.04872274652005032,-0.01100955295707342,0.01346385319062257,15.5,-4.8125,93.55127587867116,0.6785387919258545,0.15904665807414564,-0.7111096480741464,-0.09266233012999504
140.0,-0.0021331174041814387,-0.19003792227672822,-0.04267702094086302,-0.8200000000000002,-9.75,-0.6000000000000008,-0.024752562475239413,0.0204942605941643,-0.004116051257360839,15.5,-4.8125,93.55789600385171,0.6785323264467982,0.159053123553202,-0.7111161135532028,-0.09265586571015874
141.0,-0.0020318192479964266,-0.191729879252508,-0.03814620277812382,-0.8200000000000002,-9.75,-0.6000000000000008,-0.02731114476119291,-0.02025845282946872,0.009371875115736453,15.5,-4.8125,93.56120606644197,0.6785290937072701,0.15905635629273016,-0.711119346292731,-0.09265263350024058
142.0,-0.0029985769326164127,-0.1926527622994883,-0.037420014466355345,-0.8200000000000002,-9.75,-0.6000000000000008,0.013294355399856121,-0.012294886945825801,-0.024639365208695974,15.5,-4.8125,93.5625,0.6785278299999999,0.15905762000000023,-0.7111206100000012,-0.09265136999999986
143.0,-0.003776100885152402,-0.19313365708677446,-0.03894238639309655,-0.8200000000000002,-9.75,-0.6000000000000008,0.0009918035443131738,-0.009915489241139218,-0.0055791915114255025,15.5,-4.8125,93.5625,0.6785278299999999,0.15905762000000023,-0.7111206100000012,-0.09265136999999984
144.0,-0.003106412725454613,-0.19184474417614156,-0.039344642328061924,-0.8200000000000002,-9.75,-0.6000000000000008,0.01699714246694567,0.00957389309655198,-0.006201506425687937,15.5,-4.8125,93.5625,0.6785278299999999,0.15905762000000023,-0.7111206100000012,-0.09265136999999986
145.0,-0.0029736657356917062,-0.19082961953206518,-0.04006145707838706,-0.8200000000000002,-9.75,-0.6000000000000008,0.024183311667922976,-0.0007693563773237154,-0.001820980350400966,15.5,-4.8125,93.5625,0.6785278299999999,0.15905762000000023,-0.7111206100000012,-0.09265136999999984
146.0,-0.003124084728888037,-0.18988545957992833,-0.041002463961029766,-0.8200000000000002,-9.75,-0.6000000000000008,0.0036311835945073926,0.008997106860965935,-0.0012885143687488697,15.5,-4.8125,93.5625,0.6785278299999999,0.15905762000000023,-0.7111206100000012,-0.09265136999999986
147.0,-0.0024652681708956315,-0.1884365263160187,-0.044421827514013634,-0.8200000000000002,-9.75,-0.6000000000000008,0.006553495023060149,-0.003503927959095196,-0.009290348995788827,15.5,-4.8125,93.5625,0.6785278299999999,0.15905762000000023,-0.7111206100000012,-0.09265136999999986
148.0,-0.0021618589289721297,-0.1893145558879082,-0.04466637836942858,-0.8200000000000002,-9.75,-0.6000000000000008,0.01308656936997976,-0.011727288967511008,0.011032485588769042,15.5,-4.8125,93.5625,0.6785278299999999,0.15905762000000023,-0.7111206100000012,-0.09265136999999984
149.0,-0.002683455970238377,-0.18761659819359688,-0.045930452136815944,-0.8200000000000002,-9.75,-0.6000000000000008,0.0212140306057358,-0.015599808857016652,-0.0017220833955545719,15.5,-4.8125,93.5625,0.6785278299999999,0.15905762000000023,-0.7111206100000012,-0.09265136999999984
150.0,-0.003996413432499134,-0.18777841294879083,-0.045256096014401254,-0.8200000000000002,-9.75,-0.6000000000000008,0.010614085438614508,-0.018073495875012488,0.02094553763370717,15.5,-4.8125,93.5625,0.6785278299999999,0.15905762000000023,-0.7111206100000012,-0.09265136999999986
151.0,-0.004370339959350552,-0.18929510165448415,-0.04596341156837064,-0.8200000000000002,-9.75,-0.6000000000000008,0.005097440493575996,-0.026406944944800025,-0.005167504887936249,15.5,-4.8125,93.5625,0.6785278299999999,0.15905762000000023,-0.7111206100000012,-0.09265136999999984
152.0,-0.003028377175705053,-0.18993112712997157,-0.04556048990329201,-0.8200000000000002,-9.75,-0.6000000000000008,0.02272285369902125,-0.02734351589671763,-0.011713763687764653,15.5,-4.8125,93.5625,0.6785278299999999,0.15905762000000023,-0.7111206100000012,-0.09265136999999986
153.0,-0.002946542945098554,-0.1899607489284908,-0.04509127046921942,-0.8200000000000002,-9.75,-0.6000000000000008,-0.0029019337667628466,0.002532503004939207,-0.0025016820364677857,15.5,-4.8125,93.5625,0.6785278299999999,0.15905762000000023,-0.7111206100000012,-0.09265136999999984
154.0,-0.0022954009559690834,-0.18932927287765994,-0.043941905630880095,-0.8200000000000002,-9.75,-0.6000000000000008,0.01197132990585085,0.004534119387272973,0.011385212444432474,15.5,-4.8125,93.5625,0.6785278299999999,0.15905762000000023,-0.7111206100000012,-0.09265136999999986
155.0,-0.0025955912968431026,-0.19018076547108798,-0.04391512154993135,-0.8200000000000002,-9.75,-0.6000000000000008,0.044780640139029645,0.0439233872370608,0.014586836991447007,15.5,-4.8125,93.5625,0.6785278299999999,0.15905762000000023,-0.7111206100000012,-0.09265136999999986
156.0,-0.002531619199288916,-0.1889996851968445,-0.04477977667493796,-0.8200000000000002,-9.75,-0.6000000000000008,0.026738766619754824,0.02008895503870227,0.002004613255064628,15.5,-4.8125,93.5625,0.6785278299999999,0.15905762000000023,-0.7111206100000012,-0.09265136999999984
157.0,-0.0033499512644312845,-0.18957059979821167,-0.045433575832769385,-0.8200000000000002,-9.75,-0.6000000000000008,0.008823458804275488,0.016359332019689504,0.009605867045608861,15.5,-4.8125,93.5625,0.6785278299999999,0.15905762000000023,-0.7111206100000012,-0.09265136999999984
158.0,-0.0023330489022292105,-0.18845587663419866,-0.04412798705266808,-0.8200000000000002,-9.75,-0.6000000000000008,-0.008348425103924322,0.008660673727852952,-0.0046038449017881495,15.5,-4.8125,93.5625,0.6785278299999999,0.15905762000000023,-0.7111206100000012,-0.09265136999999984
159.0,-0.002625055167709838,-0.18893746534920697,-0.04608331828759429,-0.8200000000000002,-9.75,-0.6000000000000008,0.0017454054644300485,0.018900041352985803,-0.00024584680610875275,15.5,-4.8125,93.5625,0.6785278299999999,0.15905762000000023,-0.7111206100000012,-0.09265136999999984
160.0,-0.0034420638741774995,-0.18840522461008732,-0.04467220349863586,-0.8200000000000002,-9.75,-0.6000000000000008,0.013772778337053733,0.011182631563589677,-0.022599611911118894,15.5,-4.8125,93.5625,0.6785278299999999,0.15905762000000023,-0.7111206100000012,-0.09265136999999986
161.0,-0.0032207912052640026,-0.18777266526604505,-0.046250401219707915,-0.8200000000000002,-9.75,-0.6000000000000008,0.00386219562013977,0.012888499219445296,-0.048673421747567155,15.5,-4.8125,93.5625,0.6785278299999999,0.15905762000000023,-0.7111206100000012,-0.09265136999999984
162.0,-0.0026560757289572894,-0.18904269777325866,-0.0457272007602412,-0.8200000000000002,-9.75,-0.6000000000000008,-0.0029094917079389875,0.02065302470559452,-0.011196860133126384,15.5,-4.8125,93.5625,0.6785278299999999,0.15905762000000023,-0.7111206100000012,-0.09265136999999986
163.0,-0.0020098560462968266,-0.18885908104694213,-0.04821306274571199,-0.8200000000000002,-9.75,-0.6000000000000008,0.0009126783884547485,0.005408379410470769,-0.012150849421401901,15.5,-4.8125,93.5625,0.6785278299999999,0.15905762000000023,-0.7111206100000012,-0.09265136999999984
164.0,-0.0008020932235394201,-0.1904559334853479,-0.050470167736492356,-0.8200000000000002,-9.75,-0.6000000000000008,0.027628260015341743,-0.021214431995644382,-0.013483171533770353,15.5,-4.8125,93.5625,0.6785278299999999,0.15905762000000023,-0.7111206100000012,-0.09265136999999984
165.0,-0.0007362280633826132,-0.18977685787170617,-0.05244022499727843,-0.8200000000000002,-9.75,-0.6000000000000008,0.0017803598463805494,-0.006669463981693158,-0.011592896250756145,15.5,-4.8125,93.5625,0.6785278299999999,0.15905762000000023,-0.7111206100000012,-0.09265136999999986
166.0,-0.0005510702184992025,-0.19139781747701823,-0.05379835034168205,-0.8200000000000002,-9.75,-0.6000000000000008,-0.018278091622308038,0.005105927614353229,0.024746402139426936,15.5,-4.8125,93.5625,0.6785278299999999,0.15905762000000023,-0.7111206100000012,-0.09265136999999984
167.0,-0.0008664066033469019,-0.18959912680001745,-0.05635537488510525,-0.8200000000000002,-9.75,-0.6000000000000008,-0.011427751728892195,0.005035763265782525,0.009510673812024919,15.5,-4.8125,93.5625,0.6785278299999999,0.15905762000000023,-0.7111206100000012,-0.09265136999999984
168.0,-0.0017015317474212517,-0.18893446076071252,-0.05671874316102769,-0.8200000000000002,-9.75,-0.6000000000000008,0.014890351897039727,0.006702876745305729,-0.0015832505817685756,15.5,-4.8125,93.5625,0.6785278299999999,0.15905762000000023,-0.7111206100000012,-0.09265136999999986
169.0,-0.0009326876431624867,-0.18827994831560668,-0.05801691232255145,-0.8200000000000002,-9.75,-0.6000000000000008,0.013811803222706118,-0.006507624086313302,0.001363334878941072,15.5,-4.8125,93.5625,0.6785278299999999,0.15905762000000023,-0.7111206100000012,-0.09265136999999984
170.0,-0.0016448100126482405,-0.1881228370610291,-0.06053350268733031,-0.8200000000000002,-9.75,-0.6000000000000008,-0.023004778056761085,-0.005364931770203797,-0.02346268933782475,15.5,-4.8125,93.5625,0.6785278299999999,0.15905762000000023,-0.7111206100000012,-0.09265136999999986
171.0,-0.0012003539711772737,-0.1894008504034081,-0.0587308823017778,-0.8200000000000002,-9.75,-0.6000000000000008,-0.02390007800286297,0.01774964774031938,-0.019871089493178142,15.5,-4.8125,93.5625,0.6785278299999999,0.15905762000000023,-0.7111206100000012,-0.09265136999999984
172.0,-0.0012158623754675753,-0.18870238023591712,-0.05502263342098439,-0.8200000000000002,-9.75,-0.6000000000000008,-0.013858782140013333,0.016227350375912,-0.035665627835543126,15.5,-4.8125,93.5625,0.6785278299999999,0.15905762000000023,-0.7111206100000012,-0.09265136999999986
173.0,-0.001599866671604755,-0.18826724936113476,-0.05914980926632346,-0.8200000000000002,-9.75,-0.6000000000000008,-0.03784813525424984,-0.006404392429910005,-0.05881911781045146,15.5,-4.8125,93.54215260545905,0.6785477020794041,0.15903774792059572,-0.7111007379205966,-0.09267123882382125
174.0,-0.0010286285693122475,-0.1863194696492722,-0.05905010925521277,-0.8200000000000002,-9.75,-0.6000000000000008,0.011182456205325729,-0.00768582645087219,-0.03091413280989593,15.5,-4.8125,93.5200682382134,0.6785692705558307,0.15901617944416888,-0.7110791694441697,-0.0926928037667493
175.0,0.0003049202442558245,-0.18834839562620007,-0.05869837592995994,-0.8200000000000002,-9.75,-0.6000000000000008,0.04857049346096048,-0.015511083764574376,-0.0049219697811416635,15.5,-4.8125,93.50902605459058,0.6785800547940439,0.15900539520595547,-0.7110683852059563,-0.09270358623821333
176.0,-0.008108748068418407,-0.1925777209941587,-0.06698987447550137,-0.8276660341555977,-9.75,-0.5858064516129036,0.5189988820642478,-0.14597366615655155,0.11730929322549023,15.458728652751422,-4.853296963946869,93.4204878849803,0.6791816682414241,0.15917372786863238,-0.7104843751741357,-0.09249541254035903
177.0,0.0010540731751012477,-0.1867413820781788,-0.07482632506845702,-0.8222337440200982,-9.753125851885505,-0.5119218537028625,0.1859585680023822,0.27525850121033424,-0.011415775922466155,15.604307534008605,-4.81745095812064,92.9949014845165,0.6817822191797762,0.1590917132618946,-0.7078483997201892,-0.09366886162002047
178.0,-0.008342061121659292,-0.18653539776761097,-0.08075296905776574,-0.8145343568160331,-9.752759746887119,-0.5094345126391826,0.009306332945701462,-0.13120571001625914,-0.037613747996476,15.82424352857513,-4.7640170872884635,92.98574146042274,0.6816934372292953,0.15985553208410658,-0.707600024488102,-0.09495876088402039
179.0,-0.004471945341763685,-0.18681608598057964,-0.09157773633437155,-0.8121058880854363,-9.75137987344356,-0.5134269337389461,0.05425896810982715,-0.09241436198935248,-0.013947100286153265,15.694379828803694,-4.756000479128103,93.01706427859847,0.681684751034002,0.15879601733237597,-0.7079437069214706,-0.0941515402301661
180.0,-0.006170479024743035,-0.18809034993066126,-0.10873608224343215,-0.8108916537201378,-9.750924540827352,-0.5140937210239207,0.11477000213898005,-0.0741886081696518,0.00738373235936716,15.629447978917975,-4.751992175047922,93.02295051662084,0.6817319567926605,0.15825862296726328,-0.7080716365057014,-0.09375796769084058
181.0,-0.011728056386666819,-0.1759978122614833,-0.11509859140634601,-0.8064545101370262,-9.755623560736254,-0.46937446687007184,0.3266503772760736,-0.043547893585142154,-0.0472622286419758,15.51973040910258,-4.720662627000902,92.75401811609169,0.6834481219379798,0.15698589484694053,-0.7067658530289624,-0.0933295164312218
182.0,-0.012364060646114616,-0.180192714140088,-0.12288609066650136,-0.7983094904160819,-9.757875387819283,-0.4662870257372362,0.25640868964407304,-0.04141964355378351,-0.09422727191169342,15.631306351432578,-4.672594002537902,92.73506789493817,0.6834711084927776,0.1570945455677553,-0.7066436407783223,-0.09397282351833042
183.0,-0.011065153277709017,-0.17897688747932616,-0.11902071544247755,-0.7938765778401117,-9.759061583577708,-0.47266197944178334,0.13035992941976698,-0.011805915958539935,-0.05634028179714893,15.686182628731716,-4.647365257463434,92.77086202133538,0.6832510234773377,0.15720114530608423,-0.70679889287163,-0.09423243227809924
184.0,-0.013577688323831388,-0.17992270936169952,-0.11997248987571567,-0.7916157082748942,-9.759692082111432,-0.4756858284305693,0.08021795292131897,0.011557394218684541,-0.033208183821788306,15.721115507914245,-4.634166499699459,92.78764875260316,0.683139853835443,0.15729950104013882,-0.7068619093390411,-0.09440760562147615
185.0,-0.013599731076317297,-0.17865432677054788,-0.12285244910762486,-0.7904852734922854,-9.759999999999994,-0.47723929740199056,0.007478415920253018,-0.007779337497681263,-0.028135966992961822,15.738581947505509,-4.627567120817472,92.79634759233286,0.6830826581127358,0.15734891756308012,-0.706894789811261,-0.09449487861230205
186.0,-0.012715246557326487,-0.18012609890510706,-0.12499942554636825,-0.7900322580645154,-9.759999999999994,-0.4794377880184335,0.00724889077380652,0.0033942435753942734,-0.005148242064467388,15.749769585253457,-4.625144009216591,92.80927419354839,0.6830005854331794,0.15740483213824874,-0.7069545997373279,-0.09454596319815659
187.0,-0.013823200711982616,-0.1796029181859706,-0.12751353765797674,-0.7899999999999994,-9.759999999999994,-0.4800000000000004,-0.0001900532864663818,-0.002916846233528949,0.00605508578245699,15.75,-4.625,92.8125,0.6829833999999997,0.1574096699999999,-0.7069702100000008,-0.09454345999999991
188.0,-0.013084620883850547,-0.17866020787108888,-0.1299493396989786,-0.7899999999999994,-9.759999999999994,-0.4800000000000004,0.01409424510652243,-0.00831631656739986,-0.015224534332622924,15.75,-4.625,92.8125,0.6829833999999997,0.1574096699999999,-0.7069702100000008,-0.09454345999999991
189.0,-0.012077501057761054,-0.17892199054356,-0.13349373143306703,-0.7899999999999994,-9.759999999999994,-0.4800000000000004,-0.005202388688185511,-0.025205323484090936,0.003293158053629886,15.75,-4.625,92.8125,0.6829833999999997,0.1574096699999999,-0.7069702100000008,-0.09454345999999991
190.0,-0.013094819159335296,-0.17965350778253997,-0.13713437100533876,-0.7899999999999994,-9.759999999999994,-0.4800000000000004,0.029123430333107752,-0.023392736295962103,0.012745319196932099,15.75,-4.625,92.8125,0.6829833999999997,0.1574096699999999,-0.7069702100000008,-0.09454345999999991
191.0,-0.01270621851267013,-0.17917414843221285,-0.1398897661478307,-0.7899999999999994,-9.759999999999994,-0.4800000000000004,-0.0017068952552823525,-0.01290604556733589,-0.0008078614933453646,15.75,-4.625,92.8125,0.6829833999999997,0.1574096699999999,-0.7069702100000008,-0.09454345999999991
192.0,-0.01219931809484049,-0.1788289513407471,-0.13925879737338576,-0.7899999999999994,-9.759999999999994,-0.4800000000000004,0.00976930007081668,-0.012077849529703165,-0.0030098071564128377,15.75,-4.625,92.8125,0.6829833999999997,0.1574096699999999,-0.7069702100000008,-0.09454345999999991
193.0,-0.010750196681828847,-0.1797639380359649,-0.13764992654593045,-0.7899999999999994,-9.759999999999994,-0.4800000000000004,-0.00631097557553985,0.008348905147171877,0.022047149207717335,15.75,-4.625,92.8125,0.6829833999999997,0.1574096699999999,-0.7069702100000008,-0.09454345999999991
194.0,-0.010831974797790883,-0.1791001433168019,-0.13769010350907324,-0.7899999999999994,-9.759999999999994,-0.4800000000000004,-0.0013000851259156502,0.013252672740515784,0.014657776423544358,15.75,-4.625,92.8125,0.6829833999999997,0.1574096699999999,-0.7069702100000008,-0.09454345999999991
195.0,-0.0115230255220626,-0.17985798954696397,-0.13751074090409676,-0.7899999999999994,-9.759999999999994,-0.4800000000000004,-0.029471523501374247,-0.004263815144893624,-0.008158648445119317,15.75,-4.625,92.8125,0.6829833999999997,0.1574096699999999,-0.7069702100000008,-0.09454345999999991
196.0,-0.011835954448376217,-0.17923420569159615,-0.13943527119646526,-0.7899999999999994,-9.759999999999994,-0.4800000000000004,-0.020691096738280176,-0.008552503105945571,-0.01775798427218745,15.75,-4.625,92.8125,0.6829833999999997,0.1574096699999999,-0.7069702100000008,-0.09454345999999991
197.0,-0.009733576646431728,-0.18048855205138298,-0.13928191099544013,-0.7899999999999994,-9.759999999999994,-0.4800000000000004,-0.011158018277661995,0.014681379645871703,-0.01409986358529931,15.75,-4.625,92.8125,0.6829833999999997,0.1574096699999999,-0.7069702100000008,-0.09454345999999991
198.0,-0.010345771705425055,-0.18007809811757808,-0.1406453543246996,-0.7899999999999994,-9.759999999999994,-0.4800000000000004,-0.001332919207257195,-0.0014111430216389286,-0.0004364176186516097,15.75,-4.625,92.8125,0.6829833999999997,0.1574096699999999,-0.7069702100000008,-0.09454345999999991
199.0,-0.010561223321695158,-0.18006386295457066,-0.13915022058666743,-0.7899999999999994,-9.759999999999994,-0.4800000000000004,-0.013817824367896586,-0.018106315927692913,0.006210141066604715,15.75,-4.625,92.8125,0.6829789696774191,0.1574096699999999,-0.7069746403225814,-0.09454345999999991
200.0,-0.010552091505028437,-0.17825037007608022,-0.143622432334156,-0.7899999999999994,-9.759999999999994,-0.4800000000000004,0.061848063567791545,-0.02121991764053632,0.010800510124204153,15.75,-4.625,92.8125,0.6829496803225803,0.1574096699999999,-0.7070039296774198,-0.09454345999999991
201.0,-0.012274541880042608,-0.1795385243868633,-0.13975564807925187,-0.7899999999999994,-9.759999999999994,-0.4800000000000004,0.07706894869494171,-0.02653737817510687,0.009744566664478194,15.75,-4.625,92.8125,0.6829350356451608,0.1574096699999999,-0.707018574354839,-0.09454345999999991
202.0,-0.010704172502589697,-0.17919537211304176,-0.13785903236748814,-0.7899999999999994,-9.759999999999994,-0.4800000000000004,0.02584179770137582,-0.03536084925446083,0.038762126637705896,15.75,-4.625,92.8125,0.6829019411070383,0.1574096699999999,-0.7070516731158354,-0.09454345999999991
203.0,-0.009875218391181925,-0.178524095067186,-0.13943942995798142,-0.7899999999999994,-9.759999999999994,-0.4800000000000004,0.014724563810347093,-0.006347107707430586,0.0013378027157103026,15.75,-4.625,92.8125,0.6828796666825518,0.1574096699999999,-0.7070739505901753,-0.09454345999999991
204.0,-0.007542874394102129,-0.1796590698660992,-0.1407897754628617,-0.7899999999999994,-9.759999999999994,-0.4800000000000004,0.024148979330731856,0.0038135933237040606,-0.010950253806536909,15.75,-4.625,92.8125,0.6828686679178892,0.1574096699999999,-0.7070849508797646,-0.09454345999999991
205.0,-0.006604850774325981,-0.18011600580449877,-0.14142521994134902,-0.7899999999999994,-9.759999999999994,-0.4800000000000004,-0.025193805953314857,0.005668231423527524,0.0034469963514258146,15.75,-4.625,92.8125,0.6828640146041063,0.1574096699999999,-0.7070896049560109,-0.09454345999999991
206.0,-0.006753060773282249,-0.1783253538308906,-0.14609384164222883,-0.7899999999999994,-9.759999999999994,-0.4800000000000004,0.0016076424778880237,0.011647043375497877,-0.010617655294472821,15.75,-4.625,92.8125,0.6828616879472149,0.1574096699999999,-0.707091931994134,-0.09454345999999991
207.0,-0.006455709272271624,-0.1756313963680357,-0.14915884652981434,-0.7899999999999994,-9.759999999999994,-0.4800000000000004,0.010777550466705497,-0.015681854656337084,-0.012915132632573652,15.75,-4.625,92.8125,0.6828613300000008,0.1574096699999999,-0.7070922899999992,-0.09454345999999991
208.0,-0.007703059258186847,-0.17638575114501925,-0.14987793072759378,-0.7899999999999994,-9.759999999999994,-0.4800000000000004,-0.006226535310701173,-0.018779179615120878,0.006135717265802726,15.75,-4.625,92.8125,0.6828613300000008,0.1574096699999999,-0.7070922899999992,-0.09454345999999991
209.0,-0.006892735734815659,-0.17716385083380748,-0.15053720583300512,-0.7899999999999994,-9.759999999999994,-0.4800000000000004,-0.006557605575494958,-0.007636168497687517,-0.009771922553654017,15.75,-4.625,92.8125,0.6828613300000008,0.1574096699999999,-0.7070922899999992,-0.09454345999999991
210.0,0.012280991130031345,-0.18650364221858962,-0.15473225938869983,-0.7824450677886857,-9.76097241701729,-0.4607012622720901,0.7991285590705626,1.3256698634600173,0.03035879146716691,15.932795698924732,-4.5782491818606825,92.69936302010285,0.6834119295698928,0.15781554309957913,-0.7062942376016828,-0.0957597106591865
211.0,-0.04744996439641204,-0.172843509571951,-0.14162017846452768,-0.7394221851585103,-9.765647498831221,-0.3627307531935864,1.0045681103455637,5.691345984938643,0.003355484212091288,18.75770124963673,-4.324815523798693,92.12515557282387,0.6840174076750946,0.17116315483226557,-0.6992962471661421,-0.11324140370797162
212.0,-0.07872443729846759,-0.17276629489059625,-0.1425042506315664,-0.7884251291965176,-9.762056530583873,-0.37058943936924305,-0.4108312558287438,-3.4940873197582287,0.15706995072091048,20.98532403371113,-4.612222495988274,92.17371008806842,0.6812750942429526,0.1881828192513551,-0.6950058706057389,-0.12637891004055946
213.0,-0.011448583734303679,-0.17155837308900146,-0.13948674729900656,-0.7985901202547785,-9.760228628763084,-0.40755732759011887,-0.11600409855526106,-3.6953723537563885,-0.13901517992852463,16.35085147619223,-4.669042869984142,92.38815274962259,0.6841757402632301,0.16085742321722685,-0.7028469114705205,-0.09853789197166546
214.0,-0.029914965203935228,-0.17049786287133645,-0.11816324599726936,-0.7994563504499694,-9.76011431438154,-0.4469665195825354,-0.0033563273524968434,-1.827348789723919,-0.07146711644347571,13.85687735099934,-4.678805116206492,92.62167362338815,0.6850130285661502,0.1459152078609854,-0.7077311190654311,-0.0834867957581287
215.0,-0.04518122364430152,-0.1672977337076184,-0.10220796185135564,-0.7976604632937572,-9.756329128330862,-0.4918956857400649,-0.16249181979955893,-0.8054889894904997,-0.05610243613232516,12.703840898256852,-4.669733285252912,92.88720876504095,0.6843863899170024,0.13903014156849486,-0.7110165868959695,-0.07641157581871394
216.0,-0.0336338108594434,-0.16757871446607392,-0.09307298764252644,-0.7947838829356046,-9.75284198352027,-0.5311101462456481,-0.12470185590712257,0.8699110549434665,0.07273911679391329,12.314341170053805,-4.652382214479545,93.11718085114039,0.683365171705772,0.13675610374469538,-0.7130591794431713,-0.0739282119573634
217.0,-0.03743883605777726,-0.17260039979867323,-0.08831921263644421,-0.7723123723110588,-9.755660973881902,-0.5366069089521202,0.40227093921781587,4.907492408217321,0.11441092663330242,15.025811122256659,-4.518434321513663,93.14596975441926,0.6810570889909291,0.1519666100713644,-0.7100165996022318,-0.0900197557974991
218.0,-0.07235460777517619,-0.18093457661805296,-0.08038954964541789,-0.7780108455208896,-9.753373302407605,-0.5534757445834275,0.21575502053073772,1.0553888486003988,0.051683152883594465,18.957297613783822,-4.551041002790356,93.2473703240161,0.6767382094787258,0.17676238535240427,-0.7045845490966515,-0.11316865379463419
219.0,-0.017530530993719987,-0.1872793675375363,-0.08010802116410896,-0.7907729879394102,-9.754706978203357,-0.523920620335695,0.3085589082664606,-1.4101944644081779,-0.007226148272922946,17.9825153557209,-4.627239369178703,93.07257340737469,0.67900219594017,0.1714666274788132,-0.7050789256002867,-0.10758723604550663
220.0,-0.014188397973434935,-0.18538910045703894,-0.08341058996800314,-0.7954635281536238,-9.757469040377554,-0.5047438737395668,0.1644776875319933,-0.762878194020318,0.013862204556920254,17.08950797414577,-4.657866193977894,92.95966338418066,0.6806360921376717,0.1661604410015451,-0.7058254292641635,-0.10236964061484252
221.0,-0.014246002441049628,-0.18397293793559966,-0.08015532109153747,-0.7979089562621817,-9.758895810511355,-0.4993854042896129,0.026674293731073585,-0.5166356579356541,-0.010169121839478122,16.60570639506925,-4.673804746239288,92.93034180621757,0.6812693004500194,0.1634080120095847,-0.7064194525251362,-0.09958170672214459
222.0,-0.012446262415570414,-0.18538996080738795,-0.07287354507501381,-0.7997200967509352,-9.754545718834503,-0.5087914684934707,-0.0022458987807999885,-0.41242061674762587,0.015785506640304,16.27219017180984,-4.685284365769705,92.98921596788475,0.6813317208218521,0.161553106032633,-0.7071556691094325,-0.09755912411821492
223.0,-0.01028284978575506,-0.1856047658644132,-0.06643793012355413,-0.8001104728236844,-9.752251637006385,-0.5136465831431699,0.005175846077007527,-0.1430133451078769,-0.021048103679384964,16.03055338386757,-4.687997127706584,93.01379336491681,0.6814462055030828,0.16012630814577322,-0.7076481694743927,-0.09610325829637395
224.0,-0.012000227627404839,-0.18601025379597408,-0.06159943346654949,-0.799999999999999,-9.751026392961876,-0.5172408788451157,0.026149501890106272,-0.005274965553860453,-0.023719868168875502,16.00179900744417,-4.6875,93.00856758391664,0.6813896814987792,0.15996708515331082,-0.7077692903536343,-0.09591255031036103
225.0,-0.012153959967548575,-0.18645177702205645,-0.05885927008315066,-0.7999999999999992,-9.750351906158357,-0.5191514567922848,0.019836537545549413,-0.013385001387352064,-0.01437234103232857,16.0,-4.6875,93.00661009468786,0.6813467390099351,0.1599699610754147,-0.7078134479435663,-0.09589255963160727
226.0,-0.011549762697770293,-0.18616383805947362,-0.06048221670802314,-0.799999999999999,-9.750014662756598,-0.5199608993157379,0.00336972483556924,-0.01217279715856566,-0.005772326977260563,16.0,-4.6875,93.00470430107526,0.681331690865102,0.15997296102639294,-0.7078284385288361,-0.09588661782013674
227.0,-0.012827922594271124,-0.18582710074578995,-0.059832776114913805,-0.799999999999999,-9.75,-0.5199999999999998,-0.0069203884539563824,-0.02037027611243817,-0.0016934467205644524,16.0,-4.6875,93.00152737047898,0.6813339583088948,0.15997313999999999,-0.7078262014467246,-0.0958862299999999
228.0,-0.012984944077795765,-0.18575620771555226,-0.05998846114565901,-0.7999999999999992,-9.75,-0.5199999999999998,-0.01111819482852718,-0.0161940485006134,-0.005389358144852495,16.0,-4.6875,93.0,0.6813354499999994,0.15997313999999999,-0.7078247099999992,-0.0958862299999999
229.0,-0.013430327826374168,-0.18550381543272865,-0.0610971717493001,-0.799999999999999,-9.75,-0.5199999999999999,-0.019775771987318617,0.005482197761078498,0.0020195049882948154,16.0,-4.6875,93.0,0.6813354499999994,0.15997313999999999,-0.7078247099999992,-0.0958862299999999
230.0,-0.012910490012220454,-0.18610926485128532,-0.06614219351881137,-0.799999999999999,-9.75084737602311,-0.5168415984593162,0.1357784782150737,-0.035869739606924175,0.021293260512368954,16.0,-4.6875,92.98892633606164,0.681426194111699,0.1599580948387097,-0.707735845599422,-0.09591397108810781
231.0,-0.023793954683529593,-0.17991191492808645,-0.0718663069255836,-0.799999999999999,-9.75558497833413,-0.48135335054930617,0.12826619414174995,-0.007900045756541267,0.01501490982607695,16.001466275659823,-4.6875,92.79651595395457,0.6826504486443147,0.15979999575757586,-0.7065474017097797,-0.09619077956653677
232.0,-0.022372776713029917,-0.18381375575909545,-0.06708130265988035,-0.799999999999999,-9.756587555580726,-0.48860836407920727,-0.1689926640665121,0.04917294152174069,-0.1111485534700933,16.00500258754528,-4.6875,92.8441782805826,0.6823802384303164,0.159809667764936,-0.7068006182837323,-0.09617841142463465
233.0,-0.020504006222519924,-0.18570588532371646,-0.05273916249619327,-0.7999999999999992,-9.753293777790365,-0.5085920232306709,-0.13190638166104762,0.026245900041267367,-0.08021757698318562,16.00250129377264,-4.6875,92.95186581522927,0.6816678608503937,0.15988946546063174,-0.7074755045984418,-0.09604152916889296
234.0,-0.0203516236046186,-0.18654222867958736,-0.04547455448438201,-0.799999999999999,-9.75164688889518,-0.5194573019379163,-0.06264932354456271,0.012693040153461009,-0.04168659974368151,16.00125064688632,-4.6875,93.00819097213076,0.6812811392961643,0.15993130273031586,-0.707839118912124,-0.09596387958444642
235.0,-0.01860383298670988,-0.18585898145582638,-0.04470646356862335,-0.799999999999999,-9.750796963946868,-0.5249886413396854,-0.03588352070343205,0.0345271893112033,-0.03014156660270257,16.00062532344316,-4.6875,93.03669960257957,0.6810849427655591,0.15995269152644825,-0.7080237030814833,-0.0959241878832198
236.0,-0.0186078793477049,-0.18537083970152024,-0.04589917508831948,-0.799999999999999,-9.750237191650854,-0.5288139687636846,-0.037904492512028834,0.028199567285122667,-0.018140797964107884,16.00026684060721,-4.6875,93.0567937162458,0.6809500044228575,0.15996809144015472,-0.7081517455314552,-0.09589612522215724
237.0,-0.019064376106490026,-0.18491502136878665,-0.044640764014747966,-0.799999999999999,-9.75,-0.5299454094292808,-0.030159551758860714,0.01340303316817803,-0.019595778488695308,16.0,-4.6875,93.06234491315136,0.6809101082977662,0.1599730188486352,-0.7081892843027295,-0.09588680552853587
238.0,-0.018618585526739267,-0.1850729704934015,-0.043899297715321944,-0.799999999999999,-9.75,-0.5300000000000005,-0.017012252005454868,0.0012786464434769405,-0.00364611091514997,16.0,-4.6875,93.0625,0.6809081999999995,0.15997313999999999,-0.7081909199999998,-0.0958862299999999
239.0,-0.018370876341082247,-0.18578118549910438,-0.04540736030044704,-0.799999999999999,-9.75,-0.5300000000000005,-0.0012650221378874118,-0.0018044695446349413,0.00017711597266384946,16.0,-4.6875,93.0625,0.6809081999999995,0.15997313999999999,-0.7081909199999998,-0.0958862299999999
240.0,-0.018782991202346055,-0.18538698177218094,-0.04467598182968202,-0.799999999999999,-9.75,-0.5300000000000005,0.008855154965211892,-0.013129995399919499,-0.010551434650106379,16.0,-4.6875,93.0625,0.6809081999999995,0.15997313999999999,-0.7081909199999998,-0.0958862299999999
241.0,-0.01768572825024439,-0.18653024552929665,-0.044398108216893786,-0.799999999999999,-9.75,-0.5300000000000005,-0.02628784284974987,-0.00545001725030188,-0.01251545339543442,16.0,-4.6875,93.0625,0.6809081999999995,0.15997313999999999,-0.7081909199999998,-0.0958862299999999
242.0,-0.016615988540993505,-0.1865040632614055,-0.04606375574259116,-0.799999999999999,-9.75,-0.5300000000000005,0.0004337517604319271,-0.002754657581507676,-0.0034056741048938514,16.0,-4.6875,93.0625,0.6809081999999995,0.15997313999999999,-0.7081909199999998,-0.0958862299999999
243.0,-0.01741290957666387,-0.18501531929793835,-0.043907412222997474,-0.799999999999999,-9.75,-0.5300000000000005,-0.0016020627842330524,-0.010838591027954928,0.0014993977413261445,16.0,-4.6875,93.0625,0.6809081999999995,0.15997313999999999,-0.7081909199999998,-0.0958862299999999
244.0,-0.018813981670052368,-0.1870164573029281,-0.04575624765597576,-0.799999999999999,-9.75,-0.5300000000000005,0.01216634397445239,-0.043466094145453514,-0.014462911100011414,16.0,-4.6875,93.0625,0.6809081999999995,0.15997313999999999,-0.7081909199999998,-0.0958862299999999
245.0,-0.01805499842515902,-0.1862359326362837,-0.04493931927390818,-0.799999999999999,-9.75,-0.5300000000000005,0.0019916160099965937,-0.038455058457926,-0.030135274335584453,16.0,-4.6875,93.0625,0.6809081999999995,0.15997313999999999,-0.7081909199999998,-0.0958862299999999
246.0,-0.016031409281005708,-0.18674944236897273,-0.05053417576598633,-0.799999999999999,-9.75,-0.5300000000000005,0.01028222051721726,-0.009986937831113539,-0.01483853159594472,16.0,-4.6875,93.0625,0.6809081999999995,0.15997313999999999,-0.7081909199999998,-0.0958862299999999
247.0,-0.015192066234293436,-0.1872594762945664,-0.05147862550281196,-0.799999999999999,-9.75,-0.5300000000000005,0.005712392410897041,-0.019656225513797237,-0.008960770153029917,16.0,-4.6875,93.0625,0.6809081999999995,0.15997313999999999,-0.7081909199999998,-0.0958862299999999
248.0,-0.015044275774826064,-0.1875947329078258,-0.050795813926743705,-0.799999999999999,-9.75,-0.5300000000000005,-0.018905252716922546,-0.010475964579380138,0.0020556609740670457,16.0,-4.6875,93.0625,0.6809081999999995,0.15997313999999999,-0.7081909199999998,-0.0958862299999999
249.0,-0.014548042090736594,-0.18592102236789135,-0.04769995974929561,-0.799999999999999,-9.75,-0.5300000000000005,0.018971738255419465,-0.010889253061928584,0.013231520614110747,16.0,-4.6875,93.0625,0.6809081999999995,0.15997313999999999,-0.7081909199999998,-0.0958862299999999
250.0,-0.015039675694324656,-0.1868955206716117,-0.04347996089931573,-0.799999999999999,-9.75,-0.5300000000000005,0.021464047495831175,-0.018193677764360875,0.020624892185613246,16.0,-4.6875,93.0625,0.6809081999999995,0.15997313999999999,-0.7081909199999998,-0.0958862299999999
251.0,-0.017376932365547174,-0.18730068160808194,-0.038071433942401686,-0.7999999999999992,-9.75,-0.5344466501240694,-0.04709586744691109,-0.02427537674216991,-0.014501449688831096,16.0,-4.6875,93.09376550868487,0.6807662013101736,0.16000270577667497,-0.7083334033746894,-0.09585860748883375
252.0,-0.016793774852598392,-0.18598724583449433,-0.03462933303255884,-0.7999999999999992,-9.75,-0.537384615384615,-0.020104535723605932,0.0032088602415926894,-0.010182571223842573,16.0,-4.6875,93.11039081885856,0.6806796935583127,0.1600194274044666,-0.7084196687841186,-0.09584091938957821
253.0,-0.01639760962177344,-0.1857181761473018,-0.035229893512229465,-0.799999999999999,-9.75,-0.5388535980148877,-0.021888396752454076,-0.0031805574177915493,0.009626544827909918,16.0,-4.6875,93.1187034739454,0.6806364396823823,0.1600277882183624,-0.708462801488833,-0.09583207533995045
254.0,-0.015115490275959285,-0.18652022800898435,-0.03404539265430258,-0.7999999999999992,-9.75,-0.5395880893300242,-0.0019197886461721457,-0.010309449323227679,0.02529037595557463,16.0,-4.6875,93.12285980148883,0.680614812744417,0.16003196862531027,-0.7084843678411903,-0.09582765331513657
255.0,-0.014344445155229948,-0.18626245717049753,-0.03382592788370353,-0.799999999999999,-9.75,-0.5399553349875924,0.022618662832914155,0.00014794626012729073,0.03422423748615371,16.0,-4.6875,93.12493796526054,0.6806039992754345,0.16003405882878424,-0.7084951510173689,-0.09582544230272963
256.0,-0.01514643116472679,-0.18566600563615482,-0.033813407584230896,-0.799999999999999,-9.75,-0.5399999999999994,0.026793578352316917,0.0005392336759693526,0.04525803196963524,16.0,-4.6875,93.125,0.6806030300000001,0.1600341800000001,-0.7084960899999992,-0.09582520000000008
257.0,-0.01485609399427407,-0.18640868520021142,-0.033306207514199826,-0.7999999999999992,-9.75,-0.5399999999999994,0.0197398412853396,-0.006647256611146837,0.012300231865710923,16.0,-4.6875,93.125,0.6806030300000001,0.1600341800000001,-0.7084960899999992,-0.09582520000000008
258.0,-0.015259053256164482,-0.18511816060684616,-0.03386302190827951,-0.799999999999999,-9.75,-0.5399999999999994,0.009779646208389588,0.014159520466694275,-0.00635289321495388,16.0,-4.6875,93.125,0.6806030300000001,0.1600341800000001,-0.7084960899999992,-0.09582520000000008
259.0,-0.016761040275724927,-0.18591019692873326,-0.036234240482675734,-0.7999999999999992,-9.75,-0.5399999999999994,0.05599093972950496,0.013407303657664755,-0.01945281137174493,16.0,-4.6875,93.125,0.6806030300000001,0.1600341800000001,-0.7084960899999992,-0.09582520000000008
260.0,-0.01633923883851665,-0.18627173881326503,-0.03472351921870459,-0.7999999999999992,-9.75,-0.5399999999999994,0.010869887114169731,-0.004863477278619311,-0.012398834063946004,16.0,-4.6875,93.125,0.6806030300000001,0.1600341800000001,-0.7084960899999992,-0.09582520000000008
261.0,-0.017077645272397326,-0.18613414780934034,-0.03507389541128107,-0.799999999999999,-9.75,-0.5399999999999994,-0.0378429849820377,-0.0019502749898151926,-0.002240108005259065,16.0,-4.6875,93.125,0.6806030300000001,0.1600341800000001,-0.7084960899999992,-0.09582520000000008
262.0,-0.014480998739665093,-0.18561177651388888,-0.037184364804670536,-0.799999999999999,-9.75,-0.5399999999999994,-0.008859175775476328,-0.011037454210450118,-0.01399085255891196,16.0,-4.6875,93.125,0.6806030300000001,0.1600341800000001,-0.7084960899999992,-0.09582520000000008
263.0,-0.01415191005832557,-0.18751941738549519,-0.03498361234937426,-0.799999999999999,-9.75,-0.5399999999999994,0.010029367336142434,-0.01087501020585096,-0.01576709214368323,16.0,-4.6875,93.125,0.6806030300000001,0.1600341800000001,-0.7084960899999992,-0.09582520000000008
264.0,-0.014406445103604476,-0.18793918294833073,-0.03473785146004693,-0.7999999999999992,-9.75,-0.5399999999999994,0.009859693748716378,0.0003288177878933776,4.890391264970005e-05,16.0,-4.6875,93.125,0.6806030300000001,0.1600341800000001,-0.7084960899999992,-0.09582520000000008
265.0,-0.01372183297363847,-0.18862095623843328,-0.03594584880694654,-0.7999999999999992,-9.75,-0.5399999999999994,0.009473891539370595,0.006569495742581925,-0.002433674594543636,16.0,-4.6875,93.125,0.6806030300000001,0.1600341800000001,-0.7084960899999992,-0.09582520000000008
266.0,-0.01381565890376676,-0.18945250989581747,-0.035967628303328836,-0.799999999999999,-9.75,-0.5399999999999994,0.006076016544841773,0.009528729575672282,-0.01388534957459488,16.0,-4.6875,93.125,0.6806030300000001,0.1600341800000001,-0.7084960899999992,-0.09582520000000008
267.0,-0.012670104810932935,-0.18829577145290907,-0.03712502777674902,-0.7999999999999992,-9.75,-0.5399999999999994,0.013139096700122218,0.005085112588422651,-0.0005749497703788752,16.0,-4.6875,93.125,0.6806030300000001,0.1600341800000001,-0.7084960899999992,-0.09582520000000008
268.0,-0.01322749634413092,-0.18829970726392842,-0.0375832460049179,-0.799999999999999,-9.75,-0.5399999999999994,0.026157276862922026,0.005625565004326439,-0.00635546703587297,16.0,-4.6875,93.125,0.6806030300000001,0.1600341800000001,-0.7084960899999992,-0.09582520000000008
269.0,-0.013570060676765066,-0.18870794070618024,-0.03739264563573965,-0.799999999999999,-9.75,-0.5399999999999994,0.016298335401157982,-0.021322490826658495,0.016628736893372634,16.0,-4.6875,93.125,0.6806030300000001,0.1600341800000001,-0.7084960899999992,-0.09582520000000008
270.0,-0.012528671777588492,-0.18944597562604293,-0.03660028528685247,-0.7999999999999992,-9.75,-0.5399999999999994,0.0005789909015715472,-0.00042842128181559865,0.021296349293460512,16.0,-4.6875,93.125,0.6806030300000001,0.1600341800000001,-0.7084960899999992,-0.09582520000000008
271.0,-0.012215956086923836,-0.18854755996691475,-0.03719211970824875,-0.799999999999999,-9.75,-0.5399999999999994,-0.0060643657417850955,0.003989021730957215,0.001264192796450861,16.0,-4.6875,93.125,0.6806030300000001,0.1600341800000001,-0.7084960899999992,-0.09582520000000008
272.0,-0.011552372358823976,-0.1888517181742988,-0.03690292503195729,-0.799999999999999,-9.75,-0.5399999999999994,0.003484754492819009,-0.0014267990074441688,-0.010795454545454546,16.0,-4.6875,93.125,0.6806030300000001,0.1600341800000001,-0.7084960899999992,-0.09582520000000008
273.0,-0.01273122039251072,-0.18759790209790206,-0.0367921272276111,-0.7999999999999992,-9.75,-0.5399999999999994,-0.00442819948868336,-0.015421977216332055,-0.025360459433040078,16.0,-4.6875,93.125,0.6806030300000001,0.1600341800000001,-0.7084960899999992,-0.09582520000000008
274.0,-0.012688686894873707,-0.18796623778243898,-0.03751808546933728,-0.799999999999999,-9.75,-0.5399999999999994,-0.03554200749298848,-0.00696257707346417,-0.023417188252286954,16.0,-4.6875,93.125,0.6806030300000001,0.1600341800000001,-0.7084960899999992,-0.09582520000000008
275.0,-0.012748809948677551,-0.18810718837012766,-0.04224043231283241,-0.7999999999999992,-9.75,-0.5399999999999994,-0.021012318882970664,-0.012243695484622905,-0.007149040776267546,16.0,-4.6875,93.125,0.6806030300000001,0.1600341800000001,-0.7084960899999992,-0.09582520000000008
276.0,-0.010803396380942123,-0.187472533214258,-0.04131094141575003,-0.799999999999999,-9.75,-0.5399999999999994,0.00558069915409979,-0.008666629332892271,-0.012898319282226359,16.0,-4.6875,93.125,0.6806030300000001,0.1600341800000001,-0.7084960899999992,-0.09582520000000008
277.0,-0.010308834065348875,-0.18898553346929908,-0.04000542183201969,-0.799999999999999,-9.75,-0.5399999999999994,-0.015507548761171022,-0.006181432946016028,-0.030535792094681116,16.0,-4.6875,93.125,0.6806030300000001,0.1600341800000001,-0.7084960899999992,-0.09582520000000008
278.0,-0.010413993645577668,-0.18987331108948824,-0.04158789236762274,-0.7999999999999992,-9.75,-0.5399999999999994,-0.02370954554994035,-0.012210550142362853,-0.011613662176372816,16.0,-4.6875,93.125,0.6806030300000001,0.1600341800000001,-0.7084960899999992,-0.09582520000000008
279.0,-0.009470357439062306,-0.1873439737922164,-0.04159317584197217,-0.799999999999999,-9.75,-0.5399999999999994,-0.029112235461537336,-0.0051423477721925,-0.018971852754050635,16.0,-4.6875,93.125,0.6806030300000001,0.1600341800000001,-0.7084960899999992,-0.09582520000000008
280.0,-0.010785332866459496,-0.1872916575480369,-0.03857845121897842,-0.799999999999999,-9.75,-0.5399999999999994,-0.01640259114982273,-0.014037731522008726,-0.02137121850425293,16.0,-4.6875,93.125,0.6806030300000001,0.1600341800000001,-0.7084960899999992,-0.09582520000000008
281.0,-0.012871056122500519,-0.1876641243926992,-0.04079309583651784,-0.7999999999999992,-9.75,-0.5399999999999994,-0.015149417866678339,-0.013891527884629414,-0.0049256373992321275,16.0,-4.6875,93.125,0.6806030300000001,0.1600341800000001,-0.7084960899999992,-0.09582520000000008
282.0,-0.012376388276304023,-0.18679149523642774,-0.042608180371826856,-0.799999999999999,-9.75,-0.5399999999999994,-0.006032064749565953,-0.003952117803507277,-0.002676650566673737,16.0,-4.6875,93.125,0.6806030300000001,0.1600341800000001,-0.7084960899999992,-0.09582520000000008
283.0,-0.01164732170413442,-0.1856486190747143,-0.04430606049383131,-0.799999999999999,-9.75,-0.5399999999999994,-0.01130965407566274,-0.00118803119525315,-0.018050622143063164,16.0,-4.6875,93.125,0.6806030300000001,0.1600341800000001,-0.7084960899999992,-0.09582520000000008
284.0,-0.011559966914805628,-0.1856034288292352,-0.04332002406195955,-0.7999999999999992,-9.75,-0.5399999999999994,0.004346191442965637,0.012279118730731634,-0.013070531618918715,16.0,-4.6875,93.125,0.6806030300000001,0.1600341800000001,-0.7084960899999992,-0.09582520000000008
285.0,-0.011053907094350045,-0.18553467716683886,-0.04226523372310566,-0.799999999999999,-9.75,-0.5399999999999994,-0.0020989823048080144,-0.009382172152995454,-0.018205288131864925,16.0,-4.6875,93.125,0.6806030300000001,0.1600341800000001,-0.7084960899999992,-0.09582520000000008
286.0,-0.01109519176057453,-0.1855415321318065,-0.04019837368537418,-0.7999999999999992,-9.75,-0.5399999999999994,-0.01798497502337175,0.006110712930946441,-0.016833723470398965,16.0,-4.6875,93.125,0.6806030300000001,0.1600341800000001,-0.7084960899999992,-0.09582520000000008
287.0,-0.012473304580189516,-0.18650488141292182,-0.04167298938423156,-0.799999999999999,-9.75,-0.5399999999999994,0.004662204570425562,-0.0077889739353087925,-0.010341348538718544,16.0,-4.6875,93.125,0.6806030300000001,0.1600341800000001,-0.7084960899999992,-0.09582520000000008
288.0,-0.013333426483643149,-0.18739955703099653,-0.041601401827990665,-0.799999999999999,-9.75,-0.5399999999999994,0.003094787524704473,-0.006353553438817642,-0.00416260975323024,16.0,-4.6875,93.125,0.6806030300000001,0.1600341800000001,-0.7084960899999992,-0.09582520000000008
289.0,-0.012517829867131751,-0.18599258248572154,-0.04171633366833777,-0.7999999999999992,-9.75,-0.5399999999999994,-0.015124442465935604,-0.00655767001965696,-0.012859840856764003,16.0,-4.6875,93.125,0.6806030300000001,0.1600341800000001,-0.7084960899999992,-0.09582520000000008
290.0,-0.011326319844495102,-0.18683596384757908,-0.04191979418130417,-0.799999999999999,-9.75,-0.5399999999999994,-0.003575100385591779,-0.027336971745504937,0.00935305983160837,16.0,-4.6875,93.125,0.6806030300000001,0.1600341800000001,-0.7084960899999992,-0.09582520000000008
291.0,-0.010722403098426214,-0.18634462584438505,-0.04130523673085059,-0.7999999999999992,-9.75,-0.5399999999999994,0.014132599466013045,-0.024917371186027902,0.023275077915183837,16.0,-4.6875,93.125,0.6806030300000001,0.1600341800000001,-0.7084960899999992,-0.09582520000000008
292.0,-0.010379511196555013,-0.18797564399971708,-0.04226879251385751,-0.7999999999999992,-9.75,-0.5399999999999994,0.020534417636608297,-0.011626386172004854,0.01815024667997706,16.0,-4.6875,93.125,0.6806030300000001,0.1600341800000001,-0.7084960899999992,-0.09582520000000008
293.0,-0.010740046664938338,-0.18755349801859184,-0.04349557423799119,-0.799999999999999,-9.75,-0.5399999999999994,0.017473889855931263,-0.0018851153660975526,0.010985704233176548,16.0,-4.6875,93.125,0.6806030300000001,0.1600341800000001,-0.7084960899999992,-0.09582520000000008
294.0,-0.00946927891559572,-0.1855286100514795,-0.043306099774082445,-0.7999999999999992,-9.75,-0.5399999999999994,0.010241287359727418,-0.007797396392726196,0.02121865856820118,16.0,-4.6875,93.125,0.6806030300000001,0.1600341800000001,-0.7084960899999992,-0.09582520000000008
295.0,-0.011452662247077272,-0.18522217695640894,-0.044747402172534576,-0.799999999999999,-9.75,-0.5399999999999994,0.020640551472279927,-0.004597641164805344,0.015992968273902314,16.0,-4.6875,93.125,0.6806030300000001,0.1600341800000001,-0.7084960899999992,-0.09582520000000008
296.0,-0.011114856576580222,-0.1868960723115754,-0.04384960152990966,-0.799999999999999,-9.75,-0.5399999999999994,0.021080953230688426,0.005373748783715081,0.0059563871371767375,16.0,-4.6875,93.125,0.6806030300000001,0.1600341800000001,-0.7084960899999992,-0.09582520000000008
297.0,-0.011904822829233044,-0.1869467954609986,-0.04361958984684068,-0.7999999999999992,-9.75,-0.5399999999999994,0.021520625498718905,-0.019661140496479927,-0.012111756803620068,16.0,-4.6875,93.125,0.6806030300000001,0.1600341800000001,-0.7084960899999992,-0.09582520000000008
298.0,-0.011871569290924136,-0.18679870666967432,-0.044159410481991124,-0.799999999999999,-9.75,-0.5399999999999994,0.024219866155350024,0.0037343033310775244,-0.013936198210391758,16.0,-4.6875,93.125,0.6806030300000001,0.1600341800000001,-0.7084960899999992,-0.09582520000000008
299.0,-0.011121888863824354,-0.18659786450109023,-0.044650424843973226,-0.7999999999999992,-9.75,-0.5399999999999994,0.024485863598766824,0.009032164072486654,0.017861305361305358,16.0,-4.6875,93.125,0.6806030300000001,0.1600341800000001,-0.7084960899999992,-0.09582520000000008
300.0,-0.0109910519587939,-0.18684731934731924,-0.04416294458229941,-0.7999999999999992,-9.75,-0.5399999999999994,0.003185624859011957,-0.011567129107451687,0.02437236822317467,16.0,-4.6875,93.125,0.6806030300000001,0.1600341800000001,-0.7084960899999992,-0.09582520000000008
301.0,-0.01148475140651357,-0.18706148229077924,-0.04442309993008115,-0.799999999999999,-9.75,-0.5399999999999994,-0.010795074018021779,-0.0002351063316397943,0.007417368731012206,16.0,-4.6875,93.125,0.6806030300000001,0.1600341800000001,-0.7084960899999992,-0.09582520000000008
302.0,-0.011638608502715394,-0.18646645059722808,-0.041687751183177274,-0.799999999999999,-9.75,-0.5399999999999994,-0.0008666512281251086,-0.008217316305905617,-0.010488811686828657,16.0,-4.6875,93.125,0.6806030300000001,0.1600341800000001,-0.7084960899999992,-0.09582520000000008
303.0,-0.01149379105487676,-0.1858627463152318,-0.04092452075287895,-0.799999999999999,-9.75,-0.5399999999999994,0.007447906057491698,-0.007468873206716249,-0.011353887759347857,16.0,-4.6875,93.125,0.6806030300000001,0.1600341800000001,-0.7084960899999992,-0.09582520000000008
304.0,-0.012359650610583452,-0.18567990098991838,-0.040149271968602726,-0.799999999999999,-9.75,-0.5399999999999994,-0.003885718835259188,-0.00924765833588655,-0.020911796292547524,16.0,-4.6875,93.125,0.6806030300000001,0.1600341800000001,-0.7084960899999992,-0.09582520000000008
305.0,-0.012213091434323985,-0.18635557549495912,-0.04049802308107556,-0.7999999999999992,-9.75,-0.5399999999999994,0.0003410367517252446,0.0014245579288309192,-0.01396837294466086,16.0,-4.6875,93.125,0.6806030300000001,0.1600341800000001,-0.7084960899999992,-0.09582520000000008
306.0,-0.013890499846807026,-0.18704809894807478,-0.0394705723581506,-0.799999999999999,-9.75,-0.5399999999999994,-0.010694784873287521,0.006396832735151224,-0.012698831721159598,16.0,-4.6875,93.125,0.6806030300000001,0.1600341800000001,-0.7084960899999992,-0.09582520000000008
307.0,-0.013010743569542323,-0.18772981682496598,-0.03896793525043405,-0.799999999999999,-9.75,-0.5399999999999994,-0.012342749230387652,0.008849687139814126,-0.01566637578237843,16.0,-4.6875,93.125,0.6806030300000001,0.1600341800000001,-0.7084960899999992,-0.09582520000000008
308.0,-0.012833253580394896,-0.1867173409262058,-0.04217883190072646,-0.7999999999999992,-9.75,-0.5397617866004956,0.0029982528004013327,-0.008386740007805548,-0.01160485305398341,16.0,-4.6875,93.125,0.6806044838163773,0.1600341800000001,-0.7084946361836221,-0.09582520000000008
309.0,-0.012304489529287923,-0.1852246339010451,-0.04445929675163546,-0.799999999999999,-9.75,-0.5347196029776674,-0.026134425050755694,-0.02064565768572825,-0.027833947806226035,16.0,-4.6875,93.125,0.6806352562630273,0.1600341800000001,-0.708463863736972,-0.09582520000000008
310.0,-0.01213610045868111,-0.1850013534852244,-0.04354395067298293,-0.799999999999999,-9.75,-0.5321985111662533,-0.040989454094292804,-0.0012096774193548383,-0.025063914580043613,16.0,-4.6875,93.125,0.6806506424863523,0.1600341800000001,-0.708448477513647,-0.09582520000000008
311.0,-0.010186029024738707,-0.1861874577035867,-0.04401729453342356,-0.7999999999999992,-9.75,-0.5309379652605463,-0.031557823896533575,0.004670933904804873,-0.026740732385893678,16.0,-4.6875,93.125,0.6806583355980149,0.1600341800000001,-0.7084407844019847,-0.09582520000000008
312.0,-0.011137279988507727,-0.18619475597424553,-0.043496734688838676,-0.799999999999999,-9.75,-0.5303076923076927,-0.016046543730703577,0.0007230652512308752,-0.01932391954057818,16.0,-4.6875,93.125,0.6806621821538461,0.1600341800000001,-0.7084369378461535,-0.09582520000000008
313.0,-0.01109097250045734,-0.1859087923791823,-0.04319625816327788,-0.7999999999999992,-9.75,-0.5300000000000005,-0.014870356232597446,-0.00830782221309424,-0.006513696742993806,16.0,-4.6875,93.125,0.68066406,0.1600341800000001,-0.7084350599999996,-0.09582520000000008
314.0,-0.012024845600555764,-0.1858312666309777,-0.04379577552122087,-0.7999999999999992,-9.75,-0.5300000000000005,-0.033859862303079684,0.0038095635907985457,-0.011487260432554125,16.0,-4.6875,93.125,0.68066406,0.1600341800000001,-0.7084350599999996,-0.09582520000000008
315.0,-0.011673961149587058,-0.18668914114292057,-0.04370516369764083,-0.799999999999999,-9.75,-0.5300000000000005,-0.024725675669419647,-0.0012742004925743486,-0.008762580552572128,16.0,-4.6875,93.125,0.68066406,0.1600341800000001,-0.7084350599999996,-0.09582520000000008
316.0,-0.01070539173352727,-0.18760474050904952,-0.04334713031111081,-0.799999999999999,-9.75,-0.5300000000000005,-0.016404965062320923,-0.0008076957797859335,-0.012240433820913478,16.0,-4.6875,93.125,0.68066406,0.1600341800000001,-0.7084350599999996,-0.09582520000000008
317.0,-0.012195826255873806,-0.18792413678842412,-0.04287904800523662,-0.799999999999999,-9.75,-0.5300000000000005,0.00012145861355583945,0.002573840646895233,-0.005435863749574931,16.0,-4.6875,93.125,0.6806640599999999,0.1600341800000001,-0.7084350599999996,-0.09582520000000008
318.0,-0.01370061939344559,-0.18784156591282247,-0.044091392799144355,-0.7999999999999992,-9.75,-0.5300000000000005,0.020116609036926802,8.160472171064382e-05,0.0269642370147907,16.0,-4.6875,93.125,0.68066406,0.1600341800000001,-0.7084350599999996,-0.09582520000000008
319.0,-0.0101333340727263,-0.1854228994357574,-0.04204963743007867,-0.8153320683111948,-9.748254269449717,-0.5621062618595829,0.03463044727134619,0.3759941303421719,0.07116165434158013,16.08728652751423,-4.773363377609108,93.30431688804555,0.6794915377988614,0.16195255950664142,-0.7090725116129029,-0.09618839703984824
320.0,-0.002892927439417005,-0.1878261068469797,-0.033741236625487094,-0.8179886148007588,-9.749127134724858,-0.5562282461371647,0.05306991790625567,0.11896291564223253,0.11955711508605246,16.31276768772025,-4.794947817836812,93.25843724586608,0.6795890692404445,0.1634613271358092,-0.7084657661935483,-0.09750989256600712
321.0,0.0002186238808629694,-0.1841732233610791,-0.026419757345753556,-0.8193168880455408,-9.74956356736243,-0.5482754133911626,0.020717087308643287,0.05997773573674902,0.09725905419690997,16.41444835998916,-4.805740037950664,93.19271117876431,0.6798420804117857,0.16411040647113034,-0.7079793354590567,-0.09814717046166363
322.0,0.0017929027838682592,-0.18611449280278752,-0.024619983573593143,-0.8199810246679318,-9.749781783681215,-0.5442989970181615,-0.014455755451323153,0.016897707103285003,0.06113230828052119,16.465288696123608,-4.81113614800759,93.15885558938216,0.6799695553671836,0.16443494613879095,-0.7077346661166248,-0.09846677877921894
323.0,0.0022344467299294677,-0.18520101660968008,-0.021981245264501667,-0.8203130929791274,-9.749890891840607,-0.5423107888316611,-0.005404432353829107,0.011916689479155848,0.05358480215890862,16.490708864190836,-4.813834203036054,93.14192779469107,0.6800332928448825,0.16459721597262122,-0.707612331445409,-0.09862658293799659
324.0,0.0032595671059802017,-0.1830981076378283,-0.02183869059844025,-0.8200000000000002,-9.75,-0.5403133640552988,0.004865455319836638,0.0020226703965269214,0.040150154371386915,16.500691244239633,-4.8125,93.1278602445941,0.6801018029025174,0.16461840152995383,-0.7075312437468978,-0.09869513510989017
325.0,0.0048313286871728076,-0.18389020318188515,-0.024314032206241003,-0.8200000000000002,-9.75,-0.5399999999999994,0.03121000469976652,0.0022227068436958264,0.023621092365959113,16.5,-4.8125,93.12506203473944,0.6801146894143928,0.1646118199999999,-0.7075196208734487,-0.09869378941439211
326.0,0.006804001812569035,-0.18467463012692265,-0.02538530394431158,-0.8200000000000002,-9.75,-0.5399999999999994,0.06266610656824555,-0.020577542359789803,0.003086910947247546,16.5,-4.8125,93.125,0.6801147500000007,0.1646118199999999,-0.7075195299999996,-0.09869385000000006
327.0,0.0062065266645897664,-0.1844413112117521,-0.0251794117217947,-0.8200000000000002,-9.75,-0.5399999999999994,0.044136977212866156,-0.004104972431700391,-0.004625297535524035,16.5,-4.8125,93.125,0.6801147500000007,0.1646118199999999,-0.7075195299999996,-0.09869385000000006
328.0,0.0055341441189773076,-0.18415267439754818,-0.027055244735439604,-0.8200000000000002,-9.75,-0.5399999999999994,0.02054772913400052,-0.0011964748503901059,-0.012690333292353136,16.5,-4.8125,93.125,0.6801147500000007,0.1646118199999999,-0.7075195299999996,-0.09869385000000006
329.0,0.005284178608853268,-0.1834668552828405,-0.027870242113565362,-0.8200000000000002,-9.75,-0.5399999999999994,0.012946762905221176,-0.007685236447677947,-0.010239961367584193,16.5,-4.8125,93.125,0.6801147500000007,0.1646118199999999,-0.7075195299999996,-0.09869385000000006
330.0,0.0050833414013383305,-0.1818047570146842,-0.028538495365833097,-0.8200000000000002,-9.75,-0.5399999999999994,-0.005680757026062787,0.0008621125464495071,-0.003910174355931359,16.5,-4.8125,93.125,0.6801147500000007,0.16461181999999988,-0.7075195299999996,-0.09869385000000006
331.0,0.004983706990991746,-0.18324093544771353,-0.03011174523912379,-0.8200000000000002,-9.75,-0.5399999999999994,0.002537397482814158,-0.006223028679121287,-0.007095166143019443,16.5,-4.8125,93.125,0.6801147500000007,0.1646118199999999,-0.7075195299999996,-0.09869385000000006
332.0,0.0035144452513567667,-0.18409159842271972,-0.03005831697347472,-0.8200000000000002,-9.75,-0.5399999999999994,0.011314391493527372,0.009611162598330546,-0.022721872912626714,16.5,-4.8125,93.125,0.6801147500000007,0.1646118199999999,-0.7075195299999996,-0.09869385000000006
333.0,0.0035290088558180086,-0.18437126863841807,-0.02881827740825879,-0.8200000000000002,-9.75,-0.5399999999999994,-0.0015196217785131555,0.00333109887258848,-0.020207831015774117,16.5,-4.8125,93.125,0.6801147500000007,0.1646118199999999,-0.7075195299999996,-0.09869385000000006
334.0,0.004264504427909005,-0.18526970079037225,-0.028807965683601548,-0.8200000000000002,-9.75,-0.5399999999999994,0.0035473738614765597,0.009210759602472147,-0.02465975617259869,16.5,-4.8125,93.125,0.6801147500000007,0.1646118199999999,-0.7075195299999996,-0.09869385000000006
335.0,0.00313125439798526,-0.18432492735959266,-0.02910987135156612,-0.8200000000000002,-9.75,-0.5399999999999994,-0.03205960104732372,0.008310992690506412,-0.020077125370216366,16.5,-4.8125,93.125,0.6801147500000007,0.1646118199999999,-0.7075195299999996,-0.09869385000000006
336.0,0.004378432673088427,-0.18200850473551483,-0.02968690048516723,-0.8200000000000002,-9.75,-0.5399999999999994,-0.01819866660381826,0.009760946003122217,-0.015735654571716197,16.5,-4.8125,93.125,0.6801147500000007,0.1646118199999999,-0.7075195299999996,-0.09869385000000006
337.0,0.005517135728979735,-0.18209786842911538,-0.03297398637311975,-0.8200000000000002,-9.75,-0.5399999999999994,-0.030441633474854464,0.0010559373221867203,-0.011661815555652821,16.5,-4.8125,93.125,0.6801147500000007,0.1646118199999999,-0.7075195299999996,-0.09869385000000006
338.0,0.007168774893859151,-0.18174464918807715,-0.037457142440291205,-0.8200000000000002,-9.75,-0.5399999999999994,-0.021735621744649186,-0.004241530616711165,0.0026398433054668023,16.5,-4.8125,93.125,0.6801147500000007,0.1646118199999999,-0.7075195299999996,-0.09869385000000006
339.0,0.004911366919070338,-0.18272960709648234,-0.03937862009600092,-0.8200000000000002,-9.75,-0.5414076246334305,-0.023224238047300155,-0.011636283392422054,0.001289374243153733,16.496089931573803,-4.8125,93.14161779081134,0.6800555632942331,0.16461945620723345,-0.7075801480254151,-0.09867380253176934
340.0,0.0053154316394566775,-0.18702054244904504,-0.038452605010139904,-0.8200000000000002,-9.75,-0.5407038123167149,0.003630126493631548,-0.023045056973198523,0.031188449249354402,16.4980449657869,-4.8125,93.13330889540566,0.6800851566471169,0.16461563810361668,-0.7075498390127073,-0.0986838262658847
341.0,0.006058756587941782,-0.1838163203303819,-0.03505632953054291,-0.8200000000000002,-9.75,-0.536253234431602,0.13849854895781571,-0.02165258857515081,0.0489843402016998,16.49902248289345,-4.8125,93.11160226553964,0.6802412485038243,0.1645938082168937,-0.7074026540699212,-0.09871709680466911
342.0,0.00433191983844792,-0.18820581412413526,-0.04642845802040342,-0.8200000000000002,-9.75,-0.5264746133057329,0.04302432335476318,0.009808480883490088,0.002146739993323016,16.499511241446726,-4.8125,93.07529038008165,0.6805340649410618,0.16453121684549468,-0.7071312760427801,-0.09879425095854172
343.0,0.0035443620263354613,-0.18848111091944103,-0.05214651256396986,-0.8200000000000002,-9.75,-0.5177534356851248,-0.03378004427577483,0.01738866367661434,-0.01436267322178138,16.499755620723363,-4.8125,93.03562906100856,0.680796933922144,0.16447701003565052,-0.7068843759246156,-0.09887005822120626
344.0,0.0029192597408916198,-0.18672040356860087,-0.05908092603159014,-0.8200000000000002,-9.75,-0.5133488586050261,-0.022959792421367375,0.008488254313681259,-0.007662340821733611,16.5,-4.8125,93.01527909550917,0.6809302179972405,0.16444966799925237,-0.7067590315522392,-0.09890858833592076
345.0,0.004888271121667707,-0.18623165828478916,-0.05849940729731999,-0.8200000000000002,-9.75,-0.5111905583347714,0.0017624058421022368,0.018463946316175917,0.0010869625314596856,16.5,-4.8125,93.00562341872234,0.6810255602840549,0.16443623561252935,-0.7066677038455229,-0.09892722690989578
346.0,0.005031223838610058,-0.18672694812055873,-0.05870603914385952,-0.8200000000000002,-9.75,-0.5102394916911052,0.01201858998950392,0.01917256018972295,-0.008197650598667335,16.5,-4.8125,93.0013440860215,0.6810697706353859,0.1644301419452589,-0.7066252112609963,-0.09893566311339183
347.0,0.005130470179324579,-0.1869973939038766,-0.05963405574006268,-0.8200000000000002,-9.75,-0.5100000000000006,-0.014656027585893199,0.01187733581333655,-0.018547750030516466,16.5,-4.8125,93.0,0.6810851642326488,0.16442870999999987,-0.7066101457673502,-0.09893798999999984
348.0,0.00567619830017519,-0.1865965615190458,-0.05978268818326591,-0.8200000000000002,-9.75,-0.5100000000000006,-0.0282223413723173,0.014219577164931042,-0.012651200909506157,16.5,-4.8125,93.0,0.6810892216324531,0.16442870999999987,-0.7066060883675457,-0.09893798999999984
349.0,0.004755912519513867,-0.18665973650807538,-0.06058899053121487,-0.8200000000000002,-9.75,-0.5100000000000006,-0.0178196262091303,0.00614778016077968,-0.012663952962460425,16.5,-4.8125,93.0,0.6810912503323554,0.16442870999999987,-0.7066040596676434,-0.09893798999999984
350.0,0.00516143622065625,-0.18526779591777182,-0.06033848353540215,-0.8200000000000002,-9.75,-0.5100000000000006,-0.0039611327526589924,0.006556294772471952,-0.008470295151806948,16.5,-4.8125,93.0,0.6810913099999996,0.16442870999999987,-0.7066039999999992,-0.09893798999999984
351.0,0.004849403148137182,-0.1859363137735507,-0.05913791830909278,-0.8200000000000002,-9.75,-0.5100000000000006,-0.007680246344609539,-0.0008178338083603028,-0.01395646508701962,16.5,-4.8125,93.0,0.6810913099999996,0.16442870999999987,-0.7066039999999992,-0.09893798999999984
352.0,0.0050029029425925405,-0.18478389491219077,-0.05948098261495694,-0.8200000000000002,-9.75,-0.5100000000000007,-0.023329370484132726,3.4731251453618862e-06,-0.016585392856315283,16.5,-4.8125,93.0,0.6810913099999996,0.16442870999999987,-0.7066039999999992,-0.09893798999999985
353.0,0.005098947860318899,-0.18398559213592203,-0.0601280695453215,-0.8200000000000002,-9.75,-0.5100000000000006,-0.017698026599793856,0.007434331651643456,0.002419869773094165,16.5,-4.8125,93.0,0.6810913099999996,0.16442870999999987,-0.7066039999999992,-0.09893798999999985
354.0,0.00410609697330151,-0.18596808093395356,-0.06342910093743803,-0.8200000000000002,-9.75,-0.5100000000000006,0.03171612289595665,0.012895522575796195,-0.004850534394613099,16.5,-4.8125,93.0,0.6810913099999996,0.16442870999999987,-0.7066039999999992,-0.09893798999999984
355.0,0.004152266472965516,-0.1855793483848653,-0.06351318194476985,-0.8200000000000002,-9.75,-0.5100000000000006,0.02204391188786102,-0.0049158750757382665,-0.006762999357619355,16.5,-4.8125,93.0,0.6810913099999996,0.16442870999999987,-0.7066039999999992,-0.09893798999999984
356.0,0.0033688277336364585,-0.18731291897421629,-0.06194160046005094,-0.8200000000000002,-9.75,-0.5100000000000006,0.026365290858541515,-0.010403857841474446,0.02064897944832505,16.5,-4.8125,93.0,0.6810913099999996,0.16442870999999987,-0.7066039999999992,-0.09893798999999984
357.0,0.003427551273766121,-0.1881220302067111,-0.06367307225235797,-0.8200000000000002,-9.75,-0.5100000000000007,0.024730799895771996,-0.011173014916394792,0.00865439822292183,16.5,-4.8125,93.0,0.6810913099999996,0.16442870999999987,-0.7066039999999992,-0.09893798999999985
358.0,0.004210164659511852,-0.18760531705401273,-0.06385773511656428,-0.8200000000000002,-9.75,-0.5100000000000006,0.00915473042161705,0.018121929827514805,-0.0018689097868627167,16.5,-4.8125,93.0,0.6810913099999996,0.16442870999999987,-0.7066039999999992,-0.09893798999999985
359.0,0.005697792403674759,-0.18663522246254682,-0.06447949204495693,-0.8200000000000002,-9.75,-0.5100000000000006,-0.006648526204977818,0.023480978224811242,-0.01022652631997983,16.5,-4.8125,93.0,0.6810913099999996,0.16442870999999987,-0.7066039999999992,-0.09893798999999984
360.0,0.006671288862939719,-0.18649010540376756,-0.06726542464493128,-0.8200000000000002,-9.75,-0.5100000000000007,-0.03975110910594781,0.009610394744408026,-0.007457189395045183,16.5,-4.8125,93.0,0.6810748307146401,0.16442870999999987,-0.706620479285359,-0.09893798999999985
361.0,0.005951796464130431,-0.18638482327286876,-0.07238652176413087,-0.8200000000000002,-9.75,-0.5100000000000007,0.034391020112082726,0.0001696279684894478,0.008726662331975426,16.5,-4.8125,93.0,0.6810515658411913,0.16442870999999987,-0.7066437441588083,-0.09893798999999985
362.0,0.00565587417010567,-0.186100825802913,-0.0708009757478448,-0.8200000000000002,-9.75,-0.5100000000000006,-0.016381262633634548,-0.007549218649787909,0.0019815731390683956,16.5,-4.8125,93.0,0.681039933404467,0.16442870999999987,-0.7066553765955328,-0.09893798999999984
363.0,0.003700145521777401,-0.18714643515876905,-0.06811610558954012,-0.8200000000000002,-9.75,-0.5100000000000007,-0.030416221586762382,0.008876482862488556,-0.022150991007727248,16.5,-4.8125,93.0,0.6810341171861047,0.16442870999999987,-0.7066611928138953,-0.09893798999999985
364.0,0.00412428046997137,-0.1857917383531249,-0.06420613826872854,-0.8200000000000002,-9.75,-0.5100000000000007,-0.010563623906185291,-0.0008359538872297649,-0.004519978496868241,16.5,-4.8125,93.0,0.6810312090769237,0.16442870999999987,-0.7066641009230763,-0.09893798999999985
365.0,0.005005068274687919,-0.18593929349418026,-0.06621845374974888,-0.8200000000000002,-9.75,-0.5100000000000007,0.028612418816138123,-0.022517852874135977,0.0008417477242705948,16.5,-4.8125,93.0,0.6810302700000006,0.16442870999999987,-0.7066650399999995,-0.09893798999999985
366.0,0.00543681491033441,-0.18675782630946325,-0.06720276774260885,-0.8200000000000002,-9.75,-0.5100000000000007,-0.002292782997374959,-0.0006843531608818083,0.004474985073504573,16.5,-4.8125,93.0,0.6810302700000006,0.1644287099999999,-0.7066650399999995,-0.09893798999999986
367.0,0.0053290711455131305,-0.1855946307544164,-0.06792273897263063,-0.8200000000000002,-9.75,-0.5100000000000007,-0.02081071650124069,-0.007801215695714973,-0.011167121125143512,16.5,-4.8125,93.0,0.6810302700000006,0.16442870999999987,-0.7066650399999994,-0.09893798999999985
368.0,0.004461061627347136,-0.18631840718862258,-0.06919462010666269,-0.8200000000000002,-9.75,-0.5100000000000007,-0.008218633684863523,-0.008785843579867413,0.01896668757638606,16.5,-4.8125,93.0,0.6810302700000006,0.1644287099999999,-0.7066650399999995,-0.09893798999999985
369.0,0.006315749879634089,-0.18701572742676192,-0.07290977996185324,-0.8200000000000002,-9.75,-0.5100000000000007,-0.016281319731213658,0.0010536357449724082,0.013620922026036073,16.5,-4.8125,93.0,0.6810302700000006,0.16442870999999987,-0.7066650399999994,-0.09893798999999985
370.0,0.004570793674308358,-0.18579171141809556,-0.07140320728861893,-0.8200000000000002,-9.75,-0.5123821339950377,-0.008668197474167624,-0.0022540831821043664,0.034011240324432424,16.5,-4.8125,93.0089330024814,0.6809813219106704,0.1644374343275432,-0.7067120497468978,-0.09892102714143906
371.0,0.004449168549312987,-0.18664523536165317,-0.06919415947557497,-0.8200000000000002,-9.75,-0.5161104218362285,-0.061328515610532944,0.012156146994555757,-0.032025087033813564,16.5,-4.8125,93.03470843672457,0.6808236761166255,0.16446309990570696,-0.7068632820508682,-0.09887093445781625
372.0,0.0052987296766786405,-0.1873332098811154,-0.06769289100403689,-0.8200000000000002,-9.75,-0.5182165012406947,-0.038683636717158625,0.009207587218991889,-0.01607272647309359,16.5,-4.8125,93.04961228287841,0.6807379614454094,0.16447740946898234,-0.7069531726383373,-0.09884145835794034
373.0,0.006721325136106072,-0.18744327987852294,-0.06487125939780006,-0.8200000000000002,-9.75,-0.5192695409429279,-0.050653853098033406,-0.016100300683308026,0.0061075573589867045,16.5,-4.8125,93.05706420595533,0.6806951041098015,0.16448456425062005,-0.7069981179320719,-0.09882672030800238
374.0,0.006827930334791194,-0.18852555292564918,-0.0640524721727478,-0.8200000000000002,-9.75,-0.5197960607940445,0.016104935402224158,0.005469586020523368,-0.00636804548414593,16.5,-4.8125,93.06079016749379,0.6806736754419975,0.1644881416414389,-0.7070205905789393,-0.0988193512830334
375.0,0.005712859821128961,-0.18950602783510817,-0.0626494408386109,-0.8200000000000002,-9.75,-0.5199848790322579,-0.02031103707368302,0.0057759051239544435,-0.013812171475060408,16.5,-4.8125,93.06237399193549,0.680664490735887,0.1644896577016126,-0.7070303578477823,-0.09881619685987894
376.0,0.006070322872441314,-0.18908952418148367,-0.06207152821500437,-0.8200000000000002,-9.75,-0.5199999999999998,-0.007382386510937307,-0.004868702954884948,-0.020529753106787292,16.5,-4.8125,93.0625,0.6806640599999999,0.1644897499999997,-0.70703125,-0.09881591999999989
377.0,0.006220918866080157,-0.18864004812391905,-0.06038724716144069,-0.8200000000000002,-9.75,-0.5199999999999998,-0.0019540942928039703,-0.01816489961651252,0.012233062636288443,16.5,-4.8125,93.0625,0.6806640599999999,0.1644897499999997,-0.70703125,-0.09881591999999989
378.0,0.00661045943304008,-0.18855327468230687,-0.06064027370478982,-0.8200000000000002,-9.75,-0.5199999999999998,-0.014112903225806451,-0.012463343108504398,-0.012493890518084064,16.5,-4.8125,93.0625,0.68066406,0.1644897499999997,-0.70703125,-0.09881591999999989
379.0,0.006790078201368526,-0.1873289345063538,-0.0646407624633431,-0.8200000000000002,-9.75,-0.5199999999999998,0.011210899315738026,0.007025904203323558,-0.005467986314760507,16.5,-4.8125,93.0625,0.68066406,0.1644897499999997,-0.70703125,-0.09881591999999989
380.0,0.0077126738010825655,-0.18550117812696043,-0.06822757546577961,-0.8200000000000002,-9.75,-0.5199999999999998,0.01034303373163508,-0.0018747902715163189,-0.015428037597934083,16.5,-4.8125,93.0625,0.68066406,0.1644897499999997,-0.70703125,-0.09881591999999989
381.0,0.007565111996413154,-0.185946280468849,-0.07218616159558625,-0.8200000000000002,-9.75,-0.5199999999999998,0.007126081118768889,0.02708327371152359,-0.006744256034849438,16.5,-4.8125,93.04314516129033,0.6807435419652603,0.1644897499999997,-0.7069512834292806,-0.0988362734292804
382.0,0.005913908035673203,-0.18692398717275333,-0.07273512716420155,-0.8200000000000002,-9.75,-0.5199999999999998,-0.04799939105089261,0.03136308679083715,-0.02911082821146916,16.5,-4.8125,93.02056451612904,0.6808298087245654,0.1644897499999997,-0.7068652589727049,-0.09885759606947897
383.0,0.006813770084834122,-0.18713731926875876,-0.06952862127440844,-0.8200000000000002,-9.75,-0.5199999999999998,-0.02206983355274159,-0.001562175587211695,-0.024410214043699842,16.5,-4.8125,93.00927419354838,0.680872942104218,0.1644897499999997,-0.7068222467444172,-0.09886825738957826
384.0,0.0077411206992333646,-0.18759749638902257,-0.06812125476834188,-0.8200000000000002,-9.75,-0.5199999999999998,-0.003209140402207324,-0.006667808599681492,-0.005768767823413948,16.5,-4.8125,93.00362903225806,0.6808945087940443,0.1644897499999997,-0.7068007406302732,-0.0988735880496279
385.0,0.008509462612495834,-0.18766490129995178,-0.07042316951224029,-0.8200000000000002,-9.75,-0.5199999999999998,-0.0012434724639828146,0.002127698974112071,0.0013735602385096845,16.5,-4.8125,93.0008064516129,0.6809052921389573,0.1644897499999997,-0.7067899875732013,-0.09887625337965272
386.0,0.0076033665419799265,-0.1869540387393059,-0.07197461205140548,-0.8200000000000002,-9.75,-0.5199999999999998,0.006876712899522241,-0.005348991704010962,-0.00840130921076997,16.5,-4.8125,93.0,0.6809081999999995,0.1644897499999997,-0.7067871100000003,-0.09887695000000012
387.0,0.008199853709121886,-0.1872011406984926,-0.07317555831265507,-0.8200000000000002,-9.75,-0.5199999999999998,0.015640450816636422,-0.006104924354653531,-0.019306576608273764,16.5,-4.8125,93.0,0.6809081999999995,0.1644897499999997,-0.7067871100000003,-0.09887695000000012
388.0,0.009454765564238365,-0.18594300211103287,-0.07339671215880891,-0.8200000000000002,-9.75,-0.5199999999999998,0.018195535582015483,-0.01045010485722751,-0.012305273415799413,16.5,-4.8125,93.0,0.6809081999999995,0.1644897499999997,-0.7067871100000003,-0.09887695000000012
389.0,0.009749715288322656,-0.18522460279248912,-0.07548247518610418,-0.8200000000000002,-9.75,-0.5199999999999998,-0.018461165211473646,-0.01249862562960631,-0.0038728600329617415,16.5,-4.8125,93.0,0.6809081999999995,0.1644897499999997,-0.7067871100000003,-0.09887695000000012
390.0,0.009655791683641349,-0.1861101348098218,-0.07485486301433276,-0.8200000000000002,-9.75,-0.5199999999999998,-0.02080075593265064,0.004658847994055776,0.017683213700418504,16.5,-4.8125,93.0,0.6809081999999995,0.1644897499999997,-0.7067871100000003,-0.09887695000000012
391.0,0.00802598051924003,-0.18795426095329798,-0.07277269360394056,-0.8200000000000002,-9.75,-0.5199999999999998,-0.04894309470019629,0.01107123347283434,-0.010532133069145586,16.5,-4.8125,93.0,0.6809081999999995,0.1644897499999997,-0.7067871100000003,-0.09887695000000012
392.0,0.009425662966467015,-0.18893985351833203,-0.07546120710456289,-0.8200000000000002,-9.75,-0.5199999999999998,-0.02138124373620281,0.012468510916542934,0.00011802838671519465,16.5,-4.8125,93.0,0.6809081999999995,0.1644897499999997,-0.7067871100000003,-0.09887695000000012
393.0,0.01162876052289871,-0.18778250777468392,-0.07583441452224551,-0.8200000000000002,-9.75,-0.5199999999999998,0.004871996183081881,0.006482394416087844,-0.005625497491394818,16.5,-4.8125,93.0,0.6809081999999995,0.1644897499999997,-0.7067871100000003,-0.09887695000000012
394.0,0.010417357928943154,-0.18794584445806153,-0.07613556954400116,-0.8200000000000002,-9.75,-0.5199999999999998,0.04100609734712407,0.018362164949979408,-0.017778629638997658,16.5,-4.8125,93.0,0.6809081999999995,0.1644897499999997,-0.7067871100000003,-0.09887695000000012
395.0,0.009830729999618426,-0.187557419099517,-0.07777649926405641,-0.8200000000000002,-9.75,-0.5199999999999998,0.019901219111693957,0.017501376167815896,0.0025304011169479702,16.5,-4.8125,93.0,0.6809081999999995,0.1644897499999997,-0.7067871100000003,-0.09887695000000012
396.0,0.009489457741744698,-0.18700955632395205,-0.07153693914815722,-0.8200000000000002,-9.75,-0.5217741935483872,0.07011946036229859,0.01805953385003698,0.0033915866471836624,16.5,-4.8125,93.01713709677419,0.6808279698387095,0.1644897499999997,-0.7068624201612903,-0.09886120032258067
397.0,0.009039202251768456,-0.18588805970149255,-0.04044154846116809,-0.8200000000000002,-9.75,-0.5245077034183919,-0.04448868791896595,0.004482762212510648,-0.010974998611162549,16.5,-4.8125,93.06152954983148,0.6806405202395281,0.16450432486759725,-0.70703587495065,-0.09882205896485322
398.0,0.006136395633241391,-0.18481778084829942,0.0038439001878672226,-0.8330799823243482,-9.75,-0.519920665672961,-0.06648809152743201,-0.7874183625967938,0.20194006679673965,16.042642509942553,-4.880109368095448,93.0431377311685,0.6811761204025745,0.16261252406216806,-0.7073106617903934,-0.0961502580308137
399.0,0.0029193144419308718,-0.18264332931556276,0.042991638697016124,-0.8464582101535418,-9.75,-0.5398058575979525,-0.1938956726466014,0.24780647592034982,0.0691772294281465,15.547104989637337,-4.961706774006833,93.16968335899634,0.6808167670890655,0.16072216525461874,-0.7084895483577138,-0.09311796545111788
400.0,0.013516157630860164,-0.1849027132075348,0.056113250935125994,-0.8514331155388457,-9.75,-0.5404347509437017,-0.26474686428722993,0.9806507232885462,-0.10702554096784844,16.471678039718405,-4.987800858668631,93.17333339702215,0.6799991595340705,0.16680466325939308,-0.7070708667900165,-0.09861084953026687
401.0,0.0017947051595161093,-0.15708959585107923,0.08230827197293933,-0.8504434394898528,-9.750137634408603,-0.5252759104180873,-0.28561414954952896,-0.19513519783153327,0.11547223455639836,16.79938740695598,-4.978429999226789,93.08312041154872,0.6802864977724788,0.16860251398453527,-0.7060983416535431,-0.10062401413610117
402.0,-0.027697280367559696,-0.18462834453882293,0.09356360815026868,-0.8253745211031605,-9.748914318053199,-0.5780086822191544,-0.8695265651835017,2.1190364035675726,-0.20800172576465106,17.791459408062032,-4.826704388407961,93.39559278059127,0.677391670740888,0.1733372602967554,-0.7068485558759314,-0.10618250962639636
403.0,-0.040549503663255784,-0.1891572769737623,0.106538943008146,-0.7938914143297513,-9.744295868704022,-0.694848831202852,-0.643073600753483,0.33659262762367825,-0.06688535309503049,18.974320294732188,-4.641813725775322,94.07753179295415,0.6719723757234197,0.17937742503169452,-0.7095383712072449,-0.11242908883237865
404.0,-0.033455893270833856,-0.18893452567102814,0.11785088554664105,-0.7856781015310731,-9.741986644029431,-0.7509233496523822,-0.5041463222723833,0.15021952179422476,-0.03640483535644825,19.146888679851326,-4.594518289511923,94.4046087825778,0.6697819907314546,0.18028278891363844,-0.7113498267800811,-0.11309061315606281
405.0,-0.032131042316557876,-0.18982117114922015,0.13106606919656613,-0.7816250141482745,-9.74083203169214,-0.7846559063711691,-0.17557188102844792,0.06325331188671536,-0.0243809300856725,19.196537190841095,-4.571330090701908,94.6022833679184,0.6685431891182808,0.18053961686296635,-0.712480897786129,-0.11314898930945923
406.0,-0.03699631019356593,-0.1963858846810768,0.1415081065352814,-0.7650955905210554,-9.742794722494562,-0.7491639671186452,0.7542919028902891,0.4042419444485826,-0.1165186113399739,19.412300285561393,-4.477292525284318,94.3914220489448,0.6696387644339246,0.18042339635560858,-0.7112358756279425,-0.11468029132487953
407.0,-0.019800716903420636,-0.1896675219623725,0.12582554081328343,-0.7703013885344775,-9.75159472966833,-0.5971432959764681,0.15777708559403866,-1.067320427757103,-0.15511290156039792,18.799833641048018,-4.505197926130309,93.50076900816893,0.6758036915940702,0.17573933206659298,-0.7069229235438188,-0.1120063709032996
408.0,-0.019542134953069362,-0.19069008694662037,0.11681053439453853,-0.7702313394285296,-9.756119945479323,-0.5201642937649404,-0.037424312990456926,-0.08287828275387837,-0.11497183105611054,18.43050653025271,-4.503048505349374,93.0459357182493,0.6790009617175952,0.17275891018184256,-0.7048882911998287,-0.11029988408375913
409.0,-0.021111017848743124,-0.1910050931011017,0.12741519275558194,-0.7699543793916847,-9.75838255338482,-0.497553610902321,-0.045107938132945585,-0.1238833101114305,-0.05091023314592128,18.41346976636705,-4.500516188158557,92.9148723256259,0.6798691788984998,0.17231023135146714,-0.7041887369621969,-0.11032192201458432
