time,linaccel_x,linaccel_y,linaccel_z,gravity_x,gravity_y,gravity_z,gyro_x,gyro_y,gyro_z,euler_x,euler_y,euler_z,quaternion_w,quaternion_y,quaternion_x,quaternion_z
0.0,0.058636363636363625,0.022272727272727284,-0.037727272727272734,-0.18999999999999995,-0.3500000000000003,-9.789999999999997,0.030303030303030304,-0.01893939393939394,0.019886363636363636,233.625,-1.0625,177.9375,0.02032470999999999,0.4513549800000005,-0.8920898399999988,0.0006713900000000007
1.0,0.059135198135198117,0.02096270396270397,-0.03749883449883451,-0.18999999999999995,-0.35000000000000026,-9.789999999999997,0.01074203574203574,-0.012723387723387724,0.030346736596736597,233.625,-1.0625,177.9375,0.02032470999999999,0.45135498000000046,-0.8920898399999988,0.0006713900000000007
2.0,0.05962937062937061,0.022498755213040938,-0.03729541886684745,-0.18999999999999995,-0.34709750566893427,-9.79,-0.01183617969332255,0.027993831565260138,-0.001166591345162775,233.625,-1.0625,177.93749999999997,0.020307546825396827,0.45135498000000046,-0.8920898399999988,0.0006885503628117916
3.0,0.06241037296037294,0.02391608576608578,-0.039571195471195475,-0.18999999999999995,-0.3433121693121693,-9.79,0.03093478280978281,-0.030686211936211932,0.025497257372257373,233.625,-1.0729166666666665,177.9375,0.020231248935185173,0.4513549800000004,-0.8920898399999989,0.0007577238359788364
4.0,0.06001935609193671,0.0200925248586539,-0.03856363528944175,-0.18999999999999995,-0.3416026625704044,-9.79,0.04108211457001779,0.007681274818371591,0.005168923818117367,233.625,-1.099798387096774,177.9375,0.02012197464605733,0.4513549800000004,-0.8920898399999989,0.000870671533538147
5.0,0.056754662452243074,0.015667567647406365,-0.03743419394225847,-0.18999999999999995,-0.34064004096262146,-9.79,0.02619669197290165,-0.011214871597936113,0.016600631671196187,233.625,-1.113407258064516,177.9375,0.020065830064964138,0.4513549800000004,-0.8920898399999989,0.0009285378635432674
6.0,0.05408618151561697,0.0137623498813015,-0.03711705185495509,-0.18999999999999995,-0.34015873015873005,-9.789999999999997,0.009661527428664525,-0.01571627856910115,0.01603538990131732,233.625,-1.120211693548387,177.9375,0.02003775777441754,0.45135498000000046,-0.8920898399999988,0.0009574710285458277
7.0,0.052768897209421385,0.013112613752734727,-0.0368304153283992,-0.18999999999999995,-0.33999999999999986,-9.79,0.00882301921868454,-0.0037618771237722852,0.018498365713587487,233.625,-1.1236139112903225,177.9375,0.020024206073588686,0.4513549800000004,-0.8920898399999989,0.0009714532459677426
8.0,0.04901497695852534,0.011229925987990509,-0.03544069729553601,-0.18999999999999995,-0.33999999999999986,-9.79,0.014573659986966437,0.02145955522971652,0.0007811409021086443,233.625,-1.125,177.9375,0.02001952999999998,0.4513549800000004,-0.8920898399999989,0.0009765600000000008
9.0,0.04970462109575012,0.012445480147093055,-0.03542004142810595,-0.18999999999999995,-0.33999999999999986,-9.79,0.008486906798398733,0.0014571841688777176,-0.004929770050737792,233.625,-1.125,177.9375,0.02001952999999998,0.4513549800000004,-0.8920898399999989,0.0009765600000000008
10.0,0.05193734737484736,0.013182250097572684,-0.0357043883535819,-0.18999999999999995,-0.33999999999999986,-9.79,0.009014220266740428,0.012623014865958414,0.009494034191614837,233.625,-1.125,177.9375,0.02001952999999998,0.4513549800000004,-0.8920898399999989,0.0009765600000000008
11.0,0.051990179063767766,0.012202073240379698,-0.03733899769585254,-0.18999999999999995,-0.33999999999999986,-9.79,0.0036059615507700185,-0.0064725834761117,-0.013657797175942335,233.625,-1.125,177.9375,0.02001952999999998,0.4513549800000004,-0.8920898399999989,0.0009765600000000008
12.0,0.05290285162865807,0.012426641458899528,-0.03670881336405531,-0.18999999999999995,-0.33999999999999986,-9.79,0.001692723718933396,0.006686843342589311,-0.002607628426680845,233.625,-1.125,177.9375,0.02001952999999998,0.4513549800000004,-0.8920898399999989,0.0009765600000000008
13.0,0.057473325062034716,0.016535980148883384,-0.03677907878411911,-0.18999999999999995,-0.33999999999999986,-9.79,0.017367788461538462,-0.025136185638957816,0.008861759460297767,233.625,-1.125,177.9375,0.02001952999999998,0.4513549800000004,-0.8920898399999989,0.0009765600000000008
14.0,0.057805666173056894,0.017786070199311624,-0.0369641849435684,-0.18999999999999997,-0.33999999999999986,-9.79,0.011222347014328024,0.024640361102217245,-0.0005987728127751545,233.625,-1.125,177.9375,0.02001952999999998,0.4513549800000004,-0.892089839999999,0.0009765600000000008
15.0,0.05785017248548073,0.018009187764195578,-0.03797313189830749,-0.18999999999999995,-0.33999999999999986,-9.79,0.006480152198723349,0.009915349718858435,-0.0032472673784620975,233.625,-1.125,177.9375,0.02001952999999998,0.4513549800000004,-0.8920898399999989,0.0009765600000000008
16.0,0.056830289406512066,0.016287162120311192,-0.03670147754965003,-0.18999999999999995,-0.33999999999999986,-9.79,0.021633860993902618,0.004870923153473883,0.00787640508248111,233.625,-1.125,177.9375,0.02001952999999998,0.4513549800000004,-0.8920898399999989,0.0009765600000000008
17.0,0.05561272534841731,0.014955577027897533,-0.03680083958127663,-0.18999999999999995,-0.33999999999999986,-9.79,0.012833059529209373,-0.015016655358746928,0.02042950798478894,233.625,-1.125,177.9375,0.02001952999999998,0.4513549800000004,-0.8920898399999989,0.0009765600000000008
18.0,0.05556956721160673,0.013868115033307548,-0.03640439789139062,-0.18999999999999995,-0.33999999999999986,-9.79,-0.006399552003089983,-0.0194406605794483,0.01656100630638872,233.625,-1.125,177.9375,0.02001952999999998,0.4513549800000004,-0.8920898399999989,0.0009765600000000008
19.0,0.05527765961636928,0.012426213123793776,-0.03618450903934775,-0.18999999999999995,-0.33999999999999986,-9.79,0.0016817076292882753,-0.009385893004844617,0.008443094204182912,233.625,-1.125,177.9375,0.02001952999999998,0.4513549800000004,-0.8920898399999989,0.0009765600000000008
20.0,0.055462690535271156,0.011656014908031042,-0.037208997991256064,-0.18999999999999995,-0.33999999999999986,-9.79,0.013097638248847925,-0.017941794428689588,-0.019763987972153292,233.625,-1.125,177.9375,0.02001952999999998,0.4513549800000004,-0.8920898399999989,0.0009765600000000008
21.0,0.05481695320808222,0.011481853607861678,-0.03674097542242705,-0.18999999999999995,-0.33999999999999986,-9.79,0.02764838488124778,-0.007947324013352238,0.0014315916218637995,233.625,-1.125,177.9375,0.02001952999999998,0.4513549800000004,-0.8920898399999989,0.0009765600000000008
22.0,0.05408481035093936,0.010762367560754663,-0.03587994800898027,-0.18999999999999995,-0.33999999999999986,-9.79,0.009294687167671036,-0.0034381277324825707,-0.015188602839812517,233.625,-1.125,177.9375,0.02001952999999998,0.4513549800000004,-0.8920898399999989,0.0009765600000000008
23.0,0.05394815811139951,0.010832020375854928,-0.03642229235673565,-0.18999999999999997,-0.33999999999999986,-9.79,-0.003813585012368831,0.015330285356625105,-0.0025994011011245665,233.625,-1.125,177.9375,0.02001952999999998,0.4513549800000004,-0.892089839999999,0.0009765600000000008
24.0,0.052465669902129294,0.010396159071302155,-0.03409747490340624,-0.18999999999999995,-0.33999999999999986,-9.79,-0.01281456752686266,0.008130649393819269,0.004844692690605151,233.625,-1.125,177.9375,0.02001952999999998,0.4513549800000004,-0.8920898399999989,0.0009765600000000008
25.0,0.052808162848973175,0.011291820919715045,-0.03429774292651505,-0.18999999999999995,-0.33999999999999986,-9.79,0.0016454162247525293,0.0010074059131843982,0.019551565692263857,233.625,-1.125,177.9375,0.02001952999999998,0.4513549800000004,-0.8920898399999989,0.0009765600000000008
26.0,0.053271520940615616,0.011187745137276882,-0.03567709726970915,-0.18999999999999995,-0.33999999999999986,-9.79,-0.009935230395688251,-0.015152799059536834,0.024534477402583542,233.625,-1.125,177.9375,0.02001952999999998,0.4513549800000004,-0.8920898399999989,0.0009765600000000008
27.0,0.05428092176063038,0.01067079564556152,-0.036647481637335964,-0.18999999999999995,-0.33999999999999986,-9.79,0.0016235758691533929,0.0033417146141521787,0.01125917418516274,233.625,-1.125,177.9375,0.02001952999999998,0.4513549800000004,-0.8920898399999989,0.0009765600000000008
28.0,0.05509539564378273,0.012622518610421843,-0.03575282110362757,-0.18999999999999995,-0.33999999999999986,-9.79,0.0010881927212572375,-0.014730327356335421,0.01936277767930994,233.625,-1.125,177.9375,0.02001952999999998,0.4513549800000004,-0.8920898399999989,0.0009765600000000008
29.0,0.05552665492675898,0.011228012687104782,-0.036758279636596496,-0.18999999999999997,-0.33999999999999986,-9.79,0.04302371828223805,-0.0032188337969262792,-0.0019570334387256864,233.625,-1.125,177.95362903225805,0.02001952999999998,0.4513549800000004,-0.892089839999999,0.0009765600000000008
30.0,0.05369432120082482,0.01352857564521847,-0.037810586507809454,-0.18999999999999995,-0.33999999999999986,-9.79,0.014079752717077117,-0.012253544276461484,-0.0030264016301509798,233.625,-1.125,177.97782258064515,0.02001952999999998,0.4513549800000004,-0.8920898399999989,0.0009765600000000008
31.0,0.059330101047062545,0.015161038753130329,-0.03839734505291217,-0.18999999999999995,-0.3346799007444169,-9.79,-0.05716123251242918,-0.012586381707089303,-0.014888956863462586,233.625,-1.125,178.00580024813897,0.019841664074441667,0.4513549800000004,-0.89210631928536,0.0010720352952853598
32.0,0.07014647948883121,0.017247776850274253,-0.03637099124716191,-0.2124475166410651,-0.33127748237425636,-9.79,0.10741848768643775,-0.20427903117809465,-0.03146349257171317,233.625,-1.2601766513056836,178.00954054905668,0.020294620467840394,0.451329980512033,-0.8921035804312099,0.002199372711646777
33.0,0.08465636629528409,0.01669708941769296,-0.03576738147966036,-0.22703020993343587,-0.33047745086454733,-9.79,0.04362859868192855,-0.14347791509276941,-0.0146538926878417,233.625,-1.3538786482334868,178.00577833904447,0.020716235233920213,0.4513109809011778,-0.8920967102156044,0.002903176678404032
34.0,0.09296157784867462,0.01581268462720076,-0.036811050061050066,-0.23432155657962128,-0.33007743510969284,-9.79,0.010571753515301905,-0.09221642492811846,-0.033768253475914764,233.625,-1.4007296466973886,178.0033932017803,0.020934917455669798,0.4513014810957503,-0.8920932751078017,0.003262954790814917
35.0,0.09983716373232501,0.018474946446200357,-0.03776003339647982,-0.24371124655203746,-0.33570469049969565,-9.79,0.0715868942163167,-0.04317073414286603,-0.0022679654971863635,233.625,-1.4314392250136265,177.98088494636363,0.02130288108475477,0.4512967311930365,-0.8920915575539003,0.0035078783527435677
36.0,0.10549418905467292,0.025860978749831516,-0.039366594636430746,-0.2486053788967421,-0.3431798886741656,-9.79,0.07202267486964417,0.0563443644873308,0.02028586084866977,233.625,-1.4453750377267547,177.932761444533,0.021632827821270517,0.4512943562416796,-0.8920901837992821,0.003469723393530971
37.0,0.1082284053312279,0.028265949613601814,-0.03818481372295758,-0.24956894648882164,-0.34694068678459955,-9.79,0.04912479208053479,0.005068180510631411,-0.015407750973120705,233.625,-1.4422535710907198,177.90168858196952,0.021759866404234832,0.4512939500000001,-0.8920898399999989,0.0033519947945637465
38.0,0.1073647149606959,0.02597281649109494,-0.036547581041806665,-0.24994576356699144,-0.3487929240374612,-9.79,-0.003678903206163063,0.009658451952169224,0.004940569003788669,233.625,-1.43987678554536,177.88632816195252,0.021817287677923854,0.4512939500000001,-0.892089839999999,0.0032887512682496173
39.0,0.10812032274089386,0.02911916258797924,-0.035969820297578274,-0.25013417210607636,-0.34971904266389203,-9.79,0.025688464029672814,-0.011167982460639953,-0.003748698128378618,233.625,-1.4386883927726801,177.878647951944,0.02184575222605868,0.4512939500000001,-0.8920898399999989,0.0032568833760602944
40.0,0.10591500008012436,0.025350424165997948,-0.03574765728718664,-0.2497262952101662,-0.35000000000000026,-9.79,-0.002325513042395644,0.01348793905063736,-0.025515087877925002,233.625,-1.4378665689149561,177.87545821114367,0.02187651278836753,0.4512939500000001,-0.8920898399999989,0.003252207182306944
41.0,0.10691400052882072,0.02577638510352684,-0.038020456209575726,-0.24983870967741936,-0.35000000000000026,-9.79,-0.012816593275841026,0.03808561175405768,-0.03307157130944148,233.625,-1.4375,177.875,0.021957398346774182,0.4512939500000001,-0.8920898399999989,0.00330303237903226
42.0,0.10781183897408775,0.02457677815970387,-0.03704372686409308,-0.24991935483870967,-0.35000000000000026,-9.79,-0.020055939317821257,0.005340882800105763,-0.01974608342147012,233.625,-1.4375,177.875,0.02199849739919354,0.4512939500000001,-0.8920898399999989,0.0033004507056451603
43.0,0.1075740047363031,0.021659386200716856,-0.0376207277265745,-0.24995967741935482,-0.35000000000000026,-9.79,-0.013231846838197643,-0.019016717069892473,0.0015070964541730666,233.625,-1.4375,177.875,0.02201904692540322,0.4512939500000001,-0.8920898399999989,0.0032991598689516106
44.0,0.10726129672299026,0.020554659498207895,-0.03845334101382489,-0.2499798387096774,-0.3500000000000002,-9.79,-0.011767553123399898,-0.004149865591397849,0.008500944060419867,233.625,-1.4375,177.875,0.02202932168850806,0.4512939500000001,-0.892089839999999,0.003298514450604836
45.0,0.10768306771633382,0.02154245071684589,-0.03631336405529955,-0.25,-0.35000000000000026,-9.79,-0.006986347126216078,0.018999915994623653,0.00951130872375832,233.625,-1.4375,177.875,0.022033689999999995,0.4512939500000001,-0.8920898399999989,0.003297776426411287
46.0,0.11226139272913466,0.025909834229390697,-0.03702260944700461,-0.25,-0.35225806451612895,-9.79,0.03312792018689196,-0.030365843413978494,0.008394137224782387,233.625,-1.4375,177.875,0.02209078733870966,0.4512939500000001,-0.8920898399999989,0.0032678434677419323
47.0,0.11958915770609321,0.03543151561699949,-0.03750928059395803,-0.25,-0.35514336917562694,-9.79,0.06817676331285202,-0.07668210765488992,-0.007965709805427545,233.625,-1.4375,177.854006656426,0.022295753467101893,0.4512939500000001,-0.8920898399999989,0.0031928657738095195
48.0,0.12120906938044033,0.03845948540706605,-0.03814020097286226,-0.25,-0.357732974910394,-9.79,0.02060751888120839,-0.028596430171530983,-0.0008226526497695842,233.625,-1.4375,177.83224526369685,0.02247974108838966,0.4512939500000001,-0.8920898399999989,0.0031183751449692736
49.0,0.1184833068026031,0.039222025048312764,-0.03758510222073569,-0.25,-0.3590277777777775,-9.79,0.002633797595304163,-0.02693641747910576,-0.006890037736608691,233.625,-1.4375,177.8213645673323,0.02257173489903355,0.4512939500000001,-0.892089839999999,0.0030811298305491504
50.0,0.11902607960457859,0.03981134534545694,-0.03847617086203195,-0.25,-0.3596751792114692,-9.79,-0.020141224522240393,-0.030018517959342947,-0.0005145813203012734,233.625,-1.4375,177.81592421915002,0.02261773180435549,0.4512939500000001,-0.8920898399999989,0.003062507173339089
51.0,0.11714912851196674,0.04070960412434138,-0.03878949672133855,-0.25,-0.35992831541218606,-9.79,-0.01221274935789439,-0.011780302326445667,-0.007912280579505476,233.625,-1.4375,177.81320404505885,0.022638945965181782,0.4512939500000001,-0.8920898399999989,0.003054072611367123
52.0,0.1172624802826091,0.03972116150917529,-0.03660544984556431,-0.25,-0.35999999999999965,-9.79,-0.034420186762920565,0.006126617909997853,-0.025245502808953966,233.625,-1.4375,177.8125,0.02264404000000001,0.4512939500000001,-0.8920898399999989,0.0030512677419354795
53.0,0.1244316185786393,0.04484004763718945,-0.035699935393432615,-0.25,-0.35999999999999965,-9.790000000000001,-0.021015382001899206,0.007010356648018493,0.010535103649066117,233.625,-1.4375,177.8125,0.02264404000000001,0.4512939500000001,-0.892089839999999,0.0030200093548387085
54.0,0.1301918758866141,0.04993042964585799,-0.038864535854884884,-0.25,-0.35999999999999965,-9.79,-0.026896868940595803,0.03312926781412371,0.02007959656959029,233.625,-1.4375,177.8125,0.02264404000000001,0.4512939500000001,-0.8920898399999989,0.003004380161290323
55.0,0.12922164198836594,0.052145194341618184,-0.03783216552088842,-0.25,-0.35999999999999965,-9.79,0.009401027895293497,-0.008644979508196721,0.007927663108143839,233.625,-1.4375,177.8125,0.02264404000000001,0.4512939500000001,-0.8920898399999989,0.0029965655645161297
56.0,0.12968386566904216,0.05154142717592942,-0.03753847459352154,-0.25,-0.35999999999999965,-9.79,0.0113884419750405,0.035553062281231895,0.00573619498533152,233.625,-1.4375,177.8125,0.022615040593958007,0.4512939500000001,-0.8920898399999989,0.0029626588805683586
57.0,0.12786360622161785,0.05215932245893244,-0.03805099132901884,-0.25,-0.35999999999999965,-9.79,-0.0045596852624797506,0.004860704527712725,-0.004015093031527788,233.625,-1.4375,177.8125,0.022598040942140282,0.4512939500000001,-0.8920898399999989,0.0029442209523809553
58.0,0.1267462382108584,0.05258338856267446,-0.03852473655088119,-0.25,-0.35999999999999965,-9.79,-0.001627346085633352,-0.00810768018185422,0.005589986791412714,233.625,-1.4375,177.8125,0.022589541116231418,0.4512939500000001,-0.892089839999999,0.0029359711213517697
59.0,0.12424442286887005,0.05620785691574583,-0.03880201881307502,-0.25,-0.35999999999999965,-9.790000000000001,0.03196417473944139,0.022989590688642786,0.005564020613448292,233.625,-1.4375,177.8125,0.022585291203276986,0.4512939500000001,-0.892089839999999,0.0029318462058371764
60.0,0.12271948966024149,0.05723447281271162,-0.038483670696860095,-0.25,-0.35999999999999965,-9.790000000000001,0.05409952688584972,0.03346745159432139,0.005365175629304791,233.625,-1.4375,177.8125,0.02258316624679977,0.4512939500000001,-0.892089839999999,0.00292978374807988
61.0,0.12265518773846688,0.05142957639611515,-0.03807568071453349,-0.25,-0.35999999999999965,-9.79,0.025329653355879292,0.03312677495230662,0.013723294419875132,233.625,-1.4375,177.8125,0.02258300999999998,0.4512939500000001,-0.892089839999999,0.0029296900000000035
62.0,0.12587950919181407,0.050160856746444674,-0.037170568851890406,-0.25,-0.35999999999999965,-9.790000000000001,0.026989843479014917,-0.0034729448491155022,0.004947374696496705,233.625,-1.4375,177.8125,0.02258300999999998,0.4512939500000001,-0.892089839999999,0.0029296900000000035
63.0,0.12978158602150539,0.052452956989247304,-0.037716397849462374,-0.25,-0.35999999999999965,-9.790000000000001,-0.008698756720430108,-0.05383064516129032,0.019350638440860213,233.625,-1.4375,177.8125,0.02258300999999998,0.4512939500000001,-0.8920898399999989,0.0029296900000000035
64.0,0.12410662721123827,0.05273549687825181,-0.036623981096080484,-0.25,-0.35999999999999965,-9.790000000000001,0.03782674026621575,-0.04391801075268817,0.0017701423213666327,233.625,-1.4375,177.8125,0.0226129851925078,0.4512939500000001,-0.892089839999999,0.0029586490842872033
65.0,0.1231960848074922,0.046325149583766906,-0.037343273066250446,-0.2491675338189386,-0.36016649323621197,-9.790000000000003,0.017700542512140132,0.02784771451179327,0.0013266074835241067,233.625,-1.434898543184183,177.8125,0.02261273008324661,0.4512939500000001,-0.892089839999999,0.002948232226847037
66.0,0.11201211254059847,0.04197450966480623,-0.03675440473938134,-0.2347255068899191,-0.36070885756629745,-9.79,0.09443027110333302,-0.08095782880837511,0.020355882248604674,233.625,-1.3619079714943396,177.81396627565982,0.022263280403304622,0.4512939500000001,-0.8920898399999989,0.002396742853403967
67.0,0.10013508852836375,0.037132416122725706,-0.03609763247721755,-0.22171759215463716,-0.3603544287831486,-9.79,0.026617017272096612,-0.09881224773752088,0.006716919618925992,233.625,-1.3029297921987828,177.8132331378299,0.021982118104878115,0.4512939500000001,-0.8920898399999989,0.0019701686847664987
68.0,0.09354768699331652,0.03783776144077915,-0.03635610790527545,-0.21521363478699615,-0.36017721439157413,-9.79,0.034994896564875755,-0.06056883828248292,0.01767187586809075,233.625,-1.2734407025510044,177.81286656891496,0.02184153695566486,0.4512939500000001,-0.8920898399999989,0.0017568816004477645
69.0,0.09014036511239942,0.038079950313301,-0.036449661810613945,-0.21196165610317566,-0.36008860719578695,-9.789999999999997,0.019080493878880975,-0.019027698711133932,0.011034858723626933,233.625,-1.258696157727115,177.81268328445748,0.021770309656292362,0.4512939500000001,-0.8920898399999988,0.0016493330869044222
70.0,0.08875584652802393,0.03823812612119064,-0.03579450992555833,-0.21036168132942357,-0.3600391006842617,-9.79,0.012517914433237014,-0.005135647562562885,0.010463949413042154,233.625,-1.2514051808406648,177.8125916422287,0.021735172341153464,0.4512939500000001,-0.8920898399999989,0.0015963368426197438
71.0,0.09006564414528123,0.0390738716928233,-0.03597323811940748,-0.2100000000000003,-0.35999999999999965,-9.79,0.0006083913846010622,-0.012026946647662374,0.01254619946026196,233.625,-1.25,177.8125,0.021728519999999994,0.4512939500000001,-0.8920898399999989,0.0015869099999999982
72.0,0.08988157362350907,0.03846179626824789,-0.0380597037371231,-0.2100000000000003,-0.35999999999999965,-9.79,0.005897015171208719,-0.02600683366812399,0.02176797217119798,233.625,-1.25,177.8125,0.021728519999999994,0.4512939500000001,-0.8920898399999989,0.0015869099999999982
73.0,0.08766365892172341,0.039484472516730595,-0.039083615309421754,-0.2100000000000003,-0.35999999999999965,-9.79,0.005766411008346493,0.0012923904052936312,0.016375291375291375,233.625,-1.25,177.8125,0.021728519999999994,0.4512939500000001,-0.8920898399999989,0.0015869099999999982
74.0,0.0888684863523573,0.03917906027375331,-0.0385990554710638,-0.2100000000000003,-0.35999999999999965,-9.79,0.015278555991355159,-0.009055070839670215,0.012288881773793323,233.625,-1.25,177.8125,0.021728519999999994,0.4512939500000001,-0.892089839999999,0.0015869099999999982
75.0,0.08874441687344908,0.041758264628191794,-0.03778836148243016,-0.2100000000000003,-0.35999999999999965,-9.79,0.015982950452253262,-0.01612803169775074,0.008967021532057952,233.625,-1.25,177.8125,0.021728519999999994,0.4512939500000001,-0.8920898399999989,0.0015869099999999982
76.0,0.08861910669975182,0.04072032338109342,-0.03669815096454014,-0.2100000000000003,-0.35999999999999965,-9.79,-0.0040122468582406146,-0.01322065356599696,0.007259565356599696,233.625,-1.25,177.8125,0.021728519999999994,0.4512939500000001,-0.8920898399999989,0.0015869099999999982
77.0,0.0898879928315412,0.04113470972315926,-0.03490821526721631,-0.2100000000000003,-0.35999999999999965,-9.79,-0.0062574724385338325,0.0068728746034287126,-0.005555543644123247,233.625,-1.25,177.8125,0.021728519999999994,0.4512939500000001,-0.8920898399999989,0.0015869099999999982
78.0,0.09074176316515023,0.03983410424123224,-0.03584120440780171,-0.2100000000000003,-0.35999999999999965,-9.79,-0.0052534260455696456,-0.003550225229303013,-0.002963876040423907,233.625,-1.25,177.8125,0.021728519999999994,0.4512939500000001,-0.8920898399999989,0.0015869099999999982
79.0,0.09053217190515575,0.04033848812477845,-0.0366614971050455,-0.2100000000000003,-0.35999999999999965,-9.79,0.00454355232581039,-0.00047438420674307774,0.011492827848674622,233.625,-1.25,177.8125,0.021728519999999994,0.4512939500000001,-0.8920898399999989,0.0015869099999999982
80.0,0.09028841845878133,0.04010224654377881,-0.03870807731694828,-0.2100000000000003,-0.35999999999999965,-9.79,0.01071268561187916,0.018552687371991807,0.010773689516129031,233.625,-1.25,177.8125,0.021728519999999994,0.4512939500000001,-0.8920898399999989,0.0015869099999999982
81.0,0.0899322865754317,0.04005616359447005,-0.03911179770050737,-0.21000000000000033,-0.35999999999999965,-9.789999999999997,0.007200642659312013,0.017269741627100498,0.008713648582600195,233.625,-1.25,177.8125,0.021728519999999994,0.4512939500000001,-0.8920898399999988,0.0015869099999999982
82.0,0.09101325030256478,0.04082429275473631,-0.03671411697621375,-0.21000000000000033,-0.35999999999999965,-9.79,-0.0024160637189871055,-0.005078006810617696,0.01282136602197086,233.625,-1.25,177.8125,0.021728519999999994,0.4512939500000001,-0.8920898399999989,0.0015869099999999982
83.0,0.09040069708156333,0.04118404739193632,-0.035493830080198456,-0.2100000000000003,-0.35999999999999965,-9.79,-0.00010444510090874544,-0.001293657574143395,0.02097884117955983,233.625,-1.25,177.8125,0.021728519999999994,0.4512939500000001,-0.892089839999999,0.0015869099999999982
84.0,0.09075113948370969,0.039944187157506625,-0.037549024221240665,-0.2100000000000003,-0.35999999999999965,-9.79,0.005170569400538183,-0.010603889115855816,0.001146891898712919,233.625,-1.25,177.8125,0.021728519999999994,0.4512939500000001,-0.8920898399999989,0.0015869099999999982
85.0,0.09150460199991936,0.039972093578753316,-0.039409432745540963,-0.2100000000000003,-0.35999999999999965,-9.79,0.006849557613735553,-0.01444652981138413,-0.007147048162266685,233.625,-1.25,177.8125,0.021728519999999994,0.4512939500000001,-0.8920898399999989,0.0015869099999999982
86.0,0.09187129490927615,0.038794979791858045,-0.03844402007981613,-0.2100000000000003,-0.35999999999999965,-9.79,-0.00406521104199304,-0.02781503872327233,0.01120789745432045,233.625,-1.25,177.8125,0.021728519999999994,0.4512939500000001,-0.8920898399999989,0.0015869099999999982
87.0,0.0920140278555991,0.04064235972144401,-0.0395523893380293,-0.2100000000000003,-0.35999999999999965,-9.79,0.02297330254942768,-0.017461716060994156,0.008821877751540863,233.625,-1.25,177.8125,0.021728519999999994,0.4512939500000001,-0.8920898399999989,0.0015869099999999982
88.0,0.09092769014139979,0.04193627161369098,-0.03912991846862816,-0.2100000000000003,-0.35999999999999965,-9.79,0.009918034754224272,-0.02617249042400252,0.021364798116310212,233.625,-1.25,177.8125,0.021728519999999994,0.4512939500000001,-0.8920898399999989,0.0015869099999999982
89.0,0.09111244828850185,0.04223668619506289,-0.038323704131456485,-0.2100000000000003,-0.35999999999999965,-9.79,0.002186965027796519,-0.015897819693711016,0.011481846748861902,233.625,-1.25,177.8125,0.021728519999999994,0.4512939500000001,-0.892089839999999,0.0015869099999999982
90.0,0.0905209418861864,0.04221316225686673,-0.038672482564261965,-0.21000000000000033,-0.35999999999999965,-9.79,0.0053505504207897545,-0.026742726287471343,0.015263601007617658,233.625,-1.25,177.8125,0.021728519999999994,0.4512939500000001,-0.8920898399999988,0.0015869099999999982
91.0,0.09038702181157954,0.041224447133396146,-0.03784368545086547,-0.2100000000000003,-0.35999999999999965,-9.79,0.003411937741412247,-0.00819921674175056,0.010694765764354734,233.625,-1.25,177.8125,0.021728519999999994,0.4512939500000001,-0.8920898399999989,0.0015869099999999982
92.0,0.09099123763275684,0.04182122060503955,-0.038165178993743,-0.2100000000000003,-0.35999999999999965,-9.79,-0.006353544456757255,-0.01386107479207115,0.012522901172419902,233.625,-1.25,177.8125,0.021728519999999994,0.4512939500000001,-0.892089839999999,0.0015869099999999982
93.0,0.09145103257824376,0.04109762042501376,-0.039899675636538276,-0.2100000000000003,-0.35999999999999965,-9.79,-0.010076659975040567,0.011975780300604701,0.018124363658800442,233.625,-1.25,177.8125,0.021728519999999994,0.4512939500000001,-0.8920898399999989,0.0015869099999999982
94.0,0.09070470463459535,0.04204204642478576,-0.03974692418663543,-0.2100000000000003,-0.35999999999999965,-9.79,-0.006973163494284071,0.007093509297024515,0.01862253562752717,233.625,-1.25,177.8125,0.021728519999999994,0.4512939500000001,-0.8920898399999989,0.0015869099999999982
95.0,0.09133545523588445,0.04156028681617262,-0.03841347047203578,-0.2100000000000003,-0.35999999999999965,-9.79,0.0025203481509168935,-0.013266685047991953,0.021821886675188897,233.625,-1.25,177.8125,0.021728519999999994,0.4512939500000001,-0.8920898399999989,0.0015869099999999982
96.0,0.091522902349125,0.04085582461531994,-0.03988022924872561,-0.21000000000000033,-0.35999999999999965,-9.79,0.006620767153415435,-0.03023551215376137,0.02448592577283394,233.625,-1.25,177.8125,0.021728519999999994,0.4512939500000001,-0.8920898399999988,0.0015869099999999982
97.0,0.09081608176769465,0.04071147110058401,-0.03794739870344709,-0.21000000000000033,-0.35999999999999965,-9.79,0.016642849757769113,-0.01783302662838953,0.015039528963420094,233.625,-1.25,177.8125,0.021728519999999994,0.4512939500000001,-0.8920898399999989,0.0015869099999999982
98.0,0.09190126791065445,0.040940570598902826,-0.03615671200274255,-0.2100000000000003,-0.35999999999999965,-9.79,0.010125008656291706,-0.011076796843462959,0.0007861986028506723,233.625,-1.25,177.8125,0.021728519999999994,0.4512939500000001,-0.892089839999999,0.0015869099999999982
99.0,0.09142706075433464,0.04121644689994769,-0.03657723162171867,-0.2100000000000003,-0.35999999999999965,-9.79,-0.0023186603740873975,-0.004577344606595004,0.00356777555762881,233.625,-1.25,177.8125,0.021728519999999994,0.4512939500000001,-0.8920898399999989,0.0015869099999999982
100.0,0.09195327987498131,0.04209898716654401,-0.037302440695651966,-0.2100000000000003,-0.35999999999999965,-9.79,0.0006337691867008368,-0.010677639966458714,-0.009534251966744695,233.625,-1.25,177.8125,0.021728519999999994,0.4512939500000001,-0.8920898399999989,0.0015869099999999982
101.0,0.09119553394670725,0.042194003195523556,-0.03543658552028794,-0.2100000000000003,-0.35999999999999965,-9.79,-0.0013872244696296124,-0.0281591895777925,0.007093996764847173,233.625,-1.25,177.8125,0.021728519999999994,0.4512939500000001,-0.8920898399999989,0.0015869099999999982
102.0,0.08996001108005333,0.04196037008411414,-0.03722546552689335,-0.2100000000000003,-0.35999999999999965,-9.79,-0.008051029263350787,-0.0015781408496902925,0.002459936502770981,233.625,-1.25,177.8125,0.021728519999999994,0.4512939500000001,-0.8920898399999989,0.0015869099999999982
103.0,0.09065821812596,0.04305845051006341,-0.038377407538697866,-0.2100000000000003,-0.35999999999999965,-9.79,-0.002058962542833511,0.006820990389538778,0.004452469573437315,233.625,-1.25,177.8125,0.021728519999999994,0.4512939500000001,-0.8920898399999989,0.0015869099999999982
104.0,0.09206239970573993,0.04508401593781407,-0.038320137372166524,-0.2100000000000003,-0.35999999999999965,-9.79,0.023136551707051187,0.0023388950987155988,0.023449619882372222,233.625,-1.25,177.8125,0.021728519999999994,0.4512939500000001,-0.892089839999999,0.0015869099999999982
105.0,0.0912334331034903,0.044914216405631605,-0.03548264933124456,-0.2100000000000003,-0.35999999999999965,-9.79,0.0029376927269747256,0.0004405393607721914,0.018618420363022338,233.625,-1.25,177.8125,0.021728519999999994,0.4512939500000001,-0.8920898399999989,0.0015869099999999982
106.0,0.09180010305771227,0.04464459097094374,-0.03863521572080365,-0.2100000000000003,-0.35999999999999965,-9.79,-0.006919875130072842,0.009889319268790523,0.01736191016969503,233.625,-1.25,177.8125,0.021728519999999994,0.4512939500000001,-0.8920898399999989,0.0015869099999999982
107.0,0.09182108032085265,0.04344195360512999,-0.03720492126384426,-0.2100000000000003,-0.35999999999999965,-9.79,-0.008875176448017238,0.019917925615725758,0.0066638413741854155,233.625,-1.25,177.8125,0.021728519999999994,0.4512939500000001,-0.8920898399999989,0.0015869099999999982
108.0,0.09121043935397469,0.04375222680256499,-0.03619318643837374,-0.2100000000000003,-0.35999999999999965,-9.79,-0.00752478580465378,0.004178342848185459,0.006261608187092709,233.625,-1.25,177.8125,0.021728519999999994,0.4512939500000001,-0.8920898399999989,0.0015869099999999982
109.0,0.09340914987789983,0.04351114902122968,-0.036854737780141006,-0.2100000000000003,-0.35999999999999965,-9.79,-0.024361428362184412,-0.0033373674376698578,0.01338229492841388,233.625,-1.25,177.8125,0.021728519999999994,0.4512939500000001,-0.8920898399999989,0.0015869099999999982
110.0,0.09627557845091658,0.04975489162820068,-0.03687836394730257,-0.2100000000000003,-0.35999999999999965,-9.79,0.01566249520366326,0.015012141918521989,0.007006675722531603,233.625,-1.25,177.8125,0.021728519999999994,0.4512939500000001,-0.892089839999999,0.0015869099999999982
111.0,0.09333517248735768,0.04856163259506131,-0.03661573660181881,-0.21000000000000033,-0.35999999999999965,-9.79,0.03595413278116842,-0.013789703159093768,0.016924929710277006,233.625,-1.25,177.8125,0.021728519999999994,0.4512939500000001,-0.8920898399999988,0.0015869099999999982
112.0,0.09188135992519443,0.047309490132656104,-0.035713142238441416,-0.2100000000000003,-0.35999999999999965,-9.79,0.026217593784337412,-0.021991817785384057,0.014574856048174857,233.625,-1.25,177.8125,0.021728519999999994,0.4512939500000001,-0.8920898399999989,0.0015869099999999982
113.0,0.08959865342773768,0.04442168705384106,-0.037682436103611966,-0.2100000000000003,-0.35999999999999965,-9.79,-0.005527186133325571,-0.0030182773565317787,0.004591465159883474,233.625,-1.25,177.8125,0.021728519999999994,0.4512939500000001,-0.892089839999999,0.0015869099999999982
114.0,0.0910809644309904,0.04433367231103964,-0.037832533188282405,-0.2100000000000003,-0.35999999999999965,-9.79,-0.009703729543089585,0.012270327822974806,0.013043251190363574,233.625,-1.25,177.8125,0.021728519999999994,0.4512939500000001,-0.8920898399999989,0.0015869099999999982
115.0,0.08984157082511658,0.044376033305924045,-0.036903779601425296,-0.2100000000000003,-0.35999999999999965,-9.79,-0.0062098752574168805,-0.01076229866755686,0.011468145646410475,233.625,-1.25,177.8125,0.021728519999999994,0.4512939500000001,-0.8920898399999989,0.0015869099999999982
116.0,0.09055861532458173,0.04521587589049868,-0.03673390348595214,-0.2100000000000003,-0.35999999999999965,-9.79,-0.011031990414632195,-0.006236476802009125,0.013874957476186663,233.625,-1.25,177.8125,0.021728519999999994,0.4512939500000001,-0.8920898399999989,0.0015869099999999982
117.0,0.09058936504442486,0.045450137076762986,-0.037259050068038105,-0.2100000000000003,-0.35999999999999965,-9.79,-0.009241956745777637,-0.002661459167133595,0.012207523713279437,233.625,-1.25,177.8125,0.021728519999999994,0.4512939500000001,-0.8920898399999989,0.0015869099999999982
118.0,0.09088930122297056,0.04657002171215881,-0.03771567041829139,-0.21000000000000027,-0.3599999999999997,-9.790000000000003,0.021309971530485642,-0.02404005394806806,0.025770310838355192,233.625,-1.25,177.8125,0.02172852,0.4512939500000001,-0.892089839999999,0.0015869099999999982
119.0,0.09067563409008009,0.04677937884345668,-0.038272150768819777,-0.21000000000000024,-0.35999999999999976,-9.790000000000003,0.031778848562027034,-0.033270289164727275,0.031430972786271695,233.625,-1.25,177.8125,0.021728520000000005,0.4512939500000001,-0.8920898399999992,0.0015869099999999982
120.0,0.09034984382144268,0.04656662328730175,-0.03888535742541704,-0.2100000000000002,-0.3599999999999998,-9.790000000000003,0.03233450619769432,-0.03530789013975155,0.03375982517730633,233.625,-1.25,177.8125,0.021728520000000008,0.4512939500000001,-0.8920898399999994,0.0015869099999999985
121.0,0.0898702484985795,0.0461303268961053,-0.03948610062214551,-0.21000000000000016,-0.3599999999999999,-9.790000000000001,0.02835931599956846,-0.0351507713884993,0.03411865717265437,233.625,-1.25,177.8125,0.021728520000000008,0.4512939500000001,-0.8920898399999995,0.0015869099999999987
122.0,0.08936151739798304,0.0456100981767181,-0.04007146196487011,-0.2100000000000001,-0.36,-9.79,0.021801743137647767,-0.0334790122219996,0.03370233086221866,233.625,-1.25,177.8125,0.021728520000000008,0.4512939500000001,-0.8920898399999997,0.001586909999999999
123.0,0.08882062712883192,0.04501227208976158,-0.040658936084952926,-0.21000000000000008,-0.36000000000000004,-9.789999999999996,0.013164320777399322,-0.030300634892807054,0.032359810158284916,233.625,-1.25,177.8125,0.02172852000000001,0.4512939500000001,-0.8920898399999999,0.0015869099999999993
124.0,0.08827973685968078,0.04441444600280506,-0.04124641020503574,-0.21000000000000002,-0.3600000000000001,-9.789999999999994,0.0045268984171508726,-0.027122257563614506,0.031017289454351164,233.625,-1.25,177.8125,0.021728520000000015,0.4512939500000001,-0.8920898400000001,0.0015869099999999995
125.0,0.09110624123422159,0.04448137202520093,-0.03948610276275075,-0.2100000000000002,-0.3599999999999999,-9.789999999999997,-0.005930466506378146,-0.012961612151873372,0.0016270606536209625,233.625,-1.25,177.8125,0.021728520000000005,0.4512939500000001,-0.8920898399999995,0.0015869099999999987
126.0,0.09337726088777978,0.04496389460625086,-0.038429644066390226,-0.21000000000000021,-0.3599999999999998,-9.790000000000001,0.011909922709361701,-0.018249269138995647,-0.01732885608236239,233.625,-1.25,177.8125,0.021728520000000008,0.4512939500000001,-0.8920898399999994,0.0015869099999999985
127.0,0.09311387011772705,0.04615321467530445,-0.03545205663122915,-0.2100000000000001,-0.36,-9.789999999999997,-0.0001449389203596772,0.03242807223456767,-0.00039219901378035986,233.625,-1.25,177.8125,0.02172852000000001,0.4512939500000001,-0.8920898399999998,0.001586909999999999
128.0,0.0925216905581562,0.0448806842214977,-0.033953787524615024,-0.21000000000000002,-0.36,-9.789999999999996,-0.01189815911064158,0.01959231161545327,-0.0006998708786927575,233.625,-1.25,177.8125,0.021728520000000015,0.4512939500000001,-0.89208984,0.0015869099999999995
129.0,0.0917651166038263,0.048007727039985126,-0.03741805148256762,-0.21000000000000002,-0.36000000000000004,-9.789999999999994,0.01755515989386957,-0.001539589442815249,0.016763254666480473,233.625,-1.25,177.8125,0.021728520000000015,0.4512939500000001,-0.8920898400000001,0.0015869099999999995
130.0,0.09175953079178886,0.05096774193548389,-0.03639882697947215,-0.21000000000000002,-0.3600000000000001,-9.789999999999992,0.01781524926686217,0.0021627565982404694,0.005865102639296187,233.625,-1.25,177.8125,0.021728520000000015,0.4512939500000001,-0.8920898400000001,0.0015869099999999995
131.0,0.0922664432341852,0.0468705488060327,-0.039223572126797945,-0.21000000000000002,-0.3600000000000001,-9.789999999999994,0.013039379974863846,-0.004678117581343387,-0.0011258902387934655,233.625,-1.25,177.8125,0.021728520000000015,0.45129395000000005,-0.8920898400000002,0.0015869099999999998
132.0,0.09155844155844156,0.047071638039379984,-0.03644463063817903,-0.21000000000000002,-0.36,-9.789999999999996,0.012568077084206116,-0.0036220499930177345,-0.01550062840385421,233.625,-1.25,177.8125,0.021728520000000008,0.45129395000000005,-0.8920898400000001,0.00158691
133.0,0.09397570171763722,0.04670297444490994,-0.03543639156542383,-0.21000000000000002,-0.36,-9.789999999999996,0.004634478424801005,-0.028112344644602705,0.008378718056137411,233.625,-1.25,177.8125,0.021732457419354846,0.45129395000000005,-0.8920898400000001,0.0015790351612903226
134.0,0.094381790252758,0.05108951263789974,-0.03219815668202765,-0.21000000000000002,-0.36,-9.789999999999996,-0.004867511520737327,-0.01153906577293674,0.0057900432900432905,233.625,-1.25,177.8125,0.021732588666666674,0.4512939500000001,-0.8920898400000001,0.0015787726666666667
135.0,0.09416873807196391,0.04905241353628451,-0.03645913047525951,-0.21000000000000002,-0.36000000000000004,-9.789999999999996,-0.009877141227947679,-0.023782322068612388,-0.000597565516920355,233.625,-1.25,177.8125,0.021732304297491047,0.45129395000000005,-0.8920898400000001,0.0015793414050179213
136.0,0.09673036819811015,0.048233789507983064,-0.03772963506028022,-0.21,-0.3600000000000001,-9.789999999999994,-0.008015131150211796,0.00589615917236885,-0.023615184099055067,233.625,-1.25,177.8125,0.02173041214874553,0.45129395000000005,-0.8920898400000001,0.0015831257025089606
137.0,0.09663497882046271,0.04540721733463671,-0.037559832192896714,-0.21,-0.3600000000000001,-9.789999999999992,-0.010055952671880091,-0.017579779651352233,-0.03187724014336918,233.625,-1.25,177.8125,0.021729466074372775,0.45129395000000005,-0.8920898400000001,0.0015850178512544803
138.0,0.09509351580319325,0.044479635060280236,-0.036524600847181496,-0.21,-0.3600000000000001,-9.789999999999992,-0.004964972303681981,-0.03143124796350603,-0.022307754969045294,233.625,-1.25,177.8125,0.021728869992831558,0.4512939500000001,-0.8920898400000002,0.0015862100143369173
139.0,0.09481753014011081,0.045276963180189006,-0.03514988595633758,-0.21,-0.3600000000000001,-9.789999999999992,0.015314434669273378,-0.015782828282828284,-0.005355979146301726,233.625,-1.25,177.8125,0.02172862937275987,0.4512939500000001,-0.8920898400000002,0.0015866912544802866
140.0,0.09180274733755212,0.04578175644389568,-0.039739157277357634,-0.21,-0.3600000000000001,-9.789999999999994,-0.010794489890415187,-0.012424756906930082,0.012714153418737457,233.625,-1.25,177.8125,0.021728520000000015,0.45129395000000005,-0.8920898400000002,0.00158691
141.0,0.09075474610279366,0.04936855824801497,-0.04189140985405842,-0.21,-0.3600000000000001,-9.789999999999996,-0.017850405583852105,0.012951029822846464,-7.824424208125336e-05,233.625,-1.25,177.8125,0.021728520000000015,0.45129395000000005,-0.8920898400000001,0.00158691
142.0,0.09121315017749654,0.052147622232511896,-0.04286652604139872,-0.21,-0.3600000000000001,-9.789999999999994,-0.023404674932688517,-0.0163434000445885,0.015265130078372862,233.625,-1.25,177.8125,0.021728520000000015,0.45129395000000005,-0.8920898400000001,0.00158691
143.0,0.0901178165354736,0.049456020304916755,-0.04107646927680885,-0.21,-0.3600000000000001,-9.789999999999992,0.004426694791720257,-0.012814906278403732,0.013192193582685943,233.625,-1.25,177.8125,0.021728520000000015,0.45129395000000005,-0.8920898400000001,0.0015869099999999998
144.0,0.09233163554046409,0.048379036545420265,-0.036887208245442546,-0.21,-0.3600000000000001,-9.789999999999992,0.02219135326096277,-0.012272555778498053,0.01814301761245734,233.625,-1.25,177.8125,0.021728520000000015,0.45129395000000005,-0.8920898400000002,0.0015869099999999995
145.0,0.09399804496578693,0.04924894102313458,-0.04072173346366896,-0.21,-0.3600000000000001,-9.789999999999992,0.02927460084718149,-0.00011200716845878068,0.014459107201042685,233.625,-1.25,177.8125,0.021728520000000015,0.4512939500000001,-0.8920898400000002,0.0015869099999999995
146.0,0.09543988269794723,0.046568914956011745,-0.038577712609970685,-0.21,-0.3600000000000001,-9.789999999999992,0.012341153470185728,-0.016801075268817203,-0.022116324535679372,233.625,-1.25,177.8125,0.021728520000000015,0.4512939500000001,-0.8920898400000002,0.0015869099999999995
147.0,0.09578739002932554,0.04769501466275661,-0.03716568914956013,-0.21000000000000002,-0.3600000000000001,-9.789999999999994,0.01953201368523949,0.014913245356793742,-0.047000244379276634,233.625,-1.25,177.8125,0.021728520000000015,0.45129395000000005,-0.8920898400000002,0.0015869099999999998
148.0,0.09849853372434018,0.04589051808406648,-0.03515542521994136,-0.21000000000000002,-0.3600000000000001,-9.789999999999994,0.025391006842619745,0.023753665689149557,-0.020979960899315735,233.625,-1.25,177.8125,0.021728520000000015,0.45129395000000005,-0.8920898400000002,0.0015869099999999995
149.0,0.09980645161290325,0.044235581622678405,-0.036287390029325524,-0.21000000000000002,-0.3600000000000001,-9.789999999999992,-0.0055413000977517085,-0.011400293255131965,-0.022586754643206253,233.625,-1.25,177.8125,0.021728520000000015,0.45129395000000005,-0.8920898400000002,0.0015869099999999995
150.0,0.09878547259192422,0.04394161215128957,-0.03886442589668396,-0.21000000000000002,-0.36000000000000004,-9.789999999999994,-0.0033205034213098722,-0.008364820663207762,-0.018920830513572448,233.625,-1.25,177.8125,0.021730943027295294,0.4512939500000001,-0.8920898400000001,0.001582063945409429
151.0,0.09428520941424168,0.043516505000375974,-0.0430343634859764,-0.21000000000000002,-0.36,-9.789999999999996,0.006488269794721408,0.0043861380554928945,0.003560418076547108,233.625,-1.25,177.8125,0.021733668933002492,0.4512939500000001,-0.8920898400000001,0.0015785808436724565
152.0,0.09524091499897952,0.04407084850633238,-0.040844370683080375,-0.21000000000000002,-0.36000000000000004,-9.789999999999996,0.02895458036587069,-0.04459552544229964,0.016713964798642216,233.625,-1.25,177.8125,0.021734094405057323,0.45129395000000005,-0.8920898400000001,0.0015797454832801607
153.0,0.09293727777598748,0.042951322870677724,-0.03831773065644035,-0.21000000000000002,-0.3600000000000001,-9.789999999999996,0.018581552855746405,0.00023967967516354619,0.012881271953852597,233.625,-1.25,177.8125,0.0217328071718067,0.45129395000000005,-0.8920898400000002,0.0015803278030840128
154.0,0.09692318434253919,0.04706217169926849,-0.034041563275434256,-0.21000000000000002,-0.3600000000000001,-9.789999999999994,0.01570573243960341,0.018448285585382355,0.027335064129418968,233.625,-1.25,177.8125,0.021730663585903358,0.45129395000000005,-0.8920898400000002,0.0015836189015420062
155.0,0.09756039659265467,0.04675350858818603,-0.04168804985337245,-0.21000000000000002,-0.3600000000000001,-9.789999999999992,0.0107854175394498,0.0034365835777126087,0.01683271365731043,233.625,-1.25,177.8125,0.02172951607334871,0.45129395000000005,-0.8920898400000002,0.0015854158899769582
156.0,0.09565703114090214,0.04754922496857983,-0.03791788856304987,-0.21000000000000002,-0.3600000000000001,-9.789999999999992,0.011005795279988828,0.02785923753665689,0.028566191872643483,233.625,-1.25,177.8125,0.021728894992319524,0.45129395000000005,-0.8920898400000002,0.001586347511520737
157.0,0.09648233486943167,0.04792068146906858,-0.03569752827817345,-0.21000000000000002,-0.3600000000000001,-9.789999999999992,-0.012908462505236697,-0.013955802262253873,0.03144637620444072,233.625,-1.25,177.8125,0.02172861374807989,0.4512939500000001,-0.8920898400000002,0.0015867225038402456
158.0,0.0951026392961877,0.04533724340175955,-0.039325513196480956,-0.21,-0.3600000000000001,-9.789999999999992,-0.0065982404692082105,0.024560117302052785,0.015579178885630497,233.625,-1.25,177.8125,0.021728520000000015,0.4512939500000001,-0.8920898400000002,0.0015869099999999995
159.0,0.09306353861192572,0.04903030303030305,-0.03569501466275661,-0.21,-0.36000000000000004,-9.789999999999996,-0.02283724340175953,0.02463343108504399,-0.0036045943304007823,233.625,-1.25,177.8125,0.021730619956989265,0.4512939500000001,-0.8920898400000004,0.0015837600645161284
160.0,0.09584645462064817,0.05163831867057675,-0.03746266636589218,-0.21000000000000016,-0.3599999999999999,-9.789999999999997,0.005859463117527632,0.028877171215880893,0.001083728099857132,233.625,-1.25,177.8125,0.02172956997849463,0.4512939500000001,-0.8920898399999996,0.0015853350322580632
161.0,0.09754199563876981,0.053509775171065505,-0.03849672907737424,-0.21000000000000024,-0.35999999999999976,-9.79,-0.0007817787051658024,0.024702515226708775,0.01502133619069103,233.625,-1.25,177.8125,0.021729044989247312,0.4512939500000001,-0.8920898399999992,0.0015861225161290307
162.0,0.09938846279168856,0.05860221389522464,-0.03801289152902055,-0.21000000000000033,-0.3599999999999997,-9.789999999999996,0.03440826708635849,-0.020981623165762953,-0.01056208452041785,233.625,-1.25,177.8125,0.02175094870728795,0.45129395000000005,-0.8920898399999988,0.0015643500454002365
163.0,0.0995451004323939,0.05869850341424559,-0.03707418054742994,-0.21000000000000035,-0.35999999999999965,-9.789999999999992,0.02428517209550025,-0.005991401669427504,-0.0013471319533639213,233.625,-1.25,177.8125,0.021771233708482697,0.45129395000000005,-0.8920898399999988,0.001544130667861407
164.0,0.09568176932425261,0.05371396173708931,-0.03680467356297991,-0.21000000000000033,-0.35999999999999965,-9.789999999999997,-0.010520687352567167,-0.00234128518162015,0.006008304285965669,233.625,-1.25,177.8125,0.02178131058542416,0.45129395000000005,-0.8920898399999988,0.0015341194145758637
165.0,0.09278257200703943,0.051227948610480134,-0.038651716434095415,-0.21000000000000033,-0.35999999999999965,-9.79,-0.009835405711023038,0.024527248228048484,0.016519971001543628,233.625,-1.25,177.8125,0.0217864146475508,0.45129395000000005,-0.8920898399999989,0.001529015352449221
166.0,0.09181859335118994,0.05182113156330458,-0.03783056251812298,-0.21000000000000035,-0.35999999999999965,-9.789999999999996,-0.01331999060192729,0.001164413764561877,0.02346845884306572,233.625,-1.25,177.8125,0.021788966678614123,0.45129395000000005,-0.8920898399999988,0.0015264633213858993
167.0,0.09179793837625,0.052388270776227874,-0.03655442763569397,-0.2100000000000003,-0.3599999999999997,-9.79,0.01840986970679532,-0.01336418760267491,0.011725646496746747,233.625,-1.25,177.8125,0.021789550000000026,0.45129395000000005,-0.892089839999999,0.0015258799999999977
168.0,0.093048276214694,0.05256906730120478,-0.03762158227393849,-0.2100000000000003,-0.3599999999999997,-9.79,0.010968764061168645,0.005552745513556935,0.018146836442103326,233.625,-1.25,177.8125,0.021789550000000026,0.45129395000000005,-0.892089839999999,0.0015258799999999977
169.0,0.09378895977724533,0.05236807053794678,-0.038213559471519706,-0.2100000000000003,-0.3599999999999997,-9.79,-0.009149472568896928,0.023736665035156417,0.019627798619429947,233.625,-1.25,177.8125,0.021789550000000026,0.4512939500000001,-0.8920898399999989,0.0015258799999999977
170.0,0.09451356751023046,0.054396760883412706,-0.03746071438757758,-0.2100000000000003,-0.35999999999999965,-9.79,0.014496484273667256,0.010537247328126081,-0.005972361010945549,233.625,-1.25,177.8125,0.021789550000000026,0.4512939500000001,-0.8920898399999989,0.0015258799999999977
171.0,0.09385658047046319,0.0527743313324141,-0.03685154560656363,-0.21000000000000033,-0.35999999999999965,-9.79,0.012810359306362328,0.019567091004778818,-0.005402066465457794,233.625,-1.25,177.8125,0.021789550000000026,0.4512939500000001,-0.8920898399999988,0.0015258799999999977
172.0,0.09358846821075995,0.052060135632836624,-0.03842021106802042,-0.21000000000000033,-0.35999999999999965,-9.79,0.0076044288189208754,-0.016964925020413708,0.0018526375125436272,233.625,-1.25,177.8125,0.021789550000000026,0.4512939500000001,-0.8920898399999989,0.0015258799999999977
173.0,0.09245960099655329,0.05212987481945114,-0.03554580209551324,-0.2100000000000003,-0.35999999999999965,-9.79,0.005276277980298202,-0.006310015781308512,0.011803322576824019,233.625,-1.25,177.8125,0.021789550000000026,0.4512939500000001,-0.8920898399999989,0.0015258799999999977
174.0,0.09385786777150518,0.04872892575113326,-0.0369993376935481,-0.2100000000000003,-0.35999999999999965,-9.79,0.022473008421792725,-0.019691943177589544,0.018965143505120033,233.625,-1.25,177.8125,0.021789550000000026,0.4512939500000001,-0.8920898399999989,0.0015258799999999977
175.0,0.09442765380382731,0.04999042293701056,-0.03693796889797733,-0.2100000000000003,-0.35999999999999965,-9.79,-0.015061178840818945,-0.04057593830666471,0.005930344410010094,233.625,-1.25,177.8125,0.021789550000000026,0.4512939500000001,-0.8920898399999989,0.0015258799999999977
176.0,0.09361488612194253,0.048524340019299686,-0.035867877082594826,-0.2100000000000003,-0.35999999999999965,-9.79,0.006416810675883257,-0.02626865042439639,0.00100922612893379,233.625,-1.25,177.8125,0.021789550000000026,0.4512939500000001,-0.8920898399999989,0.0015258799999999977
177.0,0.09378775525549714,0.04978689813770459,-0.036294229963584806,-0.21000000000000033,-0.35999999999999965,-9.789999999999997,-0.0022309427803379415,0.012642915440294472,-0.013811144053079536,233.625,-1.25,177.8125,0.021789550000000026,0.4512939500000001,-0.8920898399999988,0.0015258799999999977
178.0,0.09350934101740548,0.05018530774780773,-0.0377707708957709,-0.21000000000000033,-0.35999999999999965,-9.79,0.011637344790066563,0.011873813070889682,-0.007257594555981652,233.625,-1.25,177.8125,0.021789550000000026,0.4512939500000001,-0.8920898399999989,0.0015258799999999977
179.0,0.09408445518812317,0.050664093880307445,-0.03724526698154431,-0.2100000000000003,-0.35999999999999965,-9.79,0.002612376869539005,-0.015939344164947376,-0.00664898858512282,233.625,-1.25,177.8125,0.021789550000000026,0.4512939500000001,-0.892089839999999,0.0015258799999999977
180.0,0.09474073876031469,0.05165924141906191,-0.038355418850573655,-0.2100000000000003,-0.35999999999999965,-9.79,0.00607971317112186,-0.01891953056572431,-0.019575657443926173,233.625,-1.25,177.8125,0.021789550000000026,0.4512939500000001,-0.8920898399999989,0.0015258799999999977
181.0,0.09550118513698116,0.0496045121487369,-0.038308021149852586,-0.2100000000000003,-0.35999999999999965,-9.79,0.020961111238166387,-0.005812558784723196,0.006156068610543117,233.625,-1.25,177.8125,0.021789550000000026,0.4512939500000001,-0.8920898399999989,0.0015258799999999977
182.0,0.09510120588164289,0.05028462923364067,-0.03695767153415437,-0.2100000000000003,-0.35999999999999965,-9.790000000000001,0.01949351954554868,-0.02397660150001461,0.015487673096934282,233.625,-1.25,177.8125,0.021789550000000026,0.4512939500000001,-0.892089839999999,0.0015258799999999977
183.0,0.0939510125670375,0.04956755783238612,-0.03607484191147044,-0.2100000000000003,-0.35999999999999965,-9.790000000000001,0.01388302449371648,-0.017708666853437922,0.02236077203233811,233.625,-1.25,177.8125,0.021789550000000026,0.4512939500000001,-0.8920898399999989,0.0015258799999999977
184.0,0.0942387737132794,0.051219783078523956,-0.03760557912430962,-0.2100000000000003,-0.35999999999999965,-9.79,0.008534904546546065,-0.008659224165532699,0.007733455735211718,233.625,-1.25,177.8125,0.021789550000000026,0.4512939500000001,-0.8920898399999989,0.0015258799999999977
185.0,0.09432644503143978,0.05130503510537328,-0.037583836472233983,-0.2100000000000003,-0.35999999999999965,-9.79,0.005679481104656703,0.016011874387752378,-0.0038140098534544427,233.625,-1.25,177.8125,0.021789550000000026,0.4512939500000001,-0.8920898399999989,0.0015258799999999977
186.0,0.09488654757775461,0.050692219785937256,-0.03753137233040979,-0.2100000000000003,-0.35999999999999965,-9.79,-0.0068066614327833095,-0.033433268761458794,0.011709620383446476,233.625,-1.25,177.8125,0.021789550000000026,0.4512939500000001,-0.8920898399999989,0.0015258799999999977
187.0,0.09467056106975456,0.052553826214108465,-0.03804188083421954,-0.2100000000000003,-0.35999999999999965,-9.79,0.007734656556481154,-0.01856391886003781,0.001014349533754775,233.625,-1.25,177.8125,0.021789550000000026,0.4512939500000001,-0.8920898399999989,0.0015258799999999977
188.0,0.09601281556925062,0.05239450135401351,-0.03621976048585647,-0.2100000000000003,-0.35999999999999965,-9.79,-0.004735562470701782,0.013101772309140268,-0.018458330009034827,233.625,-1.25,177.8125,0.021789550000000026,0.4512939500000001,-0.892089839999999,0.0015258799999999977
189.0,0.0966430005265608,0.0546196297092648,-0.03643145282357341,-0.2100000000000003,-0.35999999999999965,-9.79,-0.023080356840189598,0.034792443614247555,-0.02978423052871096,233.625,-1.25,177.8125,0.021789550000000026,0.4512939500000001,-0.8920898399999989,0.0015258799999999977
190.0,0.09793467919903998,0.05593937883903509,-0.037380679738030345,-0.2100000000000003,-0.35999999999999965,-9.79,0.004292711807956718,0.010816846880974656,0.004718739830370581,233.625,-1.25,177.8125,0.021789550000000026,0.4512939500000001,-0.8920898399999989,0.0015258799999999977
191.0,0.09637913395435868,0.053856786193711086,-0.03832743664320873,-0.2100000000000003,-0.35999999999999965,-9.79,-0.012187061434731318,0.02131694158564862,0.003934470721636903,233.625,-1.25,177.8125,0.021789550000000026,0.4512939500000001,-0.8920898399999989,0.0015258799999999977
192.0,0.09303696151812227,0.05290730128544115,-0.03838208060448277,-0.2100000000000003,-0.35999999999999965,-9.79,0.00010218888561200866,0.024344885184883862,0.003618910298783712,233.625,-1.25,177.8125,0.021789550000000026,0.4512939500000001,-0.8920898399999989,0.0015258799999999977
193.0,0.09349891439205954,0.0523063740694789,-0.03766803660049628,-0.2100000000000003,-0.35999999999999965,-9.79,0.018964698356079404,0.03567191377171216,0.00944430443548387,233.625,-1.25,177.8125,0.021789550000000026,0.4512939500000001,-0.8920898399999989,0.0015258799999999977
194.0,0.09391803532929258,0.05121404273278281,-0.03736393798559981,-0.2100000000000003,-0.35999999999999965,-9.79,-0.014726433790627666,-0.008429494594841963,0.006954405737704917,233.625,-1.25,177.8125,0.021789550000000026,0.4512939500000001,-0.892089839999999,0.0015258799999999977
195.0,0.09052229309888946,0.05275094196192491,-0.03637055460074036,-0.2100000000000003,-0.35999999999999965,-9.79,0.019358247124537285,0.07359232466287678,0.012953009320465362,233.625,-1.25,177.8125,0.021779214274193555,0.4512939500000001,-0.8920898399999989,0.0015160348387096754
196.0,0.08494232676036287,0.053809287668307365,-0.0372450245088069,-0.2100000000000003,-0.35999999999999965,-9.79,0.04437907897479966,0.04924260890401903,-0.0054971693472114875,233.625,-1.25,177.8125,0.021752882782258065,0.4512939500000001,-0.8920898399999989,0.001489452903225805
197.0,0.08190276700281328,0.05580429341172664,-0.03782846143515103,-0.2100000000000003,-0.35999999999999965,-9.79,-0.011809386443859773,0.0753993042439962,0.0033485555433681417,233.625,-1.25,177.8125,0.02173971703629032,0.4512939500000001,-0.8920898399999989,0.0014761619354838695
198.0,0.0824714672483049,0.05755928845524297,-0.037932375878865845,-0.2100000000000003,-0.35999999999999965,-9.79,-0.02733115297689267,0.051335663288251204,-0.01790107505089657,233.625,-1.25,177.8125,0.021733134163306446,0.4512939500000001,-0.8920898399999989,0.0014695164516129017
199.0,0.08358369766434284,0.061193710859033426,-0.037562168901886656,-0.2100000000000003,-0.35999999999999965,-9.79,0.015840967668084602,-0.03251071145476387,0.011161175853716176,233.625,-1.25,177.8125,0.02172984272681451,0.4512939500000001,-0.8920898399999989,0.0014661937096774181
200.0,0.08535751703493638,0.06396459096459095,-0.03754336523691363,-0.2100000000000003,-0.35999999999999965,-9.79,0.05161678039702233,-0.0120245849580527,-0.0019028910157942404,233.625,-1.25,177.8125,0.021728519999999994,0.4512939500000001,-0.8920898399999989,0.001464839999999999
201.0,0.08337454756231838,0.061065218337004554,-0.03641339959190225,-0.21000000000000033,-0.35999999999999965,-9.789999999999997,-0.0031866007277508226,-0.02278528236828971,-0.005393873566117186,233.625,-1.25,177.8125,0.021728519999999994,0.4512939500000001,-0.8920898399999988,0.0014648399999999987
202.0,0.08224748418007925,0.05838137330758899,-0.03721568364364465,-0.21000000000000035,-0.35999999999999965,-9.789999999999997,0.04589482978554506,-0.019835363336544426,0.011285048973120711,233.625,-1.25,177.8125,0.021728519999999994,0.4512939500000001,-0.8920898399999988,0.0014648399999999985
203.0,0.08290057711765506,0.056208696739442454,-0.035476728398305166,-0.2100000000000003,-0.35999999999999965,-9.79,0.026200236472857377,-0.007245685350334168,0.014572025006851718,233.625,-1.25,177.8125,0.021728519999999994,0.4512939500000001,-0.892089839999999,0.0014648399999999987
204.0,0.08269906666244434,0.05545313869230187,-0.036923512048614944,-0.21000000000000033,-0.35999999999999965,-9.789999999999997,0.011713552223476588,0.016304091739544547,0.017408660352888225,233.625,-1.25,177.8125,0.021728519999999994,0.4512939500000001,-0.8920898399999988,0.0014648399999999987
205.0,0.08358036701366875,0.0548089135252693,-0.03631308032724469,-0.21000000000000035,-0.35999999999999965,-9.789999999999997,0.02401502914902359,-0.006718724041320219,0.01674848136575659,233.625,-1.25,177.8125,0.021728519999999994,0.4512939500000001,-0.8920898399999988,0.0014648399999999985
206.0,0.08454767397015053,0.054180168773300924,-0.03648426876626669,-0.21000000000000033,-0.35999999999999965,-9.79,0.008909944114158474,0.0016186943476225474,0.017457700554734893,233.625,-1.25,177.8125,0.021728519999999994,0.4512939500000001,-0.8920898399999989,0.0014648399999999985
207.0,0.08327334822652199,0.053874053106103034,-0.03624066810747352,-0.21000000000000033,-0.35999999999999965,-9.789999999999997,-0.005793683856899256,-0.01510585321719557,0.020993635223604007,233.625,-1.25,177.8125,0.021728519999999994,0.4512939500000001,-0.8920898399999988,0.0014648399999999985
208.0,0.08174073238589366,0.05324035641777576,-0.03749338296112491,-0.21000000000000033,-0.35999999999999965,-9.79,-0.0004579761636213245,0.012510809083389729,0.009228607414091285,233.625,-1.25,177.8125,0.021728519999999994,0.4512939500000001,-0.8920898399999989,0.0014648399999999987
209.0,0.08207752098751057,0.05345420526403877,-0.03794110701993117,-0.2100000000000003,-0.35999999999999965,-9.79,-0.0007340057401841999,-0.007317006614613274,-0.006647836424761501,233.625,-1.25,177.8125,0.021728519999999994,0.4512939500000001,-0.892089839999999,0.001464839999999999
210.0,0.08056842437825787,0.05276545138004554,-0.03697446357839178,-0.2100000000000003,-0.35999999999999965,-9.79,-0.0044518964711147335,-0.03595463459537341,-0.007042242898447373,233.625,-1.25,177.8125,0.021728519999999994,0.4512939500000001,-0.8920898399999989,0.001464839999999999
211.0,0.08440580027845895,0.05473756439970019,-0.03615968836487828,-0.2100000000000003,-0.35825310173697267,-9.79,-0.11525324352091716,0.07915357600256143,-0.0023114440298688476,233.625,-1.25,177.82391439205952,0.021621896794044672,0.4512939500000001,-0.8920995336972702,0.001513789836228287
212.0,0.09507435663971825,0.06304894490914911,-0.03631195719602978,-0.21116545265348624,-0.3539652605459058,-9.790000000000001,0.004042685779036263,-0.08218765008404708,0.021339981639718245,233.625,-1.25,177.8504652605459,0.021362217262787156,0.4512939500000001,-0.8921261913647645,0.0016966193093732487
213.0,0.0964681033318957,0.05894672359805071,-0.03625280545164995,-0.2130478202121549,-0.3456586052368429,-9.79,-0.05920329563660127,-0.07446339353022768,0.01888637487739403,233.625,-1.2466297544535387,177.90755388689306,0.021014063402698346,0.4513141660038521,-0.8921193008821888,0.0018877591780376117
214.0,0.07040842931743267,0.052904843428737997,-0.0343410029019236,-0.20548917065198305,-0.3382982852486943,-9.79,0.005650343296723773,0.0013881803660796277,0.00035534824875064347,233.625,-1.2096051998074144,177.9518383578386,0.020451916535096076,0.4513384654659461,-0.8921045704410939,0.001687447182070914
215.0,0.040003302147710175,0.06040831701573774,-0.03765125067052475,-0.19226071435824948,-0.34398785230176665,-9.79,0.02686713514792164,0.11930351145895432,-0.03561386913985264,233.625,-1.1137776259182754,177.9144272434354,0.02041038259637219,0.4513792116039408,-0.8920972052205465,0.0008846263381738546
216.0,0.026758474895195047,0.05779721061705001,-0.03596210176206138,-0.18564648621138274,-0.3468872263990224,-9.79,-0.006355514311895256,0.041227438111611156,-0.007927902311861808,233.625,-1.0528565548946216,177.89536498648198,0.02041124004756576,0.4513995846729381,-0.892093219682233,0.00044672281176682806
217.0,0.01966956002824269,0.05267592060509108,-0.0367479603503335,-0.18230295174252792,-0.34844361319951134,-9.79,-0.010136654138257723,0.03300315714113336,-0.0026632227480224754,233.625,-1.0223960193827946,177.88518249324096,0.02041811777092129,0.45140977120743675,-0.8920905453249869,0.00022476120817269604
218.0,0.01689556282665835,0.05185320533597176,-0.03301903885848207,-0.18059057071960283,-0.34941439205955355,-9.790000000000001,-0.005801621859060746,-0.008916347662887937,-0.006875596235531241,233.625,-1.007271071800208,177.8787220843672,0.02042837894805093,0.4514142327245657,-0.892089839999999,0.00011066399599775871
219.0,0.016288972480326694,0.050973749069970986,-0.03424649213395568,-0.17999999999999983,-0.35000000000000026,-9.790000000000001,0.0014571295171197512,-0.011111399637895581,-0.0031431331053586725,233.625,-1.0008129552549427,177.875,0.020445636722164436,0.45141602,-0.8920898399999989,6.286170023213003e-05
220.0,0.015000150809147378,0.04996014146923057,-0.036290986350743105,-0.17999999999999983,-0.35000000000000026,-9.79,0.004076908084790819,-0.009742290341386389,0.012863163721671124,233.625,-1.0,177.875,0.020446780000000025,0.45141602,-0.8920898399999989,6.091882878411914e-05
221.0,0.01305094389092605,0.0487666712308932,-0.034930852976860396,-0.17999999999999983,-0.35000000000000026,-9.79,-0.019410057123857693,-0.008926666262504608,0.026282698486145735,233.625,-1.0,177.875,0.020446780000000025,0.45141602,-0.8920898399999989,6.104000000000004e-05
222.0,0.012231310965314145,0.04996688865514883,-0.03671170440406295,-0.17999999999999983,-0.35000000000000026,-9.79,-0.021954466372102542,-0.037485442700110866,0.02747040476416468,233.625,-1.0,177.875,0.020446780000000025,0.45141602,-0.8920898399999989,6.104000000000004e-05
223.0,0.01379270550238293,0.05078418803418802,-0.03623116802552288,-0.17999999999999983,-0.35000000000000026,-9.79,-0.008846473866635157,-0.012284078488715586,0.020044852101303714,233.625,-1.0,177.875,0.020446780000000025,0.45141602,-0.8920898399999989,6.104000000000004e-05
224.0,0.013481879334602768,0.0513228185014938,-0.03615935409777954,-0.17999999999999983,-0.3500000000000002,-9.79,-0.003536191007271124,-0.011259651008585104,-0.010072761680707214,233.625,-1.0,177.875,0.020446780000000022,0.45141602,-0.892089839999999,6.104000000000004e-05
225.0,0.013778830092288585,0.04986263812939512,-0.036492375461588185,-0.17999999999999983,-0.35000000000000026,-9.79,-0.014496910147772785,0.007491014229450407,-0.022589504240251197,233.625,-1.0,177.875,0.020446780000000022,0.45141602,-0.8920898399999989,6.104000000000004e-05
226.0,0.014853124723563652,0.050450472290504006,-0.03593015950498765,-0.17999999999999983,-0.35000000000000026,-9.79,-0.020164281686789617,-0.00417724994172641,-0.0073885021201256,233.625,-1.0,177.875,0.020446780000000025,0.45141602,-0.8920898399999989,6.104000000000004e-05
227.0,0.016334160140347352,0.04955246447248034,-0.034139407217143876,-0.17999999999999983,-0.35000000000000026,-9.79,-0.015838816962974154,0.016344062413437083,0.0055846197107434535,233.625,-1.0,177.875,0.020446780000000025,0.45141602,-0.8920898399999989,6.104000000000004e-05
228.0,0.016547776434741014,0.05039579188805787,-0.03496396884154686,-0.17999999999999983,-0.35000000000000026,-9.79,-0.006975348061620206,0.023116987683933082,0.007640620147230406,233.625,-1.0,177.875,0.020446780000000025,0.45141602,-0.8920898399999989,6.104000000000004e-05
229.0,0.015514912954429092,0.05025073604710701,-0.036070788530465955,-0.17999999999999983,-0.35000000000000026,-9.79,-0.004032758096518176,0.004043258768561188,0.016737071172555042,233.625,-1.0,177.875,0.020446780000000025,0.45141602,-0.8920898399999989,6.104000000000004e-05
230.0,0.01605086725550436,0.050560195852534545,-0.036529217869943675,-0.17999999999999983,-0.35000000000000026,-9.79,0.021418870807731697,-0.00709245391705069,0.02528911850358423,233.625,-1.0,177.875,0.020446780000000025,0.45141602,-0.8920898399999989,6.104000000000004e-05
231.0,0.01737883778407973,0.05034438142502658,-0.03611688871164679,-0.17999999999999983,-0.35000000000000026,-9.79,0.004683099718381978,0.009609014976958527,0.02044324682933554,233.625,-1.0,177.875,0.020446780000000025,0.45141602,-0.8920898399999989,6.104000000000004e-05
232.0,0.018311588259266466,0.05027591864142332,-0.03626409984035506,-0.17999999999999983,-0.3500000000000002,-9.79,-0.0016287687573295008,-0.007185937319343277,-0.006211428300642009,233.625,-1.0,177.875,0.020446780000000022,0.45141602,-0.892089839999999,6.104000000000004e-05
233.0,0.018625991189987035,0.050201044648495216,-0.036368668676681176,-0.17999999999999983,-0.3500000000000002,-9.790000000000001,0.0069584840526567895,0.019867903803907964,-0.019912547852194054,233.625,-1.0,177.875,0.02044678000000002,0.45141602,-0.892089839999999,6.104000000000004e-05
234.0,0.01709987180122457,0.051209624691414476,-0.035451260960105924,-0.17999999999999983,-0.3500000000000002,-9.790000000000001,0.0029989651347611807,0.013647912672366366,-0.01034029850366999,233.625,-1.0,177.875,0.020446780000000022,0.45141602,-0.892089839999999,6.104000000000004e-05
235.0,0.017557872408548794,0.05067265668774512,-0.034629112302889634,-0.17999999999999983,-0.3500000000000002,-9.79,0.015900404226366766,-0.011553219803089732,-0.00971444008644841,233.625,-1.0,177.875,0.020446780000000025,0.45141602,-0.892089839999999,6.104000000000004e-05
236.0,0.018156107420155297,0.049849975986552456,-0.033674357640278575,-0.17999999999999983,-0.35000000000000026,-9.79,0.027305040822860803,-0.002651609901544866,-0.01064971383975026,233.625,-1.0,177.875,0.020446780000000025,0.45141602,-0.8920898399999989,6.104000000000004e-05
237.0,0.018365254542543834,0.05040625750420234,-0.0344776574881934,-0.17999999999999983,-0.35000000000000026,-9.79,0.015294690026414792,-0.008024556251500841,0.002235626951092612,233.625,-1.0,177.875,0.020446780000000025,0.45141602,-0.8920898399999989,6.104000000000004e-05
238.0,0.018777780885164557,0.0514696970467396,-0.036280724992881264,-0.17999999999999983,-0.3500000000000002,-9.79,-0.0015864939694097534,-0.011634866447341657,0.005339849947117926,233.625,-1.0,177.875,0.020446780000000022,0.45141602,-0.892089839999999,6.104000000000004e-05
239.0,0.018493108804865162,0.05231301229508195,-0.03685624338974088,-0.17999999999999983,-0.35000000000000026,-9.79,0.00023032621628767905,-0.003405832727392914,0.013758634650978319,233.625,-1.0,177.875,0.020446780000000022,0.45141602,-0.8920898399999989,6.104000000000004e-05
240.0,0.0191205075662043,0.05242445745027049,-0.035667847191148364,-0.17999999999999983,-0.35000000000000026,-9.79,0.0011314666131066187,-0.005586630306004149,0.0045239358118415165,233.625,-1.0,177.875,0.020446780000000025,0.45141602,-0.8920898399999989,6.104000000000004e-05
241.0,0.018081975947514223,0.05181007601962015,-0.036368165270912384,-0.17999999999999983,-0.3500000000000002,-9.790000000000001,0.007771565447552268,0.0038602155116701418,-0.0001662278211864215,233.625,-1.0,177.875,0.020446780000000022,0.45141602,-0.892089839999999,6.104000000000004e-05
242.0,0.01750708980427427,0.05195494520387048,-0.03358994861087863,-0.17999999999999983,-0.35000000000000026,-9.790000000000001,0.00025430030890158254,0.015463473891267737,-0.004911922954372013,233.625,-1.0,177.875,0.020446780000000022,0.45141602,-0.8920898399999989,6.104000000000004e-05
243.0,0.018687360953880214,0.05101721551370353,-0.03444456955418845,-0.17999999999999983,-0.35000000000000026,-9.79,-0.0025695813266540376,0.02035351825792285,0.009835306878995096,233.625,-1.0,177.875,0.020446780000000025,0.45141602,-0.8920898399999989,6.104000000000004e-05
244.0,0.01880044570991502,0.05226055988178775,-0.03628202460044292,-0.17999999999999983,-0.35000000000000026,-9.79,0.016604854273948966,-0.005775011784377029,0.012763655583634773,233.625,-1.0,177.875,0.020446780000000025,0.45141602,-0.8920898399999989,6.104000000000004e-05
245.0,0.019563994567116327,0.0541079474346904,-0.03838915125803783,-0.17999999999999983,-0.35000000000000026,-9.79,0.023640516466999297,-0.00026653815025302983,0.0069556491317677585,233.625,-1.0,177.875,0.020446780000000025,0.45141602,-0.8920898399999989,6.104000000000004e-05
246.0,0.019586888022371903,0.05405189255189254,-0.03795368072787428,-0.17999999999999983,-0.35000000000000026,-9.79,0.010568307140887787,0.015280362558588365,-0.002993299263460553,233.625,-1.0,177.875,0.020446780000000025,0.45141602,-0.8920898399999989,6.104000000000004e-05
247.0,0.01891136263994541,0.05360027916439867,-0.03768437731843338,-0.17999999999999983,-0.3500000000000002,-9.79,0.0006367741709492102,0.006695333923817531,0.009752594910084332,233.625,-1.0,177.875,0.020446780000000022,0.45141602,-0.892089839999999,6.104000000000004e-05
248.0,0.018802760763826344,0.052862686354423524,-0.036213097320447946,-0.17999999999999983,-0.35000000000000026,-9.79,0.00809193074611504,-0.0006242795503603273,0.00039231817267578774,233.625,-1.0,177.875,0.020446780000000022,0.45141602,-0.8920898399999989,6.104000000000004e-05
249.0,0.01783121219884177,0.05296310890252586,-0.03519930536588391,-0.17999999999999983,-0.35000000000000026,-9.79,0.004974763277661876,-0.008252832594905243,-0.0055189143706710474,233.625,-1.0,177.875,0.020446780000000025,0.45141602,-0.8920898399999989,6.104000000000004e-05
250.0,0.01632999815897424,0.0538872616472927,-0.036707593129592084,-0.17999999999999983,-0.35000000000000026,-9.79,0.015111451117739125,0.009404911245971696,-0.015879804579876464,233.625,-1.0,177.875,0.020446780000000025,0.45141602,-0.8920898399999989,6.104000000000004e-05
251.0,0.017616728297849406,0.05473918758543295,-0.03601198515040399,-0.17999999999999983,-0.35000000000000026,-9.79,0.007587227574998595,0.008184397698047883,-0.010216528763263295,233.625,-1.0,177.875,0.020446780000000025,0.45141602,-0.8920898399999989,6.104000000000004e-05
252.0,0.018353578321320264,0.055625807436291294,-0.035309006853361705,-0.17999999999999983,-0.35000000000000026,-9.79,0.013014925262909132,-0.012524340019299696,-0.00948756105006105,233.625,-1.0,177.875,0.020446780000000025,0.45141602,-0.8920898399999989,6.104000000000004e-05
253.0,0.017843489403246152,0.054641070556888896,-0.03723132093316521,-0.17999999999999983,-0.3500000000000002,-9.79,0.014728578946833177,0.02452143948562014,-0.006731055251596631,233.625,-1.0,177.875,0.020446780000000022,0.45141602,-0.892089839999999,6.104000000000004e-05
254.0,0.018152120061030702,0.05546599197228824,-0.03420158350411855,-0.17999999999999983,-0.35000000000000026,-9.79,-0.005995088603703422,0.017132662316365548,-0.010875423643758849,233.625,-1.0,177.875,0.020446780000000022,0.45141602,-0.8920898399999989,6.104000000000004e-05
255.0,0.018283256060292033,0.05543402731368754,-0.034825783997716846,-0.17999999999999983,-0.35000000000000026,-9.79,0.01396265653561727,-0.007243561444174547,0.002912261037922064,233.625,-1.0,177.875,0.020446780000000025,0.45141602,-0.8920898399999989,6.104000000000004e-05
256.0,0.019242244375299304,0.056540274683018414,-0.03432396219817004,-0.17999999999999983,-0.3500000000000002,-9.790000000000001,0.017387155531076066,0.0014570634306382531,0.00829746166440248,233.625,-1.0,177.875,0.020446780000000022,0.45141602,-0.892089839999999,6.104000000000004e-05
257.0,0.020281404445714177,0.05647326234150919,-0.035312182711988244,-0.17999999999999983,-0.35000000000000026,-9.790000000000001,0.009418124136505775,0.02342573433628687,-0.013366390135540694,233.625,-1.0,177.875,0.020446780000000022,0.45141602,-0.8920898399999989,6.104000000000004e-05
258.0,0.020828169171561484,0.05624297701951187,-0.03468808501014538,-0.17999999999999983,-0.35000000000000026,-9.79,-0.018236799909536645,0.001177766692204778,-0.002080802153968126,233.625,-1.0,177.875,0.020446780000000025,0.45141602,-0.8920898399999989,6.104000000000004e-05
259.0,0.02077267269671017,0.055685533898983425,-0.035986412390938936,-0.17999999999999983,-0.3500000000000002,-9.790000000000001,0.013149863923797323,-0.009960953133754903,0.012727189726246698,233.625,-1.0,177.875,0.020446780000000022,0.45141602,-0.892089839999999,6.104000000000004e-05
260.0,0.021703954214360055,0.05525591831425597,-0.035807101977107195,-0.17999999999999983,-0.35000000000000026,-9.790000000000001,-0.0045525494276795015,-0.013572287981269509,-0.00648535054630593,233.625,-1.0,177.875,0.020446780000000022,0.45141602,-0.8920898399999989,6.104000000000004e-05
261.0,0.021655827263267438,0.05395730359001039,-0.03542176118626432,-0.17999999999999983,-0.35000000000000026,-9.79,-0.0005853277835587934,-0.015013251170655566,-0.0009338823491155043,233.625,-1.0,177.875,0.020446780000000025,0.45141602,-0.8920898399999989,6.104000000000004e-05
262.0,0.020469307074256676,0.05424444205148324,-0.03480996837737331,-0.17999999999999983,-0.3500000000000002,-9.790000000000001,-0.0013818073674536431,-0.0050267455615308505,0.003257268486335955,233.625,-1.0,177.875,0.020446780000000022,0.45141602,-0.892089839999999,6.104000000000004e-05
263.0,0.020214492246805764,0.05484903554187064,-0.03362726241449311,-0.17999999999999983,-0.35000000000000026,-9.790000000000001,-0.014095011546630048,-0.013302813304958975,0.0024949396867163646,233.625,-1.0,177.875,0.020446780000000022,0.45141602,-0.8920898399999989,6.104000000000004e-05
264.0,0.020493862628645824,0.055438045346377564,-0.03352546983687916,-0.17999999999999983,-0.35000000000000026,-9.79,-0.004256442778037668,-0.0043411128879713625,0.01521679266413782,233.625,-1.0,177.875,0.020446780000000025,0.45141602,-0.8920898399999989,6.104000000000004e-05
265.0,0.020288533976893324,0.05526250545608687,-0.03404784116523939,-0.17999999999999983,-0.35000000000000026,-9.79,0.012539467343060016,0.005793453252634901,-0.0012144183280693392,233.625,-1.0,177.875,0.020446780000000025,0.45141602,-0.8920898399999989,6.104000000000004e-05
266.0,0.01924561624402979,0.05528564168585981,-0.03400779155036164,-0.17999999999999983,-0.35000000000000026,-9.79,-0.007689051998445178,-0.008761927219836395,-0.012100356263910601,233.625,-1.0,177.875,0.020446780000000025,0.45141602,-0.8920898399999989,5.183098759305214e-05
267.0,0.02028878648233488,0.055927720912599926,-0.03349172870140614,-0.17999999999999983,-0.35000000000000026,-9.79,0.043295540145338526,-0.004480117496750561,0.025596699727244078,233.625,-1.0,177.875,0.020446780000000025,0.45141602,-0.8920898399999989,2.493097766749381e-05
268.0,0.02005978192440383,0.055244771680519944,-0.0345823265400209,-0.17999999999999983,-0.3500000000000002,-9.79,0.005695355675524896,0.009211698754268822,-0.007328339883866063,233.625,-1.0,177.875,0.020446780000000022,0.45141602,-0.892089839999999,1.1480972704714648e-05
269.0,0.019382248282301173,0.05474893670874632,-0.035807292302268506,-0.17999999999999983,-0.35000000000000026,-9.79,-0.004208773775140779,7.731339698552765e-05,0.01127069358164017,233.625,-1.0,177.875,0.020446780000000022,0.45141602,-0.8920898399999989,4.755970223325065e-06
270.0,0.022107918816009785,0.054469962465996294,-0.03468424010914757,-0.17999999999999983,-0.35000000000000026,-9.79,-0.01968951233559906,-0.004233616727006468,0.01852417167561271,233.625,-1.0,177.875,0.020446780000000025,0.45141602,-0.8920898399999989,1.3934689826302738e-06
271.0,0.02307917352791205,0.056645931365072094,-0.033609549815239774,-0.17999999999999983,-0.3500000000000002,-9.790000000000001,-0.0068090561758040145,0.01854676323659282,-0.010672577573704089,233.625,-1.0,177.875,0.020446780000000022,0.45141602,-0.892089839999999,0.0
272.0,0.023186599249678197,0.05639417762471572,-0.03310600772498174,-0.17999999999999983,-0.35000000000000026,-9.790000000000001,-0.0157947364458523,0.009769659533929165,-0.01029857560397757,233.625,-1.0,177.875,0.020446780000000022,0.45141602,-0.8920898399999989,0.0
273.0,0.023644074808877112,0.05599043742273449,-0.0339208616348965,-0.17999999999999983,-0.35000000000000026,-9.79,0.008999975502154221,0.006585922243440453,-0.008105542576064818,233.625,-1.0,177.875,0.020446780000000025,0.45141602,-0.8920898399999989,0.0
274.0,0.024545421547177544,0.05653045050466355,-0.033077646934664376,-0.17999999999999983,-0.35000000000000026,-9.79,0.020078092442085027,-0.0175608042884968,-0.01272606484035822,233.625,-1.0,177.875,0.020446780000000025,0.45141602,-0.8920898399999989,0.0
275.0,0.025422912386492007,0.05714879380071886,-0.03454537588668703,-0.17999999999999983,-0.35000000000000026,-9.79,-0.0010181614402478105,-0.005630200531345172,0.001307708507240245,233.625,-1.0,177.875,0.020446780000000025,0.45141602,-0.8920898399999989,0.0
276.0,0.027890956713537376,0.05698230532907951,-0.034731064634290446,-0.17999999999999983,-0.35000000000000026,-9.79,-0.007142795600456891,0.008143536570955926,0.013888765804088384,233.625,-1.0,177.875,0.020446780000000025,0.45141602,-0.8920898399999989,0.0
277.0,0.029985383982607694,0.05762246291959405,-0.03376174107929794,-0.17999999999999983,-0.3500000000000002,-9.79,-0.009047234760729606,0.0029986181410692255,0.008126093840497594,233.625,-1.0,177.875,0.020446780000000022,0.45141602,-0.892089839999999,0.0
278.0,0.028638365314396532,0.05807646443470742,-0.03430406562413438,-0.17999999999999983,-0.35000000000000026,-9.79,-0.0030195211182040237,-0.0046130821225017415,-0.007417687846776292,233.625,-1.0,177.875,0.020446780000000022,0.45141602,-0.8920898399999989,0.0
279.0,0.026424335568802797,0.058695868487893196,-0.03516348372674392,-0.17999999999999983,-0.3500000000000003,-9.79,-0.023006409071879556,0.02278742858917039,-0.030823306521721713,233.625,-1.0,177.875,0.020446780000000025,0.45141602,-0.8920898399999988,0.0
280.0,0.025405268142824344,0.0611061667708283,-0.03568106021974678,-0.17999999999999983,-0.35000000000000026,-9.79,0.00268395344217082,0.017443601487365533,-0.00849521060853111,233.625,-1.0,177.875,0.020446780000000025,0.45141602,-0.8920898399999989,0.0
281.0,0.02690606924510945,0.06354145187176649,-0.03665322396843419,-0.17999999999999983,-0.35000000000000026,-9.79,0.0020430177415568743,-0.014965534476540556,-0.016552050481064562,233.625,-1.0,177.875,0.020446780000000025,0.45141602,-0.8920898399999989,0.0
282.0,0.027536852708223692,0.06607400462440784,-0.03570101706089611,-0.17999999999999983,-0.35000000000000026,-9.79,-0.022486225132394486,-0.013498103039433683,-0.029478431374852745,233.625,-1.0,177.875,0.020446780000000025,0.45141602,-0.8920898399999989,0.0
283.0,0.02581691100551664,0.06614232879503429,-0.03618549487279977,-0.17999999999999983,-0.3500000000000002,-9.79,0.024593987459817324,0.012690741014102098,-0.017498690680922732,233.625,-1.0,177.875,0.020446780000000022,0.45141602,-0.892089839999999,0.0
284.0,0.022517448660138578,0.065583383361349,-0.035174858873350034,-0.17999999999999983,-0.35000000000000026,-9.79,0.009425537229419903,0.008605878815946454,0.013275336966479005,233.625,-1.0,177.875,0.020446780000000022,0.45141602,-0.8920898399999989,0.0
285.0,0.021760516444764635,0.06322947969910767,-0.03437186364046407,-0.17999999999999983,-0.35000000000000026,-9.79,0.01554546190708066,0.019983942992202616,0.02126260447914324,233.625,-1.0,177.875,0.020446780000000025,0.45141602,-0.8920898399999989,0.0
286.0,0.022408714157706105,0.061189941962737214,-0.034894728746510756,-0.17999999999999983,-0.3500000000000002,-9.790000000000001,0.015041301352964009,-0.01321252302082817,0.024010794755380472,233.625,-1.0,177.875,0.020446780000000022,0.45141602,-0.892089839999999,0.0
287.0,0.021715949820788543,0.05973559598136859,-0.03600079179261022,-0.17999999999999983,-0.35000000000000026,-9.790000000000001,0.013301270636159424,0.010719847360553656,0.02325161713575475,233.625,-1.0,177.875,0.020446780000000022,0.45141602,-0.8920898399999989,0.0
288.0,0.023985421518590105,0.06042694603422359,-0.03641652162512595,-0.17999999999999983,-0.35000000000000026,-9.79,-0.006247996645978891,-0.021867367253439702,0.024012149680805374,233.625,-1.0,177.875,0.020446780000000025,0.45141602,-0.8920898399999989,0.0
289.0,0.023001750821730022,0.06146729390681002,-0.0353046285284839,-0.17999999999999983,-0.3500000000000002,-9.790000000000001,-0.0004122844507209746,-0.023515182391027862,0.02175035976496044,233.625,-1.0,177.875,0.020446780000000022,0.45141602,-0.892089839999999,0.0
290.0,0.02132414533090913,0.060400668104297124,-0.03640484488774032,-0.17999999999999983,-0.35000000000000026,-9.790000000000001,-0.011476278898722967,-0.008779677532116396,0.00892231643768129,233.625,-1.0,177.875,0.020446780000000022,0.45141602,-0.8920898399999989,0.0
291.0,0.02185874280073033,0.060626972969942516,-0.03436267218372449,-0.17999999999999983,-0.3500000000000002,-9.790000000000001,-0.016891885547176258,-0.020291243552738737,0.003534389228205891,233.625,-1.0,177.875,0.020446780000000022,0.45141602,-0.892089839999999,0.0
292.0,0.01951648097537797,0.05836996209941058,-0.0352630133192048,-0.17999999999999983,-0.3500000000000002,-9.790000000000001,-0.014235813325303439,-0.017849614831924925,0.018845537628055836,233.625,-1.0,177.875,0.020446780000000022,0.45141602,-0.892089839999999,0.0
293.0,0.017593877968487763,0.059799735470911324,-0.03657104740559476,-0.17999999999999983,-0.35000000000000026,-9.79,-0.038511669709640574,-0.010574143742718145,0.006061076742658428,233.625,-1.0,177.875,0.020446780000000025,0.45141602,-0.8920898399999989,0.0
294.0,0.01622477857441438,0.05739670596486412,-0.036711682351640726,-0.17999999999999983,-0.35000000000000026,-9.79,-0.025788743283540368,0.007013816626199562,-0.014664370777794294,233.625,-1.0,177.875,0.020446780000000025,0.45141602,-0.8920898399999989,0.0
295.0,0.016423803679266748,0.05814376241171245,-0.03501092802445561,-0.17999999999999983,-0.35000000000000026,-9.79,0.004583916199420881,0.00944673461582931,0.00884337292375794,233.625,-1.0,177.875,0.020446780000000025,0.45141602,-0.8920898399999989,0.0
296.0,0.015473128126353942,0.0576295935247548,-0.0350867895545315,-0.17999999999999983,-0.35000000000000026,-9.79,-0.008284714837134192,-0.002696787979046044,0.0029491118200795623,233.625,-1.0,177.875,0.020446780000000025,0.45141602,-0.8920898399999989,0.0
297.0,0.01703086728567999,0.05846000760425837,-0.034607960457856406,-0.17999999999999983,-0.3500000000000002,-9.79,0.0033177329304410466,0.00043649443688465513,-0.013637637076762986,233.625,-1.0,177.875,0.020446780000000022,0.45141602,-0.892089839999999,0.0
298.0,0.017854143320259357,0.058161765588729666,-0.0341129132314096,-0.17999999999999983,-0.35000000000000026,-9.79,-0.015493738993836548,0.005336113223405107,-0.02335883094532938,233.625,-1.0,177.875,0.020446780000000022,0.45141602,-0.8920898399999989,0.0
299.0,0.01868885826062596,0.05693448080925317,-0.03266191567277677,-0.17999999999999983,-0.35000000000000026,-9.79,0.004365413381493637,0.008251183162571039,0.004248003882174018,233.625,-1.0,177.875,0.020446780000000025,0.45141602,-0.8920898399999989,0.0
300.0,0.01718537095058948,0.057583703858287615,-0.03291401915231262,-0.17999999999999983,-0.35000000000000026,-9.79,0.006767500117526132,-0.008352206997823542,0.01544485447564922,233.625,-1.0,177.875,0.020446780000000025,0.45141602,-0.8920898399999989,0.0
301.0,0.016874697370209864,0.05875459169833518,-0.033423254800466054,-0.17999999999999983,-0.35000000000000026,-9.79,0.02062202253897103,-0.004952030081289966,0.026714165786014772,233.625,-1.0,177.875,0.020446780000000025,0.45141602,-0.8920898399999989,0.0
302.0,0.017976890828705357,0.05769675474614988,-0.033821408877860504,-0.17999999999999983,-0.35000000000000026,-9.79,-0.01159000329867265,0.009067949579542323,0.012300241061581786,233.625,-1.0,177.875,0.020446780000000025,0.45141602,-0.8920898399999989,0.0
303.0,0.018511647157328746,0.058548152997424566,-0.03626229132758791,-0.17999999999999983,-0.3500000000000002,-9.79,-0.009390296264320717,0.003856173345962628,0.006669903796919926,233.625,-1.0,177.875,0.020446780000000022,0.45141602,-0.892089839999999,0.0
304.0,0.018620587846654452,0.059666136052062155,-0.038673329286622746,-0.17999999999999983,-0.35000000000000026,-9.79,-0.007587517859207504,-0.007330598190542258,0.022007408474142346,233.625,-1.0,177.875,0.020446780000000022,0.45141602,-0.8920898399999989,0.0
305.0,0.01993524961279905,0.05732028690034673,-0.03817628022486244,-0.17999999999999983,-0.35000000000000026,-9.79,-0.01239049373601598,-0.01767333407104804,0.003623785768443027,233.625,-1.0,177.875,0.020446780000000025,0.45141602,-0.8920898399999989,0.0
306.0,0.020107195029216374,0.059495169795085234,-0.036771274413671666,-0.17999999999999983,-0.3500000000000002,-9.790000000000001,0.017730413406507644,0.020331651349755862,0.01682859588869767,233.625,-1.0,177.875,0.020446780000000022,0.45141602,-0.892089839999999,0.0
307.0,0.019391827948241187,0.05912361775053045,-0.034840596553742234,-0.17999999999999983,-0.3500000000000002,-9.790000000000003,0.004783113482074552,-0.0007728621060580799,0.0026445229410437055,233.625,-1.0,177.875,0.02044678000000002,0.45141602,-0.892089839999999,0.0
308.0,0.019790927181516746,0.059413405769526,-0.036570262256699834,-0.17999999999999983,-0.3500000000000002,-9.790000000000001,-0.0024411495744994243,-0.020717566488873112,0.008766430205013168,233.625,-1.0,177.875,0.020446780000000022,0.45141602,-0.892089839999999,0.0
309.0,0.021881830718254537,0.06051587467175736,-0.03548707205256907,-0.17999999999999983,-0.3500000000000002,-9.79,0.0034664751839484443,-0.014171527260053555,0.013513299427903408,233.625,-1.0,177.875,0.020446780000000025,0.45141602,-0.892089839999999,0.0
310.0,0.021649352083693032,0.060901857931412166,-0.035767109227277105,-0.17999999999999983,-0.35000000000000026,-9.79,0.005525111041105736,-0.018228753704468463,0.013022158398815228,233.625,-1.0,177.875,0.020446780000000025,0.45141602,-0.8920898399999989,0.0
311.0,0.021695523716544353,0.06010729653154294,-0.035418053933257546,-0.17999999999999983,-0.35000000000000026,-9.79,-0.046140580235470505,-0.053697343313452515,0.009993529371503988,233.625,-1.0,177.875,0.020446780000000025,0.45141602,-0.8920898399999989,0.0
312.0,0.018753631768372657,0.06041324636201683,-0.03596127445473031,-0.17999999999999983,-0.3500000000000002,-9.79,-0.0007110886370372098,-0.02334523432198273,0.027389017462060822,233.625,-1.0,177.875,0.020446780000000022,0.45141602,-0.892089839999999,0.0
313.0,0.01954082773082045,0.059379119779103345,-0.0372587129497697,-0.17999999999999983,-0.3500000000000002,-9.790000000000001,-0.018410655180601372,-0.023523753797507815,0.016063335273894416,233.625,-1.0,177.875,0.02044678000000002,0.45141602,-0.892089839999999,0.0
314.0,0.018994329734487392,0.05879050911953316,-0.03609605465126045,-0.17999999999999983,-0.3500000000000002,-9.790000000000001,-0.015800949710116353,-0.018085481609455393,-0.010634634698709965,233.625,-1.0,177.875,0.020446780000000022,0.45141602,-0.892089839999999,0.0
315.0,0.016813193093050148,0.057684065043637545,-0.035127160390146364,-0.17999999999999983,-0.3500000000000002,-9.79,0.009630397120748273,-0.00011191923214705184,-0.003994232671935627,233.625,-1.0,177.875,0.020446780000000025,0.45141602,-0.892089839999999,0.0
316.0,0.018379301261165278,0.059261584296209244,-0.03559485358118529,-0.17999999999999983,-0.35000000000000026,-9.79,0.014512065313692504,-0.0058596541294454576,0.002487109115999573,233.625,-1.0,177.875,0.020446780000000025,0.45141602,-0.8920898399999989,0.0
317.0,0.01836865644761067,0.06212021573350916,-0.03680720997409344,-0.17999999999999983,-0.35000000000000026,-9.79,0.04587647157805196,0.02418876098392878,-0.0024747161982138564,233.625,-1.0,177.875,0.020446780000000025,0.45141602,-0.8920898399999989,0.0
318.0,0.019985576923076936,0.06286031598329983,-0.03802379229193747,-0.17999999999999983,-0.35000000000000026,-9.79,0.04820488511264721,0.004924115143369176,-0.021479943947181848,233.625,-1.0,177.875,0.020446780000000025,0.45141602,-0.8920898399999989,0.0
319.0,0.020178971454173078,0.06244055619559649,-0.03696372567844343,-0.17999999999999983,-0.35000000000000026,-9.79,0.027376252080133126,-0.041883180523553505,-0.016310543874807987,233.625,-1.0,177.875,0.020446780000000025,0.45141602,-0.8920898399999989,0.0
320.0,0.020333941372247838,0.0608699756784434,-0.036478334613415264,-0.17999999999999983,-0.35000000000000026,-9.79,0.01565700204813108,-0.0030641961085509477,-0.028867847542242704,233.625,-1.0,177.875,0.020446780000000025,0.45141602,-0.8920898399999989,0.0
321.0,0.018585284942107275,0.060172447165650844,-0.03380785402523827,-0.17999999999999983,-0.3500000000000002,-9.79,0.009653650091670383,0.002854247187949059,-0.006773562540260641,233.625,-1.0,177.875,0.020446780000000022,0.45141602,-0.892089839999999,0.0
322.0,0.02308892543316322,0.05910692090745419,-0.03669091337974663,-0.17999999999999983,-0.35000000000000026,-9.79,-0.0056183434449482185,-0.05881923217279454,0.017189035582148227,233.625,-1.0,177.875,0.020446780000000022,0.45141602,-0.8920898399999989,0.0
323.0,0.02514829336174291,0.05933672658275934,-0.034164509109228164,-0.17999999999999983,-0.35000000000000026,-9.79,-0.007613229182151529,-0.011532221933171466,0.014768912952364436,233.625,-1.0,177.875,0.020446780000000025,0.45141602,-0.8920898399999989,0.0
324.0,0.02345612312736404,0.059153770357431884,-0.03537462526633964,-0.17999999999999983,-0.35000000000000026,-9.79,-0.011967136864501264,-0.006390150905141801,-0.0025041763963216225,233.625,-1.0,177.875,0.020446780000000025,0.45141602,-0.8920898399999989,0.0
325.0,0.02301334382174654,0.05854109888839336,-0.03525283682671822,-0.17999999999999983,-0.35000000000000026,-9.79,-0.0040461944403151475,-0.010818563355796706,0.0014098321647424148,233.625,-1.0,177.875,0.020446780000000025,0.45141602,-0.8920898399999989,0.0
326.0,0.02260448668714799,0.05677835381464412,-0.03631528417818741,-0.17999999999999983,-0.35000000000000026,-9.79,-0.004608294930875576,-0.02015629000256016,-0.004579293074756784,233.625,-1.0,177.875,0.020446780000000025,0.45141602,-0.8920898399999989,0.0
327.0,0.020253751322051834,0.059517285827604426,-0.03571159439450027,-0.17999999999999983,-0.3500000000000002,-9.79,-0.03215891062929667,-0.03730716634717081,-0.010861998446589105,233.625,-1.0,177.875,0.020446780000000022,0.45141602,-0.892089839999999,0.0
328.0,0.01525540388683237,0.059763683236382856,-0.036535232681121105,-0.17999999999999983,-0.35217741935483865,-9.79,0.03898606887890005,0.034222550898995244,0.0034683203331570597,233.625,-1.0,177.875,0.020500431612903245,0.45141602,-0.8920898399999989,-2.8548709677419368e-05
329.0,0.01744117123622016,0.06362897251149169,-0.037529015223935244,-0.17999999999999983,-0.35624999999999984,-9.79,0.04555150218138551,0.011218944494162632,0.01941890737501525,233.625,-1.0,177.875,0.020599613548387123,0.45141602,-0.8920898399999989,-7.727822580645168e-05
330.0,0.017861010605309265,0.0647965571082804,-0.037531828720518565,-0.17999999999999983,-0.3582862903225804,-9.79,0.026296976449115696,-0.010555062283128617,0.020911170597389856,233.625,-1.0,177.875,0.020649204516129064,0.45141602,-0.8920898399999989,-0.00010164298387096782
331.0,0.018733892719449315,0.06403298317523595,-0.03659929569666482,-0.17999999999999983,-0.3593044354838707,-9.79,0.005034718943323847,0.0084921001148361,0.01726952139060481,233.625,-1.0,177.875,0.020674000000000033,0.45141602,-0.8920898399999989,-0.0001138253629032259
332.0,0.018750870209539576,0.06448211824018275,-0.03668277846705267,-0.17999999999999983,-0.35981350806451584,-9.79,0.006987547203020993,0.005154960686714718,0.020475387347867184,233.625,-1.0,177.875,0.02068639774193552,0.45141602,-0.8920898399999989,-0.00011991655241935494
333.0,0.01869165843983743,0.06573741708054923,-0.03663857315652321,-0.17999999999999983,-0.35999999999999965,-9.79,0.01686536325421601,-0.0006530006009714652,0.0208802941552031,233.625,-1.0,177.875,0.020690920000000036,0.45141602,-0.892089839999999,-0.0001220700000000001
334.0,0.01935079199907505,0.06457838595962945,-0.03659720221101595,-0.17999999999999983,-0.35999999999999965,-9.79,0.03194384788020974,0.01226655180869541,0.024289402660728106,233.625,-1.0,177.875,0.020690920000000036,0.45141602,-0.8920898399999989,-0.0001220700000000001
335.0,0.018975191186429492,0.06276154321022948,-0.03567827340453511,-0.17999999999999983,-0.35999999999999965,-9.79,0.0072913683845493155,-0.00494743326103888,0.011792678800922166,233.625,-1.0,177.875,0.020690920000000036,0.45141602,-0.8920898399999989,-0.0001220700000000001
336.0,0.018116371834894215,0.06442890268550387,-0.03455342241655328,-0.17999999999999983,-0.35999999999999965,-9.790000000000001,0.004976969394527603,-0.007728452933642839,-0.015279415847874811,233.625,-1.0,177.875,0.020690920000000036,0.45141602,-0.892089839999999,-0.0001220700000000001
337.0,0.022095716934816843,0.06626535860081645,-0.037567847994877133,-0.17999999999999983,-0.35999999999999965,-9.790000000000001,-0.0015919956842498466,0.011024111002161212,0.010360301768990634,233.625,-1.0,177.875,0.020690920000000036,0.45141602,-0.8920898399999989,-0.0001220700000000001
338.0,0.023573873035566597,0.06624922456575683,-0.036903070719602984,-0.17999999999999983,-0.35999999999999965,-9.79,-0.02445299576095947,-0.034257715570719605,-0.021875000000000002,233.625,-1.0,177.875,0.020690920000000036,0.45141602,-0.8920898399999989,-0.0001220700000000001
339.0,0.022360413220292266,0.06560722286226317,-0.036867621066209784,-0.17999999999999983,-0.35999999999999965,-9.79,-0.011450325128500532,-0.006763886734904882,0.002949665701681828,233.625,-1.0,177.875,0.020690920000000036,0.45141602,-0.8920898399999989,-0.0001220700000000001
340.0,0.02088030741659775,0.06439887352790577,-0.03642020166213716,-0.17564516129032248,-0.35999999999999965,-9.79,0.004623249734136831,0.054944039495450785,0.01508370381858285,233.625,-1.0,177.875,0.020664338064516143,0.45141602,-0.8920898399999989,-0.00017522951612903242
341.0,0.01951542252550318,0.06339298515104966,-0.03387945566977826,-0.17266129032258057,-0.35999999999999965,-9.79,-0.008810686960888575,-0.0016106415425971889,0.014749513199614005,233.625,-1.0,177.875,0.020646124516129034,0.45141602,-0.8920898399999989,-0.00021165362903225824
342.0,0.01788658080674541,0.062413573485096484,-0.03676306103262741,-0.1711693548387096,-0.35999999999999965,-9.79,-0.00798301910994435,-0.0007417605874316937,-0.013823073201275047,233.625,-1.0,177.875,0.02063701774193548,0.45141602,-0.892089839999999,-0.00022986568548387116
343.0,0.01886516540337271,0.060532503588426365,-0.036311958063676736,-0.17042338709677413,-0.35999999999999965,-9.79,-0.015043716896242015,-0.0021987472772027894,0.007748151619408559,233.625,-1.0,177.875,0.020632464354838703,0.45141602,-0.8920898399999989,-0.0002389717137096776
344.0,0.017559822845055535,0.060912693166461,-0.03457815005078359,-0.1700504032258064,-0.35999999999999965,-9.79,-0.014122280875156337,0.0031008951786029057,-0.014215081896388908,233.625,-1.0,177.875,0.020630187661290315,0.45141602,-0.8920898399999989,-0.00024352472782258086
345.0,0.01762453941420311,0.061821135865228416,-0.03535668038439284,-0.16999999999999993,-0.35999999999999965,-9.790000000000001,-0.007896451962031863,-0.004423249243424873,0.00339330046049441,233.625,-1.0,177.8453433922997,0.02068881918834546,0.45141602,-0.892089839999999,-0.00027361180020811667
346.0,0.018138699325869888,0.06337268914473541,-0.03484529705925409,-0.16999999999999993,-0.35999999999999965,-9.79,0.019858706753588175,0.007499587804973779,0.010289541084352776,233.625,-1.0,177.8279136316337,0.02081686185223725,0.45141602,-0.8920898399999988,-0.00035338428720083266
347.0,0.01822369816418985,0.06428151131877717,-0.0354617308997512,-0.16999999999999993,-0.35999999999999965,-9.79,0.023869917704058573,0.0037332682546814956,0.0226863522197972,233.625,-1.0,177.8191987513007,0.020880883184183144,0.45141602,-0.8920898399999989,-0.0003932705306971907
348.0,0.019365683032385783,0.06478162762601411,-0.036866705225588464,-0.16999999999999993,-0.36067689053410873,-9.79,0.044032226191893134,0.005135564650369632,0.0172569972174003,233.625,-1.0,177.81113956602582,0.02093200128537555,0.45141602,-0.892089839999999,-0.0004209599877177123
349.0,0.01894676056085791,0.06903810754749837,-0.03711747947383641,-0.16999999999999993,-0.365499735589635,-9.79,0.026191099525847313,0.003418579083869679,-0.0017383302529623817,233.625,-1.0,177.77855365398062,0.02109595999752649,0.45141602,-0.8920898399999989,-0.000490062251923372
350.0,0.01967109099843104,0.07245869997562224,-0.039427626313401035,-0.16999999999999993,-0.3687176097303012,-9.79,0.029240841126087026,0.009399846253693424,0.0013095549567654278,233.625,-1.0,177.7631874669487,0.021195294600740332,0.45141602,-0.8920898399999989,-0.0005320594870438921
351.0,0.019447913418035055,0.07573640207550836,-0.03677544328284678,-0.16999999999999993,-0.3746813855103118,-9.79,0.04409721616887138,0.020298012313645575,-0.0216375583220176,233.625,-1.0,177.72383963721217,0.021441200485214,0.45141602,-0.8920588406349198,-0.0006671662232966521
352.0,0.019275691712365442,0.07739421624118872,-0.03638464944480281,-0.16999999999999993,-0.37766327340031713,-9.79,0.02211285835029886,0.00816389449429177,-0.014324480448968153,233.625,-1.0,177.70365368957385,0.021566153468413455,0.45141602,-0.8920428409626209,-0.0007362197245515522
353.0,0.01761378451297807,0.07974417316554412,-0.03741495824963567,-0.16999999999999993,-0.37913306451612894,-9.79,0.011072954822954822,0.01456747077966836,-0.007864580256213321,233.625,-1.0,177.6936763952893,0.021628032852662574,0.45141602,-0.8920348411264716,-0.0007705044022017415
354.0,0.018105899700657773,0.0789378434065934,-0.0381069828469022,-0.16999999999999993,-0.3797278225806451,-9.79,0.002388214384182126,-0.005852120689570285,0.008505675132439244,233.625,-1.0,177.68958013312852,0.021654647555363546,0.45141602,-0.8920308412083968,-0.000785919943036355
355.0,0.017142202331718467,0.08049485997873095,-0.03736079601402183,-0.16999999999999993,-0.3799999999999999,-9.79,-0.00824292754736303,0.007755788678167711,0.01310708500728662,233.625,-1.0,177.6875320020481,0.021667354997439842,0.45141602,-0.8920288412493593,-0.0007933662416794681
356.0,0.01737422456575683,0.08027047146401983,-0.037646091811414394,-0.16999999999999993,-0.3799999999999999,-9.79,-0.016154233870967743,0.0033818625930521094,0.011273844602977668,233.625,-1.0,177.6875,0.021667480000000006,0.45141602,-0.8920288099999996,-0.0007934600000000006
357.0,0.018036027675498285,0.0810732810373809,-0.035141464219963184,-0.16999999999999993,-0.37999999999999995,-9.79,-0.015376704704634595,0.006435588304450492,0.022899589395061235,233.625,-1.0,177.6875,0.021667480000000003,0.45141602,-0.8920288099999996,-0.0007934600000000006
358.0,0.017254715140478674,0.08059084337228845,-0.03465796846233892,-0.16999999999999993,-0.3799999999999999,-9.79,0.004687093522372529,-9.064451092611866e-05,0.00898415612743136,233.625,-1.0,177.6875,0.021667480000000006,0.45141602,-0.8920288099999996,-0.0007934600000000006
359.0,0.015315051428800137,0.0824721043784519,-0.033934753461938694,-0.16999999999999993,-0.3799999999999999,-9.79,0.017822668194188748,0.014756263507564236,-0.0018412811174257585,233.625,-1.0,177.6875,0.021667480000000006,0.45141602,-0.8920288099999996,-0.0007934600000000006
360.0,0.015297724225566325,0.08467401744977185,-0.03540658268630434,-0.16999999999999993,-0.3799999999999999,-9.79,0.005158232360121669,-0.006067898022892818,-0.008760280757224046,233.625,-1.0,177.6875,0.021667480000000006,0.45141602,-0.8920288099999996,-0.0007934600000000006
361.0,0.014944729048267038,0.0851595893700472,-0.036448251020571525,-0.16999999999999993,-0.3799999999999999,-9.79,-0.006650974545745618,-0.0010178199791883447,-0.007530341991515249,233.625,-1.0,177.6875,0.021667480000000006,0.45141602,-0.8920288099999996,-0.0007934600000000006
362.0,0.01499317617866006,0.08497053349875927,-0.03697022332506204,-0.16999999999999993,-0.3799999999999999,-9.79,-0.010658343672456575,-0.021824596774193548,0.0022506978908188573,233.625,-1.0,177.6875,0.021667480000000006,0.45141602,-0.8920288099999996,-0.0007934600000000006
363.0,0.016079005671747616,0.08387551449446609,-0.03751189491512072,-0.16999999999999993,-0.3799999999999999,-9.79,-0.000596561256843515,-0.01542754120879121,-0.006989631951829533,233.625,-1.0,177.6875,0.021667480000000006,0.45141602,-0.8920288099999996,-0.0007934600000000006
364.0,0.010838510280042544,0.08314123119264247,-0.036004086415376745,-0.16999999999999993,-0.3799999999999999,-9.79,-0.005245551099885778,-0.028510917006380716,-0.01770077131090236,233.625,-1.0,177.6875,0.021683959285359794,0.45141602,-0.8920288099999996,-0.0007769807146401983
365.0,0.012299775493323888,0.08727894092914254,-0.03706934351490803,-0.16999999999999993,-0.3799999999999999,-9.79,0.04461024736352357,-0.022038456615069518,-0.026023234717791166,233.625,-1.0,177.6875,0.02170722415880893,0.45141602,-0.8920288099999996,-0.0007537158411910665
366.0,0.010566615007370566,0.08439737798704613,-0.03645971141900876,-0.16999999999999993,-0.37999999999999995,-9.79,0.005682129482264164,-0.012668694529110645,-0.030897016122777128,233.625,-1.0,177.6875,0.021718856595533496,0.45141602,-0.8920288099999996,-0.0007420834044665007
367.0,0.01173240024562077,0.08438114867094243,-0.03561140812885922,-0.16999999999999993,-0.3799999999999999,-9.79,0.004589426636293373,0.005919937009638226,-0.026741980843646627,233.625,-1.0,177.6875,0.021724672813895778,0.45141602,-0.8920288099999996,-0.0007362671861042178
368.0,0.012605831459215918,0.08456640638872262,-0.035338986194485944,-0.16999999999999993,-0.3799999999999999,-9.79,0.0026387353355558003,-0.0024403771173007027,-0.004546425649677898,233.625,-1.0,177.6875,0.021727580923076917,0.45141602,-0.8920288099999996,-0.0007333590769230762
369.0,0.011853784215960318,0.08288866225143326,-0.035178177960766555,-0.16999999999999993,-0.3799999999999999,-9.79,0.013555720025097999,-0.0036085260276329818,0.00926524871362259,233.625,-1.0,177.6875,0.021728519999999994,0.45141602,-0.8920288099999996,-0.0007324199999999995
370.0,0.012532941972094543,0.08293005328885814,-0.03325256528902088,-0.16999999999999993,-0.3799999999999999,-9.79,0.009275989123581336,-0.020406807422812513,0.018079884981491275,233.625,-1.0,177.6875,0.021728519999999994,0.45141602,-0.8920288099999996,-0.0007324199999999995
371.0,0.012838915229036204,0.08233976328331163,-0.03439847842569618,-0.16999999999999993,-0.3799999999999999,-9.79,0.010799175762633423,-0.013738056158671078,0.01779433883768561,233.625,-1.0,177.6875,0.021728519999999994,0.45141602,-0.8920288099999996,-0.0007324199999999995
372.0,0.012809966934983468,0.08135315107581764,-0.035420955566629164,-0.16999999999999993,-0.37999999999999995,-9.79,0.001650589748714913,0.00546039624972316,0.008714870866489553,233.625,-1.0,177.6875,0.021728519999999994,0.45141602,-0.8920288099999996,-0.0007324199999999995
373.0,0.012637342338459479,0.08285903521532817,-0.03561118342847588,-0.16999999999999993,-0.3799999999999999,-9.79,0.010890189027583264,0.005423620503893839,5.74102316318742e-05,233.625,-1.0,177.6875,0.021728519999999994,0.45141602,-0.8920288099999996,-0.0007324199999999995
374.0,0.011948711491810388,0.08197387244637375,-0.03619268848843149,-0.16999999999999993,-0.3799999999999999,-9.79,0.02018803806217873,0.013895025977753371,0.012282989390009484,233.625,-1.0,177.6875,0.021728519999999994,0.45141602,-0.8920288099999996,-0.0007324199999999995
375.0,0.012314975699428377,0.08060712606918316,-0.03659431580670344,-0.16999999999999993,-0.3799999999999999,-9.79,0.023282801574710618,0.002416515312717719,-0.003478320973198023,233.625,-1.0,177.6875,0.021728519999999994,0.45141602,-0.8920288099999996,-0.0007324199999999995
376.0,0.013205618930103337,0.08221088510320396,-0.03611077797503631,-0.16999999999999993,-0.3799999999999999,-9.79,0.008441195974247268,-0.01682489646550494,-0.008547596226486364,233.625,-1.0,177.6875,0.021728519999999994,0.45141602,-0.8920288099999996,-0.0007324199999999995
377.0,0.011885560675883264,0.08060595878136201,-0.035164250512032785,-0.16999999999999993,-0.3799999999999999,-9.79,0.00740847414234511,-0.0031767033090117757,-0.0022091413850486427,233.625,-1.0,177.6875,0.021728519999999994,0.45141602,-0.8920288099999996,-0.0007324199999999995
378.0,0.01290037659184382,0.08239682694531159,-0.03590199063062618,-0.16999999999999993,-0.37999999999999995,-9.79,0.025241454162743832,0.03007066645813719,-0.0009785626280081924,233.625,-1.0,177.6875,0.021728519999999994,0.45141602,-0.8920288099999996,-0.0007324199999999995
379.0,0.016671962489470303,0.08053561105330095,-0.03719746708950664,-0.16999999999999993,-0.3799999999999999,-9.79,0.03331755167814611,0.003096069116165369,0.0011330725166410652,233.625,-1.0,177.6875,0.021728519999999994,0.45141602,-0.8920288099999996,-0.0007324199999999995
380.0,0.01728829612837158,0.08027804618205242,-0.0359860450423666,-0.16999999999999993,-0.37999999999999995,-9.790000000000001,0.006357213313264953,0.0017080447987380867,-0.013193312113910774,233.625,-1.0,177.6875,0.021728519999999998,0.45141602,-0.8920288099999996,-0.0007324199999999995
381.0,0.01873991419321805,0.08059466825231651,-0.03539692037064567,-0.16999999999999993,-0.37999999999999995,-9.790000000000003,-0.011780650735840642,-0.029761737009233107,-0.019832753167170442,233.625,-1.0,177.6875,0.021728519999999998,0.45141602,-0.8920288099999996,-0.0007324199999999995
382.0,0.01944036160249741,0.08103850156087407,-0.03537127124523068,-0.16999999999999993,-0.3799999999999999,-9.790000000000001,-0.01909117022199098,-0.006992363640305237,-0.003931993583073187,233.625,-1.0,177.6875,0.021728519999999998,0.45141602,-0.8920288099999996,-0.0007324199999999995
383.0,0.01793475556629174,0.08159856630824372,-0.03585598562178949,-0.16999999999999993,-0.3799999999999999,-9.79,0.015885203749814183,-0.007560183851766513,-0.0014539640214393072,233.625,-1.0,177.6875,0.021728519999999994,0.45141602,-0.8920288099999996,-0.0007324199999999995
384.0,0.017899829460053196,0.08024596774193549,-0.03533158664089987,-0.16999999999999993,-0.3799999999999999,-9.79,0.02776237034008886,-0.015194572452636968,0.008426603818773434,233.625,-1.0,177.6875,0.021728519999999994,0.45141602,-0.8920288099999996,-0.0007324199999999995
385.0,0.01718397977470559,0.08184341397849464,-0.0362743855606759,-0.16999999999999993,-0.3799999999999999,-9.79,0.02391873079877112,-0.0065732206861239114,-0.0009800627240143358,233.625,-1.0,177.6875,0.021728519999999994,0.45141602,-0.8920288099999996,-0.0007324199999999995
386.0,0.017936587941628272,0.08131520417306709,-0.03748319892473119,-0.16999999999999993,-0.3799999999999999,-9.79,-0.003443220366103429,0.007928507424475166,-0.002630168330773169,233.625,-1.0,177.6875,0.021728519999999994,0.45141602,-0.8920288099999996,-0.0007324199999999995
387.0,0.017594470046082958,0.08029083461341525,-0.03984946236559141,-0.16999999999999993,-0.37999999999999995,-9.79,-0.0018497183819764461,-0.01134152585765489,-0.002579365079365079,233.625,-1.0,177.6875,0.021728519999999994,0.45141602,-0.8920288099999996,-0.0007324199999999995
388.0,0.014581925243215573,0.08107731694828468,-0.04079006656426012,-0.16999999999999993,-0.3799999999999999,-9.79,0.012371991807475679,0.011562339989759344,-0.009874231950844853,233.625,-1.0,177.6875,0.021728519999999994,0.45141602,-0.8920288099999996,-0.0007324199999999995
389.0,0.01642306707629289,0.08342396313364056,-0.040886584741423454,-0.16999999999999993,-0.3799999999999999,-9.79,0.014250512032770096,-0.024572772657450073,-0.007785298259088581,233.625,-1.0,177.6875,0.021728519999999994,0.45141602,-0.8920288099999996,-0.0007324199999999995
390.0,0.01060916827709232,0.08390587681482581,-0.03865794972168542,-0.16999999999999993,-0.37999999999999995,-9.790000000000001,5.7448838015955114e-05,0.02150055022876303,-0.003196346501659977,233.625,-1.0,177.6875,0.021728519999999994,0.45141602,-0.8920288099999996,-0.0007324199999999995
391.0,0.009672223667476013,0.08087510942635813,-0.036894259039030125,-0.16999999999999993,-0.3799999999999999,-9.790000000000001,0.001548821705234296,0.022719041115405576,0.01077061835183258,233.625,-1.0,177.6875,0.021728519999999994,0.45141602,-0.8920288099999996,-0.0007324199999999995
392.0,0.010817779381772558,0.08078675266840557,-0.0372303130203083,-0.16999999999999993,-0.37999999999999995,-9.790000000000001,-0.015073409965292245,0.01182995066522967,-0.01732038005376818,233.625,-1.0,177.6875,0.021728519999999998,0.45141602,-0.8920288099999996,-0.0007324199999999995
393.0,0.013211552932301475,0.0794474215995514,-0.04100410682232896,-0.16999999999999993,-0.37999999999999995,-9.790000000000003,-0.011619772750596174,-0.007107551657499628,-0.0037098006213169736,233.625,-1.0,177.6875,0.021728519999999998,0.45141602,-0.8920288099999996,-0.0007324199999999995
394.0,0.011393243479424206,0.08003112739751489,-0.04128329725692445,-0.16999999999999993,-0.3799999999999999,-9.790000000000001,0.0008659870344462899,0.0028653426871428954,-0.0012786172746980314,233.625,-1.0,177.6875,0.021728519999999998,0.45141602,-0.8920288099999996,-0.0007324199999999995
395.0,0.012658946038144627,0.07879837095971245,-0.04307471273166161,-0.16999999999999993,-0.3799999999999999,-9.79,0.00013232911341097857,0.006008189983215997,-0.020112813006144745,233.625,-1.0,177.6875,0.021728519999999994,0.45141602,-0.8920288099999996,-0.0007324199999999995
396.0,0.013093012982404164,0.07901623451938185,-0.0420303943718761,-0.16999999999999993,-0.37999999999999995,-9.790000000000001,0.012521155224495324,0.0015794876877082912,-0.00419693472268488,233.625,-1.0,177.6875,0.021728519999999998,0.45141602,-0.8920288099999996,-0.0007324199999999995
397.0,0.012841556408674001,0.08027955453033495,-0.04191242969078557,-0.16999999999999993,-0.3799999999999999,-9.79,0.00871138125950821,-0.004097841688892678,0.007409789453233781,233.625,-1.0,177.6875,0.021728519999999994,0.45141602,-0.8920288099999996,-0.0007324199999999994
398.0,0.012622651253244393,0.0796038771611092,-0.04305819195257281,-0.16999999999999993,-0.3799999999999999,-9.79,-0.00813130208616681,0.0018695234843778027,-0.0029938565741115166,233.625,-1.0,177.6875,0.021728519999999994,0.45141602,-0.8920288099999996,-0.0007324199999999994
399.0,0.012604129596845525,0.07849920905201863,-0.042633314338569275,-0.16999999999999993,-0.3799999999999999,-9.79,-0.0032747081150437023,-0.01082857572679373,-0.01209711439127412,233.625,-1.0,177.6875,0.021728519999999994,0.45141602,-0.8920288099999996,-0.0007324199999999995
400.0,0.013120013874436358,0.07905084271434426,-0.04186802336581212,-0.16999999999999993,-0.3799999999999999,-9.789999999999997,0.018906506204080346,-0.021230572832907642,0.0004245843581496553,233.625,-1.0,177.6875,0.021728519999999994,0.45141602,-0.8920288099999996,-0.0007324199999999994
401.0,0.013919528269164073,0.07953842864125121,-0.04425086912307256,-0.16999999999999993,-0.37999999999999995,-9.79,0.0007383727690537002,-0.01838713865370668,0.0010577656442153059,233.625,-1.0,177.6875,0.021728519999999994,0.45141602,-0.8920288099999996,-0.0007324199999999995
402.0,0.01470367792688293,0.08007247736582415,-0.04406475867827975,-0.16999999999999993,-0.3799999999999999,-9.79,0.0018441898756593733,0.0027359214332825805,0.004862251066766221,233.625,-1.0,177.6875,0.021728519999999994,0.45141602,-0.8920288099999996,-0.0007324199999999995
403.0,0.013423178913813678,0.0803714976779493,-0.04402885111333343,-0.16999999999999993,-0.3799999999999999,-9.79,-0.005135742763783216,-0.0027125196648723577,-0.020192895480884883,233.625,-1.0,177.6875,0.021728519999999994,0.45141602,-0.8920288099999996,-0.0007324199999999995
404.0,0.015055719546806366,0.07929534693522,-0.04409442621769262,-0.16999999999999993,-0.37999999999999995,-9.79,-0.0047146563171110685,-0.007339835404223593,-0.019284449706994528,233.625,-1.0,177.6875,0.021728519999999994,0.45141602,-0.8920288099999996,-0.0007324199999999995
405.0,0.014898051251754058,0.07965500484590912,-0.043393886675633736,-0.16999999999999993,-0.3800000000000001,-9.790000000000003,-0.012486489793884153,0.01864047272972076,-0.029749607982702025,233.625,-1.0,177.6875,0.021728520000000008,0.45141602,-0.8920288099999996,-0.0007324199999999998
406.0,0.014684357150092683,0.0816482909534205,-0.0427457419068456,-0.16999999999999993,-0.38000000000000017,-9.790000000000003,-0.0048393083656871885,0.02730078749963965,-0.030166651739815642,233.625,-1.0,177.6875,0.02172852000000001,0.45141584498924725,-0.8920290725089601,-0.0007307573906810035
407.0,0.014447838043134657,0.0844554818822402,-0.042250916795415525,-0.16999999999999993,-0.38000000000000017,-9.790000000000003,0.009307590478461787,0.0269340674343474,-0.025821895491304765,233.625,-1.0,177.6875,0.02172852000000001,0.45141558247311825,-0.892029466272401,-0.0007282634767025089
408.0,0.014263815873608397,0.08768018097420528,-0.04178706497582288,-0.16999999999999993,-0.3800000000000001,-9.790000000000003,0.027262112759787502,0.02315783311385545,-0.018127339513277545,233.625,-1.0,177.6875,0.02172852000000001,0.45141527620430105,-0.8920299256630819,-0.0007253539103942652
409.0,0.013982711364115545,0.09115232974910392,-0.04134018553658024,-0.16999999999999993,-0.3800000000000001,-9.790000000000003,0.04673532047227493,0.017258986928104573,-0.010031230234029095,233.625,-1.0,177.6875,0.021728520000000008,0.45141494805913973,-0.892030417867383,-0.0007222365179211467
410.0,0.013753953194180907,0.09468010752688169,-0.04092678684376978,-0.16999999999999993,-0.38000000000000006,-9.790000000000003,0.06733376818469322,0.009344362745098036,-0.0009932400379506615,233.625,-1.0,177.6875,0.021728520000000005,0.45141460897580643,-0.892030926478494,-0.0007190152123655912
411.0,0.013525195024246265,0.09820788530465946,-0.04051338815095932,-0.16999999999999993,-0.38,-9.790000000000003,0.08793221589711153,0.001429738562091502,0.008044750158127768,233.625,-1.0,177.6875,0.02172852,0.451414269892473,-0.8920314350896053,-0.0007157939068100355
412.0,0.011290849673202619,0.09640949820788527,-0.042807980181319844,-0.16991935483870962,-0.37999999999999995,-9.790000000000001,0.014364260489141887,0.04262696341977651,-0.023368319101834283,233.625,-0.998991935483871,177.6875,0.02171867548387097,0.45141515588440856,-0.8920301061379923,-0.0007414386890681
413.0,0.011655861269238881,0.10835663082437275,-0.04525226649799705,-0.1647983870967742,-0.38000000000000006,-9.790000000000003,-0.005614853468269029,0.13458979021716214,-0.024267670777988613,233.625,-0.9672379032258065,177.6875,0.021520800215053773,0.4514156043494623,-0.8920294334587808,-0.001113141988351254
414.0,0.02668076639257854,0.1055636200716846,-0.047341292430950886,-0.16610887096774193,-0.3748387096774194,-9.79,0.02035367910605102,-0.035026947606999786,-0.009406131404174572,233.64650537634407,-0.9728662634408602,177.73319892473117,0.021265010645161293,0.4514237075994624,-0.8920448398835121,-0.000917739788082437
415.0,0.019429883512544804,0.08561559139784947,-0.04308781362007169,-0.16576052867383512,-0.34989247311827965,-9.789999999999996,0.10558635752688172,-0.03547827060931899,-0.008393537186379928,233.63575268817203,-0.9541750672043011,177.88597670250897,0.020079172204301075,0.4513568872741936,-0.8920997877956984,-0.000401812221550179
416.0,0.019353260426849136,0.06745173509286413,-0.04060280221570545,-0.16788026433691752,-0.33397849462365603,-9.789999999999994,0.04523116752199413,-0.011790027289019222,-0.042571951877647445,233.63037634408602,-0.9565596743646139,177.98028673835125,0.01932301607282503,0.45132348258064525,-0.8921272535483866,-2.0438055300993802e-05
417.0,0.017269876181166505,0.05852627077223853,-0.03970462691430434,-0.16894265232974903,-0.3260215053763441,-9.789999999999996,0.05901301319648093,0.01858835329097426,-0.05912934791463017,233.627688172043,-0.9783113391984359,178.0274417562724,0.018950973742057682,0.4513067474193549,-0.8921410356451607,0.0001911441805148256
418.0,0.017730368198110136,0.05211192570869991,-0.041279732811990884,-0.16963261648745515,-0.32204301075268826,-9.789999999999996,0.052465175953079174,0.008970755946562398,-0.029165648419680675,233.6263440860215,-0.990163734115347,178.05101926523298,0.018770982358260024,0.45129837983870974,-0.8921479266935477,0.0003081487031606385
419.0,0.018013033561420658,0.04969305962854351,-0.03636298468556534,-0.1698566308243727,-0.32021505376344095,-9.789999999999996,0.04160557184750733,-0.014903062886933854,-0.014666829586184423,233.625,-0.9954178885630498,178.06137992831543,0.018685888289345073,0.45129395000000005,-0.8921508799999993,0.00035473515803193206
420.0,0.020680351906158356,0.04957771260997069,-0.040263929618768346,-0.16999999999999993,-0.32000000000000006,-9.789999999999996,-0.014479472140762464,-0.0068914956011730194,-0.029802052785923752,233.625,-0.9987170087976539,178.0625,0.0186764019941349,0.45129395000000005,-0.8921508799999993,0.000364957184750733
421.0,0.019885630498533723,0.048366568914956026,-0.04156891495601174,-0.16999999999999993,-0.32000000000000006,-9.789999999999994,-0.018786656891495602,-0.00656158357771261,-0.00784457478005865,233.625,-1.0,178.0625,0.018676760000000008,0.45129395000000005,-0.8921508799999993,0.00036620999999999984
422.0,0.021055718475073315,0.05019941348973609,-0.043897360703812324,-0.16999999999999993,-0.32000000000000006,-9.789999999999994,-0.007276392961876833,-0.0008614369501466278,0.00373900293255132,233.625,-1.0,178.0625,0.018676760000000008,0.45129395000000005,-0.8921508799999993,0.00036620999999999984
423.0,0.01821407624633431,0.04684750733137831,-0.04471554252199414,-0.16999999999999993,-0.32000000000000006,-9.789999999999994,-0.0014112903225806453,0.008266129032258063,0.007734604105571847,233.625,-1.0,178.0625,0.01867676000000001,0.45129395000000005,-0.8921508799999993,0.00036620999999999984
424.0,0.01625578364288042,0.04671945259042034,-0.04707461713913328,-0.16999999999999993,-0.32000000000000006,-9.789999999999994,0.0023745519713261644,0.004838709677419354,0.036125366568914956,233.625,-1.0,178.0625,0.018676760000000008,0.45129395000000005,-0.8921508799999994,0.00036620999999999984
