time,linaccel_x,linaccel_y,linaccel_z,gravity_x,gravity_y,gravity_z,gyro_x,gyro_y,gyro_z,euler_x,euler_y,euler_z,quaternion_w,quaternion_y,quaternion_x,quaternion_z
0.0,-0.010238095238095237,-0.01142857142857143,-0.011190476190476188,3.5045238095238096,0.5295238095238093,9.13714285714285,-0.17857142857142858,-0.010416666666666666,-0.13839285714285715,314.29910714285717,20.9375,-3.3110119047619047,-0.9058765214285712,0.15701729952380952,-0.09620303261904763,-0.38140869214285733
1.0,-0.008246031746031746,-0.015142857142857145,-0.01523015873015873,3.5248412698412706,0.5231746031746028,9.129214285714285,-0.15327380952380953,-0.2597222222222222,-0.005505952380952389,314.2778273809524,21.067708333333332,-3.2703373015873014,-0.9056494319761901,0.15816287117460318,-0.09634380070634921,-0.3814361580476191
2.0,0.000229052596648416,-0.02307516177202589,-0.020464493114318895,3.530437199269953,0.519688070350091,9.12631831757093,-0.029974489795918366,-0.15921893147502902,-0.025878857640617228,314.2627971005475,21.1013175087108,-3.264813547370167,-0.9055494178852659,0.1584682939180355,-0.09635794775916709,-0.3815489135883525
3.0,0.002773557878435928,-0.02596840882694542,-0.018216763453348814,3.4916706929926447,0.5335877661633759,9.140681881533103,0.07934523809523808,0.3548644986449864,0.09958986643437863,314.1843053135889,20.855614837398374,-3.3410796554394113,-0.9056195132797911,0.15620610196174992,-0.09629109788761131,-0.3823212964745646
4.0,0.009398692443145626,-0.02716803416882096,-0.020521880034468545,3.545316661046795,0.5645920347682739,9.11804827469934,0.3027516297628414,-0.024986886965643856,-0.7551158396088569,314.47391641845564,21.194494984264356,-3.541907150350305,-0.9060186862840844,0.1585130394858192,-0.09850702092909597,-0.37982338912026536
5.0,0.005767702596380802,-0.015851298190401264,-0.015886900078678205,3.5323918174665616,0.6324649881982691,9.119134736428013,-0.12800206530291108,-0.35184156176239184,-0.5761322285601888,315.1571339004721,21.11357813729347,-3.9643243509047994,-0.9082620276351299,0.15714784187962233,-0.10056144464811172,-0.3744235319126672
6.0,0.0044201416207710455,-0.017070810385523216,-0.016826514555468138,3.548405586152636,0.6495228166797798,9.111998819826912,-0.19641030684500393,-0.14714053894571205,-0.2309844610542879,315.5419994099135,21.20706628638867,-4.0660331431943355,-0.9093261893135327,0.157912610343037,-0.10113555934421717,-0.37137562732730145
7.0,0.0024909520062942558,-0.030260818253343834,-0.015632769472856023,3.553579661683715,0.6570666797797011,9.110771243115664,-0.1830841856805665,-0.005282503933910304,-0.06886064122737998,315.7290396341463,21.224879523996854,-4.1094573662470495,-0.9098734381516522,0.15816330360739572,-0.10126111596164442,-0.3699125050145556
8.0,0.0003906372934697088,-0.04370298977183322,-0.015167191188040916,3.5559874114870187,0.6574083398898503,9.109688040912673,-0.15807435090479938,-0.0954587922895358,-0.04909765932336742,315.8166871557828,21.23355871361133,-4.111054287962235,-0.9101642089024391,0.15826231419079462,-0.10121425404130603,-0.3691912396766327
9.0,0.008588709677419357,-0.06165322580645162,-0.017540322580645168,3.5574193548387107,0.6546129032258061,9.110056451612909,-0.08004032258064514,-0.042389112903225806,-0.007510080645161288,315.8640625,21.237550403225804,-4.11391129032258,-0.9102839323387099,0.15830467113709673,-0.10118363758870963,-0.3689053901451613
10.0,0.01549193548387097,-0.08094354838709678,-0.01981451612903226,3.562983870967743,0.657516129032258,9.107403225806454,-0.05216733870967742,-0.22348790322580644,0.017036290322580645,315.8579637096774,21.282006048387096,-4.136743951612903,-0.9102254561451613,0.1586041871290322,-0.10145854312903224,-0.368851688967742
11.0,0.01634677419354839,-0.09166129032258064,-0.01826612903225807,3.6042741935483873,0.6472419354838709,9.091612903225808,0.009576612903225801,-0.3076108870967742,-0.0078125,315.8793850806452,21.5515625,-4.0693548387096765,-0.9099099430241937,0.1609657543387097,-0.1017525949516129,-0.368515160766129
12.0,0.015645161290322587,-0.09068548387096774,-0.01405645161290323,3.645137096774193,0.624588709677419,9.075258064516131,-0.037752016129032256,-0.09380040322580643,0.18659274193548386,315.83382056451615,21.821925403225805,-3.929435483870967,-0.9094052217741935,0.16344619297580643,-0.10155265579032258,-0.3687142639677419
13.0,0.01481451612903226,-0.09591935483870967,-0.015306451612903229,3.6583870967741934,0.607548387096774,9.07198387096774,0.10892137096774193,-0.03311491935483871,0.16542338709677418,315.7233870967742,21.90735887096774,-3.8124495967741936,-0.9089435206290322,0.16441069601612907,-0.10110808395967744,-0.36954522791935474
14.0,0.02133064516129032,-0.10205645161290322,-0.016362903225806455,3.657580645161291,0.6042580645161292,9.071895161290321,0.04213709677419354,-0.07943548387096774,0.1837701612903226,315.61451612903227,21.89158266129032,-3.8045362903225803,-0.9086579848306453,0.16429059352419356,-0.10112560654032257,-0.3703076770564516
15.0,0.02205645161290323,-0.11255645161290322,-0.01608870967741936,3.658612903225806,0.6069435483870969,9.072185483870964,0.1459173387096774,0.036290322580645164,0.09223790322580645,315.5233870967742,21.89632056451613,-3.8133064516129034,-0.9083649183145162,0.16420145354032256,-0.10136379175806452,-0.37100283776612913
16.0,0.02562749615975423,-0.12041436251920123,-0.01600768049155146,3.6684285714285716,0.6001593701996928,9.068403225806449,0.022820660522273432,-0.20309859831029187,0.1441148233486943,315.48757680491553,21.96206317204301,-3.7759840629800303,-0.9081472485606756,0.16481596960983103,-0.10130708057565285,-0.3712787919158987
17.0,0.026175471132591513,-0.11341794050428985,-0.017409819789442137,3.715220579970777,0.6046769510321832,9.048457907159715,0.25200336723989364,-0.4850791231126597,0.07078012017159342,315.4395336325915,22.258493968004196,-3.815686760050204,-0.9075063176021321,0.16703991138300361,-0.1025861382550766,-0.3714865432070643
18.0,0.016679517440335696,-0.09909395489116181,-0.015934940616687272,3.791321503503054,0.5872213480199319,9.017447079539918,0.0621623979056611,-0.34657902008167546,0.21133452053126522,315.35261891883033,22.741886192911466,-3.7197757436963768,-0.9064767192400061,0.17109298941442808,-0.10347323070645535,-0.3718927407630943
19.0,0.02144459742984527,-0.08975262260687124,-0.01942714772769848,3.831180913041851,0.5531832546551273,9.003029991382864,0.05807212637218538,-0.26971088100857965,0.19122673607208424,315.18812901586676,22.99906809645573,-3.5113999686223822,-0.9055910200151642,0.17362571370721402,-0.10292628472419543,-0.37303202070816
20.0,0.022188565434041446,-0.08255835300288487,-0.021414596680529016,3.839930838110225,0.5468271702071859,8.999951856431007,0.26433676145517215,-0.16613371548462028,0.09873529466861489,315.1089119459743,23.056105522460754,-3.475155014798996,-0.9052477333341951,0.1741022038621633,-0.10295593127968228,-0.3736381443149376
21.0,0.027875875763365934,-0.07308774493274889,-0.0317245888127084,3.804071297441085,0.6032069611479525,9.011264283840994,0.6624220242778465,0.7116064403731595,0.3114650069311753,314.8376594638642,22.825120358922483,-3.8266302311640628,-0.9046352604296954,0.17091466164493652,-0.10528651324896032,-0.3759045660160728
22.0,0.029242722265932337,-0.07145713911056162,-0.03203029110936271,3.7201080326701885,0.6257897231276459,9.044234479787196,0.40591784215653215,0.6227202053126522,0.11948667153722228,314.48297471525984,22.29556147203177,-3.9556140178337262,-0.9042555826351393,0.16596714635354615,-0.1051084947039826,-0.3790487300319396
23.0,0.007452746244052304,-0.070105138436177,-0.024718734779513696,3.691970298977183,0.6501295099471731,9.053513403394406,0.11749823208197518,-0.5917726246674909,-0.5925598750515154,314.55134250543256,22.126291165561426,-4.105782613989734,-0.9046948418629781,0.16421873648210072,-0.10561569459403919,-0.37859945974228204
24.0,0.005191262972537563,-0.06735341500880447,-0.02949046495073246,3.72933910306845,0.695437788018433,9.034828593908063,0.25776010640290736,0.25950929152148655,-0.4257240268255217,315.1566305121577,22.354368045408563,-4.399048368363868,-0.906232296647559,0.16572268302124316,-0.10771790865048145,-0.3736276112730883
25.0,0.004314937619422279,-0.07409651193286126,-0.02334232512832041,3.775532576523922,0.6853868345135065,9.016074332171895,-0.10747302461503876,-0.08131720430107531,0.39379847139485225,315.266566913941,22.64602534562212,-4.342784084522873,-0.9061607148061143,0.1683308149211345,-0.10803441475553557,-0.3725737112303773
26.0,0.005898617511520739,-0.07576973511670601,-0.018307669251807726,3.7941156194972088,0.636351953842119,9.012687048068637,-0.15287105204001347,-0.32569499082087594,0.2853876306620209,314.99348211944096,22.7613978026301,-4.034196920310217,-0.9051651423086432,0.16994280398692446,-0.10645197732662695,-0.37473102785751755
27.0,0.012654452811809224,-0.06670113521411711,-0.017199430519650817,3.8885133565621377,0.6396972762354352,8.97163688134577,0.36316782810685244,-0.5547656513431494,-0.28261398973436735,315.00465044396987,23.362840002247946,-4.074859034880671,-0.9042291531980817,0.17462271385223482,-0.10859197310029597,-0.37420700718032307
28.0,0.003475328762504216,-0.05914577947622794,-0.016922558165673826,3.9309003034730816,0.6703128395339255,8.951048668090365,0.3824697463564497,0.2401886403656663,0.35509394552470874,314.9451477089656,23.632338616012888,-4.281698418942715,-0.903536758237983,0.17607423511595666,-0.11106276563823012,-0.37449192056948033
29.0,0.0035669326739350346,-0.055084298078003816,-0.015593458469146903,4.031225132066989,0.6438228241729422,8.907046757333934,-0.058125866396912806,-0.7563317223033981,0.18150547000861716,314.62075933835376,24.27773992169645,-4.131161955340751,-0.9014381699608485,0.18133069784515374,-0.11246133664287589,-0.3765966081800981
30.0,0.006375931962084594,-0.053053838372485104,-0.015698924731182794,4.029932936195722,0.620763178599528,8.91000936645311,0.1126292570529392,0.25709742984526623,0.2291479337604436,314.3221778876775,24.266084541605785,-3.9827025027162715,-0.9005210734221275,0.18143147783522529,-0.11176261042898356,-0.37896104707429473
31.0,0.011110861339028135,-0.037746431381364506,-0.02058746393915552,3.8799153272638716,0.6011093627065303,8.97574425836424,0.15252332246824774,2.6496688958825074,0.8188668465025664,313.8946156944288,23.30473286875726,-3.829544603049717,-0.9006722815615751,0.17385361724176687,-0.10818764161889775,-0.382998681491514
32.0,-0.008736465475253835,-0.0529330111273463,-0.009774455809074222,3.795890000374658,0.5744295830055075,9.012459068599902,-0.31049089580757555,-0.7418453317597691,-0.009183807275860822,313.49862078977935,22.78464416844629,-3.646995944325803,-0.9001923270829119,0.16997603954535237,-0.10571205945618373,-0.3864770598291559
33.0,-0.015350118017309209,-0.05546026750590086,-0.00839496459480724,3.8204799370574345,0.5211487018095986,9.006907946498817,-0.17323957513768687,-0.9054878048780487,-0.5529110936270653,313.6076907946499,22.938532651455546,-3.3114181746656177,-0.9004282264594807,0.1723546370574351,-0.10356014093627064,-0.3855726243115657
34.0,0.008241354763778044,-0.027022966543029485,-0.026323105166535535,4.030696864111499,0.5368873403019743,8.905555430669512,-0.32172595631486267,-4.1831914315686936,-0.8501882657075417,314.23919813794913,24.310385523210073,-3.4559917200554495,-0.9000171495294296,0.1834326379161515,-0.10783672929676669,-0.37955354829155896
35.0,-0.014335169158143193,-0.040446217826233574,-0.012168521224382747,4.2204589562024655,0.5281364504889287,8.819453748454535,0.44169148776741224,1.1137977220786035,0.7074692780337941,314.1177737814245,25.50966149638455,-3.43475562923832,-0.8976106564429958,0.1928073232411674,-0.11172502821887528,-0.37966906034056425
36.0,0.0024116743471582205,-0.03826683151624144,-0.018828069386684656,4.111472781087258,0.5155767861826082,8.874050803641675,0.3876587613802405,1.707246824772395,0.860816848375857,313.5368991420329,24.796647278108725,-3.32855644224645,-0.8970035955977671,0.18693441058896257,-0.109673345000562,-0.3847757323326215
37.0,0.0016425012176389034,-0.04510509160391144,-0.017604435952193628,3.955138436176989,0.5190551122101081,8.94522760481061,-0.26422530066314487,-0.6951079015398448,-0.5324898842306396,313.0738685324641,23.79527977595444,-3.3240441534599676,-0.89714496384137,0.1786355707586827,-0.10713467690232661,-0.38911377917575213
38.0,0.0061996927803379415,-0.06045891873665283,-0.011651942602375334,3.997040500543254,0.516896556891836,8.929657862200738,0.37793357311453296,0.5517379453748454,0.539941131842194,312.96833670525643,24.055448699936306,-3.318104885541943,-0.8964263736169872,0.18057752719208722,-0.10814028792087221,-0.38977509026844254
39.0,0.004794162826420891,-0.06906432879997002,-0.012998014311940352,4.059985688059646,0.474016634820726,8.904729084710198,0.5247770784159455,-0.4309090611067401,0.5056416488704057,312.7526495354239,24.461494511258472,-3.0491638098984675,-0.8951000563668654,0.18442456475272562,-0.10785659729530553,-0.39118992096141014
40.0,0.004775729646697389,-0.0958578172417669,-0.016070435727398746,4.053894533737964,0.5043324341538344,8.906767000112396,0.4531047450451463,0.2797307613053089,0.18421003334457312,312.28683264021583,24.42057060432355,-3.241080560863212,-0.893540825125061,0.1830237257995579,-0.10994062266992619,-0.3948737380498295
41.0,0.00040322580645160916,-0.08967545239968527,-0.015366247049567267,4.023946498819828,0.5397553107789141,8.918348937844215,0.32044158143194335,0.14097905192761603,0.47234215184893785,312.0309451219512,24.229160110149486,-3.4643046813532647,-0.8929507134649883,0.18055169722619985,-0.11137453482651455,-0.3969716098851297
42.0,0.0025241935483870928,-0.08270161290322581,-0.008846774193548384,4.035903225806452,0.5379516129032257,8.913088709677417,0.14344758064516128,0.13382056451612903,0.36345766129032264,311.6335685483871,24.301209677419354,-3.4583669354838706,-0.8914357828064516,0.18075906078225804,-0.11221574326612903,-0.4000574908387097
43.0,-0.0007016129032258094,-0.07755645161290323,-0.008846774193548384,4.07741935483871,0.532048387096774,8.894532258064515,0.047731854838709675,-0.09858870967741937,0.2280241935483871,311.34516129032255,24.571925403225805,-3.423487903225806,-0.8899874288790324,0.18273157886290323,-0.11333947928225804,-0.40207145383064513
44.0,0.00809677419354839,-0.08156451612903226,-0.0021129032258064492,4.028540322580644,0.5427499999999998,8.916338709677417,0.29586693548387094,0.4490423387096774,0.13704637096774194,311.1192036290322,24.25866935483871,-3.484223790322581,-0.8897145919596774,0.17980799491935479,-0.11307092490322579,-0.40405878837096765
45.0,0.19728225806451627,0.14051612903225807,-0.08101612903225808,2.879774193548387,0.5191451612903224,9.22798387096774,2.2373487903225806,9.402671370967742,22.569556451612904,298.6751008064516,17.226108870967742,-3.2383568548387096,-0.8362037412580645,0.11998103949999997,-0.08931924194354839,-0.4963397613548387
46.0,0.1648870967741936,0.08861290322580645,-0.06426612903225808,2.071983870967742,0.5810403225806451,9.46866935483871,0.8373487903225806,3.836391129032258,14.089314516129031,280.1421875,12.310836693548389,-3.505897177419355,-0.7453115649838709,0.06818207792741934,-0.08091849091129032,-0.6264516033629031
47.0,0.1503709677419355,0.09377419354838709,-0.05028225806451613,1.8003790322580644,0.33568548387096775,9.57873387096774,-1.9069556451612903,2.1839213709677416,7.986794354838709,269.7149697580645,10.626814516129032,-1.9989415322580644,-0.6921347839354839,0.056789570879032254,-0.07274568618548388,-0.6979716642661289
48.0,0.10608064516129032,0.07037903225806451,-0.04732258064516129,1.8384435483870964,0.0474919354838709,9.596766129032257,-1.0983870967741935,-3.6956653225806453,2.199243951612903,264.9927419354839,10.853326612903226,-0.2827620967741936,-0.668104652,0.06387142067741935,-0.06986526993548386,-0.7302107786935483
49.0,0.0883870967741936,-0.030016129032258067,-0.04011290322580646,2.020766129032258,0.15074999999999994,9.559927419354837,1.5097278225806448,4.061592741935484,1.8882056451612903,263.6359375,11.90609879032258,-0.9007056451612904,-0.6618594267580645,0.06386851644354839,-0.08227863972580644,-0.7397093744274192
50.0,0.1856186635944701,0.1262380952380953,-0.10639631336405533,1.810537634408602,0.3155963901689709,9.586173579109062,-0.9665490591397852,-5.647539842549923,-23.220619719662057,273.60468990015363,10.694662058371735,-1.874983198924731,-0.7169565135249616,0.05808273287135177,-0.07433250226996926,-0.6738104517453918
51.0,0.1209532145667079,0.0010289610730208829,-0.0773734123861976,2.6652808156307373,0.603545342999513,9.346995129444378,0.257127343954891,-2.835331314862688,-12.64011722116069,291.832910203814,15.854592781742909,-3.7303386441122472,-0.8048543370530983,0.10178333345013299,-0.09755975345687684,-0.5447070660297573
52.0,0.08775895912131344,-0.072891558473242,-0.05816316905881524,2.959650254026922,0.7916141006070334,9.272487249643419,0.21702426368787311,-0.7268073959909839,-6.657921982673368,301.42086714241714,17.60801364049636,-4.8985046090028606,-0.8517095659471232,0.11667117121662689,-0.10740892984377975,-0.4770442040995561
53.0,0.058651411110617384,-0.0942952088196265,-0.03883246965922666,3.1475015628907226,0.850223553057254,9.224637900982213,0.017847792740868104,-0.4402489477987964,-3.2241825196608382,306.267383069635,18.73638904880837,-5.27167374922999,-0.8750167283191557,0.12687934555520564,-0.11137990987271598,-0.4426682463460998
54.0,0.040470866845631275,-0.08842179795820035,-0.03296865418445204,3.2667386846711675,0.849510970077014,9.192693950491108,-0.16133820040375946,-0.5568684255123014,-1.6133765420884836,308.57482056707556,19.464918314726766,-5.280494132679511,-0.8859728625950616,0.1339643930316351,-0.11268593726700313,-0.4262390853222434
55.0,0.02969165462097232,-0.09447741203593579,-0.02415944229959929,3.3602295573893466,0.8212562530876621,9.168967558962915,-0.07488953030940662,-0.12408033410791722,0.02245439408632645,309.299804676779,20.032953589007008,-5.109534700748357,-0.8891245556185753,0.13930963506343658,-0.11331830227098234,-0.4209337211219512
56.0,0.023062979159424003,-0.10312147549082393,-0.026397581102592722,3.4969503412438465,0.779730408211809,9.118453881763124,-0.3845041672003367,-2.3616418586353904,-0.6593422364737526,309.5104501353997,20.905909327941743,-4.877687295299435,-0.8886920407542132,0.1471756704782171,-0.11428056972636451,-0.41873250000629425
57.0,0.021064122738001574,-0.09163650668764753,-0.02392722265932337,3.820691974822974,0.7409567269866248,8.986250196695519,-0.42177665224232885,-1.7042830448465773,-0.08939073564122735,310.1182361329662,22.954553501180172,-4.701821892210857,-0.8877554192368213,0.16447517678599527,-0.11911916903422501,-0.41260995926121163
58.0,0.018978166797797007,-0.07248229740361921,-0.02510680566483084,3.9373758851298186,0.6688339889850511,8.943612903225809,-0.04504941974822971,0.40513621164437463,0.6083829169944925,309.9219967053501,23.683511998426432,-4.272011457513768,-0.8860785449409911,0.17146690472265932,-0.1187221478412667,-0.41363984503973245
59.0,0.010490755310778914,-0.06610582218725414,-0.022058811959087335,3.826083398898505,0.6236496852871753,8.997616247049567,0.17039117820613692,0.7572666699449253,0.48284692171518484,309.2639690696302,22.964846823367427,-3.9581493410700235,-0.8849389304978362,0.16627673026494882,-0.11489480491915813,-0.4193153647834382
60.0,0.02041561762391817,-0.059194335169158147,-0.02530546813532652,3.810116443745083,0.6006866640440597,9.00491758457907,0.003233182533438239,-1.1657860444531865,-0.07786191974822976,309.1161450137687,22.87721405389457,-3.812351249016522,-0.8845809875033439,0.1659208631809599,-0.11368168011723054,-0.420527191518686
61.0,0.0007049286276272892,-0.050279195234348664,-0.018448240980105654,3.845190326327227,0.6078719418530589,8.991011211644375,0.5370932617736315,0.4352437385260949,0.5681974963470833,308.7582225164849,23.09099878001948,-3.8630556648308416,-0.8829494683567026,0.1670603220071466,-0.11540164755554308,-0.42313292653795276
62.0,0.008013562624105502,-0.052572777340676634,-0.019683413884830095,3.830540631673598,0.6166625454272976,8.997924768648609,0.2687914465550185,0.11655380090667261,0.5871829455621744,308.26128891761266,22.997756734479786,-3.9162100520774787,-0.8812693123052713,0.1656196016927054,-0.11620905993368554,-0.42703022407965224
63.0,0.0013356562137049927,-0.05183320220298979,-0.01546326477089656,3.855490614813982,0.5949009029260799,8.988958450414,0.11514414971338652,-0.08386019632085726,0.46196283391405346,307.78030515904237,23.154759563148627,-3.784398299052115,-0.8792576359952793,0.16683199239631333,-0.11651236460492304,-0.4306442231531228
64.0,0.006792926454610168,-0.05376868607395753,-0.016232812558540335,3.8850702483983373,0.5819351092128433,8.976843505301417,0.09019894346408902,-0.05439567644524373,0.30798771121351765,307.50074463302235,23.342451575437416,-3.7020437600689373,-0.8779028979464986,0.16826869345622109,-0.11706732548499496,-0.43272122249709644
65.0,0.010263497058933724,-0.07853894571203776,-0.016821363006256793,3.8993462965044388,0.585803903937657,8.97137611929115,0.18318955827807126,0.08726911693080062,0.14452296654302949,307.3531850623806,23.430736015885504,-3.7428885204750664,-0.8772054124051927,0.1686735120538383,-0.11784144272282793,-0.43378112089213583
66.0,0.0236731107864074,-0.08904664493649544,-0.02420224045558428,3.8728015435914727,0.5874334419841896,8.982863512045261,0.11451683151624144,0.24931250234161328,0.10196601850811134,307.26036140459325,23.26159379566146,-3.7442068487505153,-0.8771352631201903,0.16727392520932147,-0.11736889504065039,-0.4345938809295643
67.0,0.01532887490165224,-0.08801180173092055,-0.01885995279307632,3.8651549960660905,0.5751990558615265,8.986907946498823,0.0195712037765539,0.08717545239968529,0.10177025963808026,307.1696056254917,23.21363099921322,-3.661005114083399,-0.8769192173949645,0.16708533894413846,-0.11669480101494885,-0.43528693164988186
68.0,0.017532399281809195,-0.09492502370433133,-0.013079031249369565,3.8546288809538227,0.5664449756904517,8.848766466945067,0.0821884645645464,0.08899223809235612,0.1343142891726684,307.082890074946,23.14597303758397,-3.603561954043858,-0.8767217679248218,0.16669735927940846,-0.11609994214882285,-0.43599029649884996
69.0,0.01231537351974016,-0.09752938832738203,-0.014651238677399182,3.847507202081948,0.5630690653432588,8.924906443543343,0.13021205289596322,0.0830582748290262,0.1347368062700478,307.0371669100143,23.09898966592023,-3.5820720863846356,-0.8766205053935674,0.16636704323687185,-0.1158500636519095,-0.43638028135721413
70.0,0.009024622243741048,-0.09486550061530391,-0.013878038693538302,3.843019730073233,0.5610587262200164,8.962977415320058,0.12538828451249773,0.026559379349996977,0.12845711281244326,307.0143747856523,23.07540209102463,-3.5687578173858663,-0.8765671628701707,0.16616691865875846,-0.11576248862434182,-0.436595070319736
71.0,0.003812861869313482,-0.09424234904880066,-0.010697477253928868,3.8424280397022343,0.5650777502067825,8.981458023159636,0.15098092431761787,0.026895936724565757,0.11111584987593053,307.00384356906534,23.07403070719603,-3.594031741108354,-0.8765284840361869,0.16614378363937132,-0.11585744062531017,-0.4366759971724563
72.0,0.0031742318787952146,-0.09432573786035625,-0.010288254755996692,3.841829086727593,0.5676195202646817,8.9903666000928,0.1679416570840646,-0.01201733946619863,0.10244829177510137,307.00025847808104,23.071423545966226,-3.6100703060380477,-0.876517373242621,0.16609504013125137,-0.1159152527320099,-0.4367028389219874
73.0,0.0007649488591660109,-0.09599744295830054,-0.01070161290322581,3.84598898505114,0.5690000000000002,8.994554681353268,0.15188335955940205,0.017673092053501184,0.10811000196695515,307.0,23.098832120377654,-3.6187499999999995,-0.876463680823957,0.1661992124783635,-0.11609742298387096,-0.43670091873642786
74.0,-0.00025059008654602666,-0.09814791502753736,-0.007669354838709678,3.846179976396538,0.5696612903225808,8.995083792289536,0.17311909913453974,0.03182041699449253,0.14379794453186467,307.0,23.09593823760818,-3.622883064516129,-0.8764553764563333,0.16616995561821402,-0.11617886404032257,-0.4367148789730526
75.0,0.001326317859952792,-0.09042073170731706,-0.01071774193548387,3.8887553107789152,0.5770887096774194,8.976509638080255,0.025672452793076325,-0.6433639850511408,-0.22353953579858377,307.1556451612903,23.36868484461054,-3.679788306451613,-0.8765875701959085,0.16823657611959086,-0.11737797360483869,-0.43530682841797796
76.0,0.00544138473642801,-0.08705310778914241,-0.014129032258064517,3.9435712037765542,0.5590967741935486,8.953549173878837,0.059232395751376864,0.1389530881195909,0.3472020062942565,307.20685483870966,23.714609559402046,-3.57258064516129,-0.8762655520334381,0.17133868354366638,-0.11778022277419353,-0.4346284975920536
77.0,0.0007419354838709678,-0.07207258064516128,-0.012838709677419357,3.897693548387098,0.5373225806451611,8.97408064516129,0.22353830645161288,0.29369959677419355,0.3115927419354839,306.8929435483871,23.423084677419354,-3.423790322580645,-0.8755894318467743,0.1693039443225806,-0.11604801277419352,-0.4372474430887097
78.0,-0.0010322580645161289,-0.06297580645161291,-0.009467741935483871,3.8676532258064524,0.5272096774193546,8.987201612903226,0.19264112903225805,0.09122983870967741,0.26118951612903224,306.69727822580643,23.224848790322582,-3.3566532258064514,-0.8751836949838709,0.1678756234032258,-0.11514823645967742,-0.43885074677419356
79.0,-0.0010161290322580647,-0.06574193548387097,-0.010846774193548387,3.8645645161290334,0.5230564516129032,8.989927419354842,0.12384072580645161,0.02147177419354839,0.15110887096774192,306.6171875,23.209324596774195,-3.331149193548387,-0.8748999299677418,0.16772643124999997,-0.11499077556451613,-0.43952587467741944
80.0,0.003056451612903225,-0.07050000000000001,-0.012169354838709678,3.895758064516129,0.5451451612903224,8.97523387096774,0.1621471774193548,-0.34526209677419356,-0.2475302419354839,306.8303427419355,23.409929435483868,-3.4747479838709676,-0.8753562667580647,0.16897213909677417,-0.116495784,-0.43772848787903224
81.0,0.013120967741935483,-0.07325000000000001,-0.01793548387096774,3.9131451612903225,0.531056451612903,8.96883064516129,0.1279233870967742,0.025856854838709642,0.36990927419354835,306.77001008064514,23.522227822580646,-3.3862399193548387,-0.874971253782258,0.17006978741935486,-0.11635102327419355,-0.4381135014919355
82.0,0.007266129032258064,-0.0688467741935484,-0.015362903225806452,4.00141935483871,0.5419596774193549,8.928241935483873,0.14490927419354838,-0.6892137096774194,-0.16617943548387093,306.77867943548387,24.091280241935483,-3.474798387096774,-0.874063996653226,0.17415810893548386,-0.1190726493870968,-0.4375575407903225
83.0,0.00355153422501967,-0.07444492525570418,-0.014630212431156572,4.044487018095987,0.530496459480724,8.90948682140047,0.024225511408339888,-0.2107137588512982,0.10395972659323369,306.76258728363496,24.36262785208497,-3.4056525373721476,-0.8735781702976004,0.17645951860129822,-0.11959943609480725,-0.43748532337431156
84.0,-0.00767046944662995,-0.06928121838822074,-0.011422633097298716,4.020798808587164,0.5100020699861376,8.921434846952152,0.1824300560113896,0.389229574107377,0.3162259750477689,306.4868367965794,24.210497393784422,-3.26609191768761,-0.8727942562054436,0.17550563324554158,-0.11846373142758795,-0.43973024356638
85.0,-0.00781910569105691,-0.0534228672586265,-0.014654864935746133,3.982028436551646,0.4931986156382301,8.940967423476074,0.17201139897343676,0.19428716608594657,0.38059282623356183,306.2095222289349,23.961523898505114,-3.1528544265857406,-0.872171432901109,0.1736816291026095,-0.11713810927427784,-0.4420459875694802
86.0,-0.00737326252294781,-0.053610627177700355,-0.009400013113034357,3.937006153759694,0.48702269491588934,8.96168532464127,0.039332312389944175,0.25823229272039266,0.014741977632909964,306.0156230096287,23.671941384736428,-3.1078284229702895,-0.8718976766521673,0.17145724840211118,-0.11601682034278404,-0.4437583193734498
87.0,0.00032153160241279836,-0.05258255591772508,-0.01053684762654078,3.906248061144205,0.49708264958225623,8.973411112359976,0.22858875650968488,0.17680374470795399,0.09531232437900415,305.9967842624855,23.474400078678205,-3.17085276872354,-0.872114618988161,0.16969876712326254,-0.11578938249072718,-0.4440710607710089
88.0,0.004219999250683752,-0.07195592147165712,-0.02126932299276909,3.9508545389831777,0.451659979019145,8.95511026188603,0.018178178037540738,-0.15920031564946985,0.40038507830354797,305.88124473137015,23.759273256903075,-2.885700821437938,-0.8712095506547713,0.17282641611960958,-0.11494012692742869,-0.44477121332507197
89.0,-0.0021261661234123876,-0.0727066333220936,-0.02044517814993818,3.9245589992881493,0.4598703027237645,8.966892360720841,0.11703336330598328,-0.08873888904499644,0.06838722556292383,305.5601775294107,23.590383579671048,-2.9344200175152673,-0.8702465527052472,0.1710248680840639,-0.11516228527022215,-0.4473217518433085
90.0,-0.001319770709227829,-0.07475270690494923,-0.012328116218950209,3.910331132216852,0.4683107414484283,8.972501845191262,0.24000271627140232,0.6137583829755348,0.2887772329624218,305.31877692855267,23.500902106515305,-2.986733882675808,-0.8694328411090163,0.169932797501611,-0.11554978429974525,-0.44922263287434905
91.0,-0.015014724064291336,-0.08243280506537784,-0.004280993593346071,3.900113146753587,0.4843166610467949,8.976609793563373,0.09560619684537859,-0.3193304859315874,-0.05142791577685357,305.2569691094376,23.43527968228991,-3.0873941590798397,-0.8692845429456373,0.16901126724274096,-0.1161190377869694,-0.4497383580137874
92.0,-0.0059967404743171875,-0.0841865048143569,-0.004469371698325278,3.9552335993406005,0.49592308268704793,8.951833614326926,0.03804208347383012,-0.3500910887565097,0.025377702221722698,305.2295368757259,23.78842563972875,-3.165648299052115,-0.8686043934830467,0.17137748523033985,-0.11808406541197407,-0.449652415135926
93.0,-0.013825334382376082,-0.08531549960660897,-0.0023571990558615263,3.969464988198269,0.5016829268292683,8.945486231313927,0.23450039339103065,-0.1973347757671125,0.08487903225806454,305.05629425649096,23.878279897718336,-3.20691384736428,-0.867776625765539,0.1717175091612903,-0.11897512925491736,-0.45089304350432735
94.0,-0.010925255704169946,-0.09082454760031472,-0.0008678206136900088,3.977639653815893,0.5063804091266719,8.941637686860737,0.060208497246262774,-0.02962726199842644,0.0006663060582218841,304.9805222265932,23.931640932336744,-3.2381933516915815,-0.8673815295035405,0.1719347961070023,-0.11952474063060582,-0.4514308443603462
95.0,-0.0007930763178599452,-0.10348465774980334,-0.010933516915814318,3.9622738001573565,0.503563926042486,8.948647324940989,0.04008654602675059,-0.12034077498033045,0.08815770062942564,304.8241271636507,23.835116296223447,-3.2160183910306843,-0.8669271883080252,0.1710948737222659,-0.11923916094079465,-0.4526971486671912
96.0,-0.011428796223446102,-0.10359716758457908,-0.016619984264358772,3.9567175452399685,0.4961085759244689,8.95115027537372,0.27326907946498824,0.26649291896144767,0.3842250196695515,304.57148898505113,23.797875688434306,-3.1687450826121166,-0.8659913452588512,0.17074129232887486,-0.11910195805507477,-0.4546350224626279
97.0,0.011137686860739576,-0.1043650668764752,0.004413847364280096,3.966514555468135,0.479093627065303,8.947433516915819,0.12221675845790718,0.8512686860739574,0.7960857592446892,304.30869394177813,23.85916601101495,-3.064309598741149,-0.8648545064091266,0.17131385050511405,-0.11895444558772619,-0.45659969205350115
98.0,0.008354838709677417,-0.10691502753737214,0.002484657749803305,3.930480723839496,0.48405664830841866,8.963216365066877,-0.0027881589299763795,-0.44520554681353264,0.08333988985051133,304.0864181746656,23.628437254130603,-3.0921764358772617,-0.8643377584815106,0.1692654176254917,-0.11859132281431942,-0.4584218576616837
99.0,0.01708143194335169,-0.11759284028324155,-0.011144767899291896,3.94176986624705,0.46954838709677427,8.959107789142408,0.27689073564122735,-0.5739599724626279,0.03664437450826118,303.77198072383953,23.702638178599525,-3.007206431943352,-0.8629877674594809,0.16979848602989767,-0.11872802747797011,-0.46074459107867816
100.0,0.013556451612903225,-0.10158870967741937,-0.02188709677419355,3.9144758064516125,0.46451612903225814,8.971483870967742,0.19521169354838708,0.014062500000000033,0.27741935483870966,303.30887096774194,23.529889112903223,-2.9666834677419356,-0.8613933933064517,0.16815279029032257,-0.11845294516935484,-0.46437697872580647
101.0,0.004040322580645163,-0.09093548387096775,0.0026935483870967752,3.911604838709677,0.44953225806451624,8.973830645161293,0.1969758064516129,-0.007409274193548352,0.2984375,302.9375504032258,23.50851814516129,-2.8724798387096775,-0.8599368679677419,0.16799769208870968,-0.11825108673387094,-0.46718292237903225
102.0,0.007556451612903227,-0.08765322580645163,-0.0007258064516129043,3.928943548387097,0.45225806451612915,8.966282258064517,0.07152217741935483,-0.13482862903225806,-0.19390120967741936,302.75292338709676,23.62157258064516,-2.8915826612903226,-0.8590056393064516,0.16857678801612902,-0.11909051704838708,-0.4684881889677419
103.0,8.870967741936645e-05,-0.08723387096774193,-0.010951612903225808,3.975161290322581,0.46778225806451623,8.944790322580644,0.20529233870967742,-0.5579133064516129,-0.13639112903225808,302.87167338709673,23.918598790322584,-2.9970262096774194,-0.8590059341129033,0.17054108647580646,-0.12084719791129028,-0.4673239926532258
104.0,-0.007850998463901684,-0.0843294930875576,-0.010127112135176655,4.082331797235023,0.477706989247312,8.895341013824886,0.07633688556067589,-0.7695804531490016,0.10712125576036866,302.824803187404,24.607195660522272,-3.076401689708141,-0.8576758935456992,0.1753738289393241,-0.12420934435906295,-0.4670752160072964
105.0,0.020209040500543264,-0.07450680004495897,-0.006431671724551352,4.150965662582894,0.4267957644899031,8.8651122850399,0.24251602834288713,-0.5506844535611255,0.31366278661346514,302.4560569339852,25.05571476574501,-2.7528706422576894,-0.8554741116525701,0.1795830996213143,-0.12428485975358733,-0.4694568397606308
106.0,0.014607273987486423,-0.07899966280768798,-0.01785617811247237,4.205463161739912,0.44126324416469986,8.838663341575813,0.23671029092203366,-0.004537987992207171,0.41823297178824315,302.16764417312953,25.403031335468885,-2.858594423213817,-0.8536983911015603,0.18146858283131018,-0.12685937132368588,-0.4713008217082068
107.0,0.010186317485294673,-0.06676173616574875,-0.02792328874901652,4.098912648458282,0.4191260537259751,8.8890373159492,0.09847467311078642,1.6002115647596566,0.604808210164475,301.6983166142145,24.713379627027837,-2.699525706230564,-0.8528945258727849,0.17639247448861972,-0.12364710803127457,-0.47544248234469483
108.0,0.007471994305196509,-0.08396013637555727,-0.021184107002360338,3.953753137761792,0.4190423738338767,8.95391086883219,0.28003001948222245,-0.11919865310404254,0.10724588812708405,301.15452071859426,23.784771786369937,-2.68208853171481,-0.8520998283059833,0.16894906954928623,-0.12056800666797797,-0.4803009220664268
109.0,0.011970252144917764,-0.08309527556105054,-0.003466861488891383,3.986583942152786,0.43367172455134706,8.940160503540522,0.12605091603911428,-0.6640876138024054,-0.11717198681203402,301.03208946836014,23.992409894721067,-2.7789666928927352,-0.8512669168357874,0.1700045990572852,-0.12230272093844369,-0.48103300888958817
110.0,0.007419429770334568,-0.08578367239893597,-0.004126034993068822,4.069271514742797,0.4487949496084823,8.90247521636507,0.3235191637630662,-0.1319897156344836,0.034642763478326025,301.1142253006632,24.520600108650857,-2.8863362182008916,-0.8507828342463752,0.17362055860732079,-0.125104424645461,-0.4799014922811434
111.0,-0.0028481135963433378,-0.08925690307594321,-0.022641302311640618,4.099981941478401,0.448056011389607,8.888472069236824,0.13444349218837812,-0.10356370124761156,0.2521020662395564,300.8812668596156,24.716289432767603,-2.8816761736165746,-0.8494961451877037,0.1748339472383575,-0.12625649221651494,-0.48144834740729076
112.0,-0.012358772619984264,-0.08308851298190402,-0.017306058221872533,4.110265932336742,0.4391439811172305,8.88442958300551,0.258998819826908,0.3417953383162864,0.4817441974822974,300.5894669551534,24.786130507474432,-2.831933516915814,-0.8481566205869393,0.17520030882808812,-0.12657239249842644,-0.4835697611498819
113.0,0.010394964594807234,-0.0822421321793863,-0.017836349331235242,4.1434051927616045,0.4607820613690008,8.867894571203777,-0.029489575137686852,-0.5482555566483083,-0.049755359952793066,300.58044354838705,25.001970643194333,-2.9735739575137687,-0.8477310034752163,0.17624795143135327,-0.12849193586605034,-0.4834661579596774
114.0,-8.477576711251114e-05,-0.08689122738001574,-0.008361723052714393,4.177113886703383,0.46559264358772623,8.852463414634148,0.06232174468922109,-0.018457415420928353,0.00932090873328088,300.54314516129034,25.214972216758454,-3.014458349724626,-0.8472283563827692,0.17765824300196692,-0.12971473754189614,-0.4835237275806452
115.0,0.0006263909182870637,-0.09634672736128283,-0.011600408377355662,4.181069424150463,0.45024159829155896,8.8517432280544,-0.03401649900715597,-0.4930540725338129,0.09288290060319958,300.29943356374804,25.240143798471394,-2.9185134970589335,-0.8461739991395413,0.17796532198370235,-0.12952202124272227,-0.4853056588325654
116.0,0.0035350680004495928,-0.11440861151699075,-0.019620031096624333,4.180640927653515,0.45343315162414305,8.851764611666855,0.18829269463489565,0.2909680463452099,0.3504097823236296,300.0851268920235,25.238335077835224,-2.9360220907796633,-0.8452684237515173,0.17762621356856242,-0.12998274157336745,-0.4868768194556218
117.0,0.003826673785171036,-0.12208813832377957,-0.017223418006069465,4.093848497620922,0.471713311603162,8.89005492488105,0.25099998595032036,0.5048950254767524,0.48322140421865045,299.4712188799595,24.678750152204863,-3.0399964524558842,-0.8435021766301749,0.17237183995363603,-0.12930329371967145,-0.4919098225331104
118.0,0.008694513131767266,-0.12568529654190552,-0.04268399460492302,3.9968002322880376,0.49573844179686033,8.931606337342178,0.23094600005619872,0.0641902350043086,-0.007966402532688877,299.05048945571536,24.056543521224384,-3.1780768798471395,-0.8426223121038365,0.16669996097445766,-0.12826941314553592,-0.49555957428297925
119.0,0.008682702034393619,-0.15243078191150577,-0.021243302986025253,3.985385523210071,0.5210913791165559,8.936191225506725,0.3880404443445356,0.7597340863961635,0.23474087707466937,298.9300630362294,23.982800850473943,-3.33477576711251,-0.84222188713986,0.16536510869825033,-0.12924028899404288,-0.49648415767374776
120.0,0.010511857929639202,-0.1412276797422352,-0.006774493274886665,4.11836941291072,0.5259051365628862,8.874104829343228,-0.21549398673710235,-1.3898814207036079,-0.4072599378067513,299.2433821325541,24.846901577310703,-3.391946255292046,-0.8421697039800682,0.17192187789981642,-0.1328025737228279,-0.4933678592685175
121.0,0.025548611891648882,-0.13675546064216404,-0.016096137274736803,4.375010827619797,0.5170115769360458,8.747561462665319,0.07295717657637404,-1.409289648196021,0.010827151474279734,299.5919113652542,26.5197873346821,-3.3830502322880367,-0.8408066171584052,0.18481097142040387,-0.13909173762852642,-0.489129962344723
122.0,0.025236671537222297,-0.1337955490614814,-0.02148739275411187,4.529788055898992,0.508568768498745,8.670701622269679,0.04913219811921621,-0.7945353770934023,-0.02876461166685399,299.62574158892505,27.522936102056875,-3.3603567213667525,-0.8392170117074669,0.19241108722633096,-0.1430542670853846,-0.4878778439811172
123.0,-0.010577572964669737,-0.13038479262672809,0.02220122887864824,4.6511513056835625,0.5232112135176653,8.606165130568357,-0.5035810291858678,-2.6503312211981562,-0.9433899769585253,299.82995871735795,28.328600230414747,-3.4816388248847927,-0.8386006538033794,0.19823036927956988,-0.1468558874592934,-0.48550056387096774
124.0,0.015870967741935492,-0.1378306451612903,0.004258064516129042,5.037104838709678,0.5930887096774196,8.372733870967743,0.37832661290322583,-1.5070060483870966,-0.3138608870967742,300.6518649193548,30.94727822580645,-4.064566532258064,-0.8366668211129034,0.21661391722580642,-0.15963316861290322,-0.4764306343225807
125.0,-0.0015735641227379964,-0.12952143981117228,0.012086939417781283,5.148112116443746,0.5921707317073169,8.311220102281666,0.3326219512195122,-0.2689356313926042,0.2606338512981904,300.46499188631003,31.68623869000787,-4.08082095790716,-0.8345005454691189,0.22170924458693939,-0.16312948676376865,-0.47701588129642014
126.0,-0.008976986624704955,-0.1234301730920535,0.0062029897718332075,5.21039063729347,0.598852281667978,8.274886900078677,0.3012981904012588,0.19338980133752956,0.20198908339889848,300.3153041404406,32.10429165027537,-4.1443450039339105,-0.8330669686963021,0.2243327924518096,-0.16554990508772618,-0.47761894713571984
127.0,0.0027993705743509017,-0.13073131392604248,0.0068019276160503584,5.212589693154996,0.6248353658536585,8.273598347757671,0.2673251868607396,0.6105477970102281,0.19616443745082612,300.34055000983477,32.11038675255704,-4.325287667191189,-0.8331428241803698,0.22371101894689222,-0.16674160104720692,-0.4774374146728953
128.0,0.008630484058296806,-0.11763370611816718,0.012481800981604294,5.112857442583643,0.601878320407628,8.337248482634596,0.11166638567307334,0.8981622433591847,0.6373511319358585,299.75104617427223,31.424537414296953,-4.13770623758945,-0.8321237627927579,0.21850310649187932,-0.1638726591848938,-0.48256789301329084
129.0,0.0019294893409763597,-0.10168071634633395,-0.00657150350305346,4.984218275823312,0.5660664643512793,8.416789179873367,0.1902513956015136,0.528546607470683,0.23670431980817505,299.22096399535417,30.54899825783972,-3.85777040950133,-0.8316905061878537,0.21236139737439594,-0.1594679162714024,-0.48749843511820456
130.0,0.012459630587089281,-0.09495522835412686,-0.0041040050953504905,4.957345172530067,0.5422936570379527,8.435082237458317,0.03832986774568207,-0.21411477651642874,0.049164512382451016,299.02964014087144,30.36938012813308,-3.6837534187553853,-0.8313139390656025,0.21141251084298077,-0.15794669331272715,-0.48910226222472
131.0,0.019935558802592634,-0.08573489191113108,-0.010730208684575325,4.936965269191862,0.5325866396912817,8.447643400397137,0.17448063017496532,0.2846371436064591,0.2408489753100296,298.80179882732006,30.228061425199506,-3.6084237196058595,-0.8306438808231237,0.21033547215241089,-0.15731816452025027,-0.4909281833782923
132.0,0.0032761979693529657,-0.08412865759994004,-0.010628676332846278,4.900134876924806,0.5264530366040986,8.469842943314223,0.19970589337229777,0.20617577085909106,0.14247405492488105,298.4461738039039,29.979353293244912,-3.5563165018170917,-0.8296331293006258,0.2082325312445768,-0.15658914904454685,-0.49376818343737583
133.0,0.0025958562811434546,-0.07688306919935559,-0.006145367352291035,4.8670228916114056,0.527845565921097,8.489022854145588,0.25589173316848374,0.23031522797946874,0.14804194297703344,298.19586916001646,29.755272844779135,-3.558981023565996,-0.8289849854790379,0.20623909318219624,-0.156116156812596,-0.49584653658274314
134.0,0.003674272226593232,-0.07212509834775768,-0.006794649881982691,4.8775129819040135,0.5193052714398112,8.483641227380017,0.18118607395751377,-0.15168666404405975,0.23851789929189615,298.03865558615263,29.82625393391031,-3.504327301337529,-0.828178923866247,0.20675221218095985,-0.1563485016129032,-0.49690693936664043
135.0,0.0049708890637293465,-0.06468725413060583,-0.005575137686860741,4.887986231313925,0.5131892210857592,8.47782769472856,0.08901455546813533,-0.4282479346970889,0.14360985444531865,297.7220274390244,29.900174567269865,-3.4662372147915024,-0.8266558611007082,0.20700845669472853,-0.156975353404406,-0.4991295624488592
136.0,-0.0032226593233674284,-0.06608477576711252,-0.002012588512981905,4.928426632572776,0.5270824154209284,8.453280487804877,0.13865066876475218,0.05736501770259636,-0.1726384244689221,297.7408081726987,30.17176312942565,-3.571951219512195,-0.8261979170531077,0.20861358627025967,-0.15878235400354052,-0.49864853395062947
137.0,0.007402242328874899,-0.060762981904012595,-0.013181746656176241,4.988908929976395,0.5074852478363495,8.419344610542879,-0.011408339889850502,-0.43486673878835563,-0.08552689811172305,297.9370451416208,30.584754868214006,-3.452022275767112,-0.8262659182559008,0.21236200919079468,-0.15930311303225808,-0.4967669930145555
138.0,-0.0014964594807238404,-0.045983084185680576,-0.007330055074744296,4.971114870180958,0.4999736428009443,8.430260424862313,0.13658536585365852,0.06919010621557825,0.10618730330448464,297.70834972462626,30.463008949645946,-3.3945748918174665,-0.8255286136654211,0.2113937086762392,-0.15883798133674276,-0.49856202314811177
139.0,0.010404996066089689,-0.04795928402832417,-0.015406963021243114,4.949694531864672,0.4991561762391817,8.442896341463412,0.09551042486231313,0.22834505310778913,0.11093135326514554,297.54353978166796,30.315476249016523,-3.3802763571990555,-0.8251003734012589,0.21013497191070024,-0.15844012382159717,-0.49993992029583
140.0,0.0056097560975609745,-0.048330448465774986,-0.012151062155782846,4.933238394964595,0.5030700236034618,8.451911880409126,0.18737214791502754,-0.0840381589299764,0.14508261211644374,297.25238985051135,30.204789535798582,-3.4049567269866245,-0.8240433287490164,0.20883660378599528,-0.15867671121321794,-0.5021399567930762
141.0,0.009390243902439024,-0.04749331235247837,-0.014525570416994493,4.959966955153423,0.511456333595594,8.435928402832413,0.17949449252557043,-0.2342151848937844,-0.17573760818253342,297.19297305271436,30.382562942564906,-3.466984657749803,-0.8234051490283242,0.2098043589071597,-0.15996834204248622,-0.5023725582745868
142.0,-0.0018745082612116456,-0.05153973249409914,-0.006877261998426435,5.051911093627066,0.48765184893784397,8.381894177812747,0.17240853658536587,-0.25376180173092056,0.5249852478363494,297.03256048387095,31.011354248623128,-3.3334628245476,-0.8214608231923681,0.21470408918607392,-0.16199801363335953,-0.5027787630830054
143.0,-0.02684047993705744,-0.05311762391817466,0.011939811172305274,5.0970885129819035,0.46567014162077086,8.355928206136902,-0.45629671518489384,-1.520655487804878,-0.4785429779701022,296.6824830350118,31.320724331235247,-3.1966586349331236,-0.8193477454081434,0.21705566463158926,-0.16305401810857592,-0.5048848856610936
144.0,0.021743546513806136,-0.029676707504402225,-0.038758973062080836,5.1098138417444074,0.40985984039563894,8.34277113071822,0.6649536009328987,1.9128313382788207,1.0460131692330747,296.6920083665842,31.425072707092276,-2.8174201392791574,-0.8190203342230808,0.21936198505830612,-0.16075942686995615,-0.5047053720127663
145.0,0.0447187441459668,-0.027769510321831326,-0.04152002547675246,4.850435540069685,0.39489569517815,8.495779251433067,0.4138761661234124,1.2816148233486944,0.5430006837510771,295.7236442059121,29.67094877486793,-2.6681053538645987,-0.8181453647145105,0.2059668757100146,-0.1539753156615713,-0.5137434162071108
146.0,0.05312648458281817,-0.03511850436476714,-0.041510265632610246,4.717761511370874,0.40828483383912195,8.573768948334646,0.39540399853883335,1.1219585955940206,0.4515341079390056,295.26333267768155,28.77273671368626,-2.730209152897981,-0.8178369415283242,0.1985567580108651,-0.15137501213954144,-0.5181142402465999
147.0,0.04159864748417069,-0.04633973998726162,-0.040368036042111574,4.635062502341613,0.4135515435914729,8.620791633884082,0.03148445402944816,0.11650644177812741,0.15903318300176086,294.96373754261737,28.21832154331048,-2.7505196039863624,-0.8175656881638472,0.19407498534768275,-0.14966327766379117,-0.5208940510100033
148.0,0.05056741972949684,-0.05351841444681727,-0.05238690944513131,4.628646023004009,0.41322138548574433,8.626527406241802,0.19777593570866586,0.3139555468135326,0.47624714323180095,294.8071564384999,28.170076758083248,-2.748265801206399,-0.8169940966797797,0.19349836882293658,-0.14973637921220634,-0.5220917479101944
149.0,0.048092053501180176,-0.06792664193923044,-0.03888321906260537,4.600958113221686,0.41583908433554384,8.64248619384811,0.08668582106327975,0.076407543741336,0.0594233543141883,294.6035578472144,27.981595856281146,-2.7584138848300928,-0.8164159000758681,0.19182930966857745,-0.1493572529192986,-0.5237866491451425
150.0,0.04324586939417782,-0.0703087182945562,-0.0369388557940879,4.611556161252857,0.42211466411899135,8.636292664193922,0.12534035348994044,-0.10481845472256567,0.14351478494623654,294.42879997002734,28.05152766850249,-2.800218940841482,-0.815491686752332,0.19192457365411564,-0.15025200135579408,-0.524935399060376
151.0,0.036013178599527934,-0.07034421715184894,-0.03480723839496459,4.606068253343825,0.42274291896144756,8.638954563335956,0.25024218135326515,-0.0688397423288749,0.13247074154209282,294.15935041306057,28.014634146341464,-2.80159077498033,-0.814316196489575,0.19130090046695516,-0.15056468297501965,-0.5268911122228559
152.0,0.031607395751376874,-0.07076081825334382,-0.026855232100708105,4.585054287962235,0.4221416207710465,8.650682926829267,0.24797895357985839,0.5747787175452399,0.37175452399685294,293.84041109362704,27.878486428009438,-2.7897570810385526,-0.8130822498859165,0.18992968378992917,-0.15037901304799367,-0.529325279188041
153.0,0.03206018882769473,-0.0707918961447679,-0.022629819040125884,4.5044256490952,0.4194917387883557,8.692971675845786,0.2341488001573564,0.7944605625491739,0.4000049173878836,293.46449154209284,27.34843381195909,-2.762522128245476,-0.8122587359130604,0.18574120550472067,-0.14840638672619985,-0.5325987832698662
154.0,0.024314909520062947,-0.07358949645948074,-0.0196485051140834,4.439337922895358,0.41876868607395756,8.725706923682136,0.2262600806451613,0.8301964496459481,0.40836201809598743,293.1722044649882,26.920046961054286,-2.7472425747442957,-0.8116167790792681,0.18237618611349332,-0.14684673697521636,-0.5351632840881194
155.0,0.007266325727773409,-0.07538749016522422,-0.009126671911880409,4.462547993705743,0.4387553107789143,8.712942171518488,0.09516129032258064,-0.6121951219512196,-0.3260105232100708,293.2067171518489,27.07345594020456,-2.8843823760818252,-0.8115101066888275,0.1829288797623918,-0.1484216457537372,-0.5347102977053502
156.0,-0.01900255704169945,-0.07559697088906372,-0.0025216365066876483,4.515026947285603,0.45210778914240757,8.685507277734068,0.08795239968528717,-0.4563237608182533,-0.2736464889850511,293.2143931943352,27.41593233674272,-2.979981313926042,-0.8109490156457513,0.18496364836664042,-0.1506131282584579,-0.5342617671217544
157.0,-0.003489181746656176,-0.08891542092840282,-0.007785011801730915,4.640283634933124,0.4629974429583006,8.61555605822187,-0.097606461447679,-1.5338574449252558,-0.1995500590086546,293.5199486132966,28.25403471675846,-3.072601544059795,-0.810801351125295,0.19103593046557826,-0.15446022789535796,-0.5310698608713611
158.0,-0.008474429583005507,-0.08564319433516915,-0.012219118804091263,4.7470047206923685,0.45097049567269876,8.55868528717545,0.17823809992132178,0.04524365656963025,0.1383298092053501,293.50047329858376,28.956654455153423,-3.017979199449252,-0.8094861669537765,0.196261412809402,-0.15727562969767897,-0.5304060234679386
159.0,0.010083202202989769,-0.08098977183320219,-0.012884933123524782,4.775728560188829,0.45414850511408356,8.544364280094412,0.026682976003147132,-0.20570294059795435,-0.07725831038552322,293.3733219413847,29.148675993312352,-3.040836447678993,-0.8085995168243509,0.19732382933025178,-0.15851503193292682,-0.5310642647102676
160.0,0.013105428796223447,-0.07638906372934698,-0.015761998426435872,4.761644767899293,0.4539634146341466,8.552348151062157,0.153080743509048,-0.0981559795436664,0.01087234461054288,293.22001622738,29.056068056648307,-3.0390489771833202,-0.8080671570129818,0.19647546902399687,-0.15836183753147126,-0.5322691621353266
161.0,0.0035944138473642815,-0.07373347757671125,-0.016614280094413847,4.765924665617624,0.44885818253343834,8.550572187254133,0.2458214496459481,0.017773898505114086,0.11583153029110935,293.0085132277734,29.082567859952793,-3.0019202399685287,-0.8070476583058616,0.19650258282828476,-0.15862487384047994,-0.5337362128418568
162.0,0.006001573564122738,-0.06796380802517703,-0.012121754523996851,4.7953269079464995,0.4485666797797011,8.534562549173879,0.12643341856805665,-0.20108797206923681,0.0823957513768686,292.94622959284027,29.27729887883556,-3.007144964594807,-0.8063830296953187,0.19780985824901648,-0.15965039235188827,-0.5339617295515342
163.0,0.0036978756884343033,-0.07256490952006292,-0.014602675059008653,4.7730920535011805,0.44922108575924474,8.546719118804088,0.315647128245476,0.33777537372147914,0.3026160503540519,292.657897324941,29.12706530291109,-3.0082120377655386,-0.8053113938709677,0.19635235435090476,-0.15945326546813532,-0.5361647471990559
164.0,-0.00028481510621557746,-0.06330920535011801,-0.009661683713611329,4.753913453973249,0.4572541306058223,8.556568056648308,0.16773210070810385,0.035277340676632574,-0.01850904799370573,292.4444925255704,29.00380605822187,-3.060503540519276,-0.8045417646026751,0.1949332075672699,-0.15958771545712036,-0.5377992786152636
165.0,-0.000906372934697089,-0.05926829268292684,-0.008539732494099134,4.75044846577498,0.4474996066089693,8.558854445318644,0.11499803304484657,0.1676927616050354,0.17197088906372934,292.23638867033833,28.97754720692368,-2.9941778127458694,-0.8036066833658538,0.19475361755782847,-0.15939324784107,-0.5393248504673485
166.0,-0.008726199842643587,-0.05725963808025178,-0.01251455546813533,4.73516129032258,0.4316789929189615,8.568069236821401,0.08684107002360347,-0.13422501966955153,0.08586742722265932,291.9196302124312,28.874788552321007,-2.883895554681353,-0.8023315476585366,0.1940723241699449,-0.15875322416758458,-0.5416508568151062
167.0,-0.00622121688958825,-0.05857474429583005,-0.007719481934273439,4.762053501180173,0.4363556456656379,8.553306340656459,0.1402193154996066,-0.04605978534971454,0.15719174282313542,291.8367335179245,29.058198735600875,-2.9193448148036065,-0.8015921891343984,0.19509260751144866,-0.1599638261827251,-0.5420272669392967
168.0,-0.0037715053763440875,-0.055911290322580645,-0.00422952853598015,4.684483870967742,0.4295082712985939,8.595793217535153,0.3507056451612903,0.7624638130686519,0.7000258478081058,291.1674963813068,28.535624741521918,-2.8627752791563275,-0.799324624022746,0.19071960045202646,-0.1582606200543838,-0.5473380050471464
169.0,-0.0015815630736952543,-0.07025118017309204,-0.002537659625975913,4.514406963021243,0.43284028828501697,8.683551408138149,0.280529602675059,0.46822910362323233,0.10368621265306943,290.64953792314753,27.41707291855797,-2.8532804651092416,-0.7987249046549605,0.18217701036547038,-0.15378270051607856,-0.5522437510355716
170.0,-0.022157140983852224,-0.07133853171481025,0.004877675563356123,4.4280162695290555,0.4509491379981153,8.726333115743422,0.6883110762991271,1.2079468770804334,0.8610476954202367,290.0572730418349,26.849895906283592,-2.9607752171936377,-0.7967551336951839,0.17691306444771213,-0.1527005219473634,-0.5570077261493142
171.0,-0.03586761455172155,-0.07039556404780636,0.0016978857753838083,4.394475778352254,0.45390621730747627,8.744363843473597,0.5885478719418531,1.0253616171397446,1.2274332694253032,289.5002078722156,26.632646123873503,-2.974499651279746,-0.7944300343829971,0.17452654743255003,-0.15260396863339845,-0.5611458103002668
172.0,-0.025751011576936045,-0.09332681428196771,-0.0046498164175190135,4.449657244014837,0.4549324304072535,8.717053716608593,0.23237877468060394,-0.11353920797272488,0.6327044345472256,289.24542548284063,26.992961812970663,-2.990367071297441,-0.7925852607233431,0.17660435461040241,-0.15487235891057846,-0.5625379654354931
173.0,-0.027177925143306726,-0.10940534262485482,-0.006046682402307895,4.4477399123299985,0.4494097635907236,8.718982503465586,-0.15170375782098833,-1.1333825072121688,-0.3638141133715485,288.687909314001,26.979646229065978,-2.9546593421003333,-0.7898848008495747,0.17597861305923346,-0.1554721615319021,-0.566391417334682
174.0,-0.016693604585815442,-0.11477269491588923,-0.012685024914765274,4.344570192199617,0.4558488629125924,8.769735154171816,0.28375669701397477,0.7242755048518227,0.21547689296017378,288.19640351616647,26.301442902101833,-2.975682346109175,-0.7885346547937881,0.17047667302450262,-0.15306100789419655,-0.5705673906964519
175.0,-0.018646341463414633,-0.10551691581431943,-0.011046813532651453,4.31366758457907,0.4543099921321796,8.785728560188826,0.2360075727773407,0.31462431156569626,0.3693695908733281,287.81519964594804,26.098042879622348,-2.9634220102281668,-0.7869955977501967,0.1686138885790716,-0.15257324472974038,-0.5734385056093627
176.0,-0.015895161290322587,-0.10738709677419356,-0.013362903225806452,4.357927419354837,0.4510322580645162,8.76491935483871,0.11436491935483872,-0.3185483870967742,0.11945564516129031,287.96764112903224,26.383064516129032,-2.9424899193548386,-0.7873106923629032,0.17089331812903227,-0.15365954989516128,-0.5720643565080645
177.0,-0.010024193548387102,-0.0942983870967742,-0.008959677419354838,4.37274193548387,0.4443629032258065,8.75799193548387,-0.06759072580645162,-0.4502016129032258,-0.27001008064516124,287.6801411290322,26.484879032258064,-2.9090725806451614,-0.7857357886129033,0.17136791557258063,-0.15432881967741932,-0.5739170200887096
178.0,0.0012419354838709672,-0.09432258064516127,-0.015072580645161288,4.33690322580645,0.4343870967741935,8.776443548387096,0.17913306451612904,0.02066532258064513,-0.012752016129032248,287.4335181451613,26.250504032258064,-2.8341229838709676,-0.7848781951935484,0.16974595566129036,-0.1530742520564516,-0.5759012534919354
179.0,-0.0021209677419354836,-0.08666129032258066,-0.009814516129032256,4.417919354838709,0.43245967741935476,8.73591935483871,-0.00967741935483872,-0.8341229838709678,-0.33951612903225803,287.48397177419355,26.78417338709677,-2.8405745967741933,-0.7842811331612902,0.1734829315645161,-0.15565156000806452,-0.5749165691774192
180.0,0.0022315668202764973,-0.10483179723502303,-0.002185483870967742,4.57806490015361,0.42507910906297997,8.65206835637481,-0.4023257488479262,-1.5355798771121352,-0.4398665514592934,288.0211717549923,27.836712749615973,-2.815795410906298,-0.7851695486390169,0.18169260101612905,-0.15976155547772658,-0.5699475528567588
181.0,0.020147465437788017,-0.08188748079877112,-0.013135560675883255,4.933129032258064,0.3973874807987712,8.446990783410138,-0.03231806835637477,-1.8270569316436251,-0.11959485407066052,288.77624087941626,30.23716397849462,-2.691006624423963,-0.7844778754116744,0.20003704353801843,-0.169142289109063,-0.5616102043175883
182.0,0.016062914465550186,-0.07259903150874827,-0.022352693791914874,5.0613514948859155,0.40902881120977097,8.375568955827806,0.2364207504402233,-0.34521058128208004,-0.15179683694878424,288.73302295249334,31.093754097823236,-2.7963030024165447,-0.7827635678372298,0.20540570153543325,-0.17403363762730886,-0.5608032087328498
183.0,0.012004214903900197,-0.06623450788655352,-0.028339702521449177,5.1535334382376075,0.42739992881495636,8.320399544790378,-0.4279233285564422,-2.208369452718145,-0.8870989987261624,288.88816027640405,31.72314696433255,-2.9389357016410025,-0.7823299153690476,0.2093754144298921,-0.17765979799343412,-0.5588958774545445
184.0,0.01830167472181634,-0.08759001161440186,-0.013837435839796183,5.330830055074744,0.43534768273950014,8.207835787344049,0.17352173953767192,-0.11446391105616138,0.007865479000412179,289.1965468228991,32.94816253606085,-3.035591351017197,-0.7814091521100744,0.21789415292570533,-0.183429264355588,-0.5550704969317374
185.0,0.07738432430407252,-0.045388707804128736,-0.05246787306582742,5.46405942077854,0.5326392791577685,8.109259675546063,26.71351298190401,2.683575456146267,0.5420471788243227,289.37244295830055,33.8721467442209,-3.7668596156007643,-0.780138359288524,0.2215148668468772,-0.19190756795736388,-0.5523418910503541
186.0,0.020408752013787414,-0.08549773331834698,-0.0115949196358323,4.97603124648758,0.6048949083960884,8.397264246375181,13.011998426435877,2.332331122850399,0.7479581132216853,288.5424042748492,30.55552901727174,-4.1137485481997675,-0.7822421149514815,0.19548609078903,-0.1799554567513394,-0.5624574007901539
187.0,0.03287662507961485,-0.10648008692068488,-0.017959237196058592,4.768217376643811,0.575592147165711,8.526774193548386,6.359980892435653,0.5634553782173766,-0.03449898842306398,287.6931151886404,29.136094563710614,-3.8603157431343895,-0.7808123084253118,0.18548254682177517,-0.17305711658012063,-0.5702450759338353
188.0,0.0027128994792252094,-0.09266569255554306,-0.003145629612978155,4.77374283466337,0.562095837548237,8.532769472856018,3.133127739687535,-0.13007895919973023,-0.012455041025064652,287.5938284440448,29.150118485631857,-3.7696789179873367,-0.7804917537484546,0.18582279186092693,-0.17282617094151587,-0.5710011495444156
189.0,0.011666104679479974,-0.06904480911168559,-0.018416320107901535,4.874518751639128,0.5161159192237084,8.481072084223147,1.416292008542205,-0.8494073376793675,0.00378873028361619,287.553968332022,29.82459560338691,-3.4803901596043607,-0.7792171335824809,0.19172461441515867,-0.174352794956165,-0.5704571427574836
190.0,0.013160241279832154,-0.04768292682926829,-0.015774980330448465,4.788710988722791,0.4618290809636207,8.535255704169945,0.1690715035030535,1.1819831591173056,0.9822611086133902,286.7195004870556,29.234278408452287,-3.0947697725825183,-0.7761836121675847,0.18819534887040576,-0.1704382414988198,-0.5769759149501703
191.0,0.013930913041849315,-0.04488535461391481,-0.005059945299913829,4.915693866846503,0.4575658461653741,8.461605784721442,-0.28723165111835447,-2.1360032407927765,-0.879495897493537,286.97954483721105,30.098070276497694,-3.0963726068712303,-0.7759264164559215,0.19455805332377957,-0.17422296687553857,-0.5740359518013562
192.0,-0.00837248510733955,-0.04745419804428458,-0.0037319695777602926,5.101898392716647,0.4247660260012738,8.33627140234536,1.0350516091566446,4.2175686561013075,1.61382347982466,286.93992122812926,31.39640937019969,-2.9150977857704845,-0.7729988266419392,0.20423556727248884,-0.17917075814207034,-0.5723923257393877
193.0,-0.005523772057997076,-0.07332190626053725,-0.0010241279832153176,4.704202540182084,0.45938537334682106,8.560016110299351,0.08521364879547416,-0.6356098497620919,-0.23257488479262656,285.8998632497846,28.73771589674422,-3.063346493199955,-0.7724547917906786,0.1837442372475741,-0.16875208258795096,-0.582915909789442
194.0,-0.0032218725413060566,-0.07378816829642951,-0.0037625042149039005,4.679658686448615,0.44405904612041514,8.58669551534225,0.07446447304334794,-0.5452188940092164,-0.0698245663332209,285.6593924450189,28.540811977820237,-2.960961794237758,-0.7718510221582181,0.1825076896540032,-0.1677041307909033,-0.5849546824961596
195.0,-0.00870443220561238,-0.06933535648720542,0.0041590798396463225,4.692996141021317,0.44408077629163395,8.585240717844966,0.050904331047918784,-0.7290800269753849,-0.1872307144730433,285.58817813120527,28.611851841444683,-2.9614804615788093,-0.771485705054138,0.18286299734329925,-0.1683150231070398,-0.5854216456618335
196.0,-0.01402701285077367,-0.05766513056835637,0.0018543703870218442,4.685954254243004,0.4366794050428984,8.592087782398558,0.015127992581769136,-0.4976138960698362,0.03860969053238921,285.25386014948856,28.557183367052566,-2.9086103461841066,-0.7699378319083211,0.18224621955003556,-0.16829537686767074,-0.5877681217016972
197.0,-0.010120265257952118,-0.06522273425499231,-0.006641939230452212,4.677950245401071,0.4251522985275936,8.599027762167022,0.10911449552283539,0.02668268330148743,0.25583998351504256,284.9680159042374,28.493333426997864,-2.8306732606496574,-0.7686447916492449,0.18176275462140795,-0.16796970131017946,-0.5898035694683602
198.0,-0.010166348207260874,-0.06508658349256305,-0.00025566670413247877,4.632108875650968,0.4018727661009329,8.62506462852647,0.31087117380390394,1.022148383350193,0.5830045708291184,284.5583047656513,28.184919073845116,-2.6673429245813196,-0.7670647604611291,0.1798575634240006,-0.16602795206264281,-0.5929679688270204
199.0,-0.004176014386871979,-0.05406886216327601,0.0007643775055262088,4.606738151436814,0.4220008991794988,8.638220748566933,0.16828472144168447,-0.39237289723127644,-0.0333600277247012,284.3874381814095,28.018836405529953,-2.793850455209621,-0.7664610586365441,0.17785922099996254,-0.16626020422486978,-0.5943124438116218
200.0,0.006684612790828368,-0.07170398261586303,-0.005589487093027612,4.820178674459555,0.4348517477801508,8.515396762953806,0.03936954404106253,-1.681606393540894,-0.33940818066014755,284.9463498932224,29.455449870742946,-2.9259624030572104,-0.7667354499280281,0.1878929059012401,-0.173334059649807,-0.5886069445415308
201.0,0.007508973062080846,-0.06375598516353828,0.004305870892810307,5.0488996290884565,0.3982284852572029,8.380785171031434,-0.3046191834326177,-1.5573978588288186,-0.017673560376156777,285.25716592203366,31.009565373159493,-2.7191975993780675,-0.7655065085815256,0.1998755121234311,-0.1792582898433367,-0.5843697893037916
202.0,0.004769079464988197,-0.04800472069236822,0.004197482297403618,5.105343823760817,0.37270948072383947,8.35190794649882,0.16191851888276948,-0.2618066483084186,-0.15370525177025965,285.03662347560976,31.384491787962233,-2.555518538552321,-0.763773847155586,0.2027873200194728,-0.18055456242781276,-0.5854052670005901
203.0,0.007449055861526353,-0.061002360346184115,-0.009869000786782062,5.123091266719118,0.4026410306845003,8.342292682926828,0.12901873524783636,-0.17021784028324155,-0.20941310975609756,285.1090627458693,31.505577547206922,-2.766040519276161,-0.763958805767309,0.20272026430409124,-0.18235366287922894,-0.5847368561656177
204.0,-0.016690794649881983,-0.060243115656963026,-0.0028941778127458693,5.10270692368214,0.404389063729347,8.354468922108577,0.021339004720692376,0.14175599921321794,0.18201219512195116,284.9891079858379,31.35246115263572,-2.773846872541306,-0.7636425963957514,0.2015306863375295,-0.18187266168961447,-0.5856993281231315
205.0,0.006367427222659322,-0.060794256490952006,-0.010455743509047995,5.2294809205350115,0.40218273013375294,8.27214398111723,0.19772693745082612,-0.5597278225806451,-0.26464398111723053,285.22399931156565,32.23415740558615,-2.7876905487804877,-0.7630872701451612,0.2078566150688434,-0.1858299598495279,-0.582811003868804
206.0,0.014266522423288752,-0.06298741148701809,-0.0015472069236821388,5.255830448465774,0.4405745476003148,8.256301337529504,0.1790433221872541,-0.274567269866247,-0.04196007081038554,285.33286904996066,32.409761014948856,-3.0612485247836347,-0.7633030712832414,0.20791963440440597,-0.18820054619512194,-0.5818607731323759
207.0,0.012634989322243453,-0.07175215428421566,-0.004270915289798058,5.1104290491176805,0.4402763290996965,8.345722481360756,0.2562183296804166,0.47900620761679974,0.3204274146716121,284.76006331722306,31.417747730976732,-3.0264263937282228,-0.7622607199945393,0.20044403801134275,-0.18406680026806788,-0.5870950827449513
208.0,0.01724216027874564,-0.08302645086358698,-0.010702334120115392,5.024650696864111,0.4318490221422952,8.398206342962046,0.32936002538308795,1.9046615666329474,0.7807806821587802,284.3882338616013,30.830108990390016,-2.9500886886029,-0.7614496499466206,0.19619052455789404,-0.18132512506401033,-0.5904443548508391
209.0,0.01127233899067101,-0.0659904087520138,-0.011961709939680041,4.946795549061481,0.4322985275935709,8.445320520025476,0.211649057734817,-0.2584321494136601,-0.1863104604548349,284.1033026113671,30.304547881308306,-2.936797516016635,-0.7609483792139671,0.1922327960398636,-0.17910408126784308,-0.59310376914503
210.0,0.010716421265595147,-0.07276625079614851,-0.011371098872279044,4.951174328425312,0.43819017646397657,8.444138623506053,0.10969943051965081,-0.23627252631973328,-0.11881907759169756,283.9660002435278,30.331399629088455,-2.9730850286613464,-0.7602218560585964,0.19201502319066355,-0.1797174185284927,-0.5939791306000526
211.0,-0.009572552545801954,-0.06307864074032443,-0.00735588775242591,4.944982915589524,0.4363311228503989,8.448118092240831,0.23975825184519123,0.21788852047506652,0.13680898992169646,283.7588852515829,30.28778380352928,-2.95816426885467,-0.7592475848672211,0.19145517749934438,-0.17976615939957286,-0.5954170336674536
212.0,-0.0030236034618410738,-0.0560708103855232,-0.009376868607395748,4.908705743509048,0.4307277734067663,8.470254130605824,0.1474232887490165,0.03997344610542881,0.19657749803304486,283.4236870574351,30.043661487018095,-2.909352871754524,-0.7579611266309991,0.18950226055074743,-0.17876524464909518,-0.5979808261455548
213.0,-0.005599921321793863,-0.05323446105428796,-0.002731707317073168,4.8993749016522425,0.43859520062942564,8.475654209284027,-0.06005114083398899,0.27360592053501176,0.2983674272226593,283.24084628245475,29.978572482297402,-2.9615066876475216,-0.7571227695334382,0.188538755043273,-0.17905110418056652,-0.5992716409287963
214.0,0.006326711250983471,-0.07730959874114869,-0.003301337529504326,4.921363296616838,0.4359026357199056,8.462327498033044,0.1699645948072384,-0.12059770849724627,0.15277340676632573,283.2050513867034,30.128300796616838,-2.949798387096774,-0.7566645253843429,0.18955783793863096,-0.17982817026494885,-0.5992903211410306
215.0,0.005130015735641222,-0.08395810385523209,-0.0018509047993705723,4.937157749803305,0.4517543273013377,8.452499213217937,-0.030977084972462626,-0.46384490558615266,-0.3378749508261212,283.1725228658537,30.238764998033044,-3.0629683811959088,-0.7562946716978756,0.1896894610741542,-0.18112663066738788,-0.5993311752126278
216.0,0.005355522460754559,-0.09628876774942863,-0.000631289573264394,5.005768199018397,0.4659764340039715,8.411506519051365,0.01937128854295455,-0.1448640810572852,-0.19897179760968117,283.32525552854895,30.703360273594093,-3.175072180229291,-0.7562251934134538,0.19249681164671611,-0.18389790583427,-0.5976731273403768
217.0,-0.008838269454123117,-0.0856070117267993,0.005908293057584955,5.015214744670489,0.49060997152598257,8.404545352365965,0.2808789713761193,-0.14642582003296992,-0.1478803716608595,283.4053260579409,30.76291821213143,-3.3454328003821514,-0.7564893703308417,0.19223594263394023,-0.18511725510556926,-0.5970560654140908
218.0,-0.017205425049642196,-0.07822689296017385,0.00754688846427635,5.040708178786858,0.5065025664081524,8.387821063279757,0.30893746955902734,0.5833647109512569,0.5216243302986026,283.27058137574465,30.93105588025926,-3.4596619647072044,-0.7554580459638078,0.1926129535669701,-0.18688870746004269,-0.5976822035860777
219.0,-0.016373758944962714,-0.08021415458394215,0.01080806264283841,4.991108613390282,0.4983936907571841,8.417358210632795,0.08769060732081974,-0.12087173579109067,0.2039966655426923,282.7402818365741,30.599177625416807,-3.3913229178374733,-0.7532977302486231,0.18986213423903187,-0.18565351640193323,-0.6016232003060209
220.0,-0.010447304334794495,-0.08368378854295457,0.010319058858791355,4.969596006144394,0.4748286313738713,8.431736540406877,0.13213700310966242,-0.03560305908358623,0.2319157206549024,282.29896172867257,30.45519955228354,-3.2259722378329774,-0.751256122306845,0.18897306108725787,-0.1846355186407778,-0.6047753796360946
221.0,-0.0024579071597167564,-0.08553697875688435,0.00876475216365067,4.929854838709678,0.47833674272226595,8.454757671125098,0.43576416207710467,0.15656963021243117,0.09170190794649882,282.03605920535017,30.184190597954366,-3.2431992525570417,-0.7503378251534224,0.1866619406872541,-0.18382654144020455,-0.6068919993095988
222.0,-0.008225806451612907,-0.06892741935483872,-0.004580645161290319,4.9478306451612895,0.4889677419354837,8.443758064516128,0.15372983870967744,-0.10645161290322579,0.13029233870967744,281.9555443548387,30.305141129032258,-3.319254032258064,-0.7496961038387097,0.1869825790564516,-0.18504446704032257,-0.6072344867177419
223.0,-0.0020322580645161315,-0.07423387096774195,0.0015645161290322616,4.972290322580645,0.4838387096774194,8.430161290322578,-0.005695564516129029,-0.5393649193548387,-0.2891633064516129,281.83286290322576,30.466885080645163,-3.286139112903226,-0.7487604943870968,0.18803194079838711,-0.18591407054032255,-0.6077923187258065
224.0,0.004253147128245474,-0.06725354051927618,0.0028304484657749834,5.031903815892998,0.4756138867033832,8.394558615263572,-0.007251917781274583,-0.16287495082612113,-0.07670264555468138,281.92749926239173,30.87429435483871,-3.243483231707317,-0.7485333110847758,0.19109974866738788,-0.18758007592918963,-0.6065968638987018
225.0,0.007104642014162076,-0.06331313926042487,-0.008934697088906372,5.076833792289534,0.47952143981117246,8.367709677419352,0.13141473249409913,-0.2132081038552321,0.15154283044846575,282.0354113394964,31.181123377261997,-3.2788515440597954,-0.7485498016300158,0.1931297100696302,-0.18921219585936272,-0.6054320397918962
226.0,-0.0016976789929189612,-0.06699567269866247,0.003854051927616049,5.116384736428008,0.48300550747442966,8.343754720692367,0.034445072777340685,-0.31907208890637295,0.034853215971675844,282.0976076907946,31.45129573170732,-3.313816630605822,-0.74836112713572,0.1948603671626672,-0.19069710723092054,-0.6046522476127063
227.0,0.00995535011801731,-0.06424016522423287,0.006858969315499608,5.238228756884343,0.42377655389457125,8.269020653029113,-0.4837922895357986,-0.6060889555468134,-0.08823760818253346,282.5338844905586,32.29530266522423,-2.9286093627065304,-0.749082060781078,0.20301430275609755,-0.19188387417879624,-0.6005710558221873
228.0,-0.0012431156569630217,-0.07666404405979543,0.002926829268292683,5.151361132966169,0.38328088119590864,8.32394177812746,0.12322974036191975,1.167830448465775,0.6075924468922108,282.05217348544454,31.70220298977183,-2.641424075531078,-0.7476933901180172,0.19970074085759243,-0.18788249040125882,-0.6046196366089693
229.0,0.0013101794612416142,-0.06782473492937693,-0.0010651530478438412,4.870163350942265,0.39078865535199137,8.483633059832904,0.7307823798284065,2.8643995166910194,0.26563261024315316,281.1692447828856,29.80405848413323,-2.6392299838897006,-0.7462773400944137,0.1857273346592484,-0.1794142997396126,-0.6130325586343711
230.0,0.000624555093477202,-0.06648907871567195,-0.016066464351279452,4.543527780899929,0.4453089056236185,8.657894046682403,0.7428089056236185,3.5146467910531642,0.6859077029710389,280.8781330785658,27.62900650031846,-2.937560881945225,-0.7482671168236483,0.16931231251245737,-0.17030428286950655,-0.6178698769038253
231.0,-0.007834850698737406,-0.08295342999512945,-0.01408752013787419,4.398522348357124,0.458523846989622,8.735103592971413,-0.31169448503240793,-1.5076500505788468,-0.04598694316436258,280.68134624030574,26.685348057397626,-2.997817616425012,-0.748758151401596,0.16250837067400997,-0.1660406031932112,-0.6203926106312989
232.0,-0.0034925630362294437,-0.06818403207073545,-0.013861226630699486,4.503942527443707,0.4248559439511448,8.68769735116706,-0.0142510584092016,-1.2518826570754187,0.11083323966880221,280.3971493199955,27.361065059383314,-2.797345078865535,-0.746270724119366,0.16757256655651714,-0.16888291253681015,-0.6214734416807164
233.0,0.005873702746244052,-0.06551609156644563,-0.013842493724476417,4.577620358922482,0.39704244876550143,8.652936008392345,-0.04127678805589899,-0.43148322468247724,0.1526087913528905,280.14876152073725,27.838331506874976,-2.6277490539882358,-0.7442379000769923,0.1711952776803042,-0.17076929819995504,-0.622502377823049
234.0,0.010676445243715112,-0.06869000786782062,-0.015404630774418343,4.608752950432729,0.3763577610430481,8.638373796410775,0.05601724364017834,-0.2839510509160391,0.3488722790453711,279.86982854707577,28.043309308381104,-2.491354763778052,-0.7424532330656403,0.17280365658105729,-0.17142402795867523,-0.6240594032065117
235.0,0.013894571203776556,-0.07735641227380016,-0.017655389457120377,4.634649881982689,0.3523367427222659,8.625885129819041,0.09161093627065303,-0.07317073170731705,0.26789929189614475,279.55566483084186,28.212332808811958,-2.342938630999213,-0.7404953235955942,0.17425004044059797,-0.17190683868607393,-0.625879799433517
236.0,0.008239181746656178,-0.08134697088906372,-0.013291896144767897,4.591365853658536,0.34210070810385523,8.649892997639652,0.36959087332808815,0.8608084185680566,0.3816286388670338,279.218371361133,27.924282061369,-2.2687745869394176,-0.7391158231581433,0.17223342163650668,-0.17036900246734854,-0.6284702253674272
237.0,0.0056935296541905525,-0.09154381626765576,-0.015408264958225617,4.563946199093326,0.35461391480274246,8.664087595069496,0.36135307781649245,0.8941829642950807,0.5561645311153571,278.99764527368774,27.741660578472143,-2.3475080551496754,-0.7381777400558992,0.1703135176216702,-0.17017995566850247,-0.6301364927831853
238.0,-0.0031760518526844257,-0.08754610168221498,-0.013530253643550257,4.5390187329062215,0.36623299988760255,8.677063467086283,0.2175815349743359,-0.4242942377580458,-0.010396294631149161,278.66716941103743,27.57086962833914,-2.4181727923270016,-0.7366136000082801,0.1683844849674047,-0.1702231676493575,-0.6324745655300662
239.0,-0.005960960623431118,-0.07978170544378257,-0.012562137049941927,4.549270971488518,0.37155080364167714,8.67143259900341,0.191225857967105,-0.23724546663669402,-0.0636806414147091,278.4906116528043,27.640421045483496,-2.454016569255554,-0.7355221434211344,0.1683312124538046,-0.17110436146275898,-0.6335376902276606
240.0,-0.004409276535161664,-0.0756752744370762,-0.012277134614664119,4.546900631298939,0.371748651230752,8.672687975347493,0.24728484086396166,0.050584583754823706,0.17356388857667376,278.3140951655052,27.62511807584954,-2.4539899919448502,-0.7345912490142652,0.1679802547265089,-0.17125738164955417,-0.6346795232428626
241.0,0.006449177625416809,-0.07472365216739726,-0.01719718257090405,4.453698250346559,0.36965628863661915,8.720062418043534,0.24558441984189427,0.11924759282155033,0.3170312558540332,277.68094793188715,27.014409819789442,-2.427979702896107,-0.7319744175508973,0.16319810420579972,-0.1686663967463939,-0.639571199454535
242.0,-0.0022446892210857576,-0.07535798583792291,-0.015544059795436667,4.357760031471283,0.372572383949646,8.766536585365856,0.39940991345397325,1.9399857395751376,0.8574547600314713,277.18528963414633,26.384965086546025,-2.4344487608182535,-0.7301135186978757,0.15835751603147127,-0.16587699683556256,-0.6435618350291108
243.0,-0.0024520062942564895,-0.07599527930763178,-0.011863296616837136,4.378223052714398,0.39822954366640445,8.755498819826908,0.19857395751376866,-0.671775422895358,-0.06433910306845003,277.1906483575924,26.52816802714398,-2.605107936664044,-0.7299277567761603,0.15841158692997637,-0.1677242302785208,-0.6433010349968528
244.0,-0.000845200629425649,-0.0878198269079465,-0.01367289535798584,4.423005310778914,0.4003790322580646,8.733986821400471,0.15955817269866246,-0.6466721577498032,-0.10456456530291108,277.0679669059796,26.82160208497246,-2.625164732494099,-0.7288095907944532,0.16001808884185675,-0.16964643052261996,-0.6437067302246262
245.0,0.0004948859166011026,-0.0919697088906373,-0.01444374508261212,4.40748308418568,0.40846616837136107,8.741485051140835,0.1906225413060582,-0.158809500393391,-0.032058910306845004,276.84589889850514,26.714939024390244,-2.675949055861526,-0.7277172115629426,0.15873125692564907,-0.16969066214634146,-0.6452694126361134
246.0,-0.009087726199842642,-0.08393922108575924,-0.010144767899291895,4.417883949645947,0.4096815499606609,8.736946302124315,0.20607543273013373,-0.013093774586939416,0.09928329071597167,276.7788208103856,26.777586546026747,-2.6832735051140837,-0.7272632471819432,0.1590050779474823,-0.17016743661998426,-0.6456098226477183
247.0,-0.0034933123524783635,-0.09788355625491739,-0.013910306845003934,4.426388670338315,0.4122895357985838,8.73321007081039,0.06746656176239181,-0.19713808025177026,0.06284421715184893,276.6651750590087,26.832415420928406,-2.704317466561762,-0.7265582734225019,0.1590639560739575,-0.17077449430369787,-0.6462423470259637
248.0,0.0011269716383799783,-0.0961204151212019,-0.012351354389119926,4.422248698063017,0.4060286238807088,8.73508710801394,0.0414137724326552,-0.10018358248098609,0.09242347607807874,276.4624662807688,26.804381626765576,-2.659299951294444,-0.7254599973534148,0.1588043983646173,-0.17064671179910829,-0.6475700671222507
249.0,0.0053298115469633985,-0.09807987711213519,-0.00683106665168034,4.446370611816716,0.4090512906972387,8.722785882881869,0.0001915439661309068,-0.11132310516653554,0.08642613615076242,276.3781794425087,26.96696264658499,-2.6862589449627214,-0.7247412756806413,0.15958471288726533,-0.1717956072960923,-0.6478855304769398
250.0,0.0034115619497208814,-0.07446952156157505,-0.0004619534674609434,4.532397737064928,0.4022172267805628,8.677093177475555,-0.680937862950058,-2.861778783110412,-1.1398809523809523,276.51776301000336,27.533638679704765,-2.6557425724026826,-0.724628163723877,0.16367346165921098,-0.17454978803356935,-0.6461651470968491
251.0,0.013570454460304967,-0.09530321082012663,-0.008688883893447229,4.620864486156383,0.39075849537297214,8.628841632010788,0.616602272301525,0.9209742984526614,0.5324395395451649,276.32509413285374,28.118535508223744,-2.593828209883481,-0.7225826391829455,0.16743059021198153,-0.17766860877288226,-0.646559465413098
252.0,-0.002016503690382529,-0.08328496496946536,-0.004706361694953355,4.637823273762692,0.41490088419317384,8.620163538271324,0.27284676951032183,-0.16282618672960936,-0.00020922314637900064,276.30838695627733,28.23178939061856,-2.7571324369637704,-0.7223404978456032,0.16724797137743058,-0.17930909850760557,-0.6465092327222846
253.0,0.0052260031471282435,-0.07006490952006295,0.0004002753737214781,4.681208103855232,0.4135072777340677,8.597676239181748,0.47247369197482303,0.7872024980330448,0.48476962037765536,276.26241640440594,28.515510670731707,-2.7548719020456334,-0.7216293261447677,0.1689793969744296,-0.1809303519097168,-0.64643970188572
254.0,0.0006573564122737991,-0.06593568056648308,-0.012158733280881198,4.629015342250197,0.4193383162863887,8.626217151848941,0.36342938630999216,0.36436737804878044,0.23313581825334379,275.9164400570417,28.170179730527146,-2.7837111526357194,-0.7202207961369,0.1660647844307632,-0.17970327549921322,-0.6491189628985052
255.0,-0.002663257277734065,-0.0794799370574351,-0.006035011801730921,4.53174154209284,0.4314110936270653,8.676415027537374,0.19965824154209283,0.7551927616050353,0.30028766719118805,275.52744885916604,27.527756195908733,-2.843014850511408,-0.7189943111490952,0.16105235248151062,-0.1770237214350905,-0.6524414972879623
256.0,-0.006351298190401257,-0.07489732494099136,-0.005393587726199844,4.50546164437451,0.43654346970889063,8.690559992132183,0.16500909716758458,-0.2600904799370574,-0.10079047010228165,275.3891424075531,27.356939663650667,-2.8786278029110934,-0.7184897612079071,0.15958029372698662,-0.17646829901416206,-0.6535334910082613
257.0,0.00045338316286388895,-0.07266640440597955,-0.011966955153422502,4.6122187254130615,0.44010641227380026,8.633679189614476,0.03202571793863101,-0.9660835464201416,-0.08807164634146342,275.499409913454,28.06478535601888,-2.918925796616837,-0.7179890285676633,0.16405228109736425,-0.18053540104740362,-0.6518480598347758
258.0,-0.0017773406766325708,-0.06868804091266718,-0.01251573564122738,4.767996459480723,0.41947659323367437,8.546706530291111,0.17163281864673485,-0.006101249016522425,0.4931869590873328,275.6123057631786,29.11003884736428,-2.810294551534225,-0.7169025298160897,0.17149235843981114,-0.18547786822128243,-0.6496016096512589
259.0,0.0013797628414072183,-0.06552451200779288,-0.01533313663781799,4.670662208234985,0.4309673672773595,8.600706183732344,0.4413067607058559,0.9748907637405867,0.40199142501217633,275.0515685881945,28.456812338428684,-2.8675152673185718,-0.7147668774063167,0.16613591851714063,-0.18299205560238468,-0.6540623083173729
260.0,-0.0033464089018770352,-0.0702501592297029,-0.011799632835038027,4.610556910569104,0.4328707804128733,8.634228091866174,0.17397999325615376,-0.25595179554906144,0.01898966411899139,274.7429465924844,28.053053346633696,-2.8733745691431567,-0.7136812827515455,0.16305866590373164,-0.18122848739393427,-0.6565754428683638
261.0,0.00829139035629988,-0.07563648795474129,-0.012237345921846313,4.633299698400208,0.4311521486643438,8.623164399985015,-0.13707078228616384,-0.19059883247161963,0.32152768021055783,274.6348731782249,28.200995595425425,-2.8698108093552133,-0.7128558742829325,0.16383000686610658,-0.18221307851994117,-0.6570551755451182
262.0,0.0037827919523434885,-0.07822953429995129,0.007203907684238135,4.647282913716232,0.4498422033644299,8.61529187741186,0.05243235079240194,-0.5306572791390356,-0.3216706357011727,274.6112873955641,28.29472662835787,-2.991231009516316,-0.7125706824761437,0.1637302427193436,-0.18351445501400282,-0.657046387163688
263.0,0.014076879847139486,-0.0877518639241692,-0.016841594544977707,4.626782585890375,0.45280416619834407,8.626363680641415,0.22989561088007193,-0.05043448634371134,-0.09019519688284443,274.37998845584656,28.15686432224345,-3.0076618757259004,-0.7114522620646848,0.16239921318225242,-0.18316384655942078,-0.6586861768721666
264.0,0.02154996066089693,-0.08506333595594018,-0.013931549960660896,4.6050472069236825,0.4719197482297405,8.636943745082611,0.20290863493312353,-0.16219880999213215,-0.06526848937844218,274.15410233084185,28.012245525177025,-3.1268772128245477,-0.7103523990761212,0.16045928878697877,-0.18336040353009442,-0.6602865953638867
265.0,0.02690401258851298,-0.07628166797797009,-0.013030291109362706,4.641184893784422,0.4762985837922896,8.616963808025176,0.17630310778914238,0.556980232100708,0.46323269079464985,274.11724773800154,28.247629819040128,-3.163766227380016,-0.7097759617033832,0.16170872335719905,-0.18495592401101496,-0.6601617409480725
266.0,0.027596774193548383,-0.07941935483870968,-0.015088709677419354,4.592548387096774,0.46179838709677423,8.643725806451616,0.1313508064516129,0.2600302419354838,0.2357862903225806,273.73684475806454,27.92842741935484,-3.053377016129032,-0.7081057152096777,0.1596636374354839,-0.18306097203225807,-0.6629774027258065
267.0,0.030838709677419352,-0.09208870967741933,-0.02614516129032258,4.528677419354839,0.4532903225806453,8.677887096774194,0.1958165322580645,0.3275201612903225,0.28140120967741933,273.2890625,27.505342741935486,-2.987852822580645,-0.7061666182258064,0.15665873830645166,-0.18087743953225804,-0.666345165233871
268.0,0.012717741935483869,-0.08333064516129032,-0.012943548387096772,4.475693548387097,0.4422903225806452,8.706298387096775,0.20267137096774196,0.09687499999999998,0.2274697580645161,272.9163306451613,27.156149193548387,-2.906602822580645,-0.7045101535483871,0.15433039467741938,-0.17893046706451612,-0.6691635126451613
269.0,0.014548387096774196,-0.07776612903225806,-0.015580645161290319,4.487540322580646,0.4384112903225807,8.70025,0.18533266129032258,0.1235383064516129,0.22469758064516127,272.7227318548387,27.238306451612903,-2.883366935483871,-0.7032767018225807,0.15463891720161294,-0.179500949,-0.6702537287177419
270.0,-0.00797235023041474,-0.06986405529953918,-0.010177419354838705,4.478072580645161,0.45209024577572965,8.705190860215051,0.21633304531490016,-0.00047043010752687714,0.02559763824884792,272.5925979262673,27.170934139784947,-2.9693308371735787,-0.7026120467150538,0.1535729564281874,-0.17981568803840248,-0.6711208282784178
271.0,-0.00834022704282342,-0.070359840395639,-0.002422698662470492,4.496582612116443,0.4392643400397137,8.69630166535536,-0.04717683395151924,0.35604551862050876,0.3247228700685625,272.4476979599865,27.291650685156043,-2.887275322205987,-0.7015928552570154,0.1545233238314226,-0.18022472103965753,-0.6718599215071279
272.0,-0.013766100932898727,-0.06686206024502642,-0.0021534225019669536,4.495234264358773,0.44785187891049427,8.696499082087595,0.2837938115844292,-0.3320253081563074,0.0019414901090255565,272.2723258190963,27.28230805795961,-2.9447969352965417,-0.7005659712327563,0.15390672409667117,-0.1807489226882001,-0.6729268848262429
273.0,-0.02103548949083961,-0.08307491289198607,-0.0024453186467348533,4.55679937057435,0.4596647278108727,8.663626606346707,0.049512710276872346,-0.4403082382638342,-0.1237778534899404,272.2658215198943,27.690437319695775,-3.0372760246899704,-0.6999082443353003,0.15591267769713574,-0.18362948578892696,-0.6723661130391051
274.0,-0.01956209958412948,-0.08578745644599303,0.0019063729346970883,4.537528717545238,0.4635702671312427,8.673027012850774,0.2567120002997265,0.10340938893259904,0.08627135551309431,272.09624241317294,27.568807369525306,-3.061833576861114,-0.6990787350466824,0.15474434898969686,-0.1832800340678506,-0.6735830375235847
275.0,-0.019255704169944925,-0.07582690794649882,-0.006708103855232099,4.55968371361133,0.4631046420141621,8.66163178599528,0.09700039339103068,-0.27356412273800157,-0.01430959874114869,272.0567761605035,27.711890243902438,-3.06624704956727,-0.6986434538835562,0.15558855355782847,-0.1841905495216365,-0.6736019059307633
276.0,-0.011312352478363492,-0.07599055861526358,-0.010654602675059008,4.619646734854445,0.45898662470495666,8.629673485444531,0.2420289142407553,-0.4277340676632573,0.004051927616050357,272.0229543666404,28.107248229740364,-3.0507130212431157,-0.6978524600157356,0.15807747253343818,-0.1864306164154209,-0.6732296440613691
277.0,-0.019824547600314713,-0.07424311565696301,-0.006828481510621556,4.668320613690007,0.4652336742722266,8.602948465774983,0.21047157749803302,0.6414093233674272,0.44157159716758454,272.01596184107,28.42832907159717,-3.100356510621558,-0.6972828283115657,0.15976122121872538,-0.1885483281439811,-0.6728205646467348
278.0,-0.0225,-0.07849999999999999,-0.002983870967741934,4.645443548387097,0.44258064516129036,8.61615322580645,-0.07263104838709677,-0.031149193548387077,0.21411290322580642,271.74233870967737,28.284979838709678,-2.9417842741935485,-0.6959195529677418,0.15925893459677415,-0.18719900849999999,-0.6747242586129033
279.0,-0.015620967741935481,-0.0926693548387097,0.0039677419354838695,4.5505,0.4416370967741936,8.666225806451612,0.20957661290322582,0.20650201612903227,-0.014616935483870983,271.3131552419355,27.650655241935482,-2.917993951612903,-0.6943301779919353,0.15475769045161292,-0.183971970983871,-0.6782592278709677
280.0,-0.014080645161290317,-0.09662903225806452,-0.003322580645161294,4.529145161290323,0.4756774193548388,8.676016129032257,0.36129032258064514,0.15781250000000002,0.1340725806451613,271.2133064516129,27.50947580645161,-3.139314516129032,-0.6939394054112902,0.15249584538709682,-0.18455953275000003,-0.6790352119274193
281.0,-0.022983870967741928,-0.09160483870967742,-0.006725806451612903,4.470725806451613,0.4907741935483872,8.704838709677418,0.4747479838709677,1.1053931451612904,0.5421874999999999,270.82762096774195,27.12298387096774,-3.230493951612903,-0.6921536843306451,0.14900876871774194,-0.18330023991935485,-0.6819202551451613
282.0,0.008959677419354842,-0.10231451612903227,-0.012217741935483872,4.543911290322579,0.5038548387096775,8.66616129032258,0.08024193548387093,-0.6428931451612904,-0.0424899193548387,270.87973790322576,27.611441532258063,-3.3274193548387094,-0.6917424843709676,0.15158573282258064,-0.18665485991129033,-0.6808527799596775
283.0,0.0024354838709677424,-0.10607258064516129,-0.014379032258064518,4.497790322580643,0.5091290322580646,8.690540322580642,0.21512096774193545,-0.047278225806451635,0.16617943548387096,270.4899697580645,27.30509072580645,-3.347681451612903,-0.6898617650725807,0.14895969545161292,-0.18553191126612903,-0.6836642852983872
284.0,-0.010092643587726206,-0.10369079464988197,-0.023602084972462627,4.408188040912666,0.5225025570416997,8.734552124311563,-0.026237952399685294,-0.15442196105428796,-0.08005384539732496,270.12004204366644,26.726417437057435,-3.422503196302124,-0.6884636632838317,0.14440633920751378,-0.18301110669669546,-0.6866781369960662
285.0,-0.003581825334382379,-0.11091719118804091,-0.01011703383162864,4.383185287175452,0.5320151455546815,8.746601494885915,0.009576612903225794,-0.682845692368214,-0.36460710070810387,269.85827842250194,26.560417486231316,-3.4793813926042487,-0.6871019955326513,0.1426703331191975,-0.1827058264596774,-0.6884755456715186
286.0,-0.0063263178599527944,-0.10442151848937845,0.0030375688434303707,4.279098347757671,0.5453961447678994,8.794705350118015,0.4871520948072384,0.7919969512195122,0.27253638867033825,269.39172157749806,25.87642604248623,-3.549363198269079,-0.6851591135139653,0.1373598899752164,-0.1795342877830448,-0.6921970681866638
287.0,-0.002529307631785995,-0.10604956726986625,-0.001476003147128245,4.257070810385524,0.5688996852871754,8.80532041699449,0.6480748426435877,0.9848618214004721,0.4674370574350905,269.17753245476,25.73724183713611,-3.69441384736428,-0.6840729230631393,0.1352715238526751,-0.17981917941404404,-0.6936792977419355
288.0,0.017392604248623128,-0.10275059008654602,0.005584579071597167,4.297422501966954,0.5712966168371361,8.786914240755308,0.41309992132179385,0.5987313139260424,0.5593233674272227,269.20983477576715,25.994679386309993,-3.7165617623918172,-0.683956071350118,0.1367300447852085,-0.1814673447836349,-0.6931360947741935
289.0,0.015075793338578544,-0.07886321231875913,-0.020909145404818103,4.34405574912892,0.5632585515716908,8.76471035180398,0.061482334869431665,-0.6084485407066053,-0.22127027837098645,269.1314010340564,26.29405136562886,-3.67237317822487,-0.683090424067963,0.1387589323279757,-0.1831257266277022,-0.693169970126035
290.0,0.027388408077629163,-0.09380611442059122,-0.023467947997452325,4.371115207373272,0.561566333220936,8.75209160391143,0.03843687947248137,-0.31995991158068265,0.2180184800119891,268.8570311621895,26.475335084860063,-3.6690937488291935,-0.6811797563298116,0.13942249443306734,-0.18452012676389046,-0.6945676120378406
291.0,0.0556454235510097,-0.09769770709227829,-0.022178505863399648,4.331281443183094,0.5463535836049604,8.770880577722828,-0.28017672155408185,-0.6668888857667379,-0.3289579118429432,268.5670138108351,26.21841596886591,-3.5662541914877677,-0.6797575589831591,0.13803748749584127,-0.18269692527022213,-0.6966202755665206
292.0,0.03772829792814057,-0.10023358997414858,-0.016022376456483464,4.491097055187141,0.5315442190251395,8.691116921434192,0.45953791774380887,0.02144344067288595,0.4273532628039415,268.6705790926717,27.26705613549511,-3.5003281185605633,-0.6789235738306827,0.14488736403903002,-0.1884328743345603,-0.6945268270397512
293.0,0.024200104904274853,-0.09168652354726313,-0.009585440785283433,4.523282005170282,0.5340011614401856,8.675599078341012,0.4290233599340602,0.23294954291708814,0.4047349762092091,268.3557133022367,27.473284534112622,-3.521686851373122,-0.6767300488784609,0.14546500827020342,-0.19020627719137534,-0.6961223547126372
294.0,0.0198426435877262,-0.09062942564909521,-0.024429583005507474,4.629378442171518,0.4968607395751376,8.621132966168371,-0.7650963808025177,-1.347560975609756,-0.07135129819040126,268.4980330448466,28.174960660896932,-3.288552321007081,-0.6766109633595594,0.15127469815106215,-0.19292905557828474,-0.6942373972069238
295.0,0.029441384736428,-0.09680566483084188,-0.018985051140833986,4.776073957513768,0.4371754523996852,8.542596380802518,-0.1192466561762392,-1.2769472856018882,-0.5302911093627065,268.86221479150277,29.15883162863887,-2.9266817466561763,-0.6773588961369001,0.15988877078678204,-0.1961795738316286,-0.6905792259008654
296.0,0.011274586939417776,-0.09661683713611331,-0.008040912667191188,4.927466561762391,0.4358457907159716,8.456302124311566,0.3292682926829268,-0.41448662470495673,0.10056058221872544,268.99591856805665,30.177566876475215,-2.9471380802517704,-0.6765870003933911,0.16614475425649095,-0.20213475160503536,-0.6881871375609755
297.0,0.013257277734067662,-0.09800944138473644,-0.026900078678206145,4.971203776553894,0.45804878048780484,8.431565696302124,0.14786585365853658,-0.28968332022029897,0.03540519276160503,268.84490558615266,30.46818450039339,-3.105625491738788,-0.6752384164201417,0.16675822730920534,-0.20497026859952788,-0.6885796158851298
298.0,0.017872316511183546,-0.09644187179198983,-0.020165598891011955,5.052480236783936,0.46416357573713984,8.383515791839947,0.14134680229290772,-0.36234358023303737,-0.026994117867445946,268.9595767299839,31.017234273725226,-3.1668493125023414,-0.6750346202941067,0.1699493522127309,-0.20837886017833723,-0.6870068817991084
299.0,0.01028586414896407,-0.09545652092465626,-0.002440897680866209,5.287885804203664,0.4475377468060396,8.232667191188042,-0.3501812408677082,-1.4294612416170245,-0.6380896182233712,269.64665992282045,32.65846165374096,-3.1106623018995165,-0.6762845613041849,0.18152762187516389,-0.21648368895470388,-0.6800778516949535
300.0,0.032208234985575665,-0.058526844254617655,-0.011067026338466148,5.353038102731257,0.4038986924431457,8.190031471282456,0.5342179948297178,2.4048602525195757,1.6669898092990145,269.4655408190027,33.10839093701996,-2.8241893334831962,-0.6743665879573639,0.18547301353002887,-0.21771327138136454,-0.6803938875036528
301.0,0.010757933385785472,-0.08019969278033795,-0.01186317485294669,5.097093402270428,0.40486830766925186,8.349040125885129,-0.027221254355400737,-0.5948259713011879,-0.19640281368251467,268.28696002397817,31.35816380053201,-2.779398954703833,-0.6702291632902475,0.17305550680828746,-0.20896752190626056,-0.6902937598651229
302.0,-0.0035939080588962566,-0.07622138548574427,-0.0026310366790303842,5.014947173204451,0.42876999737739313,8.40158480386647,0.5055168408826944,0.07423148252219836,0.12364186429882734,267.90797342737255,30.781787400247275,-2.9245180959874117,-0.668958503996478,0.16803676075006557,-0.20702417158367994,-0.6935389052216103
303.0,0.0056507811621894985,-0.0871919373571616,-0.005887939754973588,5.021346708628377,0.45098310291858673,8.398269079464988,0.3881411337154846,0.33401474279719745,0.4548384755160916,267.6255959405792,30.819225113334085,-3.078009675546064,-0.6672227169883106,0.16688279489921698,-0.208540831418643,-0.6951213729622343
304.0,-0.0008752013787418993,-0.0924292832790079,-0.006058221872541307,4.9371754523996865,0.4622389569517816,8.450093289872992,0.07364373758944961,0.24917341051290692,0.21338887640028475,267.1198273762692,30.237603499306882,-3.129383500056199,-0.665101510564235,0.16218590046157882,-0.20615688387321568,-0.6990614484564085
305.0,0.006627702221722679,-0.0837166085946574,-0.006113296616837136,4.874736428009442,0.4573035854782511,8.487997077666627,0.2763970064815855,0.56899563523285,0.3684715821812595,266.7123281255854,29.807481922745495,-3.083131954591435,-0.6633097990075305,0.15914114017571465,-0.20396098388782735,-0.7021537515413434
306.0,0.005623056460979355,-0.08201172679929564,-0.005503540519276157,4.815070810385523,0.4573693379790942,8.521752276048106,0.3028080626428384,0.6339274006219324,0.22709082649582255,266.3899956914315,29.408953392529316,-3.074045324266607,-0.6619373790907046,0.15624410028848673,-0.20194126353321346,-0.7046844855661083
307.0,0.0045948072383949655,-0.08225019669551534,-0.00963021243115657,4.776026750590088,0.456018882769473,8.54398898505114,-0.04263375295043273,-0.05728756884343039,0.004327301337529482,266.20279307631785,29.15568450039339,-3.0546813532651456,-0.6611910621085759,0.1545047592289536,-0.20055729767899294,-0.7061799275059006
308.0,-0.008394964594807241,-0.09027537372147915,0.0012509834775767123,4.7630212431156576,0.4511250983477578,8.551534225019669,-0.1719610542879622,0.6436369000786781,0.09849527930763177,266.0403225806451,29.05940204563336,-3.0212431156569632,-0.6603547700708103,0.1538689087647522,-0.20002229135326516,-0.7072686199370573
309.0,-0.008741148701809604,-0.0693705743509048,-0.007970102281667975,4.749362706530291,0.4313217938630999,8.559929189614477,0.3666896144767899,-0.301042486231314,-0.05669748229740362,265.83846380802515,28.970446498819825,-2.8850314712824545,-0.6592491261290322,0.15378275818253348,-0.1990299295672699,-0.7085980909913453
310.0,-0.02261998426435877,-0.06585365853658537,-0.0027458693941778117,4.725468135326514,0.43185680566483087,8.573918174665614,0.3010424862313139,0.10951022816679779,0.05202596380802517,265.5682041699449,28.80871361132966,-2.88552321007081,-0.6578295677419356,0.15236545557041703,-0.1983995528166798,-0.7104004766640439
311.0,-0.011892997639653815,-0.06465302911093626,2.168404344971009e-19,4.7212132179386295,0.4305114083398898,8.576863886703382,0.1633949645948072,-0.09473839496459481,0.1313139260424862,265.3308418568057,28.77725216365067,-2.8757474429583008,-0.6564088744468923,0.15183920858536587,-0.1984785961762392,-0.7118038536239181
312.0,-0.027154996066089686,-0.06403304484657751,0.006147915027537375,4.721007081038551,0.432955153422502,8.576388670338318,0.28402832415420926,0.20428796223446105,0.15030487804878048,265.1039044059795,28.77743902439024,-2.895348151062156,-0.6549995230023604,0.1513304894335169,-0.19886135543194336,-0.713103234833989
313.0,-0.014412273800157355,-0.07094728560188829,0.005598741148701811,4.717684500393389,0.4382989771833203,8.578357199055862,0.11594217151848937,0.1550452399685287,0.11772718332022028,264.9426730920535,28.753673288749013,-2.9251671911880406,-0.6540213522580647,0.15073506750904797,-0.19911149409520063,-0.7140581679716758
314.0,-0.019963808025177023,-0.07389299763965383,0.0029417781274586937,4.7380035405192755,0.44757828481510625,8.566503540519275,0.08831136900078679,-0.5062795043273013,-0.01682484264358773,264.8089053894571,28.89119049960661,-2.9881933516915815,-0.6529540315523211,0.15093470944295828,-0.200514291947679,-0.7145956333233673
315.0,-0.010193548387096773,-0.07141935483870968,-0.010822580645161284,4.767040322580645,0.4457096774193548,8.550451612903228,0.07409274193548387,0.13820564516129036,-0.07414314516129032,264.80635080645163,29.083921370967737,-2.9837701612903222,-0.6526782127258064,0.15206815654838707,-0.20162968779838714,-0.7142991585483871
316.0,-0.008306451612903226,-0.06925806451612904,-0.004677419354838706,4.756064516129032,0.45153225806451613,8.556467741935483,0.3590725806451613,0.16219758064516132,0.16043346774193545,264.6576108870968,29.010433467741933,-3.0213709677419356,-0.6518393240403226,0.15115745227419353,-0.20159188556451613,-0.7152696175967741
317.0,-0.020524193548387096,-0.0720483870967742,-0.00433064516129032,4.731040322580645,0.470991935483871,8.569209677419353,0.3387096774193548,0.4671370967741935,0.35105846774193544,264.3527721774193,28.843397177419355,-3.149092741935484,-0.6501612014435485,0.1489262234435484,-0.20161689017741935,-0.7172402172096775
318.0,-0.006999999999999998,-0.08469354838709678,-0.0077983870967741915,4.688943548387098,0.47724193548387106,8.592032258064515,0.32192540322580643,0.5707661290322581,0.46118951612903225,264.12530241935485,28.56542338709677,-3.1800907258064512,-0.6491516111693548,0.14672472517741936,-0.20036015703225807,-0.7189551575887096
319.0,-0.009768686073957512,-0.08505487804878048,0.0015178992918961475,4.63789909520063,0.4963882769472854,8.618268292682925,0.08011162470495672,-0.0427370180959874,0.1716955153422502,263.8325346675846,28.228413896538157,-3.297862165617624,-0.6477583552181354,0.14357928606726988,-0.19928063526553896,-0.7211426231612903
320.0,-0.017574547600314714,-0.08711487018095986,-0.0032639653815892977,4.599719315499605,0.49306294256490935,8.63886821400472,0.12396980723839497,-0.001610444531864652,0.10354912470495672,263.5521316876475,27.972755212431153,-3.2641792879622344,-0.6463538130892997,0.14180352229130605,-0.19788984090814318,-0.7231387676376868
321.0,-0.014099527930763175,-0.08766955153422502,-0.003544453186467348,4.541262391817466,0.49383418568056636,8.66937785208497,0.25017333792289537,0.21750835955940204,-0.015869640047206916,263.25377901258855,27.586621016915814,-3.2579047010228166,-0.6450179957120379,0.13909308011644372,-0.1958373721132966,-0.7254121421268687
322.0,-0.011291699449252558,-0.07837509834775766,-0.002489968528717545,4.572139260424864,0.5053566089693153,8.651499409913452,-0.37927321007081033,-2.0954796911880407,-0.6697039732494099,263.2797120869394,27.79928329071597,-3.344022915027537,-0.6448515323640835,0.1399291318808025,-0.19757051435503542,-0.7248853657206924
323.0,-0.011553107789142408,-0.07478835562549174,0.0073154996066089675,4.642311565696302,0.4967710464201416,8.613140833988982,0.24594807238394967,0.42148898505114074,0.23843430369787572,263.2950727773407,28.268971282454757,-3.298573957513769,-0.6442785425570416,0.14287322573878836,-0.20018566912509833,-0.7240688462958301
324.0,-0.003116443745082612,-0.08879543666404408,0.00013375295043273035,4.608636506687648,0.478552321007081,8.633252557041697,0.2746508654602675,0.9264260424862313,0.7316188040912668,262.8890489771833,28.04050452399685,-3.1693843430369784,-0.642060973581432,0.1415955502800944,-0.19857801064044056,-0.7267526020833991
325.0,-0.009806058221872544,-0.08013099921321795,-0.0032793076317859954,4.557983084185681,0.47307789142407564,8.661148701809598,0.29434746262785205,0.29526947285601884,0.11209185680566486,262.4756515538946,27.701458005507476,-3.124650865460268,-0.6399376704484657,0.13922869235326513,-0.1967710477450826,-0.729574167415421
326.0,-0.0030564516129032255,-0.08174999999999999,0.0022903225806451617,4.527330645161291,0.47593548387096785,8.677290322580644,0.2667842741935484,0.3326612903225806,0.18538306451612901,262.22404233870964,27.498235887096772,-3.1398185483870966,-0.638603554967742,0.13754607117741935,-0.19590345758064515,-0.7313196490161292
327.0,-0.01595967741935484,-0.08195161290322582,0.008524193548387094,4.486016129032257,0.4736451612903226,8.69890322580645,0.25141129032258064,0.4033770161290322,0.3292338709677419,261.88492943548385,27.222782258064516,-3.1138608870967746,-0.6368273823790322,0.13556301975806453,-0.19445406974999996,-0.733632143185484
328.0,-0.016106805664830845,-0.08349665617623919,-0.00015420928402832754,4.469597167584579,0.4668745082612117,8.70850118017309,0.093849577104642,0.055522226593233664,-0.03847241345397323,261.64013694925256,27.118186959087332,-3.0693954071597167,-0.63541795561428,0.13479224095279307,-0.1938193045696302,-0.7351762925119985
329.0,-0.014452596380802516,-0.08719590873328087,-0.004488394964594808,4.477774390243903,0.46727596380802516,8.704621557828482,0.19629474822974038,0.5033155487804878,0.7737829464988198,261.4762428697876,27.168518882769472,-3.072575727773407,-0.6342796044563337,0.13478208319413845,-0.19433844799449249,-0.7360225106793863
330.0,-0.029536782061368998,-0.07869472856018883,0.00521951219512195,4.470931549960661,0.4656984657749804,8.708310778914242,0.2157380999213218,0.129455153422502,0.0681918764752164,261.2364833300551,27.12256589299764,-3.062346331628639,-0.6327851554701023,0.13416805547206923,-0.1942986270214398,-0.7374309932348544
331.0,-0.019478560188827692,-0.09137588512981903,0.002362903225806452,4.3705891030684505,0.4649305664830843,8.757887293469711,0.19756466365066877,0.021750835955940226,-0.09026357199055861,260.85341389653814,26.470392407553106,-3.040429533831629,-0.6311738466683714,0.12999611164299762,-0.190456341511605,-0.7405155543113691
332.0,-0.022702989771833198,-0.07843391030684499,0.0027580645161290325,4.316621164437452,0.47296931549960675,8.784012195121953,0.21009785601888276,0.3257695712037766,0.27311418174665614,260.6202301337529,26.11533733280881,-3.0807238394964593,-0.630121879793863,0.12738666715617625,-0.1886632983808025,-0.7423079086274587
333.0,-0.01146951219512195,-0.08191168371361131,-0.0046595200629425656,4.29916424075531,0.47490322580645183,8.792895161290321,0.4533720987411487,0.8410663355625492,0.5420203088119591,260.37868804091266,25.998758359559403,-3.0909864280094412,-0.6287130204870179,0.12626779062765542,-0.18826024069315495,-0.743817931217742
334.0,-0.010446695515342249,-0.07951553894571202,-0.005083988985051142,4.284830448465774,0.47425432730133776,8.800716168371359,0.1172305271439811,0.02024734461054284,0.048936614870180944,260.22343135326514,25.907035552714397,-3.085982985837923,-0.6278281282769472,0.12552572837883555,-0.18782797736978754,-0.7448257278910306
335.0,-0.006028324154209283,-0.0838174665617624,-0.010828481510621556,4.283955153422502,0.4780106215578286,8.800782454760032,0.08074842643587728,-0.117287077104642,-0.04951071990558617,260.08564122738005,25.904531372934695,-3.1090111132966167,-0.6269423102084972,0.12512547764791504,-0.18808167557277733,-0.7455877941199841
336.0,-0.008158929976396534,-0.08049881982690794,-0.005281274586939415,4.296988591660111,0.49125314712824564,8.793618607395754,0.21889998033044847,-0.10748795239968528,0.0015870869394177776,259.9013965381589,25.98913134343037,-3.201717397718332,-0.6256084835511408,0.12471989968548387,-0.18931378187922893,-0.7464581542983869
337.0,0.004339889850511413,-0.08589457120377655,-0.00979386309992132,4.312421715184894,0.4945177025963808,8.785466561762387,0.1349036191974823,-0.049232887490165224,0.049508261211644373,259.8446498819827,26.09217151848938,-3.2231117230527144,-0.6251023332997641,0.12505666535483873,-0.19015670512509836,-0.746617182516129
338.0,0.007343036978756885,-0.07705428796223446,-0.012188040912667189,4.338931549960661,0.4888662470495674,8.772490952006295,0.20819728560188827,-0.477970102281668,-0.06112313139260424,259.76138375295045,26.266743705743508,-3.190602871754524,-0.6243394762840284,0.12608919224862314,-0.19120288434933125,-0.746811035577498
339.0,-0.0005621557828481482,-0.06888906372934697,-0.01039063729346971,4.381509047993706,0.48892643587726214,8.751711250983476,0.18236870574350905,0.09077989771833203,0.07074645948072385,259.81120426829267,26.544504819040124,-3.194804779701023,-0.6243075414701023,0.12768195010778913,-0.1929279585302911,-0.746121006914634
340.0,0.0026048387096774205,-0.06838709677419356,-0.008685483870967743,4.420806451612904,0.4818629032258066,8.732016129032258,0.1298891129032258,-0.45695564516129034,-0.031350806451612895,259.775252016129,26.80226814516129,-3.159022177419355,-0.6237511423306452,0.12931705591935483,-0.19444319180645164,-0.7459134015887094
341.0,-0.00446774193548387,-0.07822580645161292,-0.00034677419354838673,4.455870967741937,0.4924274193548388,8.714088709677416,0.07379032258064516,-0.23175403225806454,-0.022832661290322576,259.7466229838709,27.033114919354837,-3.2297379032258062,-0.6232708836774195,0.13008654187096774,-0.19632140125806452,-0.7456935264274193
342.0,0.0008709677419354842,-0.07133064516129031,-0.006790322580645162,4.482161290322582,0.4828387096774194,8.701266129032255,0.20856854838709676,0.018346774193548368,0.20045362903225808,259.6296370967742,27.20070564516129,-3.1763104838709673,-0.622266806,0.13117400106451613,-0.19725804510483874,-0.7460912390806451
343.0,0.008708497246262782,-0.07118902439024388,-0.012476789929189613,4.4896396538158925,0.4887981904012589,8.696631982690795,0.13573834579071598,-0.16535946105428795,0.14815352084972463,259.4476101494886,27.246527094807238,-3.22017481313926,-0.6210174223341856,0.13088343112529505,-0.1979925843070417,-0.7469846606634538
344.0,-0.0032505900865460327,-0.05925177025963807,-0.01900452399685287,4.504505310778914,0.48645554681353265,8.68848937844217,-0.12399070613690008,-0.2885769079464988,0.16465135719905585,259.31785749409914,27.349196007081037,-3.203711398505114,-0.620040433719512,0.13131331700216364,-0.19869938592368214,-0.7475350630696301
345.0,0.01506018882769472,-0.08477911093627066,-0.007707907159716758,4.554337332808812,0.4675664830841858,8.66329307631786,-0.18903668371361132,-0.2453973249409913,0.011105920535011804,259.33155979543665,27.675807680959874,-3.09180025570417,-0.6197063243033045,0.13384112314221086,-0.20021799211506686,-0.7469574944864279
346.0,0.015586546026750591,-0.06110326514555468,-0.008495082612116449,4.614890440597954,0.44321872541306057,8.632372344610545,0.314705448465775,-0.3427087431156569,0.06381908929976397,259.2380581235248,28.077797993705744,-2.9402549665617626,-0.6185714928855233,0.1368095316799764,-0.2021320897309205,-0.7468363847956336
347.0,0.023801730920535016,-0.06260700236034616,-0.006425649095200632,4.6343166797797,0.4517612116443745,8.622141620771048,0.2542412470495673,-0.25109411880409127,0.05591561762391817,259.0775668764752,28.204681353265144,-3.001130999213218,-0.6173502402588513,0.13683412100983477,-0.20344167938788354,-0.7474943195476003
348.0,0.015569705144056053,-0.05928315724401484,-0.010663650668764756,4.635598076130529,0.45495726087445204,8.621841107489416,0.2757592095650219,0.24745671527855828,0.24849797216290134,258.8238385598142,28.211733824135475,-3.0209387059308375,-0.6156816677096961,0.13627847825322204,-0.2038991393687385,-0.7488486098845115
349.0,0.013188078378479639,-0.056742385073620324,-0.015767309205350123,4.614375650968492,0.465603630437226,8.632952811809222,0.17525359671799484,-0.023373456876849885,0.0971320505975797,258.5375745218426,28.07310481529354,-3.0848645142557416,-0.6140145887258157,0.13462941237257878,-0.20363913610372403,-0.7505811427325784
350.0,-0.00588924169195609,-0.076337754299202,-0.0057960267505900885,4.701609737364656,0.4661182983027987,8.58296716121539,-0.4127690513656288,-2.077269315967929,-0.8641681652991645,258.76065574538234,28.664071339590123,-3.105626838166423,-0.6146072472268929,0.1381566081032839,-0.20723152917400994,-0.7483754230725245
351.0,-0.002687048068637369,-0.08122198493874341,0.0016490952006294273,4.8950340189577,0.43749600989097454,8.472701322543179,0.3921427166460605,0.6338630062567907,0.6542209920947135,259.1609484470421,29.959861938481133,-2.9481744782885615,-0.6153581690929901,0.14698875758911245,-0.21417067447075794,-0.7440127228376983
352.0,0.009608482259937809,-0.0628651230751939,-0.012696302124311568,4.819110243153122,0.44634438574800506,8.517361676220453,0.18422045352365968,-0.30305276123037717,-0.20492628601401225,258.70463826758083,29.44400945075119,-2.995871267468435,-0.6131555040075494,0.14307174431383238,-0.21174526324246,-0.7473320420718781
353.0,0.0013265145554681359,-0.06536113296616838,-0.011396538158929975,4.799355428796224,0.4601514555468135,8.528748426435879,0.16726863690007868,-0.06703137293469706,0.12689073564122735,258.45808910306846,29.30927911093627,-3.0866837136113294,-0.6117671184407946,0.14132602940499606,-0.21166153008359562,-0.7488828735336348
354.0,1.0415495860027681e-05,-0.0845284927503653,0.002996815405942082,4.710395264321305,0.47123817016972014,8.57703915177401,0.4275055262073358,0.8537610992469372,0.4344011089880484,257.93572177887677,28.715089824285336,-3.1407688921359256,-0.6091193072962422,0.13676195219654563,-0.20871283121134462,-0.7526765018511108
355.0,0.008309692405679813,-0.09446330223670901,-0.0005826308493499634,4.752325877636657,0.4817599190738452,8.554550260387398,0.08946578434678357,-0.33772409239069345,0.03021688022179761,257.8211997958113,28.999632835038028,-3.2234135570042337,-0.6079808540139746,0.137618854292608,-0.21114476906751337,-0.7528129151348395
356.0,0.010685137312202617,-0.10037484545352368,-0.01868234610917537,4.7323195084485405,0.5056871979318872,8.564997396126032,0.1869191628264209,-0.01792282510958748,0.13767433310853844,257.4953756650182,28.862572121688956,-3.379433961822337,-0.6060299568102918,0.13530305213450225,-0.2114305159499644,-0.754745407162227
357.0,0.00939056236184482,-0.11076570754186807,-0.0008596624330298522,4.723567307332059,0.5379301449926942,8.568608060769545,0.2660353091866172,0.1450265890187704,0.0004608880334194959,257.3916443628002,28.802942237083663,-3.5941967212730885,-0.6054054246994023,0.13345114605151548,-0.2122136582424881,-0.7553807619760782
358.0,-0.0014941366003521778,-0.10829886478588288,0.004393241167434719,4.753626690644788,0.564585253456221,8.550231351391853,0.3224975178899254,0.19775977857704846,0.12030506537784269,257.3397399872616,28.996713545764486,-3.7805322955303287,-0.6047797133580608,0.13328823283260272,-0.2144863779468735,-0.7552805347828857
359.0,-0.0023682140047206913,-0.11808811959087331,-0.0037293469708890616,4.774169944925255,0.5828088119590872,8.537686860739576,0.11978756884343035,-0.5423878835562549,0.050157356412273785,257.1792879622345,29.136949252557038,-3.9072088906372935,-0.6035029953737214,0.13297462043273012,-0.21621730540519274,-0.7558680664830842
360.0,0.015688434303697874,-0.123705743509048,-0.005830055074744293,4.89985051140834,0.5650826121164437,8.466585365853657,-0.06869590873328088,-0.6937450826121163,-0.1223937844217152,257.32621951219517,29.9860346184107,-3.816974822974036,-0.6032961681982689,0.13842879073957515,-0.22107380226593232,-0.7536121192289535
361.0,0.017332808811959085,-0.11553894571203777,-0.007002360346184101,4.976412273800158,0.5722816679779701,8.421125098347755,0.10459284028324153,-0.604986231313926,-0.17938630999213218,257.4337627852085,30.504081431943348,-3.884097167584579,-0.6032508832966168,0.14106410738001574,-0.22460788659323364,-0.7521232648151063
362.0,0.00966168371361133,-0.1177891424075531,-0.007277734067663258,5.274146341463415,0.5480330448465776,8.229158143194335,-0.5101298190401259,-2.840922501966955,-0.47492132179386304,258.13227773406766,32.58221872541306,-3.8015342250196698,-0.60454059306845,0.15440007295043273,-0.23641672444531867,-0.7444356681195909
363.0,0.01743921171930614,-0.10193810647783896,-0.002555543066951405,5.477647896294631,0.5406687647521637,8.098499119553406,-0.05906719493462215,-1.3092615488366863,-0.5371426698137949,258.5218542767225,33.99543385410813,-3.8149118616762205,-0.6048951709722379,0.1628697841437189,-0.24490830800532015,-0.7397037020939643
364.0,0.01625461766138399,-0.09562916338840809,0.007931512494848449,5.606093814394365,0.5649583005507475,8.012470645535949,-0.21083277134614664,-1.4346465100595704,-0.5266850249147652,259.01121726424634,34.89302573901315,-4.031526544528118,-0.6066078729574014,0.16761447253920797,-0.2509290377343674,-0.73533262360009
365.0,0.03856003896444494,-0.10558780113146754,-0.018028174290959497,5.705578284815106,0.5978571803229554,7.941538795848788,0.18752528942340113,-0.10807060432355475,-0.5557584953729722,259.47710183207823,35.59127608557192,-4.306099902588888,-0.6084088130582593,0.17092644476759958,-0.25594209014289465,-0.7314162726244802
366.0,0.03138878273575363,-0.1175453149001536,-0.03307744183432616,5.557077666629201,0.6193172979656063,8.042400846727364,0.4771280581469409,1.2948463433367052,0.5528502116818402,258.9219823629688,34.53910377093402,-4.39983374545727,-0.6065253743602337,0.16335016984586564,-0.2506128095551685,-0.7364401002158029
367.0,0.04033247161964707,-0.100519313626316,-0.02435933460717095,5.438936158255592,0.5797727323817017,8.127207504402232,0.23000777415608256,1.0987656185605634,0.7724174347158218,258.16747229871487,33.70090515061257,-4.081678281068525,-0.6030750345050577,0.15896677016290134,-0.24487456380197448,-0.7421717677632909
368.0,0.028011857929639207,-0.07847778277321943,-0.014307163463339701,5.361561013075569,0.5578779176501444,8.180827254505262,0.38826137555730394,1.4221266648870405,0.7356950844854071,257.645876126316,33.15575211447679,-3.905302466187104,-0.600582640520578,0.15590207286178862,-0.2412993580300195,-0.7460383961435502
369.0,0.01553444981454423,-0.0749153272638717,0.00011726799295642704,5.287867445955565,0.5487699973773933,8.230777415608255,0.25568777865198006,0.4370609475103967,0.1721355044771646,257.27991645123825,32.637268882769476,-3.819737926641939,-0.5990403375813943,0.15280127709021768,-0.23812142458375485,-0.7489880260428609
370.0,0.02543048218500618,-0.08707448203514292,-0.011838634745794463,5.239354838709677,0.5396910943763816,8.263235734891909,0.09993654228016932,-0.5514475853283878,0.002516063467086313,256.9253599059608,32.29942911468285,-3.7388632872503837,-0.5972849591032556,0.15067579183039226,-0.236067084238882,-0.7515144778517104
371.0,0.015978045033906565,-0.07381214641639502,0.0003761567569592712,5.250864336293132,0.5299434266232064,8.25595331759769,-0.3508228429058484,0.18197613427747183,-0.10563017496534413,256.71210098909745,32.37405867146229,-3.6744970214679107,-0.5957965972470121,0.15104809057210294,-0.23651230487505148,-0.7524645410243154
372.0,0.004826158630249901,-0.08085965306657672,-0.0027112135176651305,5.136510059570641,0.49935015548312167,8.328948334644636,0.5099003409388931,0.8197203645423551,0.7345816473717732,255.9675030909295,31.58536234123862,-3.4366780937394625,-0.5920469336943164,0.14677168901539844,-0.23121071339739985,-0.757850718828444
