time,linaccel_x,linaccel_y,linaccel_z,gravity_x,gravity_y,gravity_z,gyro_x,gyro_y,gyro_z,euler_x,euler_y,euler_z,quaternion_w,quaternion_y,quaternion_x,quaternion_z
0.0,-0.08187499999999998,-0.04093750000000001,-0.046875,0.08000000000000004,-0.5300000000000005,-9.79,0.0166015625,-0.0205078125,-0.1318359375,131.9296875,0.5,176.875,0.02673339999999997,-0.40684318453125,-0.9130973793749996,0.006958010000000002
1.0,-0.07624689054726369,-0.035436878109452744,-0.045873756218905465,0.08000000000000004,-0.5300000000000005,-9.789999999999997,-0.01623231498756219,-0.027980216106965175,0.3080447372512438,132.2141246890547,0.4645522388059701,176.83768656716416,0.02671335701492534,-0.40458084131141175,-0.914082711831468,0.007018132786069644
2.0,-0.07700624313497448,-0.03570671399496027,-0.04667316824966077,0.08000000000000004,-0.5300000000000005,-9.789999999999997,-0.015073589540124053,-0.04175342595060412,0.16069882678732958,132.270339152452,0.44909381663113,176.82329424307034,0.026724810149253694,-0.4041395548477481,-0.9142804250706298,0.0070186511940298416
3.0,-0.08501958012965477,-0.02866313319764813,-0.0460308118498417,0.07500000000000001,-0.5300000000000005,-9.79,-0.05338850845205789,-0.07990159877694859,0.10780528583408716,132.29959577114425,0.4127021144278607,176.8435789800995,0.026555441486318387,-0.403864876095616,-0.9144047799496277,0.0072950444738805915
4.0,-0.07954457862061093,-0.03238918209753373,-0.047092707821080895,0.08160341555977227,-0.5312144212523722,-9.789999999999997,0.06287652816835909,0.1714897387322165,-0.42174507042183634,132.26451028774534,0.47246496997932536,176.8227943831601,0.02680341051045767,-0.40417401101400785,-0.9142600845676567,0.006985353739733492
5.0,-0.08372361419509809,-0.0392025115556793,-0.05021887695201509,0.09458972621306579,-0.5369482244510707,-9.78948387096774,-0.005235033006834276,-0.0203759723677627,-0.6313267942834988,131.62232930861921,0.5498269550357456,176.79590179987497,0.027282787338178148,-0.4092945499408316,-0.9119483159989781,0.00669581296664094
6.0,-0.07202465509664276,-0.035013332019024616,-0.05041176932649892,0.08668765248034697,-0.5386354025481156,-9.789741935483868,-0.027707613929002683,0.009298901012017712,-0.023894655461158043,131.32771319717403,0.49825685314448365,176.77183751524802,0.027260594063889275,-0.4116421564268432,-0.9108920606304043,0.007260462668287477
7.0,-0.06822884758742204,-0.030556519381946333,-0.04968535680401192,0.07818253591759283,-0.539478991596638,-9.789870967741933,-0.002031959457169963,0.0206104720113852,-0.013260866342504743,131.30397756632894,0.46787842657224177,176.75991069310788,0.027249012515815615,-0.411915143536002,-0.91077026402488,0.00758078359220826
8.0,-0.061017145567904565,-0.029592775820005433,-0.04798027920845756,0.07408118731363511,-0.5399007861208993,-9.789935483870966,-0.0011262367850365944,0.040358159392789375,-0.01971952087286526,131.29190498780156,0.4536027717538629,176.75315973163458,0.027248482323936042,-0.41205460576497654,-0.9107079966822993,0.0077325916574952636
9.0,-0.058712097595636475,-0.029154101669993528,-0.04855176630769608,0.07175359175928435,-0.5400737327188934,-9.789967741935481,-0.022396879389585747,0.01214556020355356,0.0010398248375596605,131.2873780157224,0.444083762537273,176.75072004608293,0.027238077912442416,-0.4121107998986171,-0.9106831397500684,0.007822074237191659
10.0,-0.056489689350813624,-0.029805161434075116,-0.048983256425737434,0.07028462998102465,-0.5399999999999994,-9.79,-0.007036573335345869,0.009399393005002588,0.021286041451037893,131.3048209203036,0.4377964895635673,176.75,0.02722168000000002,-0.41198220919354794,-0.9107413521584448,0.007871194634724866
11.0,-0.05992773713908463,-0.028809870643118737,-0.049099341543747524,0.07292729898892636,-0.5399999999999994,-9.789999999999997,0.011726144638792839,0.007958426571322274,-0.01174039249773858,131.3125,0.4538697640828117,176.75,0.027255062532498812,-0.41192626999999954,-0.9107666000000008,0.00777291902744343
12.0,-0.06286961453728426,-0.028495157095752927,-0.047470537707357624,0.07662493981704385,-0.5399999999999994,-9.79,0.0024766055855254517,-0.015646542762725958,0.0873915225011307,131.3195564516129,0.4779429465575349,176.75,0.027301867395281666,-0.4117741727419354,-0.9108315731451613,0.0076598101588830035
13.0,-0.06286532836045353,-0.02768469083075488,-0.04689004552861677,0.07847376023110259,-0.5399999999999994,-9.79,-0.015587893314557375,-0.035008057361511864,0.08576113035726511,131.37806296526054,0.48997953779489645,176.75,0.02732817036265324,-0.4112754297481387,-0.9110709748504962,0.007577658305247951
14.0,-0.06489709980785023,-0.026506510788271473,-0.04838378419263338,0.07992947973604467,-0.5427324478178364,-9.789999999999997,-0.001980055851689589,0.027133822794144873,-0.10358168541075274,131.3410120329149,0.4941003002067461,176.73529411764707,0.02745513527620326,-0.41158695143004675,-0.9109331493986828,0.007571327957178057
15.0,-0.05789417371796686,-0.022545534805900446,-0.04775732734299601,0.07792489167067887,-0.5465275142314988,-9.789999999999997,-0.01199534991351083,-0.03482018537712111,-0.39073678524569894,131.18586417585024,0.46580015010337306,176.71038899430738,0.027545951243414715,-0.4128082206580972,-0.9103708594431744,0.007804893333427739
16.0,-0.06056395507955039,-0.027217285797693776,-0.04835939096482264,0.07903225806451615,-0.5442504743833012,-9.789999999999996,-0.1212498061414392,-0.01705607529922639,-0.03129991857940448,130.93798664200483,0.4511385199240987,176.72545066413662,0.02740732535874325,-0.4148109676819894,-0.9094587487728212,0.007846066650853894
17.0,-0.05801131221719455,-0.031138884834330763,-0.04666457451466938,0.0795161290322581,-0.5421252371916503,-9.79,-0.12101426799007445,-0.003897241278645453,-0.03066066997518611,130.86695829076046,0.4433111954459203,176.7377253320683,0.02724951455437164,-0.4154525047835347,-0.9091655859111086,0.007833405664136624
18.0,-0.05834719901441557,-0.03131237786400069,-0.04708225948058567,0.07829441502166593,-0.5410626185958248,-9.789999999999997,-0.04505446557534906,-0.030977406610212692,-0.11148140346653829,130.81624506145744,0.43939753320683106,176.74386266603415,0.02715547265583848,-0.4158668834190995,-0.90897586425621,0.007861728147427003
19.0,-0.05525544887226398,-0.033350065738306,-0.046399581061267875,0.07396931377269253,-0.5404459203036047,-9.79,-0.013757299566247,0.00793169152776477,0.044125421825335444,130.7915530974343,0.4375,176.7473908918406,0.027088436375357565,-0.41594560958679405,-0.9089320255199086,0.007927219276859023
20.0,-0.05914337908508835,-0.03290131370406761,-0.04872872791203811,0.07398892633606163,-0.5400616698292213,-9.79,-0.0004892996882468409,-0.022243831655472453,0.0996836786546032,130.8195342574458,0.4375,176.7497035104364,0.02707916720807725,-0.41573659182138567,-0.9090344019867096,0.007901246251332733
21.0,-0.058077382142164666,-0.03225710846493704,-0.048394250104026634,0.074262015350194,-0.5412144212523713,-9.789999999999997,0.02469012245189176,-0.012559890211037934,0.05516382699333576,130.80676665433958,0.43323055028463,176.75,0.027100548544740713,-0.4158013049666702,-0.9090086588657453,0.007916923398436767
22.0,-0.04485541140088493,-0.028277198611380422,-0.0485844625580316,0.06334188875357555,-0.5457685009487663,-9.789999999999997,0.02579030978155493,-0.004480098572057244,0.06455117505179546,130.8000040541799,0.37421939165651813,176.75,0.026994758906458007,-0.4158647834968161,-0.9089862090067773,0.008460899508558776
23.0,-0.04412727238315792,-0.027114044659565996,-0.0491790873213846,0.06131706859440936,-0.5480455407969638,-9.789999999999996,0.03746484675404179,0.008322059524756162,0.05160936220090977,130.79800696209236,0.3423064940949899,176.75,0.027000165295790385,-0.4158855460262124,-0.9089761292193251,0.00865566018037472
24.0,-0.04733907043475513,-0.02918977667221477,-0.049338923313297756,0.061370693106137686,-0.5491840607210626,-9.79,0.04028949533731866,0.0028893176035691484,0.05409252229152188,130.7784234562323,0.3576451825313659,176.75,0.02704990176203912,-0.41609937329846586,-0.908876645207678,0.008634610871825082
25.0,-0.04815726541718498,-0.023861596629318752,-0.0505787508959363,0.06269252337059411,-0.5528346880398765,-9.789999999999997,0.06810210052133145,0.018199264678650243,0.034099186413575094,130.7524313846219,0.3595369629556204,176.7302599903707,0.027224942096226272,-0.41624905983291116,-0.908805170142958,0.008651267240159955
26.0,-0.04873800487260536,-0.022491430000713887,-0.0507690182167166,0.0659711551209322,-0.5567019740009629,-9.789999999999996,0.03385145692403234,-0.008621205119080402,-0.37177584405086445,130.6014134809285,0.3766790172559363,176.70787193066923,0.027451751472686175,-0.4174341554352178,-0.9082493263968643,0.008621237666535164
27.0,-0.04972679870839842,-0.01401901440196641,-0.050553640410373565,0.06722293913966684,-0.556742692069606,-9.78800921658986,0.0635692390198262,-0.014048204870565717,0.11619440825863134,130.4740779317429,0.3914887967495721,176.69806038929775,0.027540438541556647,-0.4184485463041693,-0.9077819439005435,0.008606864028741824
28.0,-0.04988836668345155,-0.01115965507910412,-0.05315721087854807,0.055945674123103944,-0.5656109773712084,-9.783843317972341,0.040679660434323306,0.0774676095118937,0.35620316052246515,130.5615321394047,0.3270795142699645,176.6304818075521,0.027792238487780875,-0.4177571300792461,-0.9080783871697506,0.009343255367696455
29.0,-0.033851976343487925,-0.00507362406560665,-0.04994290219908271,0.04702455065884763,-0.5760570080871938,-9.78176036866358,0.04256534897143216,0.036879280715237675,0.4080735747230587,131.0600055597588,0.2804460217446129,176.57570139933472,0.02808147352173415,-0.41378637288886966,-0.9098717838491972,0.00980435656959642
30.0,-0.03220289855072464,-0.00024029920523609138,-0.049426434248313625,0.04496320042743604,-0.583577372604021,-9.780718894009201,0.04927118813864957,-0.013854104053963808,-0.5580002337540906,131.21038786482336,0.2592399652708208,176.53443531690374,0.02831940020450143,-0.41257133454230954,-0.9104129709913842,0.010038458134375216
31.0,-0.03131719055083464,0.002806451612903226,-0.04909198125252906,0.03919873026349388,-0.5872725572697528,-9.780198156682012,0.03173673396427295,-0.00399996955303861,-0.16012327090724085,130.80221683343746,0.23330710966013332,176.51419346490349,0.02830361559560935,-0.41580572574336555,-0.90893574594615,0.010424885508350329
32.0,-0.02826919435375833,0.0039638426090039,-0.052002920792872116,0.0339864619059405,-0.5891754491417891,-9.779999999999983,0.03325803376696455,-0.006660344578008138,0.040983649906181044,130.7208487570236,0.20691853178859201,176.5040293361384,0.02822897745218254,-0.41649949545268217,-0.9086231620466311,0.01073966683233894
33.0,-0.020802765551595444,0.004666906516689858,-0.05083456446136487,0.030901615298523602,-0.5898503973819547,-9.779999999999983,0.037029534456905475,0.009426894909565296,-0.009542909210194437,130.68979624040048,0.185378586342745,176.50090579710144,0.028165840856361576,-0.41672454856532587,-0.9085271526604295,0.010921983060264661
34.0,-0.017839437941763125,0.0026462587324407255,-0.05101611771030332,0.02514692733135624,-0.5900000000000005,-9.779999999999985,0.049079442735274106,0.009170712956928935,0.017336901041126597,130.6696263810698,0.1533630893378054,176.5,0.028082533026888755,-0.416911664659432,-0.9084482161223866,0.011098838646669367
35.0,-0.018123721997224507,0.0025704985112784823,-0.05206487156579201,0.026507193633351286,-0.5900000000000005,-9.779999999999985,0.026988307927923182,0.039281475537546934,-0.08981859294872618,130.65791097924114,0.16329406100427651,176.5,0.028111675996661943,-0.4170238435003605,-0.908399015998397,0.011032818992741115
36.0,-0.01794555083818445,0.0028468328333518507,-0.05277184122249119,0.0333413577274916,-0.5900000000000005,-9.779999999999985,0.009850476918363292,0.05231343844728534,-0.04775604551122124,130.56352410629012,0.20724000962927297,176.5,0.028248337156300624,-0.41779572304316187,-0.9080294241093998,0.010761511272936024
37.0,-0.02210180767715675,0.0008626223720109131,-0.05332512656658058,0.036831969186326446,-0.5900000000000005,-9.779999999999985,0.003327843918238718,0.004638418975503714,-0.008299548810201191,130.4973948074875,0.22962806933076552,176.5,0.02831878132008581,-0.4183346831121513,-0.907768496211028,0.010622041470214911
38.0,-0.026777691735322948,-0.00044217498117353655,-0.054285317996078705,0.03860375541646607,-0.5900000000000005,-9.779999999999985,0.017890404311624822,-0.03786448741236295,0.015852031083585006,130.46388156358967,0.24115310544053925,176.5,0.028354605840591785,-0.4186091411660897,-0.9076356307222697,0.010550803818882133
39.0,-0.029901252815552296,-7.205372864978055e-05,-0.05442828197721071,0.04002148068590053,-0.5900000000000004,-9.779999999999985,0.003501183808568258,0.025099027442025156,0.0020468140980749302,130.44682653448302,0.2475926817525277,176.5,0.0283773662728788,-0.41874757325411,-0.9075685608230122,0.010500303614606868
40.0,-0.03028757801338448,1.2500939920294271e-06,-0.05224419599217986,0.04129333032558841,-0.5900000000000005,-9.779999999999985,0.016308028329197685,-0.02222802818820964,0.05127708732799459,130.438446969697,0.25,176.5,0.028389727800436144,-0.418815454012707,-0.9075356777321616,0.010415623587187001
41.0,-0.032716538837506595,0.0025696527934431163,-0.05019488542371604,0.04064666516279421,-0.5900000000000005,-9.779999999999985,-0.00017579446762914543,-0.010648518568125421,0.039022773681291825,130.4375,0.25,176.5,0.028385538900218086,-0.41882323999999926,-0.9075317400000014,0.0104170939846605
42.0,-0.03235716971200843,0.002472967892322731,-0.05066004962779154,0.040323332581397114,-0.5900000000000005,-9.779999999999985,0.018027671253477703,-0.021753515301902396,0.05750902323482969,130.45411779081135,0.25,176.5,0.028383444450109055,-0.418673844887585,-0.9076100174584567,0.010426067476201216
43.0,-0.03163290472967893,0.0016523046845627488,-0.050873749906007945,0.04016166629069857,-0.5900000000000005,-9.779999999999985,0.008975298894653731,-0.01745619971426423,0.030593465674110837,130.47806695992182,0.25,176.5,0.02838239722505454,-0.41849652695992134,-0.9076968864711643,0.010430554221971575
44.0,-0.030050943679975954,0.0006598992405444018,-0.05342943078426948,0.04006842619745847,-0.5900000000000005,-9.779999999999985,0.0026110985788405138,0.015093240093240092,0.019988110008271297,130.49004154447704,0.25,176.5,0.028381767605083114,-0.4184078679960894,-0.907740320977518,0.010433176225129709
45.0,-0.031052842318971367,0.0008833370930145124,-0.05441202346041055,0.04000000000000002,-0.5900000000000005,-9.779999999999985,-0.02942561470787277,0.01554839649597714,0.03137183716820814,130.49602883675465,0.25,176.5,0.028381350000000024,-0.4183635385141735,-0.9077620382306948,0.01043649510669975
46.0,-0.02883426160983938,-0.0017971744593073436,-0.05300364885475621,0.04346653827636012,-0.5900000000000005,-9.779999999999985,0.03610452348566215,0.07079941027717267,0.17703897032292856,130.62131424986504,0.25,176.5,0.028424606311988475,-0.4173323678608422,-0.9082524787157326,0.010369305965334611
47.0,-0.027667375184196333,-0.0032812851768677484,-0.05296810008720215,0.046894559460760675,-0.5900000000000005,-9.779999999999985,-0.028944927895487596,0.04913076574464694,0.08095900129049655,130.72243620606645,0.25,176.5,0.028465982026961996,-0.4165073705922002,-0.9086457096389025,0.010308654756860849
48.0,-0.02459615093520668,-0.0033732916597926225,-0.051855506544089824,0.045011307100859335,-0.5900000000000005,-9.779999999999985,-0.018886564632005772,0.02041093516948867,0.10834057102647994,130.77250842561386,0.25,176.5,0.028486669884448763,-0.4160761247486904,-0.9088408335291287,0.010278329152623965
49.0,-0.024289522920240315,-0.003565886101273679,-0.05083198714301265,0.04250565355042968,-0.5900000000000005,-9.779999999999985,-0.0175728026053014,-0.00031070545032990844,0.07399780447445348,130.79754453538757,0.25,176.5,0.02849701381319214,-0.4158509565678934,-0.9089383954742417,0.010263166350505525
50.0,-0.02534071716546441,-0.0027247229847133553,-0.05125603653287813,0.04125282677521484,-0.5900000000000005,-9.779999999999985,0.004677683360880281,-0.017223702045560493,0.02280452054765969,130.81006259027444,0.25,176.5,0.028502185777563832,-0.4157383724774949,-0.9089871764467983,0.010255584949446304
51.0,-0.029070788196450224,-0.0020890012464398595,-0.052509652279994115,0.040518084066471186,-0.5900000000000005,-9.779999999999985,0.03946871649989127,-0.016041899909858503,-0.0373255646215444,130.8125,0.25,176.5,0.028503420000000036,-0.41571361186705735,-0.90899658,0.010253909999999988
52.0,-0.040771953238010056,-0.001127589577276626,-0.053554435133154436,0.04799608993157383,-0.5900000000000005,-9.779999999999985,0.07054997408572275,0.060481616027475434,-0.051211047217908076,130.80419110459434,0.29643206256109483,176.5,0.028675724907135894,-0.41583418917888537,-0.9089283261583571,0.010001890918866073
53.0,-0.046700737127313915,0.0031654329728475145,-0.05395463692141592,0.05427174975562076,-0.5900000000000005,-9.779999999999985,0.04176631157854075,0.023046893057725986,-0.009644502103577694,130.80834555229717,0.3377321603128055,176.5,0.0288415879374389,-0.415866524525904,-0.9088994492082101,0.009749872072336263
54.0,-0.04965477204547977,0.004464180900146236,-0.05133215717038538,0.0574584555229717,-0.5900000000000005,-9.779999999999985,0.10228836572270611,0.009307304695785676,0.021771450945138958,130.8028622922776,0.3583822091886608,176.5,0.02898653719452592,-0.4159144950048872,-0.9088795967815236,0.009620909584555231
55.0,-0.05270777878035942,0.005076227535904955,-0.050871794871794856,0.05905180840664716,-0.5900000000000005,-9.779999999999985,0.012141067937438903,0.05943245262801714,0.03574493382961125,130.8076811461388,0.36870723362658847,176.5,0.029091497306940398,-0.41593848024437874,-0.9088750845197934,0.009559381405180844
56.0,-0.052279447702834776,0.006837121212121214,-0.052392473118279555,0.06412267839687195,-0.5900000000000005,-9.779999999999985,0.063832630742913,0.04299166055718475,0.10492271505376344,130.85192525048876,0.37386974584555227,176.5,0.029181881234115338,-0.41551732092864124,-0.9090682391953804,0.009438542638074289
57.0,-0.051509864463493475,0.0070760536506504264,-0.051678754041657254,0.06729838709677419,-0.5900000000000005,-9.779999999999985,0.02888483744078502,0.027778962468982628,0.04752936076020753,130.89698840725805,0.375,176.5,0.029215289314516103,-0.415043002419355,-0.9092865580141121,0.009381570302419349
58.0,-0.04945757904729678,0.008187436555380106,-0.050850355289871405,0.06881048387096772,-0.5900000000000004,-9.779999999999985,0.0033257464142040748,0.017096254300135345,0.05942784114407098,130.91926033266128,0.375,176.5,0.029229502399193516,-0.41480673814516145,-0.9093955533618944,0.00935702192540322
59.0,-0.05071768554026618,0.008697594743965715,-0.050758144409354077,0.0695665322580645,-0.5900000000000005,-9.779999999999985,-0.008204417390405293,0.009604399296939618,-0.006327249699225504,130.93063256048387,0.375,176.5,0.029234670887096734,-0.4146876214919357,-0.9094502202217734,0.009344840020161282
60.0,-0.05036004586811037,0.008945684355966618,-0.05021293189337544,0.06994455645161289,-0.5900000000000005,-9.779999999999985,-0.0033918639324385293,-0.008307573642755094,-0.022289592967516352,130.9360824092742,0.375,176.5,0.02923623995967738,-0.41462806316532286,-0.909477384465725,0.009338656784274185
61.0,-0.04895018422437776,0.009016692984434924,-0.05125313933378449,0.06999999999999998,-0.5900000000000005,-9.779999999999985,-0.0005146063613805552,-0.00809153883750658,-0.011806338822467854,130.9375,0.375,176.5,0.02923583999999996,-0.41461182000000024,-0.9094848599999992,0.00933837999999999
62.0,-0.049540886532822,0.009633694262726526,-0.0506091999398451,0.06999999999999998,-0.5900000000000005,-9.779999999999985,0.020805840664711632,0.009864580983532597,0.008945691405368824,130.9375,0.375,176.5,0.029235839999999957,-0.41461182000000024,-0.9094848599999992,0.00933837999999999
63.0,-0.04956821001579065,0.008861512143770211,-0.05183437664486051,0.06999999999999998,-0.5900000000000005,-9.779999999999985,0.006207821076772689,-0.004233342262576133,-0.005731868937514098,130.9375,0.375,176.5,0.02923583999999996,-0.41461182000000024,-0.9094848599999992,0.00933837999999999
64.0,-0.05014334254455221,0.007959592826528313,-0.05208043367922399,0.06999999999999998,-0.5900000000000005,-9.779999999999985,-0.008397189168358524,-0.002147218540867734,-0.011052640236107978,130.9375,0.375,176.5,0.029235839999999957,-0.41461182000000024,-0.9094848599999992,0.00933837999999999
65.0,-0.05071435117302051,0.0077043621700879795,-0.05225485703812316,0.06999999999999998,-0.5900000000000005,-9.779999999999985,-0.0036790536412512217,0.0038193808040078198,-0.0044484665200391,130.9375,0.375,176.5,0.02923583999999996,-0.41461182000000024,-0.9094848599999992,0.00933837999999999
66.0,-0.0498391467403564,0.008232066320776003,-0.05108962609970674,0.06999999999999998,-0.5900000000000005,-9.779999999999985,0.011961748768704414,0.004997614952252049,-0.005264904786074141,130.9375,0.375,176.5,0.02923583999999996,-0.41461182000000024,-0.9094848599999992,0.00933837999999999
67.0,-0.04967891617790811,0.006175624107075723,-0.0519740934468757,0.06999999999999998,-0.5900000000000004,-9.779999999999985,0.012271995897247914,0.0035447037841191066,0.00435350519775923,130.9375,0.375,176.5,0.02923583999999996,-0.41461182000000024,-0.9094848599999992,0.00933837999999999
68.0,-0.05000830889540567,0.006424505601924959,-0.05327787333634107,0.06999999999999998,-0.5900000000000004,-9.779999999999985,-0.000778694591698624,0.011128450682382133,0.013548980421460261,130.9375,0.375,176.5,0.02923583999999996,-0.41461182000000024,-0.9094848599999992,0.00933837999999999
69.0,-0.04999193548387095,0.005599838333709304,-0.05387011946386945,0.06999999999999998,-0.5900000000000005,-9.779999999999985,-0.0034440882538160763,0.005075466787916384,0.019772412986878714,130.9375,0.375,176.5,0.029235839999999957,-0.41461182000000024,-0.9094848599999992,0.00933837999999999
70.0,-0.050056451612903216,0.005501532070080459,-0.05351016053838633,0.06999999999999998,-0.5900000000000005,-9.779999999999985,-0.0012337628769080382,0.0029000065794420635,0.010878520001503873,130.9375,0.375,176.5,0.02923583999999996,-0.41461182000000024,-0.9094848599999992,0.00933837999999999
71.0,-0.04996856134957964,0.005767728369768574,-0.05383500323500924,0.06999999999999998,-0.5900000000000005,-9.779999999999985,-0.01693942504794996,0.006171587675484521,0.0021620665634718354,130.9375,0.375,176.5,0.029235839999999957,-0.4146118200000003,-0.9094848599999992,0.00933837999999999
72.0,-0.05095946677900818,0.006040191728308606,-0.05259864305671058,0.06999999999999998,-0.5900000000000005,-9.779999999999985,-0.0177594147572256,0.004551364557345238,0.009920983653944353,130.9375,0.375,176.5,0.02923583999999996,-0.41461182000000024,-0.9094848599999992,0.00933837999999999
73.0,-0.04991886180141477,0.0057702897227150975,-0.05059100111892602,0.06999999999999998,-0.5900000000000005,-9.779999999999985,-0.009651749096975084,0.009932610783635398,0.012058138384044136,130.9375,0.375,176.5,0.02923583999999996,-0.41461182000000024,-0.9094848599999992,0.00933837999999999
74.0,-0.049177417215467895,0.005700394128219719,-0.052570671624956655,0.06999999999999998,-0.5900000000000005,-9.779999999999985,0.011410073643105811,0.00840288896953031,0.015895882486254717,130.9375,0.375,176.5,0.029235839999999957,-0.41461182000000024,-0.9094848599999992,0.00933837999999999
75.0,-0.051037801349669426,0.004858765612496957,-0.05204138419957509,0.06999999999999998,-0.5900000000000005,-9.779999999999985,0.01728202774897226,0.017290532186378056,-0.0006521091600984463,130.9375,0.375,176.5,0.02923583999999996,-0.41461182000000024,-0.9094848599999992,0.00933837999999999
76.0,-0.05179177945710202,0.005903883750657946,-0.05151152577261447,0.06999999999999998,-0.5900000000000005,-9.779999999999985,0.023529582816377174,-0.002423305441198587,0.003749488918339725,130.9375,0.375,176.5,0.02923583999999996,-0.41461182000000024,-0.9094848599999992,0.00933837999999999
77.0,-0.04919815399654108,0.006821358748778105,-0.04938320550417324,0.06999999999999998,-0.5900000000000004,-9.779999999999985,0.019988756203473946,-0.006221684901120386,0.009531672964132641,130.9375,0.375,176.5,0.02923583999999996,-0.41461182000000024,-0.9094848599999992,0.00933837999999999
78.0,-0.048599828934506345,0.0066840081961049725,-0.05025886344837956,0.06999999999999998,-0.5900000000000005,-9.779999999999985,-0.004148602573501766,-0.01411166958041958,0.01137582595495902,130.9375,0.375,176.5,0.029235839999999957,-0.41461182000000024,-0.9094848599999992,0.00933837999999999
79.0,-0.046551121773828794,0.007180327145571491,-0.051057562332147054,0.0700770341839191,-0.5900000000000005,-9.779999999999985,0.005125084847096012,-0.020162269260089134,-0.45346769279133037,130.8758726528647,0.381259027443428,176.5,0.02924759526239766,-0.41513230785748684,-0.9092455392103991,0.009315810909966296
80.0,-0.05284407872660159,0.0031336325366176122,-0.052615016503316916,0.07347937730701336,-0.5900000000000005,-9.779999999999985,0.014419233069931193,-0.09455713200296734,-0.016299901350455004,130.46044976729257,0.4054999927050962,176.5,0.029285152313505758,-0.41845088222786353,-0.9077118228701067,0.009236885171503183
81.0,-0.04991868763558699,0.0032269399674310605,-0.05252268546731713,0.07166265446958756,-0.5900000000000005,-9.779999999999985,-0.0139430722543385,-0.07678812120314286,0.2324578045930959,130.43994744021828,0.3902499963525481,176.5,0.029232753373893007,-0.4185799215520638,-0.9076598637845958,0.009327596456719328
82.0,-0.04790001604878831,0.001958608715951037,-0.0513817277250113,0.06567003691221315,-0.5900000000000005,-9.779999999999985,-0.015039811937380545,-0.031885112560365324,0.1868507535635605,130.5851069068149,0.38262499817627404,176.5,0.02920279217081749,-0.4175294736694827,-0.9081423148150747,0.009421287035788796
83.0,-0.04804336090806961,0.0025164500080243945,-0.051377569629856575,0.06267372813352595,-0.5900000000000005,-9.779999999999985,0.002698202535708554,-0.012673983455158223,0.10298671598021623,130.66452925985908,0.378812499088137,176.5,0.029187811569279735,-0.4169527010282899,-0.9084040648268928,0.009474336743700853
84.0,-0.04773737616900832,0.00032900016048788316,-0.05065748967771115,0.061173166425934886,-0.5900000000000005,-9.779999999999985,-0.006452114427860697,-0.0018984987088020294,0.0814569473016151,130.70616629097913,0.3767106549364614,176.5,0.029179953916560926,-0.41664804946214706,-0.9085424186074769,0.009501566881720434
85.0,-0.04778608788900074,0.0013497395719350466,-0.05229599801578615,0.060317766008666396,-0.5900000000000005,-9.779999999999985,0.001768444252345311,0.006076654848922542,0.030739470718256227,130.7390038444143,0.375,176.5,0.02917503510832936,-0.41640015085277454,-0.9086557847460655,0.00951729573802542
86.0,-0.047827120460184974,0.0012547371982855858,-0.05174471764794343,0.06000000000000005,-0.5900000000000005,-9.779999999999985,-0.00988320315437251,9.399202947589502e-07,0.009335699582675386,130.74957233626589,0.375,176.5,0.02917480000000004,-0.41632402179374417,-0.9086901272189649,0.009521092223851422
87.0,-0.04882073370178208,0.000692110309045793,-0.05134634183021278,0.06000000000000005,-0.5900000000000005,-9.779999999999985,-0.017600448107000528,-0.0160789815023686,0.009897331331303105,130.75,0.375,176.5,0.02917480000000004,-0.4163208000000003,-0.9086914100000011,0.009521480000000006
88.0,-0.04826667183622829,0.0003729368749530041,-0.05166779457102035,0.06000000000000005,-0.5900000000000005,-9.779999999999985,-0.025234730407361454,-0.001288513234077751,0.004154433016580195,130.75,0.375,176.5,0.02917480000000004,-0.4163208000000003,-0.9086914100000012,0.009521480000000004
89.0,-0.046476426799007445,0.0005292879163846906,-0.052501391082036226,0.06000000000000005,-0.5900000000000005,-9.779999999999985,-0.012381100082712985,0.0007185690653432586,-0.01181056846379427,130.75,0.375,176.5,0.02917480000000004,-0.4163208000000003,-0.9086914100000011,0.009521480000000006
90.0,-0.04654710880517332,0.0004625911722685917,-0.0514999624031882,0.06000000000000005,-0.5900000000000005,-9.779999999999985,-0.01760000751936236,-0.0031994886833596513,-0.0038433340852695695,130.75,0.375,176.5,0.02917480000000004,-0.4163208000000003,-0.9086914100000012,0.009521480000000004
91.0,-0.046669788992369635,-0.001017434178724501,-0.051221681544262175,0.06000000000000005,-0.5900000000000005,-9.779999999999985,-0.01663582832937672,0.0021085545279093663,-0.02552170052170052,130.75,0.375,176.5,0.02917480000000004,-0.4163208000000003,-0.9086914100000011,0.009521480000000006
92.0,-0.046989981344820055,-0.0009876252779478585,-0.05099297476716831,0.06000000000000005,-0.5900000000000005,-9.779999999999985,-0.01982535833342285,-0.006886169386169387,-0.008526979293108326,130.75,0.375,176.5,0.02917480000000004,-0.4163208000000003,-0.9086914100000011,0.009521480000000006
93.0,-0.04743682840457033,-0.0008872632743600485,-0.05155953723695658,0.06000000000000005,-0.5900000000000005,-9.779999999999985,-0.021138852187239286,-0.00219064090031832,0.0016168866975318583,130.75,0.375,176.5,0.02917480000000004,-0.4163208000000003,-0.9086914100000012,0.009521480000000004
94.0,-0.04762976092008349,-0.00021895308992083185,-0.05236988817633978,0.06000000000000005,-0.5900000000000005,-9.779999999999985,-0.006170599114147503,0.0013019462616236806,0.01637869299159622,130.75,0.375,176.5,0.02917480000000004,-0.4163208000000003,-0.9086914100000012,0.009521480000000004
95.0,-0.046991811056327173,3.959481378836226e-05,-0.05336480723577496,0.06000000000000005,-0.5900000000000005,-9.779999999999985,-0.005177797113280985,-0.0021746622553074167,0.025723559594527337,130.75,0.375,176.5,0.02917480000000004,-0.4163208000000003,-0.9086914100000012,0.009521480000000004
96.0,-0.048385818482592664,-0.0013127678772840063,-0.0536025265057523,0.06000000000000005,-0.5900000000000005,-9.779999999999985,-0.01795788217159185,-0.006239660876757651,-0.006563463418302128,130.75,0.375,176.5,0.02917480000000004,-0.4163208000000003,-0.9086914100000011,0.009521480000000006
97.0,-0.046810850439882694,-0.0009543010752688173,-0.052023460410557165,0.06000000000000005,-0.5900000000000005,-9.779999999999985,0.01240988514173998,-0.0013899071358748779,0.005865102639296188,130.75,0.375,176.5,0.02917480000000004,-0.4163208000000003,-0.9086914100000012,0.009521480000000004
98.0,-0.047169166854650724,-0.0012589762388149487,-0.05256560643657415,0.06000000000000005,-0.5900000000000005,-9.779999999999985,0.0035938439920294753,0.007695949883449884,0.02557805098127679,130.75,0.375,176.5,0.02917480000000004,-0.4163208000000003,-0.9086914100000011,0.009521480000000006
99.0,-0.04862124031882095,-0.0008679220494639369,-0.05007597081140652,0.06000000000000005,-0.5900000000000005,-9.779999999999985,0.000696531353917307,0.007141851964237015,-0.00020251424470249697,130.75,0.375,176.5,0.02917480000000004,-0.4163208000000004,-0.9086914100000012,0.009521480000000004
100.0,-0.04783701312128731,-0.0007614292554260055,-0.04867923662759964,0.06000000000000005,-0.5900000000000005,-9.779999999999985,0.010505279362198144,0.018783535952792994,0.004893244343924412,130.75,0.375,176.5,0.02917480000000004,-0.4163208000000003,-0.9086914100000011,0.009521480000000006
101.0,-0.04806333182946086,-2.5066411681722207e-05,-0.04888812760021234,0.06000000000000005,-0.5900000000000005,-9.779999999999985,0.016493609103142085,0.032032171507677044,-0.01451864542334571,130.75,0.375,176.5,0.02917480000000004,-0.4163208000000003,-0.9086914100000012,0.009521480000000004
102.0,-0.04839278329197683,-0.0012732294987952192,-0.05046899048632317,0.06000000000000005,-0.5900000000000005,-9.779999999999985,0.0026272560892806433,0.014481430892570757,-0.0015941881150866458,130.75,0.375,176.5,0.02917480000000004,-0.4163208000000003,-0.9086914100000011,0.009521480000000006
103.0,-0.047703835814722914,-0.0011763169826482299,-0.05203970616127572,0.06000000000000005,-0.5900000000000005,-9.779999999999985,0.01854377692801501,0.025122229093928056,0.0020177322451862055,130.75,0.375,176.5,0.02917480000000004,-0.4163208000000003,-0.9086914100000011,0.009521480000000006
104.0,-0.048697849539523226,-0.001428312559691953,-0.05174927050962197,0.06000000000000005,-0.5900000000000005,-9.779999999999985,-0.008030711439699766,-0.0039139697091746355,0.06013862057613186,130.75,0.375,176.5,0.02917480000000004,-0.41631468818488226,-0.9086975218151189,0.009521480000000004
105.0,-0.04907422718911644,-0.001349236925007267,-0.05228592557739163,0.06000000000000005,-0.5900000000000005,-9.779999999999985,0.029943817667246887,-0.016542418322329253,-0.0018579830587082645,130.75,0.375,176.5,0.02917480000000004,-0.41628624473760234,-0.9087259652623985,0.009521480000000006
106.0,-0.048331448372282496,-0.0009154961853264695,-0.0534662072701011,0.06000000000000005,-0.5900000000000005,-9.779999999999985,0.008858323534313543,0.0020998643568756713,-0.003267920053886892,130.75,0.375,176.5,0.02917480000000004,-0.4162720230139625,-0.9087401869860381,0.009521480000000004
107.0,-0.04838160507944149,-0.0007406265045739047,-0.0541202004092441,0.06000000000000005,-0.5900000000000005,-9.779999999999985,0.02474553893837265,-0.013520477250842561,-0.010388612632402504,130.75,0.375,176.5,0.02917480000000004,-0.41626491215214245,-0.9087472978478581,0.009521480000000006
108.0,-0.047015360542202136,0.000361968075256472,-0.05359022582496943,0.06000000000000005,-0.5900000000000005,-9.779999999999985,0.011837235194992777,0.011531285878300806,0.0006507716149401878,130.75,0.375,176.5,0.02917480000000004,-0.41626135672123254,-0.908750853278768,0.009521480000000006
109.0,-0.04601005111482964,0.0023971028570210088,-0.05435409220954778,0.06000000000000005,-0.5900000000000005,-9.779999999999985,0.014280401055572576,0.013608576365858504,-0.003953987122600958,130.75,0.375,176.5,0.02917480000000004,-0.4162597699999999,-0.9087524400000004,0.009521480000000004
110.0,-0.04563297220753889,0.0029656109818603804,-0.05499276415688306,0.06000000000000005,-0.5900000000000005,-9.779999999999985,-0.002863870501990386,-0.00565790939771591,0.0019929874405605627,130.75,0.375,176.5,0.02917480000000004,-0.4162597699999999,-0.9087524400000004,0.009521480000000006
111.0,-0.04444061113617566,0.0027604989096924586,-0.054885700992555825,0.06000000000000005,-0.5900000000000005,-9.779999999999985,-0.011176944695089857,0.011217052856417777,0.004560713563989774,130.75,0.375,176.5,0.02917480000000004,-0.4162597699999999,-0.9087524400000004,0.009521480000000006
112.0,-0.045339799984961265,0.002343183698022408,-0.05276426799007443,0.06000000000000005,-0.5900000000000004,-9.779999999999985,-0.004233401007594556,0.017479697721633207,-0.010851379802992707,130.75,0.375,176.5,0.02917480000000004,-0.4162597699999999,-0.9087524400000004,0.009521480000000006
113.0,-0.04703556658395369,0.000680051131664035,-0.05117610346642604,0.06000000000000005,-0.5900000000000005,-9.779999999999985,-0.015801939995488384,0.011571828708925484,0.0036746183923603275,130.75,0.375,176.5,0.02917480000000004,-0.4162597699999999,-0.9087524400000004,0.009521480000000006
114.0,-0.04690243627340401,0.00019095420708323938,-0.05324934205579365,0.06000000000000005,-0.5900000000000005,-9.779999999999985,-0.005121155725994436,0.011605195879389428,0.003929806752387397,130.75,0.375,176.5,0.02917480000000004,-0.4162597699999999,-0.9087524400000004,0.009521480000000006
115.0,-0.0465405481615159,0.0002790999323257387,-0.0534410481991127,0.06000000000000005,-0.5900000000000005,-9.779999999999985,-0.006251644860515828,0.013153714565004887,0.019241578314158958,130.75,0.375,176.5,0.02917480000000004,-0.4162597699999999,-0.9087524400000004,0.009521480000000006
116.0,-0.04714442688991317,-5.422063492597912e-05,-0.05472496837939783,0.06000000000000005,-0.5900000000000005,-9.779999999999985,-0.002815648732987443,0.009015887318427038,0.019141501352924077,130.75,0.375,176.5,0.02917480000000004,-0.4162597699999999,-0.9087524400000004,0.009521480000000004
117.0,-0.045852610467289084,-0.001247953989919565,-0.053858762105331665,0.06000000000000005,-0.5900000000000005,-9.779999999999985,0.010440810869238289,-0.006766870236568119,0.014455986408471962,130.75,0.375,176.5,0.02917480000000004,-0.4162597699999999,-0.9087524400000004,0.009521480000000006
118.0,-0.04646247336658687,-0.0012349251865531354,-0.0537329001142494,0.06000000000000005,-0.5900000000000005,-9.779999999999985,0.011024413254755996,0.004329785800582021,0.013780412559074692,130.75,0.375,176.5,0.02917480000000004,-0.4162597699999999,-0.9087524400000004,0.009521480000000004
119.0,-0.046751902005874084,-0.00045365210940559984,-0.05307108715389888,0.06000000000000005,-0.5900000000000005,-9.779999999999985,0.0003773779983457402,0.00550410660996843,-0.013838120333365879,130.75,0.375,176.5,0.02917480000000004,-0.4162597699999999,-0.9087524400000004,0.009521480000000006
120.0,-0.047167514278371285,0.0003215610420713938,-0.0532228884901008,0.06000000000000005,-0.5900000000000005,-9.779999999999985,0.0013053143093465672,0.0035274875481603935,-0.0020028070649459667,130.75,0.375,176.5,0.02917480000000004,-0.4162597699999999,-0.9087524400000004,0.009521480000000006
121.0,-0.0468753759681179,0.0005626174900368449,-0.05413549890969244,0.06000000000000005,-0.5900000000000004,-9.779999999999985,-0.007784067411083541,0.0026660251710654936,0.006638128336717047,130.75,0.375,176.5,0.02917480000000004,-0.4162597699999999,-0.9087524400000004,0.009521480000000006
122.0,-0.04725406515527484,-0.0003961106098202871,-0.05408511918189336,0.06000000000000005,-0.5900000000000004,-9.779999999999985,-0.0027754083953680734,0.0056444269775923,0.0016906522576885484,130.75,0.375,176.5,0.02917480000000004,-0.4162597699999999,-0.9087524400000004,0.009521480000000006
123.0,-0.048047853692006925,-0.0015079282276862914,-0.05300297014813142,0.06000000000000005,-0.5900000000000005,-9.779999999999985,-0.01963978142153545,0.001111558552334762,-0.009143676803707045,130.75,0.375,176.5,0.02917480000000004,-0.4162597699999999,-0.9087524400000004,0.009521480000000006
124.0,-0.04708669824798857,-0.00028257763741634676,-0.05249342055793667,0.06000000000000005,-0.5900000000000005,-9.779999999999985,0.024084517632904735,0.0009418001353485226,0.012947402060305289,130.75,0.375,176.5,0.02917480000000004,-0.4162597699999999,-0.9087524400000004,0.009521480000000006
125.0,-0.04748823219790962,-0.0008624708624708621,-0.053694563501015105,0.06000000000000005,-0.5900000000000005,-9.779999999999985,0.012011241446725319,0.0038611925708699904,0.0063031054966538845,130.75,0.375,176.5,0.02917480000000004,-0.4162597699999999,-0.9087524400000004,0.009521480000000004
126.0,-0.04855677118580344,-0.002298481088803669,-0.05442668621700879,0.06000000000000005,-0.5900000000000005,-9.779999999999985,0.011813623204752238,-0.00011655011655011655,0.06691551056470411,130.75,0.375,176.5,0.02917480000000004,-0.4162509098387097,-0.908754901290323,0.009521480000000006
127.0,-0.04673744266486202,-0.0015961162493420555,-0.05332184750733138,0.06000000000000005,-0.5900000000000005,-9.779999999999985,0.02736566189187157,-0.01973268666817054,-0.07255632472366344,130.75,0.375,176.5,0.02917480000000004,-0.4161608315322584,-0.9087851751612901,0.009521480000000004
128.0,-0.04777199820320908,-0.0019890605903485057,-0.054710521804467394,0.06000000000000005,-0.5900000000000005,-9.779999999999985,0.010877712476698394,-0.014153695065165936,-0.04415757030744092,130.75,0.375,176.5,0.02917480000000004,-0.41611579237903273,-0.9088003120967737,0.009521480000000004
129.0,-0.04791577577654249,-0.0018034632976556427,-0.054228710033747345,0.06000000000000005,-0.5900000000000005,-9.779999999999985,-0.0035561809824944755,-0.000640743314220686,-0.008214020885730386,130.75,0.375,176.5,0.02917480000000004,-0.4160932728024199,-0.9088078805645154,0.009521480000000006
130.0,-0.04837582751564756,-0.002112284456636286,-0.053807939878489336,0.06000000000000005,-0.5900000000000005,-9.779999999999985,0.008332646148136488,-0.023056079116878948,-0.008921646937809825,130.75,0.375,176.5,0.02917480000000004,-0.4160820130141135,-0.9088116647983864,0.009521480000000004
131.0,-0.04822773230621087,-0.0018852752928342716,-0.054159514294083375,0.06000000000000005,-0.5900000000000005,-9.779999999999985,-0.0040714541436736905,-0.01398519681650399,-0.0014208789124532982,130.75,0.375,176.5,0.02917480000000004,-0.41607666000000065,-0.9088134799999993,0.009521480000000006
132.0,-0.048334296260632306,-0.0019445926806302342,-0.0546237454168364,0.06000000000000005,-0.5900000000000005,-9.779999999999985,0.00022478123705856057,-0.007359167323208007,-0.00619369947577699,130.75,0.375,176.5,0.02917480000000004,-0.41607666000000065,-0.9088134799999993,0.009521480000000004
133.0,-0.0474146204461563,-0.0007026766965982179,-0.05444957131217361,0.06000000000000005,-0.5900000000000005,-9.779999999999985,-0.008930098548538604,-0.008358808505128316,4.770972287221689e-05,130.75,0.375,176.5,0.02917480000000004,-0.41607666000000065,-0.9088134799999993,0.009521480000000004
134.0,-0.048900858610174916,-0.0010523309041303745,-0.052891038757823784,0.06000000000000005,-0.5900000000000005,-9.779999999999985,-0.009761265155162603,-0.011941501026757707,0.01721523203265199,130.75,0.375,176.5,0.02917480000000004,-0.41607666000000065,-0.9088134799999993,0.009521480000000006
135.0,-0.047201848163872705,-0.0002530442545337829,-0.05373619211493849,0.06000000000000005,-0.5900000000000005,-9.779999999999985,0.004089819414656921,-0.025302701462445835,-0.01763488847003983,130.75,0.375,176.5,0.02917480000000004,-0.41607666000000065,-0.9088134799999993,0.009521480000000004
136.0,-0.04714534001546519,-0.0006462099327409872,-0.05312443464495701,0.06000000000000005,-0.5900000000000005,-9.779999999999985,0.002785684389635401,-0.016971422670372476,0.013996697688244991,130.75,0.375,176.5,0.02917480000000004,-0.41607666000000065,-0.9088134799999993,0.009521480000000004
137.0,-0.04798327825680977,-0.0009846433156796663,-0.05394666604659982,0.06000000000000005,-0.5900000000000005,-9.779999999999985,-0.009772463972293956,-0.03252834640032973,0.011606448375789672,130.75,0.375,176.5,0.02917480000000004,-0.41607666000000065,-0.9088134799999993,0.009521480000000004
138.0,-0.049288942931967714,-0.002515672644840314,-0.055290617568316755,0.06000000000000005,-0.5900000000000005,-9.779999999999985,-0.0015761693958725436,-0.021154038390343004,0.014281498140711398,130.75,0.375,176.5,0.02917480000000004,-0.41607666000000065,-0.9088134799999993,0.009521480000000006
139.0,-0.04995704900940817,-0.002743839734330827,-0.05357548093056036,0.06000000000000005,-0.5900000000000005,-9.779999999999985,-0.0070664365124524006,-0.01728864489306232,-0.006313762018353979,130.75,0.375,176.5,0.02917480000000004,-0.41607666000000065,-0.9088134799999993,0.009521480000000006
140.0,-0.05130061639131209,-0.0025522717733237714,-0.052731044473100314,0.06000000000000005,-0.5900000000000005,-9.779999999999985,-0.013109831159452008,0.020818654093058282,0.009398104328066412,130.75,0.375,176.5,0.02917480000000004,-0.41607666000000065,-0.9088134799999993,0.009521480000000004
141.0,-0.049914726572977644,-0.0029794594448241535,-0.054217428394907924,0.06000000000000005,-0.5900000000000005,-9.779999999999985,-0.023676738649129718,0.013968100262560422,0.0005598781659882407,130.75,0.375,176.5,0.02917480000000004,-0.41607666000000065,-0.9088134799999993,0.009521480000000004
142.0,-0.04989958764854949,-0.0025465424330524235,-0.05488194481854207,0.06000000000000005,-0.5900000000000005,-9.779999999999985,-0.01871427206890766,0.0183285373724935,0.010736727720451993,130.75,0.375,176.5,0.02917480000000004,-0.41607666000000065,-0.9088134799999993,0.009521480000000004
143.0,-0.05066803979201667,-0.002661880087493953,-0.05346415789314199,0.06000000000000005,-0.5900000000000005,-9.779999999999985,0.0006290030784493958,0.019402423928182234,-0.0034679516639675514,130.75,0.375,176.5,0.02917480000000004,-0.41607666000000065,-0.9088134799999993,0.009521480000000006
144.0,-0.05149711486555492,-0.0029260223807647976,-0.05443935016997125,0.06000000000000005,-0.5900000000000005,-9.779999999999985,0.007847492741570738,-0.031626143476167545,0.004534352613764025,130.75,0.375,176.5,0.02917480000000004,-0.41607666000000065,-0.9088134799999993,0.009521480000000004
145.0,-0.049862080725405225,-0.002427798689835281,-0.05426782874483884,0.06000000000000005,-0.5900000000000005,-9.779999999999985,-0.006378253527085978,-0.023936175063100914,0.03656599015552735,130.75,0.375,176.5,0.02917480000000004,-0.41607666000000065,-0.9088134799999993,0.009521480000000004
146.0,-0.04836738896034153,-0.0014777537700623883,-0.053631583370088415,0.06000000000000005,-0.5900000000000005,-9.779999999999985,-0.0011657133490005425,-0.0239856734402654,0.013923409770597722,130.75,0.375,176.5,0.02917480000000004,-0.41607666000000065,-0.9088134799999993,0.009521480000000006
147.0,-0.047543873059415306,-0.002112799062997667,-0.0540727619656062,0.06000000000000005,-0.5900000000000005,-9.779999999999985,-0.011109858760842752,-0.014278877192258873,0.024714765097434664,130.75,0.375,176.5,0.02917480000000004,-0.41607666000000065,-0.9088134799999993,0.009521480000000004
148.0,-0.048749255078094744,-0.002704585015369801,-0.054501098724738586,0.06000000000000005,-0.5900000000000005,-9.779999999999985,-0.020486885025582664,-0.01652703940258105,0.04790740775033023,130.75,0.375,176.5,0.02917480000000004,-0.41607666000000065,-0.9088134799999993,0.009521480000000006
149.0,-0.04833652625660328,-0.0018402121470248575,-0.05486121305271521,0.06000000000000005,-0.5900000000000005,-9.779999999999985,-0.003250593342221892,-0.00407647289718787,-0.01763545443883672,130.75,0.375,176.5,0.02917480000000004,-0.41607666000000065,-0.9088134799999993,0.009521480000000004
150.0,-0.047985066209669,-0.0015339722266178692,-0.05454302828851455,0.06000000000000005,-0.5900000000000005,-9.779999999999985,-0.005326548476599632,0.00524390125000982,0.002699786020832002,130.75,0.375,176.5,0.02917480000000004,-0.41607666000000065,-0.9088134799999993,0.009521480000000006
151.0,-0.04763453626296668,-0.0010698660290920762,-0.053160302774981384,0.06000000000000005,-0.5900000000000005,-9.779999999999985,-0.010529937145285304,0.01863443276651931,0.003933263940561125,130.75,0.375,176.5,0.02917480000000004,-0.41607666000000065,-0.9088134799999993,0.009521480000000004
152.0,-0.04817528012430515,-0.0011072182161042292,-0.05196904270801417,0.06000000000000005,-0.5900000000000005,-9.779999999999985,-0.005891874366255234,0.0031192837589909686,0.01488248707890168,130.75,0.375,176.5,0.02917480000000004,-0.41607666000000065,-0.9088134799999993,0.009521480000000004
153.0,-0.04845240433014264,-0.002168179517481395,-0.05265329461703437,0.06000000000000005,-0.5900000000000005,-9.779999999999985,-0.002489157949256649,-0.014037733275591364,0.014775397540691536,130.75,0.375,176.5,0.02917480000000004,-0.41607666000000065,-0.9088134799999993,0.009521480000000006
154.0,-0.048024950359582645,-0.002993093128986244,-0.05131942535377476,0.06000000000000005,-0.5900000000000005,-9.779999999999985,-0.0024331923593177806,0.009742086660230315,0.0024226048849341165,130.75,0.375,176.5,0.02917480000000004,-0.41607666000000065,-0.9088134799999993,0.009521480000000004
155.0,-0.04937285824430745,-0.003492514306428605,-0.05365618445108093,0.06000000000000005,-0.5900000000000005,-9.779999999999985,-0.04090913650223953,0.04245294857205064,-0.03900102114624262,130.75,0.375,176.5,0.02917480000000004,-0.41607666000000065,-0.9088134799999993,0.009521480000000006
156.0,-0.045272939386083344,-0.002127488824768555,-0.054848620084778,0.06000000000000005,-0.5900000000000005,-9.779999999999985,-0.024609015953954566,0.011451303220531674,-0.00931294947830215,130.75,0.375,176.5,0.02917480000000004,-0.41607666000000065,-0.9088134799999993,0.009521480000000004
157.0,-0.045593619428236656,-0.0015209126654119431,-0.05455378672843766,0.06000000000000005,-0.5900000000000005,-9.779999999999985,-0.0013563023549632847,-0.01392987040743721,-0.007559145010622503,130.75,0.375,176.5,0.02917480000000004,-0.41607666000000065,-0.9088134799999993,0.009521480000000006
158.0,-0.04726925125107599,-0.001021152625660329,-0.054490142480693754,0.06000000000000005,-0.5900000000000005,-9.779999999999985,-0.009964563689700607,-0.012333759927382039,0.015507121982996142,130.75,0.375,176.5,0.02917480000000004,-0.41607666000000065,-0.9088134799999993,0.009521480000000004
159.0,-0.04757832355816225,-0.0013888097789307467,-0.054275899503722067,0.06000000000000005,-0.5900000000000005,-9.779999999999985,-6.46048340100765e-05,-0.019401203215467327,0.011370465472027972,130.75,0.375,176.5,0.02917480000000004,-0.41607666000000065,-0.9088134799999993,0.009521480000000004
160.0,-0.0489378900669223,-0.000313782991202346,-0.05490074441687343,0.06000000000000005,-0.5900000000000005,-9.779999999999985,-0.017150255658320172,0.035768196856906534,-0.030787559214978572,130.75,0.375,176.5,0.02917480000000004,-0.41607666000000065,-0.9088134799999993,0.00949967275434243
161.0,-0.049454172853306194,-0.000992048554879561,-0.05551346583123183,0.06000000000000005,-0.5900000000000005,-9.779999999999985,-0.02047425572341316,0.021063080716426888,-0.021010627552514892,130.75,0.375,176.5,0.02917480000000004,-0.41607666000000065,-0.9088134799999993,0.009479077022332503
162.0,-0.04971095739439502,-0.0021746843270675723,-0.055270380558295806,0.06000000000000005,-0.5900000000000005,-9.779999999999985,-0.01309848021902668,0.02072850065598019,-0.015972125190649507,130.75,0.375,176.5,0.02917480000000004,-0.41607666000000065,-0.9088134799999993,0.009468779156327541
163.0,-0.0504284165120708,-0.0021892295234856624,-0.05542288108296774,0.06000000000000005,-0.5900000000000005,-9.779999999999985,-0.009236707212303023,0.013525202279264627,-0.026959293665330016,130.75,0.375,176.5,0.02917480000000004,-0.4160766600000006,-0.9088134799999993,0.009463630223325059
164.0,-0.050094352986926396,-0.0019126652716566052,-0.05380341468834487,0.06000000000000005,-0.5900000000000005,-9.779999999999985,0.002932327737861561,0.009567035711640309,-0.027067544952038815,130.75,0.375,176.5,0.02917480000000004,-0.41607666000000065,-0.9088134799999993,0.009461055756823817
165.0,-0.04891318145624235,-0.002659806581237732,-0.054634957964519816,0.06000000000000005,-0.5900000000000005,-9.779999999999985,0.013128694886300508,-0.009275104972963964,0.0022618230574793525,130.75,0.375,176.5,0.02917480000000004,-0.4160766600000006,-0.9088134799999993,0.009460449999999997
166.0,-0.049307336996777876,-0.002535969732602496,-0.052372847301951755,0.06000000000000005,-0.5900000000000005,-9.779999999999985,0.010310736465779045,-0.009060999766212361,0.014295933194603903,130.75,0.375,176.5,0.02917480000000004,-0.41607666000000065,-0.9088134799999993,0.009460449999999995
167.0,-0.05045023332469166,-0.0015326793452094365,-0.05317029461871781,0.06000000000000005,-0.5900000000000005,-9.779999999999985,0.027566629476686047,-0.022695773999111143,0.011291451011073664,130.75,0.375,176.5,0.02917480000000004,-0.41607666000000065,-0.9088134799999993,0.009460449999999997
168.0,-0.050842982667308606,-0.0020814761490315177,-0.0536397378800785,0.06000000000000005,-0.5900000000000005,-9.779999999999985,0.025787036822710267,-0.00895954953057294,-0.031993852658234886,130.75,0.375,176.5,0.02917480000000004,-0.4160766600000006,-0.9088134799999993,0.009460449999999997
169.0,-0.05158181872893595,-0.0027090096200140736,-0.054402921419577054,0.06000000000000005,-0.5900000000000005,-9.779999999999985,0.01987474132902485,-0.0002218306150698129,-0.026167845924687974,130.75,0.375,176.5,0.02917480000000004,-0.41607666000000065,-0.9088134799999993,0.009460449999999995
170.0,-0.053208325617569704,-0.0028896707529350767,-0.05473360245916817,0.06000000000000005,-0.5900000000000005,-9.779999999999985,0.020508962631013664,-0.007657586756046072,0.018221084404281322,130.75,0.375,176.5,0.02917480000000004,-0.4160766600000006,-0.9088134799999993,0.009460449999999997
171.0,-0.05231278976199533,-0.00336135249760671,-0.05408241670061602,0.06000000000000005,-0.5900000000000005,-9.779999999999985,0.020413090760948247,-0.02177744819776596,-0.004003415137262031,130.75,0.375,176.5,0.02917480000000004,-0.41607666000000065,-0.9088134799999993,0.009460449999999995
172.0,-0.05206999740750341,-0.0033129794294936327,-0.05260230316946733,0.06000000000000005,-0.5900000000000005,-9.779999999999985,0.0011997591559459626,0.010686206347015205,-0.006524604027011344,130.75,0.375,176.5,0.02917480000000004,-0.41607666000000065,-0.9088134799999993,0.009460449999999995
173.0,-0.050538720788118933,-0.0031229909554416056,-0.05345747912815798,0.06000000000000005,-0.5900000000000005,-9.779999999999985,-0.009201609255773917,0.03702734634968626,-0.006038356604076391,130.75,0.375,176.5,0.02917480000000004,-0.41607666000000065,-0.9088134799999993,0.009460449999999995
174.0,-0.047496202722009155,-0.0018995413188961576,-0.05555695916986238,0.06328445747800587,-0.5900000000000005,-9.779999999999985,-0.0004276637341153484,0.03304101812166328,-0.1341642228739003,130.69330400782013,0.375,176.5,0.029190552258064516,-0.41663128521994197,-0.9085543020527846,0.009442311036168131
175.0,-0.040697120084216845,0.0012112940822618242,-0.0549644334160463,0.06742913000977516,-0.5900000000000005,-9.779999999999985,0.02143911196330551,-0.0037592112188886383,-0.9155819986465148,130.51539589442814,0.3833088954056696,176.5,0.029218476715542504,-0.4181400399413493,-0.9078533799804488,0.009393147478005865
176.0,-0.05473833061309338,0.0008944458451099817,-0.05531270374154624,0.07236731642803751,-0.5900000000000005,-9.779999999999985,0.04408002260231862,-0.054919791625199596,-0.7804489114617199,129.36988959806797,0.4142588120292105,176.5,0.029148922684146976,-0.4271426690598587,-0.9036076620964859,0.009426334754183207
177.0,-0.05601530411397581,-0.0003616724831146084,-0.054357231636169,0.0713449485365994,-0.5900000000000005,-9.779999999999985,0.03256359390135481,-0.028605423671837334,-0.30602052122450607,128.8663964119372,0.4268874705307343,176.5,0.02909885747110576,-0.4311232748525101,-0.9017372807256614,0.009506396248059348
178.0,-0.056490282329940744,-0.0008594962911850955,-0.053560749813121714,0.07083376459088034,-0.5900000000000005,-9.779999999999985,0.011536139382439192,-0.04704929992524869,-0.17657570726237712,128.6146498188718,0.4332017997814962,176.5,0.02907382486458515,-0.43311357774883585,-0.9008020900402492,0.009546426994997416
179.0,-0.05865077316737655,-0.00033812471525944014,-0.05332567906476825,0.07047553332183312,-0.5900000000000005,-9.779999999999985,-0.009257731120871538,-0.04085631023783301,-0.07326111289880266,128.49054827209474,0.43635896440687716,176.5,0.029060816303260333,-0.4340913971588755,-0.9003425940083936,0.009567009211086195
180.0,-0.05854487677092039,-0.0004732581618255242,-0.05294184547268038,0.07021821631878555,-0.5900000000000005,-9.779999999999985,-0.01871568599806266,-0.02623827242096929,-0.009649674428196725,128.4331712523719,0.43767789373814037,176.5,0.029053685512333994,-0.434541824297913,-0.9001307001518011,0.009578553259013285
181.0,-0.05782880716953295,-0.0008991467761629051,-0.053592771475835986,0.06999999999999998,-0.5900000000000004,-9.779999999999985,-0.005802086018819891,-0.0017153475444806107,-0.005994088516769967,128.4375,0.4375,176.5,0.029052730000000027,-0.4345092800000003,-0.9001464799999983,0.00958252
182.0,-0.057213937384300265,-0.00097852293316003,-0.054442374158099945,0.06999999999999998,-0.5900000000000004,-9.779999999999985,-0.013643627038284298,-0.011760514211371066,0.011745605564909998,128.4375,0.4375,176.5,0.029052730000000027,-0.4345092800000003,-0.9001464799999983,0.00958252
183.0,-0.05728892433731143,-0.0011923864665800148,-0.05499840482098545,0.06999999999999998,-0.5900000000000004,-9.779999999999985,-0.023801400212690536,-0.00841616940407263,0.02828648725826145,128.4375,0.4375,176.5,0.029052730000000027,-0.4345092800000003,-0.9001464799999983,0.00958252
184.0,-0.05856009492299814,-0.001233910354878097,-0.05673493442041827,0.06999999999999998,-0.5900000000000004,-9.779999999999985,0.004445453739808579,0.0002894339083855213,0.01777227588719524,128.4375,0.4375,176.5,0.029052730000000027,-0.4345092800000003,-0.9001464799999983,0.00958252
185.0,-0.05669692091063058,-0.00045070207570207567,-0.0549927773839064,0.06999999999999998,-0.5900000000000004,-9.779999999999985,-0.01671337734845799,0.015234667326401198,0.00043390469297727163,128.4375,0.4375,176.5,0.029052730000000027,-0.4345092800000003,-0.9001464799999983,0.00958252
186.0,-0.05661522952853597,-0.0013339019851116626,-0.054443393300248125,0.06999999999999998,-0.5900000000000004,-9.779999999999985,-0.007996665632754342,-0.03351329869727047,0.014681878101736972,128.4375,0.4375,176.5,0.029052730000000027,-0.4345092800000003,-0.9001464799999983,0.00958252
187.0,-0.05812760122941574,-0.0012751922137002783,-0.0553435855139484,0.06999999999999998,-0.5900000000000005,-9.779999999999985,-0.0031838918809684934,0.01046626214846981,-0.02839248075513196,128.4375,0.4375,176.5,0.029052730000000027,-0.4345092800000003,-0.9001464799999983,0.009582520000000002
188.0,-0.05813890142115946,-0.0008568501391082037,-0.05435778066020001,0.06999999999999998,-0.5900000000000005,-9.779999999999985,0.010032298011128657,-0.005745321546732837,-0.00882514662756598,128.4375,0.4375,176.5,0.029052730000000027,-0.4345092800000003,-0.9001464799999983,0.00958252
189.0,-0.057459028874351434,-0.0013763158884126626,-0.0536577985186856,0.06999999999999998,-0.5900000000000005,-9.779999999999985,-0.0020325482649071348,-0.014085439929693962,-0.005544707308820212,128.4375,0.4375,176.5,0.029052730000000027,-0.4345092800000003,-0.9001464799999983,0.00958252
190.0,-0.058342192082111416,-0.0018661412512218966,-0.05373182429130009,0.06999999999999998,-0.5900000000000005,-9.779999999999985,-0.0023664696358748774,0.006177258980938416,0.016552877565982407,128.4375,0.4375,176.5,0.029052730000000027,-0.4345092800000003,-0.9001464799999983,0.009582520000000002
191.0,-0.059065249266862144,-0.00041391739980449667,-0.053738391984359715,0.06999999999999998,-0.5900000000000005,-9.779999999999985,0.005857465786901271,-0.010252474340175953,0.01791605571847507,128.4375,0.4375,176.5,0.029052730000000027,-0.4345092800000003,-0.9001464799999983,0.00958252
192.0,-0.06038733203484044,-0.0010347843808815162,-0.052693410695787916,0.06999999999999998,-0.5900000000000005,-9.779999999999985,-0.0028641046052727557,-0.0021145817375731314,-0.011126665973650808,128.46012879152624,0.4375,176.5,0.029052730000000027,-0.4343936143283581,-0.9002151278574854,0.009582520000000002
193.0,-0.057723907952904094,-0.0002678962226988227,-0.053791261799506856,0.06999999999999998,-0.5900000000000005,-9.779999999999985,-0.011859219641346055,0.01592229582476182,-0.04909911927714798,128.48107246027925,0.4375,176.5,0.029052730000000027,-0.43429393490611434,-0.9002753123158389,0.00958252
194.0,-0.056454599905791526,-2.1780932649974514e-05,-0.053811433511120554,0.06999999999999998,-0.5900000000000005,-9.779999999999985,0.010660201927278842,-0.0014209525420481716,-0.012741303910207377,128.49154429465577,0.4375,176.5,0.029052730000000027,-0.4342440951949924,-0.9003054045450156,0.00958252
195.0,-0.056677935339015016,0.00041677326779035977,-0.05364325341245176,0.06999999999999998,-0.5900000000000005,-9.779999999999985,0.015655125401567084,0.005215721187431436,-0.03091549555236664,128.496780211844,0.4375,176.5,0.029052730000000027,-0.43421917533943144,-0.900320450659604,0.009582520000000002
196.0,-0.05737626605660427,0.00011262050486292186,-0.054906304125580715,0.06999999999999998,-0.5900000000000005,-9.779999999999985,-0.006001822379861619,0.007096897892102815,-0.003171961485860738,128.49939817043816,0.4375,176.5,0.029052730000000027,-0.434206715411651,-0.9003279737168981,0.00958252
197.0,-0.05826463019507374,-0.0001554226463500657,-0.055124016104862866,0.06999999999999998,-0.5900000000000005,-9.779999999999985,-0.017708699790353017,0.017323864671394913,-0.01531602777822536,128.5,0.4375,176.5,0.029052730000000027,-0.43420409999999954,-0.9003295899999988,0.00958252
198.0,-0.05952805796354182,-0.0006411030725546855,-0.053913163449453766,0.06999999999999998,-0.5900000000000004,-9.779999999999985,-0.0045691064088241515,0.006653315322670162,0.035383917717587074,128.5,0.4375,176.5,0.029052730000000027,-0.43420409999999954,-0.9003295899999988,0.00958252
199.0,-0.06048599518760808,-0.0020973052485149255,-0.051975782953605526,0.06999999999999998,-0.5900000000000004,-9.779999999999985,0.0007316398319422517,0.019255677118580346,0.003715064337544179,128.5,0.4375,176.5,0.029052730000000027,-0.43420409999999954,-0.9003295899999988,0.00958252
200.0,-0.060213672080607565,-0.0009826702195653808,-0.05265211435070305,0.06999999999999998,-0.5900000000000005,-9.779999999999985,-0.00044368643789006687,0.002097902097902099,0.0016284265969245815,128.5,0.4375,176.5,0.029052730000000027,-0.43420409999999954,-0.9003295899999988,0.009582520000000002
201.0,-0.0590720498139853,-0.0005707401917079335,-0.05368552818149591,0.06999999999999998,-0.5900000000000005,-9.779999999999985,-0.0038928281619813876,0.0091154673059915,0.015269388429670686,128.5,0.4375,176.5,0.029052730000000027,-0.43420409999999954,-0.9003295899999988,0.00958252
202.0,-0.05931382774931161,-0.0014509464549787132,-0.05308782010999752,0.06999999999999998,-0.5900000000000005,-9.779999999999985,-0.011745083153853315,0.03589279643967144,0.03985375203873188,128.5,0.4375,176.5,0.029052730000000027,-0.43420409999999954,-0.9003295899999988,0.009582520000000002
203.0,-0.05988520171584687,-0.002296192830467024,-0.05324614330561911,0.06999999999999998,-0.5900000000000005,-9.779999999999985,0.003928947256820241,0.02494081509328485,0.02110553606899373,128.5,0.4375,176.5,0.029052730000000027,-0.43420409999999954,-0.9003295899999988,0.00958252
204.0,-0.06063707976611201,-0.0022837198643650258,-0.05408208995305769,0.06999999999999998,-0.5900000000000005,-9.779999999999985,0.01475744237841012,0.026870463765625054,0.07202022887506758,128.5,0.4375,176.5,0.029052730000000027,-0.43419731552357305,-0.9003295899999988,0.00958252
205.0,-0.06008637957025051,-0.0018481160416644288,-0.05261289248386021,0.06999999999999998,-0.5900000000000005,-9.779999999999985,0.022056751492235363,0.006821717708814482,-0.017234020459826915,128.5,0.4375,176.5,0.029052730000000027,-0.43416920840694795,-0.9003295899999988,0.009582520000000002
206.0,-0.06130535056341506,-0.0019046007755685172,-0.05057423938069097,0.06999999999999998,-0.5900000000000005,-9.779999999999985,-0.00010833700349829195,0.0077631374002341755,-0.01471340039888427,128.5,0.4375,176.5,0.029052730000000027,-0.4341551548486354,-0.9003295899999988,0.00958252
207.0,-0.06098258730516794,-0.0007543531737080124,-0.0515358977939623,0.06999999999999998,-0.5900000000000005,-9.779999999999985,-0.0012455174753561843,0.006417003695229502,0.020380347698896083,128.5,0.4375,176.5,0.029052730000000027,-0.4341481280694791,-0.9003295899999988,0.00958252
208.0,-0.060404445017348235,-0.00024814432878949,-0.05198382979028139,0.06999999999999998,-0.5900000000000004,-9.779999999999985,0.018421906274728853,0.003487658175158175,-0.04795188570390184,128.5,0.4375,176.5,0.029052730000000027,-0.43414461467990106,-0.9003295899999988,0.00958252
209.0,-0.059776664196019014,-0.0006513674497545466,-0.05389886278595955,0.06999999999999998,-0.5900000000000004,-9.779999999999985,0.006287566040590234,-0.0027536895228427484,-0.02285931754177722,128.5,0.4375,176.5,0.029052730000000027,-0.4341430700000003,-0.9003295899999988,0.00958252
210.0,-0.05958285800221283,-0.0006946964325996583,-0.052711894736088276,0.06999999999999998,-0.5900000000000005,-9.779999999999985,0.0007305376635013726,-0.0045843227672864775,-0.0009671709898524429,128.5,0.4375,176.5,0.029052730000000027,-0.4341430700000003,-0.9003295899999988,0.009582520000000002
211.0,-0.05983367170463943,-0.0004779165726746371,-0.05226352545304157,0.06999999999999998,-0.5900000000000005,-9.779999999999985,-0.0018028699291300098,8.399069008948028e-05,-0.006355961326979472,128.5,0.4375,176.5,0.029052730000000027,-0.4341430700000003,-0.9003295899999988,0.00958252
212.0,-0.061392581209113464,-0.001417019136777201,-0.05140424561997142,0.06999999999999998,-0.5900000000000005,-9.779999999999985,-0.01209562866568915,-0.002512054477780284,0.0164520711143695,128.5,0.4375,176.5,0.029052730000000027,-0.4341430700000003,-0.9003295899999988,0.009582520000000002
213.0,-0.0621503848973607,-0.0015980877321603126,-0.05211403347996088,0.06999999999999998,-0.5900000000000005,-9.779999999999985,0.011996540505865103,-0.001775568181818182,0.004496196847507331,128.5,0.4375,176.5,0.029052730000000027,-0.4341430700000003,-0.9003295899999988,0.00958252
214.0,-0.06207089617371874,-0.0011910289531257272,-0.05243842515011868,0.06999999999999998,-0.5900000000000005,-9.779999999999985,-0.004163630108690593,-0.014586660819019688,0.022634903179258016,128.5,0.4375,176.5,0.029052730000000027,-0.4341430700000003,-0.9003295899999988,0.00958252
215.0,-0.06058301815441018,-0.0013536373519221375,-0.05265842414185877,0.06999999999999998,-0.5900000000000005,-9.779999999999985,-0.016464629720019858,-0.011519587321431176,0.013449843150884315,128.5,0.4375,176.5,0.029052730000000027,-0.4341430700000003,-0.9003295899999988,0.009582520000000002
216.0,-0.059079311496559914,-0.001155649321122359,-0.053720845135445505,0.06999999999999998,-0.5900000000000005,-9.779999999999985,0.011503698244828782,0.014826773879606991,0.011954256252861513,128.5,0.4375,176.5,0.029052730000000027,-0.4341430700000003,-0.9003295899999988,0.00958252
217.0,-0.060366672817232514,-0.0027644928311003182,-0.05264469206166966,0.06999999999999998,-0.5900000000000005,-9.779999999999985,0.010073367657642603,0.017415313776407752,-0.007567593281193877,128.5,0.4375,176.5,0.029052730000000027,-0.4341430700000003,-0.9003295899999988,0.00958252
218.0,-0.06110571544087431,-0.002483556899421127,-0.05103504764373806,0.06999999999999998,-0.5900000000000004,-9.779999999999985,0.011006315885272913,0.01678792402530065,-0.018731503293822747,128.5,0.4375,176.5,0.029052730000000027,-0.4341430700000003,-0.9003295899999988,0.00958252
219.0,-0.060683426076811965,-0.0025193002111032923,-0.04942305377578608,0.06999999999999998,-0.5900000000000004,-9.779999999999985,0.01237559777878597,0.026467118694677973,-0.010509824867597497,128.5,0.4375,176.5,0.029052730000000027,-0.4341430700000003,-0.9003295899999988,0.00958252
220.0,-0.060668962421986605,-0.0023303960824122114,-0.0511516138431461,0.06999999999999998,-0.5900000000000005,-9.779999999999985,-0.005579792771073013,0.016790280871682082,-0.00777393389540567,128.5,0.4375,176.5,0.029052730000000027,-0.4341430700000003,-0.9003295899999988,0.009582520000000002
221.0,-0.0591626062109933,-0.0030049157831415893,-0.05170987950221821,0.06999999999999998,-0.5900000000000005,-9.779999999999985,0.0031482336547860737,0.033454994266486196,-0.009588831867057675,128.5,0.4375,176.5,0.029052730000000027,-0.4341430700000003,-0.9003295899999988,0.00958252
222.0,-0.06066567035115421,-0.0032592817129107454,-0.05194178838634483,0.06999999999999998,-0.5900000000000005,-9.779999999999985,0.0034351590110158654,-0.0024412373580720396,0.005534368185577863,128.5,0.4375,176.5,0.029052730000000027,-0.4341430700000003,-0.9003295899999988,0.00958252
223.0,-0.061096637905105625,-0.00310304346191443,-0.051375477009549586,0.06999999999999998,-0.5900000000000004,-9.779999999999985,-0.001961129008760057,-0.019338639770847432,0.008698771406684713,128.5,0.4375,176.5,0.029052730000000027,-0.4341430700000003,-0.9003295899999988,0.00958252
224.0,-0.05966982949845852,-0.0015906036168132943,-0.05159394973306264,0.06999999999999998,-0.5900000000000004,-9.779999999999985,-0.01408855341567035,0.003178898554402586,0.016275806686592977,128.5,0.4375,176.5,0.029052730000000027,-0.4341430700000003,-0.9003295899999988,0.00958252
225.0,-0.05664896091811414,-0.0007610887096774193,-0.05138577853598014,0.06999999999999998,-0.5900000000000004,-9.779999999999985,-0.02849866237593052,0.0029713670905707193,0.008214271867245658,128.5,0.4375,176.5,0.029052730000000027,-0.4341430700000003,-0.9003295899999988,0.00958252
226.0,-0.056887628500531716,-0.0008141321044546851,-0.05229359171294655,0.06999999999999998,-0.5900000000000004,-9.779999999999985,-0.02674288077513884,0.019627594627594627,-0.011592618850683366,128.5,0.4375,176.5,0.029052730000000027,-0.4341430700000003,-0.9003295899999988,0.00958252
227.0,-0.055153491669620705,4.7028240576627695e-05,-0.05230312339989759,0.06999999999999998,-0.5900000000000004,-9.779999999999985,0.005425085667021153,0.009410571507345701,0.014240911418330773,128.5,0.4375,176.5,0.029052730000000027,-0.4341430700000003,-0.9003295899999988,0.00958252
228.0,-0.05429634881247784,0.0005470873212808697,-0.05336247981409271,0.06999999999999998,-0.5900000000000004,-9.779999999999985,0.010265272362046558,0.014196600890149277,-0.004464531883886723,128.5,0.4375,176.5,0.029052730000000027,-0.4341430700000003,-0.9003295899999988,0.00958252
229.0,-0.05614321162708258,0.0003554295167198393,-0.05324203395171136,0.06999999999999998,-0.5900000000000004,-9.779999999999985,0.008513529481271417,0.005190732206861239,0.004343416440190633,128.5,0.4375,176.5,0.029052730000000027,-0.4341430700000003,-0.9003295899999988,0.00958252
230.0,-0.05840907479617156,-0.0006163299066524871,-0.052554019457245235,0.06999999999999998,-0.5900000000000004,-9.779999999999985,0.0009689235495687109,0.016940899602189925,-0.012716629248887314,128.5,0.4375,176.5,0.029052730000000027,-0.4341430700000003,-0.9003295899999988,0.00958252
231.0,-0.057960297766749366,-0.0009379652605459055,-0.054048387096774175,0.06999999999999998,-0.5900000000000004,-9.779999999999985,0.008933002481389578,-0.005226426799007443,0.003714330024813896,128.5,0.4375,176.5,0.029052730000000027,-0.4341430700000003,-0.9003295899999988,0.00958252
232.0,-0.05698511166253101,-0.000965260545905707,-0.05384181141439205,0.06999999999999998,-0.5900000000000004,-9.779999999999985,0.004885235732009926,0.0009460297766749385,0.00273340570719603,128.5,0.4375,176.5,0.029052730000000027,-0.4341430700000003,-0.9003295899999988,0.00958252
233.0,-0.05573573200992554,-0.0010533498759305211,-0.05502760545905706,0.06999999999999998,-0.5900000000000004,-9.779999999999985,0.0012174317617866005,-0.012213089330024815,0.00023456885856079396,128.5,0.4375,176.5,0.029052730000000027,-0.4341430700000003,-0.9003295899999988,0.00958252
234.0,-0.057013027295285346,-0.0021420595533498763,-0.054157723325062024,0.06999999999999998,-0.5900000000000004,-9.779999999999985,-0.016621433002481388,-0.006060018610421837,0.006956614454094292,128.5,0.4375,176.5,0.029052730000000027,-0.4341430700000003,-0.9003295899999988,0.00958252
235.0,-0.05675217121588088,-0.0027931141439205952,-0.054510623449131504,0.06999999999999998,-0.5900000000000004,-9.779999999999985,-0.013645704094292804,-0.003976039081885856,0.00245473402605459,128.5,0.4375,176.5,0.029052730000000027,-0.4341430700000003,-0.9003295899999988,0.00958252
236.0,-0.05777124689826302,-0.002424782878411911,-0.05321549317617866,0.06999999999999998,-0.5900000000000004,-9.779999999999985,-0.013123255272952853,0.001445700217121588,0.010000678504962779,128.5,0.4375,176.5,0.029052730000000027,-0.4341430700000003,-0.9003295899999988,0.00958252
237.0,-0.0562549512055109,-0.001967612310655161,-0.05324453492463241,0.06738083774675008,-0.5900000000000005,-9.779999999999985,-0.008037520601088848,-0.06390353598014888,0.1657619451594385,128.51925854597977,0.416797063071738,176.5,0.028977973331728465,-0.4339686323302844,-0.9004114016129022,0.009726864573904672
238.0,-0.04916469644642791,0.001971528832265472,-0.05287288780971074,0.05836783822821372,-0.5900000000000005,-9.779999999999985,0.0014713141411429207,-0.09459134615384615,0.11865950855986815,128.60640346653827,0.36263240250361095,176.5,0.028794840698122305,-0.43311078793933594,-0.9008430274193538,0.010127223899855563
239.0,-0.04291652161031073,0.0017619740935520905,-0.053238359227436007,0.053861338468945544,-0.5900000000000005,-9.779999999999985,0.01689619134476501,-0.022598092431761786,0.03995601436057923,128.64997592681755,0.3355500722195474,176.5,0.028703274381319227,-0.4326818657438617,-0.9010588403225797,0.01032740356283101
240.0,-0.04040825704547418,-0.00023744291036358924,-0.05287167980170206,0.05160808858931145,-0.5900000000000005,-9.779999999999985,0.01204000107880404,-0.03474394808820212,0.051305080644459856,128.67176215695716,0.3220089070775156,176.5,0.028657491222917685,-0.43246740464612454,-0.9011667467741926,0.010427493394318732
241.0,-0.03799600197186861,-0.0008800040234200078,-0.05410282966511901,0.05048146364949441,-0.5900000000000005,-9.779999999999985,0.030526630502181178,-0.0025781426235055253,0.027354133839599656,128.68265527202698,0.3152383245064998,176.5,0.028634599643716917,-0.432360174097256,-0.9012206999999991,0.010477538310062593
242.0,-0.03971253007744943,-0.0016864002932551316,-0.05477761015865853,0.04999999999999995,-0.5900000000000005,-9.779999999999985,0.013323340805699677,0.005689836876832844,0.008651790078201368,128.6875,0.3125,176.5,0.028625490000000017,-0.4323120100000003,-0.9012451199999991,0.010498050000000002
243.0,-0.03759323774343937,-0.0026025053575456794,-0.05488756438454019,0.04999999999999995,-0.5900000000000004,-9.779999999999985,0.004009685291187307,0.036080030100947444,-0.07421008510978268,128.67608560794045,0.3125,176.5,0.028625490000000017,-0.43246467342431766,-0.9011670912158799,0.010488840987593045
244.0,-0.03827494548462291,-0.002452966388450259,-0.05528904428904427,0.04999999999999995,-0.5900000000000004,-9.779999999999985,-0.0010035998947289272,0.04045369952628017,-0.04154682682908489,128.60064361042186,0.3125,176.5,0.028625490000000017,-0.43307941856699717,-0.9008556452047144,0.010461940977667492
245.0,-0.03939651477554704,-0.004005075569591699,-0.054949018723212256,0.04999999999999994,-0.5900000000000005,-9.779999999999985,0.023829211782840816,0.013628609293931875,-0.010020725242499435,128.54729761166254,0.3125,176.5,0.028625490000000017,-0.4334517658964014,-0.9006723593765508,0.010448490972704713
246.0,-0.04096748815700428,-0.0043164335664335664,-0.05416433566433565,0.04999999999999995,-0.5900000000000005,-9.779999999999985,0.0005700029137529136,-0.006755794608617187,0.005008247800586511,128.5206246122829,0.3125,176.5,0.028625490000000017,-0.4336379395611035,-0.9005807164624688,0.010441765970223324
247.0,-0.0425654043537108,-0.004464555605684638,-0.05449776298969847,0.04999999999999994,-0.5900000000000005,-9.779999999999985,-0.0060068249962403186,0.016506116531318143,0.013256812072336265,128.50728811259307,0.3125,176.5,0.028625490000000017,-0.43373102639345457,-0.9005348950054279,0.01043840346898263
248.0,-0.04357550614707872,-0.004800516016241823,-0.054154588690878996,0.04999999999999995,-0.5900000000000005,-9.779999999999985,0.0035257438294232653,0.019186681094443193,0.007062649212346794,128.5009765625,0.3125,176.5,0.028625490000000017,-0.43377279907762023,-0.9005144226764112,0.01043701
249.0,-0.04454732968644258,-0.003977878975862848,-0.053841407248665304,0.04999999999999995,-0.5900000000000005,-9.779999999999985,0.014946465664711632,0.005844600627866758,0.0112493185577863,128.5,0.3125,176.5,0.028625490000000017,-0.43377685999999926,-0.9005126999999999,0.01043701
250.0,-0.0434393539927814,-0.003934198529964659,-0.054115229528535966,0.04999999999999994,-0.5900000000000005,-9.779999999999985,0.02723740683040078,-0.00857879939281149,-0.004517080701556508,128.5,0.3125,176.5,0.028625490000000017,-0.43377685999999926,-0.9005126999999999,0.01043701
251.0,-0.04307460371170048,-0.0053348748026167386,-0.05445992851234785,0.04999999999999995,-0.5900000000000005,-9.779999999999985,0.003196786412512219,0.008408912995606543,-0.010766084833625157,128.5,0.3125,176.5,0.028625490000000017,-0.43377685999999926,-0.9005126999999999,0.01043701
252.0,-0.04266238644867676,-0.006087920144371758,-0.053025212019163624,0.04999999999999995,-0.5900000000000005,-9.779999999999985,0.011226231765546282,-0.009821269120664285,0.0012288268966696384,128.5,0.3125,176.5,0.028625490000000017,-0.43377685999999926,-0.9005126999999999,0.01043701
253.0,-0.04261159024667088,-0.004788376945635011,-0.05359449186566122,0.04999999999999995,-0.5900000000000004,-9.779999999999985,-0.009476834489435296,-0.011734455900282513,0.01407595190987328,128.5,0.3125,176.5,0.028625490000000017,-0.43377685999999926,-0.9005126999999999,0.01043701
254.0,-0.04272879450298805,-0.005202346041055719,-0.05245392242166434,0.04999999999999995,-0.5900000000000004,-9.779999999999985,-0.011599556357620874,0.006634225989064699,0.014245879568460214,128.5,0.3125,176.5,0.028625490000000017,-0.43377685999999926,-0.9005126999999999,0.01043701
255.0,-0.043517378678669005,-0.005274682306940373,-0.05436234733008925,0.04999999999999994,-0.5900000000000005,-9.779999999999985,0.015552861117377244,-0.021243004307520436,0.009872206646400195,128.5,0.3125,176.5,0.028625490000000017,-0.43377685999999926,-0.9005126999999999,0.01043701
256.0,-0.04260226332806978,-0.006804007820136855,-0.054120497781788096,0.04999999999999995,-0.5900000000000005,-9.779999999999985,0.023737452064064968,-0.008485365441010603,0.010736474546958419,128.5,0.3125,176.5,0.028625490000000017,-0.43377685999999926,-0.9005126999999999,0.01043701
257.0,-0.04215100759455598,-0.0063573388976614804,-0.0536458568313407,0.04999999999999995,-0.5900000000000005,-9.779999999999985,0.00048535134220618024,0.024905890480487254,0.001622889878938266,128.5,0.3125,176.5,0.028625490000000017,-0.43377685999999926,-0.9005126999999999,0.01043701
258.0,-0.04369216670426347,-0.00734447138882623,-0.05378916647868259,0.04999999999999994,-0.5900000000000005,-9.779999999999985,-0.006623442082111437,0.028294831848259268,-0.01427004615008647,128.5,0.3125,176.5,0.028625490000000017,-0.43377685999999926,-0.9005126999999999,0.01043701
259.0,-0.04421829178885629,-0.0070506476050830914,-0.05308192815249265,0.04999999999999995,-0.5900000000000005,-9.779999999999985,0.010498762829912023,0.0006548600928641263,0.019346056329423267,128.5,0.3125,176.5,0.028625490000000017,-0.43377685999999926,-0.9005126999999999,0.01043701
260.0,-0.044978684957515606,-0.009395126043311532,-0.05382290256786224,0.04999999999999995,-0.5900000000000005,-9.779999999999985,0.014983900927701332,0.012520781050266938,0.021011051700315815,128.5,0.3125,176.5,0.028625490000000017,-0.43377685999999926,-0.9005126999999999,0.01043701
261.0,-0.044764350233100235,-0.008613622264831946,-0.05470700804571771,0.04999999999999995,-0.5900000000000004,-9.779999999999985,-0.003418167014437176,0.012633248388036696,0.007354597267651704,128.5,0.3125,176.5,0.028625490000000017,-0.43377685999999926,-0.9005126999999999,0.01043701
262.0,-0.045951716294458225,-0.00749550248138958,-0.05433633637867506,0.04999999999999994,-0.5900000000000005,-9.779999999999985,-0.01358152516166629,0.04354198388976615,-0.006476373928490864,128.5,0.3125,176.5,0.028625490000000017,-0.43377685999999926,-0.9005126999999999,0.01043701
263.0,-0.04448085852319723,-0.005918515959846606,-0.05361331444093538,0.04999999999999995,-0.5900000000000005,-9.779999999999985,-0.0025914336839236033,0.011356675078953306,0.007641860407737426,128.5,0.3125,176.5,0.028625490000000017,-0.43377685999999926,-0.9005126999999999,0.01043701
264.0,-0.043066002098260156,-0.006701377475571027,-0.05414468685436426,0.04999999999999995,-0.5900000000000005,-9.779999999999985,0.012615923503020276,-0.011321250434153657,-0.011862823556371943,128.5,0.3125,176.5,0.028625490000000017,-0.43377685999999926,-0.9005126999999999,0.01043701
265.0,-0.04386543205898044,-0.007387458419716487,-0.05496955374374726,0.04999999999999994,-0.5900000000000005,-9.779999999999985,0.003538486603002731,-0.015792496034431516,-0.0018892845505748728,128.5,0.3125,176.5,0.028625490000000017,-0.43377685999999926,-0.9005126999999999,0.01043701
266.0,-0.044004676327256964,-0.006822761467922761,-0.054142345110087024,0.04999999999999995,-0.5900000000000005,-9.779999999999985,-0.0048529651352232,0.003812809054744539,-0.004325535575535576,128.5,0.3125,176.5,0.028625490000000017,-0.43377685999999926,-0.9005126999999999,0.01043701
267.0,-0.04458967555741749,-0.006008493298815882,-0.053039892007633926,0.04999999999999995,-0.5900000000000005,-9.779999999999985,-0.014947865754317367,-0.009210502758889856,0.0070909824942083,128.5,0.3125,176.5,0.028625490000000017,-0.43377685999999926,-0.9005126999999999,0.01043701
268.0,-0.04534198418069385,-0.007378936475710671,-0.05496659612788643,0.04999999999999995,-0.5900000000000004,-9.779999999999985,-0.019508672331252978,0.005134202714847877,0.0017309751180718922,128.5,0.3125,176.5,0.028625490000000017,-0.43377685999999926,-0.9005126999999999,0.01043701
269.0,-0.044772886611596285,-0.007829253184091896,-0.05404755817659042,0.04999999999999995,-0.5900000000000004,-9.779999999999985,0.014375208125208122,-0.02453863340960115,0.031539450692676496,128.5,0.3125,176.5,0.028625490000000017,-0.43377685999999926,-0.9005126999999999,0.01043701
270.0,-0.04481312952280693,-0.007927334314431092,-0.05466796286151124,0.04999999999999994,-0.5900000000000005,-9.779999999999985,0.012151558119300052,-0.02662659920724437,0.03273881136784362,128.5,0.3125,176.5,0.028625490000000017,-0.43377685999999926,-0.9005126999999999,0.01043701
271.0,-0.04559515036934391,-0.00814977137557783,-0.053470457857554624,0.04999999999999995,-0.5900000000000005,-9.779999999999985,-0.006610325158712256,-0.0022711159807933985,0.06908342553503843,128.5,0.3125,176.5,0.028625490000000017,-0.43377685999999926,-0.9005126999999999,0.01043701
272.0,-0.045333555333555334,-0.007960741767193382,-0.054482127191804605,0.04999999999999995,-0.5900000000000005,-9.779999999999985,-0.0004205471947407438,-0.0008253842931262283,0.014907717730298375,128.5,0.3125,176.5,0.028625490000000017,-0.43377685999999926,-0.9005126999999999,0.01043701
273.0,-0.04550796873377518,-0.007732231925780316,-0.0525289047869693,0.04999999999999995,-0.5900000000000004,-9.779999999999985,-0.02316312719538526,0.029565595694627952,-0.0029214513085480814,128.5,0.3125,176.5,0.028625490000000017,-0.43377685999999926,-0.9005126999999999,0.01043701
274.0,-0.04510677494548462,-0.00824911647492293,-0.05250357169712007,0.04999999999999995,-0.5900000000000004,-9.779999999999985,-0.014365741785096623,0.007078304759756373,0.01826053650650425,128.5,0.3125,176.5,0.028625490000000017,-0.43377685999999926,-0.9005126999999999,0.01043701
275.0,-0.046557997851931404,-0.00761564386504204,-0.05262990259620012,0.04999999999999994,-0.5900000000000005,-9.779999999999985,-0.0025209714455020184,0.016996882059923706,-0.00344090265175364,128.5,0.3125,176.5,0.028625490000000017,-0.43377685999999926,-0.9005126999999999,0.01043701
276.0,-0.047226889744824266,-0.008596903818377102,-0.05365986444946483,0.04999999999999995,-0.5900000000000005,-9.779999999999985,-0.011775374060219992,0.010623130856264582,0.0035835188974482424,128.5,0.3125,176.5,0.028625490000000017,-0.43377685999999926,-0.9005126999999999,0.01043701
277.0,-0.04710476000888854,-0.008224010221843638,-0.05436343098403762,0.04999999999999995,-0.5900000000000005,-9.779999999999985,-0.007454064201325877,-0.008087938293952077,0.005870543567830821,128.5,0.3125,176.5,0.028625490000000017,-0.43377685999999926,-0.9005126999999999,0.01043701
278.0,-0.048309053438537045,-0.008135089553361102,-0.055375564653609904,0.04999999999999994,-0.5900000000000005,-9.779999999999985,-0.0005543311457039189,0.039487029424345114,-0.005536699792894876,128.5,0.3125,176.5,0.028625490000000017,-0.43377685999999926,-0.9005126999999999,0.01043701
279.0,-0.044643438009591106,-0.007878028647648295,-0.05345391135906302,0.04999999999999995,-0.5900000000000005,-9.779999999999985,0.00684229007230933,-0.014262911699117763,-0.003918173485157115,128.5,0.3125,176.5,0.028625490000000017,-0.43377685999999926,-0.9005126999999999,0.01043701
280.0,-0.04571319272125723,-0.005702703210767728,-0.05340164674035641,0.05265884652981426,-0.5900000000000005,-9.779999999999985,-0.022633515677870513,-0.058857338897661475,-0.061211486765922245,128.46627565982405,0.3125,176.5,0.028625490000000017,-0.4341448595307912,-0.9003279824242423,0.010423169374389047
281.0,-0.04859514813143844,-0.00551275471839988,-0.05139177757726143,0.056490713587487806,-0.5900000000000005,-9.779999999999985,-0.004132947026092186,-0.016798490488006617,-0.007851212967140385,128.41862170087975,0.3125,176.5,0.028625490000000017,-0.43465390234604045,-0.9000738173411531,0.010398590332355809
282.0,-0.04458913734115347,-0.00609756842619746,-0.052952712609970656,0.05840664711632457,-0.5900000000000005,-9.779999999999985,-0.021173173264907134,-0.012012768817204299,0.010078735948191595,128.3947947214076,0.3125,176.5,0.028625490000000017,-0.43490842375366506,-0.8999467347996086,0.010386300811339191
283.0,-0.04511470552297164,-0.0058127138318670585,-0.05434781280547407,0.05936461388074296,-0.5900000000000005,-9.779999999999985,-0.018483092008797653,0.015086601906158358,0.008735604533235582,128.38288123167155,0.3125,176.5,0.028625490000000017,-0.43503568445747737,-0.8998831935288363,0.010380156050830881
284.0,-0.04668438416422286,-0.007553152492668624,-0.0530871212121212,0.059843597262952145,-0.5900000000000005,-9.779999999999985,-0.0016419232649071362,0.016434506353861192,0.00487231182795699,128.3769244868035,0.3125,176.5,0.028625490000000017,-0.4350993148093835,-0.8998514228934502,0.010377083670576725
285.0,-0.04799648939769906,-0.00784695747800587,-0.053474908827731385,0.06000000000000005,-0.5900000000000005,-9.779999999999985,-0.00398167860365441,0.0053544909391683585,0.007773493307767501,128.375,0.3125,176.5,0.028625490000000017,-0.43511962999999937,-0.8998413099999996,0.010375979999999991
286.0,-0.04842884098428453,-0.007198161045943306,-0.05385622274231143,0.06000000000000005,-0.5900000000000005,-9.779999999999985,0.002194155810587262,-0.01482642021956538,0.014410329254079254,128.375,0.3125,176.5,0.028625490000000017,-0.43511962999999937,-0.8998413099999996,0.01037597999999999
287.0,-0.04968072787427624,-0.007302127979547338,-0.05360192495676365,0.06000000000000005,-0.5900000000000005,-9.779999999999985,0.009636062861869313,-0.0003393112264080001,0.0013050793292728778,128.375,0.3125,176.5,0.028625490000000017,-0.43511962999999937,-0.8998413099999996,0.010375979999999991
288.0,-0.04883031155972897,-0.008028626324726472,-0.05386505550299482,0.06000000000000005,-0.5900000000000005,-9.779999999999985,-0.001678080385350487,-0.0023166369820197454,-0.01197243115574844,128.375,0.3125,176.5,0.028625490000000017,-0.43511962999999937,-0.8998413099999996,0.01037597999999999
289.0,-0.047430796053569285,-0.008058790190711233,-0.05424191191572028,0.06000000000000005,-0.5900000000000005,-9.779999999999985,-0.010156000114473873,0.009686011909772141,-0.010537779605244699,128.375,0.3125,176.5,0.028625490000000017,-0.43511962999999937,-0.8998413099999996,0.010375979999999991
290.0,-0.04682209777864568,-0.00826760849485934,-0.055870335610465595,0.06000000000000005,-0.5900000000000005,-9.779999999999985,-0.001976263084532222,0.005975139949923292,-0.012325341415525576,128.375,0.3125,176.5,0.028625490000000017,-0.43511962999999937,-0.8998413099999996,0.010375979999999991
291.0,-0.04773484778341543,-0.007726361986593092,-0.05402469815932741,0.06000000000000005,-0.5900000000000005,-9.779999999999985,-0.006903158679308173,0.001596295044627977,-0.008921284165401281,128.375,0.3125,176.5,0.028625490000000017,-0.43511962999999937,-0.8998413099999996,0.010375979999999991
292.0,-0.047587026869375215,-0.008667151216621611,-0.05402227463797636,0.06000000000000005,-0.5900000000000005,-9.779999999999985,0.00027050502759157127,8.474801859190411e-05,0.005139233847820453,128.375,0.3125,176.5,0.028625490000000017,-0.43511962999999937,-0.8998413099999996,0.010375979999999991
293.0,-0.048596113338394864,-0.008816002185104258,-0.0543317921095515,0.06000000000000005,-0.5900000000000005,-9.779999999999985,-0.01891265311932891,0.0029762931234028366,-0.023519694583070995,128.375,0.3125,176.5,0.028625490000000017,-0.43511962999999937,-0.8998413099999996,0.010375979999999991
294.0,-0.04888463390244806,-0.009676456427539726,-0.05399851857338616,0.06000000000000005,-0.5900000000000005,-9.779999999999985,-0.017113255064627235,0.031414577237880076,-0.019558534869078922,128.375,0.3125,176.5,0.028625490000000017,-0.43511962999999937,-0.8998413099999996,0.010375979999999991
295.0,-0.04378474871301062,-0.008671975112032892,-0.05450049998148216,0.059523573200992594,-0.5900000000000005,-9.779999999999985,-0.03892263249509277,-0.0061599570386281985,0.12294405762749527,128.38045905707196,0.3125,176.5,0.028625490000000017,-0.4350634110024808,-0.8998694194193543,0.010380826054590564
296.0,-0.03510563357361625,-0.00656647733585625,-0.05346536211341217,0.05460049627791562,-0.5900000000000005,-9.779999999999985,-0.010483113420041684,0.005289099842542307,0.10651304441025192,128.50431799383412,0.3125,176.5,0.028625490000000017,-0.43412450388344986,-0.9003236005650044,0.010409902382133992
297.0,-0.03686560784020898,-0.0067352254791725585,-0.05336502749948115,0.06196662021142797,-0.5907777286787456,-9.779999999999983,0.05296402471694812,-0.014131810594042078,-1.528125195392345,127.79759094565767,0.3584566946531153,176.4946973044631,0.02873553012372957,-0.43957219827181787,-0.8976391064535143,0.010255280245419624
298.0,-0.03629906255182437,-0.018565639398162605,-0.051183671241117085,0.047761922567048504,-0.5754706142288997,-9.78360583296508,-0.1284618938286636,-0.18833161057531364,0.13733937663455997,127.37838561865296,0.2789162615996465,176.58572691117985,0.027670718882015034,-0.44280568767545836,-0.896078071381861,0.010672506693633368
299.0,-0.037775425305980784,-0.028468923917443587,-0.048482946407304994,0.038397090315782326,-0.5620901458241272,-9.78696420680512,-0.10904922161875451,-0.12547236637362966,-0.016471167032304,127.18788825524679,0.22075556912999403,176.67189571365444,0.02678703241064699,-0.44432448601040475,-0.8953793042013668,0.01087030050051687
300.0,-0.036125926052494116,-0.03102354384457788,-0.04796852035005448,0.033729562527618225,-0.5553999116217411,-9.78864339372514,-0.08236270013940207,-0.08438630725629374,0.011444937575659411,127.20062837079956,0.1698535910166099,176.71498011489172,0.026320170882742848,-0.44426010388113313,-0.8954357873910064,0.011001012036858935
301.0,-0.03629725087628443,-0.03160544106149888,-0.0468199222991144,0.031542200618647834,-0.5520547945205478,-9.78948298718515,-0.045725726471288065,-0.03628582368737291,0.006689204455703895,127.2032131345689,0.14440260195991786,176.73652231551037,0.026086740118790773,-0.4442563752421308,-0.8954502750347021,0.011065534889397214
302.0,-0.036553397864125425,-0.03343197373446133,-0.04642145032322048,0.0301414052143173,-0.5503579319487406,-9.789902783915156,-0.014605019665162372,-0.014593972382793835,0.049729379072748096,127.22852603259597,0.13024096072366198,176.74745912505523,0.02596658598294819,-0.4440696000492582,-0.8955485058779348,0.011103082575056544
303.0,-0.035445113077940404,-0.03375364136180076,-0.04720736410964113,0.030000000000000023,-0.55,-9.789999999999997,-0.004885498356798166,-0.004567805297169623,0.015294562726963107,127.24324003795066,0.12636385199240985,176.75,0.025941503643263752,-0.44396028613377647,-0.8956044584250482,0.011106402120493367
304.0,-0.036266022794032654,-0.03298839988167073,-0.047974416145279086,0.030000000000000023,-0.55,-9.789999999999997,-0.008737842143365523,-0.009038554437080662,0.005501050940643185,127.24999999999999,0.125,176.75,0.025939939999999995,-0.4439086900000003,-0.8956298800000009,0.011108400000000008
305.0,-0.035758321570713604,-0.032958219791951994,-0.0502154959138306,0.030000000000000027,-0.55,-9.79,-0.01885403273421378,-0.006302775977845542,0.003991220259403478,127.24999999999999,0.125,176.75,0.025939939999999995,-0.4439086900000003,-0.8956298800000009,0.011108400000000008
306.0,-0.03562980509700539,-0.03376878816497257,-0.051021537642264636,0.030000000000000027,-0.55,-9.789999999999997,-0.016515550805918523,-0.0158621610920976,0.002884415037798825,127.24999999999999,0.125,176.75,0.025939939999999995,-0.4439086900000003,-0.8956298800000009,0.011108400000000008
307.0,-0.036197811977783094,-0.034116559094893244,-0.048109714230561595,0.030000000000000027,-0.55,-9.79,-0.014528130551842636,-0.0005814178599445807,0.01295110562683986,127.24999999999999,0.125,176.75,0.025939939999999995,-0.4439086900000003,-0.8956298800000009,0.011108400000000008
308.0,-0.03664864264286509,-0.03284211695863118,-0.04731484019110403,0.030385170919595594,-0.5489215214251326,-9.789999999999997,-0.08951798081552534,0.08453853560979223,0.29188455983111733,127.2827395281656,0.1327034183919114,176.75385170919594,0.025924424467982668,-0.4436308141405877,-0.8957695237169001,0.01103928362060665
309.0,-0.03700805319967574,-0.03224275644111948,-0.04767550173038858,0.035712298721446545,-0.5424356711068312,-9.789999999999996,0.0656967951804254,0.00711573439666844,-0.5134054705792789,127.40705076766703,0.1732065479056331,176.7841839191141,0.02580880094366874,-0.4426488064072113,-0.8962571145466219,0.010598686828224473
310.0,-0.05384362248782086,-0.03955349449138569,-0.04658854845470155,0.046054306042750945,-0.5407616143552587,-9.789999999999996,0.051301517051396676,0.037736793111131095,-0.6599905764807064,126.9031797617137,0.2532507393906046,176.79935002407316,0.025928374748332067,-0.44654280748471165,-0.8943152946557994,0.010081292133006247
311.0,-0.0639739279395347,-0.038220189222345345,-0.04609855576496425,0.053885030534231944,-0.5390974972197047,-9.789999999999996,0.04644680459269854,0.05292017483108835,-0.12385427172405669,126.40992321419017,0.31815762775981843,176.78309015930165,0.026148737271314226,-0.4503573824403456,-0.8923921626060669,0.00979085788510995
312.0,-0.06509870169440829,-0.033881731576358036,-0.04640577085187832,0.057426386234857935,-0.5434539294505172,-9.789999999999996,0.029274609154007744,0.09807496447396961,-0.14292899690421196,126.32067519458288,0.3506110719444253,176.76654507965083,0.026353153572118516,-0.45106267500805164,-0.8920392826520068,0.009699783390257817
313.0,-0.06675194491498837,-0.02941194149469046,-0.04669422637515204,0.05918502749393356,-0.5467606671807232,-9.789999999999996,0.02649653846620887,0.06887232561540065,-0.20845640840381371,126.17287753688963,0.3665970622119816,176.75815217391303,0.026493555517402533,-0.45220773433577643,-0.8914728199231938,0.009650199969081733
314.0,-0.06929942848175667,-0.028408617562895276,-0.04663157693171717,0.05990389367528222,-0.5485998676405409,-9.79,-0.013024735316109792,0.02512039736794295,-0.08659655269928762,126.09413926127635,0.37344470046082945,176.75306802244037,0.026567127294991583,-0.4528185423650211,-0.8911712830731565,0.009638096964827609
315.0,-0.06780178797359722,-0.02531029956485778,-0.048788138696273325,0.0600233754090697,-0.5494704407327129,-9.79,-0.0020336810221101955,-0.009674824357503178,-0.029689405381901877,126.07245845552296,0.375,176.75052594670404,0.02659836988482297,-0.45298691497513754,-0.8910888151264404,0.009641329722045146
316.0,-0.06650810211294081,-0.025668452515226724,-0.04867984434919917,0.06000000000000005,-0.5499315738025417,-9.789999999999997,0.008604265358297615,0.011217243777727648,-0.028618928114895855,126.06915933528836,0.375,176.75,0.026608973191593336,-0.4530127395796682,-0.8910773380938425,0.009643937878787891
317.0,-0.06523303443867959,-0.02521876644860517,-0.049870112414467246,0.06000000000000005,-0.55,-9.79,0.007592793631100082,0.004355943116023761,-0.004841411948266787,126.06259164222874,0.375,176.75,0.02661132999999998,-0.45306321422287443,-0.8910525781378309,0.009643550000000011
318.0,-0.06548064234152942,-0.025752100721858802,-0.048612964320625604,0.06000000000000005,-0.55,-9.79,-0.00556638422061809,-0.022214134991352733,-0.00396335015790661,126.0625,0.375,176.75,0.02661132999999998,-0.45306396000000054,-0.8910522500000009,0.009643550000000011
319.0,-0.06979243035190616,-0.027518730261673827,-0.047852387867508825,0.06000000000000005,-0.55,-9.79,0.005870654043537108,-0.0023446605477855462,-0.018762072101285814,126.0625,0.375,176.75,0.02661132999999998,-0.45306396000000054,-0.8910522500000009,0.009643550000000011
320.0,-0.0701999546152772,-0.026742716065296726,-0.04801241545193158,0.06000000000000005,-0.55,-9.79,0.011994406802874545,-0.0189439676586854,0.014140969357703226,126.0625,0.375,176.75,0.02661132999999998,-0.45306396000000054,-0.8910522500000009,0.009643550000000011
321.0,-0.07048609656472557,-0.026005766634798907,-0.04817043059986608,0.06000000000000005,-0.55,-9.789999999999997,0.0037214213877520327,-0.02418056154195267,-0.0058968906877173025,126.0625,0.375,176.75,0.02661132999999998,-0.4530639600000006,-0.8910522500000009,0.009643550000000013
322.0,-0.06924500331657588,-0.026442540434475935,-0.048913924225416155,0.06000000000000005,-0.55,-9.789999999999997,0.006639735432578175,-0.036070467251162815,-0.02858101170223146,126.0625,0.375,176.75,0.02661132999999998,-0.4531121714565004,-0.891027905601174,0.009643550000000013
323.0,-0.06896473956151374,-0.025378528281754104,-0.04724174033851453,0.06000000000000005,-0.55,-9.79,-0.014541775428872201,-0.03342396850461367,-0.017645470568857666,126.0625,0.375,176.75,0.02661132999999998,-0.453151074760508,-0.8910085732844584,0.009643550000000011
324.0,-0.06808843038681747,-0.026294046455336794,-0.047260391937811286,0.06000000000000005,-0.55,-9.789999999999997,-0.016805439184471443,-0.01941942466136015,-0.019536886724386724,126.0625,0.375,176.75,0.02661132999999998,-0.45317052641251176,-0.8909989071261006,0.009643550000000013
325.0,-0.06734298631476049,-0.02877810361681331,-0.048900293255131955,0.06000000000000005,-0.55,-9.79,-0.017259286412512218,-0.022238514173998046,-0.0024399743401759544,126.0625,0.375,176.75,0.02661132999999998,-0.45318025223851366,-0.8909940740469218,0.009643550000000011
326.0,-0.06819250977517105,-0.028995601173020545,-0.047443792766373394,0.06000000000000005,-0.55,-9.789999999999997,-0.012967375366568914,-0.008721285434995112,-0.007650216886608016,126.0625,0.375,176.75,0.02661132999999998,-0.45318511515151455,-0.8909916575073322,0.009643550000000013
327.0,-0.06905106351981352,-0.028834480036092958,-0.0486473795022182,0.06000000000000005,-0.55,-9.79,-0.010110370140612075,0.0003579921422663364,-0.01791921326321528,126.0625,0.375,176.75,0.02661132999999998,-0.4531860399999994,-0.8909912100000009,0.009643550000000011
328.0,-0.06856511029293287,-0.02877063863555801,-0.048820777564729176,0.06000000000000005,-0.55,-9.79,0.018041293104297133,0.013995880351727124,-0.08514223231965168,126.05942780337942,0.375,176.75,0.02661132999999998,-0.45320454101382435,-0.8909802094060427,0.009641050051203288
329.0,-0.06830748183268344,-0.03365218148786698,-0.047655745576108466,0.06000000000000005,-0.55,-9.789999999999997,-0.027346044552445766,-0.05255423479969851,0.03402651336119078,125.99644777265745,0.375,176.75,0.02661132999999998,-0.4535952678285152,-0.8907651935739896,0.009610800670762936
330.0,-0.06912846293491454,-0.03759535088567347,-0.04811649998746772,0.061642228739002936,-0.5477321603128054,-9.789999999999997,-0.01584904790549952,-0.06936710243161856,-0.17385459522556296,125.90141914537077,0.3725562072336266,176.75,0.026605601749755615,-0.45429514189079717,-0.8903937385220879,0.009600448688265144
331.0,-0.07474018454663615,-0.03495085812353366,-0.04889408462083983,0.05953079178885633,-0.5449192110861936,-9.789999999999996,-0.004466377497686797,-0.030475196319598597,0.3762846367210694,125.91269961063603,0.35812345466045653,176.75,0.02650423103616812,-0.4542214566000474,-0.8904358258359963,0.009709095662918147
332.0,-0.07244960784681537,-0.03249776156797031,-0.04937248951607895,0.05976539589442818,-0.5474596055430968,-9.789999999999996,0.015208063427001942,-0.038471922814441714,0.389859384395126,126.22977602101372,0.3343036628140992,176.75,0.026494776647116306,-0.45178729410647533,-0.8916618710426975,0.009771301435214486
333.0,-0.06839696509556885,-0.03206596692365195,-0.049068930172982944,0.054721407624633414,-0.5487298027715485,-9.79,0.03965432908637899,-0.05290260838031944,0.27870342294710015,126.4926360017629,0.3223937668909206,176.75,0.0264900494525904,-0.4497798202315434,-0.8926809859673291,0.009833516744232954
334.0,-0.06899564774817543,-0.03277785149701659,-0.05013808189978569,0.05219941348973603,-0.5493649013857742,-9.789999999999997,0.025860277935173853,-0.0328968076114696,0.16385073395644353,126.63442283959114,0.31643881892933123,176.75,0.026487685855327445,-0.4487612540502782,-0.8931975749191483,0.009865530630180998
335.0,-0.06788736444104762,-0.03282098830960312,-0.04872006734285473,0.05088709677419351,-0.549753320683112,-9.79,0.027119410717342547,-0.008536624724600877,0.08989824087851503,126.70730184012793,0.3135377134724857,176.75,0.026486683064516105,-0.44823620500167893,-0.893464117743054,0.009881388426038697
336.0,-0.0675119204339233,-0.03272479133769458,-0.04992298068646167,0.050322580645161236,-0.55,-9.79,0.007500599023829643,0.01048660480307688,0.02849531807463921,126.74190400355542,0.3125,176.75,0.026489259999999976,-0.44798691867493834,-0.8935902699412612,0.009885760356283111
337.0,-0.0676418903676968,-0.03485619219490188,-0.04837580833145348,0.04999999999999995,-0.55,-9.79,-0.012175962478381834,0.0014989966350853453,-0.010900020678246487,126.74947270471465,0.3125,176.75,0.026489259999999976,-0.4479371917568242,-0.8936156897419352,0.009887700000000013
338.0,-0.06779861267764492,-0.03502362959621025,-0.048016688284833436,0.05079404466501237,-0.55,-9.79,0.0018214480412061052,-0.017069980590645916,-0.07201328577336642,126.7380893300248,0.3125,176.75,0.026489259999999976,-0.448006799379653,-0.8935837335781633,0.009883337836228296
339.0,-0.0716436856154598,-0.035503017144146186,-0.04789641843371681,0.05555831265508686,-0.55,-9.789999999999997,0.011510675144747724,-0.057639951194638696,-0.0045886321339950395,126.67952853598015,0.3125,176.75,0.026489259999999976,-0.4483814324317621,-0.8934107151761778,0.00985401440198511
340.0,-0.07158688623204751,-0.03381276787728402,-0.04700594029626287,0.05674937965260546,-0.55,-9.79,-0.004611248966087677,-0.03051357244905632,0.03684863523573201,126.66315136476427,0.3125,176.75,0.026489259999999976,-0.44844855648138976,-0.8933809099751857,0.009847592327543425
341.0,-0.0709125498157756,-0.033769907511843,-0.047929769155575605,0.0533746898263027,-0.55,-9.79,0.018227874276261373,-0.03408432964884578,0.0194789081885856,126.70657568238214,0.3125,176.75,0.026489259999999976,-0.4480037716277918,-0.8935928233746901,0.00986764616377172
342.0,-0.06771778374089399,-0.03262314863759256,-0.04993892257638045,0.05168734491315132,-0.55,-9.789999999999997,-0.008219448662395221,-0.03134649614548507,0.010328784119106697,126.72828784119108,0.3125,176.75,0.026489259999999976,-0.4477813792009929,-0.8936987800744425,0.009877673081885866
343.0,-0.06770256432702265,-0.03345301352475162,-0.04897442406734655,0.050818858560793996,-0.55,-9.79,-0.014810716887028877,-0.005654637650906305,-0.011693548387096776,126.73951612903227,0.3125,176.75,0.026489259999999976,-0.44766800206947926,-0.8937527580000009,0.009882822858560805
344.0,-0.06696711794063742,-0.032726018003822535,-0.047097182708160074,0.050248138957816324,-0.55,-9.789999999999997,0.0025225496698775456,0.0031141523377922033,0.0009652981427174965,126.74677419354839,0.3125,176.75,0.026489259999999976,-0.4476006966799011,-0.893784654000001,0.009886245945409442
345.0,-0.06909646219612514,-0.03339278567684924,-0.04805479482802545,0.04999999999999995,-0.55,-9.79,-0.03416056139334907,0.010536604704876251,0.06079592450560193,126.77630272952852,0.3125,176.75,0.02646405638709674,-0.44741959078908167,-0.8938749171861051,0.009887700000000013
346.0,-0.06898991844297572,-0.03449540028259336,-0.04626561081351645,0.04999999999999995,-0.55,-9.79,-0.03558214173885815,-0.00011321129520455459,0.07850590269945108,126.7954094292804,0.3125,176.75,0.026445153677419314,-0.44730230630272916,-0.8939313768188595,0.009887700000000013
347.0,-0.07035196451758799,-0.034378176790309675,-0.04717950738075918,0.04999999999999994,-0.55,-9.789999999999997,-0.031678288009535,-0.003938406321651387,0.11099103512440056,126.80977741565127,0.3125,176.75,0.0264357023225806,-0.44719817086922664,-0.8939727718543022,0.009887700000000013
348.0,-0.06949856290395529,-0.034342934549001,-0.04790737155638455,0.04999999999999995,-0.55,-9.79,0.0008637095932473859,0.0031951888987276564,0.025315616817783403,126.84440483685789,0.3125,176.75,0.026430976645161246,-0.4469904688787818,-0.8940830490065559,0.009887700000000013
349.0,-0.06924965742009552,-0.03396355690529981,-0.04775897188992999,0.050397022332506154,-0.55,-9.79,0.012518054886856042,0.02379263730972927,-0.050117588237472685,126.8602297137143,0.3125,176.75,0.026435399076923036,-0.4468778924443539,-0.8941323735876447,0.009878491384615395
350.0,-0.07241332673953249,-0.0355605260807334,-0.0466198158238148,0.055359801488833744,-0.55,-9.789999999999997,0.03868495066631519,-0.037244317748580114,-0.3462418330911491,126.71842951895027,0.3300521821631878,176.75,0.026504809143774608,-0.448036080238671,-0.8935648157960117,0.009773762789081895
351.0,-0.07733817701740892,-0.03650234740761235,-0.046967476150120785,0.05784119106699755,-0.55,-9.79,0.03727051503539085,0.0004225061381168925,-0.24559300091282021,126.47514217882997,0.35353415559772294,176.75,0.02656102295898407,-0.4500146085486161,-0.8925762993496178,0.009673219136476433
352.0,-0.08142546790206026,-0.03742064890842822,-0.04835855752619184,0.059081885856079444,-0.55,-9.789999999999997,0.0060871111527459765,0.0013095920194676897,-0.1158905062339739,126.35334805137936,0.3652751423149905,176.75,0.026589129866588797,-0.4510052943657863,-0.8920816297133252,0.009622947310173702
353.0,-0.08302641310341896,-0.03740940673394155,-0.049447386998946075,0.05970223325062039,-0.55,-9.79,-0.009244984736360873,-0.005660192764932348,-0.0528874524946702,126.29159338052838,0.37114563567362424,176.75,0.026603183320391164,-0.4515055008454244,-0.8918314955315997,0.009597811397022336
354.0,-0.08485026814202094,-0.03603569110816555,-0.049763395732723655,0.06000000000000005,-0.55,-9.789999999999997,0.0002858906546705691,-0.0006392053043579563,-0.02593402290301452,126.26076257115749,0.3740808823529412,176.75,0.026609998007590112,-0.45175587675521856,-0.8917066101280818,0.009585531209677423
355.0,-0.08351528127358653,-0.036032048302630876,-0.04729400883180372,0.06000000000000005,-0.55,-9.789999999999997,-0.01940829525687494,-0.00905661101857539,-0.0039676547440148785,126.25,0.375,176.75,0.02661132999999998,-0.4518432600000004,-0.8916625999999983,0.009582520000000002
356.0,-0.07998096569882801,-0.03257929958555862,-0.04750060243079019,0.06000000000000005,-0.55,-9.79,-0.022653899489479656,-0.024968752159411765,0.06425376568010174,126.25,0.375,176.75,0.02661132999999998,-0.4518432600000004,-0.8916625999999983,0.009582520000000002
357.0,-0.08006744296200242,-0.032189505353684464,-0.047167026521865225,0.06000000000000005,-0.55,-9.79,-0.012409548537377139,-0.012514467557799286,0.03283356962942904,126.25,0.375,176.75,0.02661132999999998,-0.4518432600000004,-0.8916625999999983,0.00958252
358.0,-0.079885231977673,-0.0313866113557977,-0.04587229974326747,0.06000000000000005,-0.55,-9.79,-0.015053340576932295,-0.001456926559237585,-0.0006083047910202463,126.25,0.375,176.75,0.02661132999999998,-0.4518432600000004,-0.8916625999999983,0.00958252
359.0,-0.07857344447667028,-0.03149212794374086,-0.046427465008110166,0.06000000000000005,-0.55,-9.79,-0.02357306671822801,-0.017195908929779895,0.032991605169024524,126.25,0.375,176.75,0.02661132999999998,-0.4518432600000004,-0.8916625999999983,0.00958252
360.0,-0.07822269486785616,-0.032474614990744034,-0.04607349639607704,0.06000000000000005,-0.55,-9.79,-0.002769408011343495,-0.016217653314427507,0.039851412028831384,126.25,0.375,176.75,0.02661132999999998,-0.4518432600000004,-0.8916625999999983,0.00958252
361.0,-0.07924786324786326,-0.03247611170191817,-0.04709086612312418,0.06000000000000005,-0.55,-9.79,0.014363996218834926,-0.01568100358422939,0.02816574106896687,126.25,0.375,176.75,0.02661132999999998,-0.4518432600000004,-0.8916625999999983,0.00958252
362.0,-0.07993177431887111,-0.0328480265254459,-0.047500241693790066,0.06000000000000005,-0.55,-9.789999999999997,0.014071143909853586,-0.01566063864450961,0.0018328893328893332,126.25,0.375,176.75,0.02661132999999998,-0.4518432600000004,-0.8916625999999983,0.009582520000000002
363.0,-0.08012973764586667,-0.0323789543789544,-0.047705573995896575,0.06000000000000005,-0.55,-9.79,0.011859880710687162,0.007650671461155332,-0.008636166700682828,126.25,0.375,176.75,0.02661132999999998,-0.4518432600000004,-0.8916625999999983,0.00958252
364.0,-0.07899290852516658,-0.03322669803314966,-0.04770886640241478,0.06000000000000005,-0.55,-9.79,0.023299667402489985,0.02418823895638412,-0.06441423719649525,126.25,0.375,176.75,0.02661132999999998,-0.4518432600000004,-0.8916625999999983,0.00958252
365.0,-0.07849645426258327,-0.032906152986798165,-0.04789165404487984,0.06000000000000005,-0.55,-9.79,0.008904796480401319,0.019290149254866995,-0.04782436425581587,126.25,0.375,176.75,0.02661132999999998,-0.4518432600000004,-0.8916625999999983,0.00958252
366.0,-0.07957336794030341,-0.034855534250695555,-0.046846492665041053,0.06000000000000005,-0.55,-9.79,-0.0088284517341977,0.031918500126665444,-0.006311055655813722,126.25,0.375,176.75,0.02661132999999998,-0.45178775671275007,-0.8916895994470042,0.00958252
367.0,-0.08395148185411466,-0.038903961708752974,-0.04678763020923836,0.060000000000000046,-0.55,-9.789999999999997,-0.021705856595636598,-0.011310602159081168,0.27094547987722795,126.39990512333966,0.3593453510436433,176.75,0.02658955481973435,-0.4505665469142499,-0.8922991890593654,0.009620970398481978
368.0,-0.08851860623760135,-0.03665573025254693,-0.0462721402129485,0.060000000000000046,-0.55,-9.789999999999997,-0.01629078751483804,0.016485209196699185,0.1670828973170444,126.59794245093317,0.3349146110056926,176.75,0.026565646916366942,-0.44897202203199255,-0.893098039873929,0.009678855569968
369.0,-0.08814575176885066,-0.037346160744954254,-0.046324470536087965,0.060000000000000046,-0.55,-9.789999999999996,-0.01589464378519577,-0.0005626248375972236,-0.1144204323829207,126.57611373870684,0.3482168144099238,176.75,0.026556983942054455,-0.4490530569042971,-0.8930578489114478,0.009670651039678279
370.0,-0.09026786866247057,-0.03840701615263341,-0.04580643363106757,0.060000000000000046,-0.55,-9.789999999999996,-0.02520246985008094,-0.019275516337172005,-0.011005908943580639,126.54208912741792,0.3616084072049619,176.75,0.02655265245489821,-0.44925108490376175,-0.8929587638105636,0.009658084874677855
371.0,-0.08939788722422043,-0.039176626355886604,-0.04692139397887223,0.06000000000000005,-0.55,-9.79,0.009472177773372226,-0.029479028009855843,0.008049912911722227,126.52507682177347,0.36830420360248095,176.75,0.026550486711320084,-0.4493518333812207,-0.8929083775274024,0.009651801792177644
372.0,-0.08772688974482426,-0.04039299470389985,-0.047126263842079914,0.06000000000000005,-0.55,-9.789999999999997,0.0009365972556571968,0.005860315358690419,-0.14511615310544054,126.5017753972075,0.3721413095811266,176.75,0.026550084313914327,-0.44954576306210925,-0.892811425560906,0.009647458675974977
373.0,-0.0878816967216702,-0.03997516997125808,-0.049568953254256566,0.06000000000000005,-0.55,-9.789999999999996,-0.014517713394172831,-0.014883541420463662,-0.017817574517442113,126.43187289359652,0.37457871930669234,176.75,0.026550290000000025,-0.45016574972075146,-0.8924856168271551,0.009644078993740986
374.0,-0.08769145019039695,-0.039376126150771074,-0.049197090974745034,0.06000000000000005,-0.55,-9.79,0.0237127971305496,-0.005673896372244349,-0.00619303136079135,126.40069812229176,0.375,176.75,0.026550290000000025,-0.4504482962590278,-0.8923364504718347,0.009643550000000011
375.0,-0.08818881900978973,-0.04016930787776658,-0.04857835319370885,0.06000000000000005,-0.55,-9.789999999999997,-0.001775952874009716,0.0031261797227207077,-0.0025708266767336344,126.38583293211362,0.375,176.75,0.026550290000000025,-0.45058464732306247,-0.8922643357197884,0.009643550000000013
376.0,-0.08936406676295937,-0.04040975474533491,-0.048434841919435076,0.06000000000000005,-0.55,-9.79,0.0125476334420274,0.015266466877489384,-0.014327248015786172,126.37840033702454,0.375,176.75,0.026550290000000025,-0.4506528228550798,-0.8922282783437653,0.009643550000000011
377.0,-0.08818059628543497,-0.03986559139784947,-0.04816593352883676,0.06000000000000005,-0.55,-9.789999999999997,-0.012163596652003911,-0.003247571480938417,0.027532762096774195,126.37499999999999,0.375,176.75,0.026550290000000025,-0.45068359000000036,-0.8922119100000003,0.009643550000000013
378.0,-0.08713451199338293,-0.039148526204977815,-0.05048292164824422,0.06000000000000005,-0.55,-9.79,-0.004615757646251598,-0.029377047263892023,0.064630637759418,126.37499999999999,0.375,176.75,0.026550290000000025,-0.45068359000000036,-0.8922119100000003,0.009643550000000011
379.0,-0.08844372809090548,-0.037546293312422346,-0.050179696871229126,0.06000000000000005,-0.55,-9.79,0.014652456638343733,-0.024464399287987996,0.010920199592074593,126.37499999999999,0.375,176.75,0.026550290000000025,-0.45068359000000036,-0.8922119100000003,0.009643550000000011
380.0,-0.0886158034393921,-0.03821107431994529,-0.04988945742877193,0.06000000000000005,-0.55,-9.789999999999997,-0.0010284882008672327,-0.007023866310660665,0.004910246423603279,126.37499999999999,0.375,176.75,0.026550290000000025,-0.45068359000000036,-0.8922119100000003,0.009643550000000013
381.0,-0.08922093676932386,-0.038460220782801424,-0.05116351748609812,0.06000000000000005,-0.55,-9.79,-0.012369664385793419,-0.0049140151962732605,0.004834010075945561,126.37499999999999,0.375,176.75,0.026550290000000025,-0.45068359000000036,-0.8922119100000003,0.009643550000000011
382.0,-0.0898089468580352,-0.03392899262183975,-0.051663190168099005,0.06643291257597012,-0.5431182795698926,-9.789999999999997,-0.25151373482369277,0.14933639097383838,0.768183452825809,126.45541140719962,0.4077255726975222,176.78553062178588,0.026428391542777006,-0.45004487583450237,-0.8925433667928941,0.009200239817671816
383.0,-0.05656558650948552,-0.027404056750480316,-0.05122932638500661,0.06734548854604956,-0.5109462365591398,-9.789999999999996,-0.1271703732608361,-0.07974734864636687,-0.023542977592767245,127.2552978694984,0.39735356975889935,176.95947038001736,0.025147356918853933,-0.44378796430895623,-0.8956930023780136,0.008360729710679226
384.0,-0.06647787774014982,-0.02910653426361702,-0.050903961707608275,0.04560822814399253,-0.5021577060931901,-9.789999999999996,-0.0014212081357943968,-0.1193187588085905,-0.222120951161975,126.77751452614706,0.26476101427013066,177.00885705380796,0.024221220663728046,-0.4475245475487433,-0.8938592647911574,0.009288285446737462
385.0,-0.041402514655186365,-0.02780981030089144,-0.04987775839293923,0.008097162686262496,-0.5021624514109748,-9.789999999999996,-0.0067964224975366186,-0.04437986630418923,0.5045840575513352,127.09193195639475,0.05045751758486089,177.00846078496852,0.023325702265076187,-0.44510153930594826,-0.8950787829612306,0.011161261221778544
386.0,-0.020840215143970355,-0.02590490515044573,-0.05045748961830583,-0.012403031560094572,-0.5054360644151652,-9.789999999999997,0.0158170492971374,0.015558205805721759,0.2507411602893152,127.43917317422714,-0.07759382185273084,177.00826265054877,0.022890367745441308,-0.44240588395818525,-0.8964349719694495,0.012229523030244117
387.0,-0.010293242851852576,-0.024985475653126737,-0.049257602814167994,-0.02285415720127217,-0.5072879246807012,-9.789999999999996,0.013638156167120274,0.0010905483531562631,0.11167471546702577,127.61425114999342,-0.14264216571832428,177.00705325140808,0.022676509812412086,-0.4410518451838614,-0.8971167629599475,0.01277750737767466
388.0,-0.0072387873245438,-0.02351808344868319,-0.04961497652229137,-0.028007723761926416,-0.5091117042758349,-9.79,0.010894538913053226,0.0018701589692048585,0.0655003761666926,127.67805011416722,-0.17433087548589024,177.00156810035844,0.02260770851450096,-0.44056037437303686,-0.8973644113555503,0.013070807520634572
389.0,-0.005477368572666166,-0.0234877775942065,-0.049957336620671464,-0.02989095865515677,-0.5097955474784195,-9.79,-0.007927248051055411,-0.0030243739204154916,0.04827761260774663,127.73737855170727,-0.1861937755565652,177.0,0.022582233457519287,-0.4401001064987946,-0.8975947529089585,0.013175354129940949
390.0,-0.005410472591924206,-0.024838831867057688,-0.052108278817956225,-0.030000000000000027,-0.5100000000000007,-9.789999999999997,0.0035665275584630413,-0.0024836806338822464,0.01027673603278442,127.74975186104218,-0.1875,177.0,0.02258300999999998,-0.44000407568238253,-0.8976431615930532,0.013183590000000012
391.0,-0.005069760429476872,-0.023179921816823497,-0.05178598924488621,-0.030000000000000027,-0.5100000000000007,-9.79,0.001193933754417625,-0.007103122635039258,0.012468973155269982,127.75,-0.1875,177.0,0.02258300999999998,-0.4400024400000003,-0.897644040000001,0.013183590000000012
392.0,-0.00413556447671302,-0.022929159344384383,-0.050062105081876127,-0.030000000000000027,-0.5100000000000007,-9.789999999999997,-0.013027177795322958,-6.915662543751765e-05,0.00835753154342189,127.75,-0.1875,177.0,0.02258300999999998,-0.4400024400000003,-0.8976440400000011,0.013183590000000012
393.0,-0.004530600166396214,-0.023496333704450263,-0.050031052540938065,-0.030000000000000027,-0.5100000000000007,-9.79,-0.00812843070907587,-0.00042059917189990015,-0.0036671748300260267,127.75,-0.1875,177.0,0.02258300999999998,-0.4400024400000003,-0.897644040000001,0.013183590000000012
394.0,-0.004829816212230365,-0.023866032857187917,-0.050171853813893344,-0.030000000000000027,-0.5100000000000007,-9.79,-0.019332515602676893,-0.0025288479730467242,0.007967901418733884,127.75,-0.1875,177.0,0.02258300999999998,-0.4400024400000003,-0.897644040000001,0.013183590000000012
395.0,-0.004170864395051732,-0.022911299500040255,-0.048402226639953194,-0.030000000000000027,-0.5100000000000007,-9.789999999999997,0.01177050085406489,-0.006545250426172623,-0.03566407930186721,127.75,-0.1875,177.0,0.02258300999999998,-0.4400024400000003,-0.8976440400000011,0.013183590000000012
396.0,-0.004549672489549717,-0.024706644910484597,-0.05098005555937669,-0.030000000000000027,-0.5100000000000007,-9.79,0.022270299070145605,0.017867050306792122,0.06335354332315093,127.77969790066564,-0.1875,177.0,0.02258300999999998,-0.43980342670762945,-0.8977355457450078,0.013183590000000012
397.0,-0.0038910103932070714,-0.024691468180484805,-0.04742013530657006,-0.030000000000000027,-0.5100000000000007,-9.79,0.020992093666210482,0.008826609219867224,0.02961529147509528,127.82936507936508,-0.1875,177.0,0.02258300999999998,-0.4394934056118792,-0.8978788044854067,0.013183590000000012
398.0,-0.003851212392633313,-0.02378990282473372,-0.04966292125129992,-0.030000000000000027,-0.5100000000000007,-9.79,0.004587237900102761,0.0024437016322661183,0.015552062610996772,127.8541986687148,-0.1875,177.0,0.02258300999999998,-0.43933839506400413,-0.8979504338556061,0.013183590000000012
399.0,-0.003509934670262066,-0.022700356189041808,-0.051732127499099084,-0.030000000000000027,-0.5100000000000007,-9.79,0.002285622284418626,-0.0016770616373408863,0.00150567615661501,127.86661546338965,-0.1875,177.0,0.02258300999999998,-0.4392608897900666,-0.8979862485407059,0.013183590000000012
400.0,-0.0036823033597227148,-0.022586947103076148,-0.0509960218992477,-0.030000000000000027,-0.5100000000000007,-9.79,-0.0005268029461577848,-0.009109752254913546,0.0004977549332388044,127.8728238607271,-0.1875,177.0,0.02258300999999998,-0.43922213715309777,-0.8980041558832557,0.013183590000000012
401.0,-0.004779156327543426,-0.0226997518610422,-0.049409429280397016,-0.030000000000000027,-0.5100000000000007,-9.79,0.009150124069478908,-0.0032258064516129037,0.0006823821339950373,127.875,-0.1875,177.0,0.02258300999999998,-0.43920897999999997,-0.8980102499999991,0.013183590000000012
