time,linaccel_x,linaccel_y,linaccel_z,gravity_x,gravity_y,gravity_z,gyro_x,gyro_y,gyro_z,euler_x,euler_y,euler_z,quaternion_w,quaternion_y,quaternion_x,quaternion_z
0.0,0.12634146341463415,-0.03463414634146342,-0.033902439024390246,4.425365853658537,1.3870731707317079,8.631707317073168,0.06097560975609756,0.23323170731707318,-0.125,172.96646341463415,26.829268292682926,-9.128048780487806,0.05919517073170731,-0.08731153463414636,-0.22802734463414634,-0.9679223034146343
1.0,0.12259001161440186,-0.04376693766937669,-0.036856368563685654,4.50369337979094,1.3823577235772355,8.591838946960898,-0.07193670150987225,-0.30420054200542,-0.08134920634920634,172.93723383662407,27.34189895470383,-9.137921022067363,0.05940166849787068,-0.08745539202090594,-0.23243253265582653,-0.9668339028842432
2.0,0.10311000497760081,-0.0569001161440186,-0.04422415795586529,4.54858287705326,1.3172961672473864,8.578502405840382,0.17720569935291186,0.15177119628339142,0.3517431972789115,172.6320287871246,27.634028123444498,-8.726966152314583,0.06196908907051601,-0.08485113900895967,-0.2348242522810685,-0.9663192309503899
3.0,0.10811800232288035,-0.052020054200542024,-0.03610460704607047,4.652805342624855,1.3610048780487805,8.514901122725512,0.26852932636469223,-0.7241734417344173,0.2666468253968254,172.44994676732483,28.3267131242741,-9.082584204413472,0.06336877769957414,-0.08803795340418119,-0.24046111599783193,-0.9645419107101818
4.0,0.11592806564010341,-0.041687123000262276,-0.0404377130868083,4.774970327076544,1.352099134539733,8.447597317447826,0.17590128695065751,-0.22701940729084716,0.11289362519201228,172.19352262935072,29.145183769810046,-9.098024615038778,0.06545392533850361,-0.08875970119557154,-0.24716978748282192,-0.9626303787307333
5.0,0.11528110599078342,-0.02454301075268818,-0.04534946236559141,4.830688940092167,1.346193548387098,8.417996927803376,0.35470910138248846,-0.37533602150537637,0.12862423195084485,172.0093990015361,29.525345622119815,-9.08807603686636,0.06687332314132104,-0.08904172352304146,-0.25022536160215053,-0.9617390115683566
6.0,0.12214516129032257,-0.0018145161290322644,-0.04889516129032259,4.917298387096776,1.39741935483871,8.358870967741932,0.26910282258064516,-0.3340725806451613,-0.2919858870967742,172.02046370967741,30.105443548387093,-9.494153225806452,0.06666525541935484,-0.0922010848467742,-0.25502358714516127,-0.9601887369032258
7.0,0.1182258064516129,-0.013250000000000005,-0.043000000000000003,4.946419354838711,1.420443548387097,8.338137096774194,0.1367439516129032,1.0661290322580645,-0.002066532258064524,172.1134072580645,30.292187499999997,-9.671774193548387,0.06590133199193549,-0.09336400208064516,-0.25665120786290324,-0.9596926291774194
8.0,0.11316935483870968,-0.007790322580645164,-0.0423225806451613,4.894629032258065,1.4481693548387096,8.363467741935484,0.16920362903225805,0.33371975806451615,-0.26461693548387094,172.08104838709676,29.948790322580646,-9.825504032258063,0.0662042925564516,-0.09465553523387096,-0.2536353821935484,-0.9603560417580645
9.0,0.11175806451612902,-0.019766129032258075,-0.03863709677419356,4.897483870967742,1.4616370967741932,8.359790322580643,0.012197580645161285,0.13397177419354842,-0.1495463709677419,172.0735383064516,29.968548387096774,-9.917389112903226,0.06619144448387096,-0.09538593916935482,-0.25376070117741945,-0.9602616832419356
10.0,0.1138951612903226,-0.02342741935483872,-0.0370967741935484,4.925000000000001,1.4595000000000007,8.345379032258066,-0.009526209677419361,0.1387600806451613,-0.1608366935483871,172.065625,30.15186491935484,-9.91789314516129,0.06629190704032259,-0.09544288829032259,-0.2552864817983871,-0.9598500902741935
11.0,0.12738709677419358,-0.03833870967741936,-0.0454516129032258,4.926153225806452,1.4528709677419358,8.345524193548385,0.0021169354838709645,0.06295362903225807,-0.4998991935483871,172.3625,30.15594758064516,-9.872227822580644,0.06381112330645161,-0.09442557025806453,-0.2555831419193549,-0.9600348197903227
12.0,0.14154819040125888,-0.06066974822974036,-0.06114535798583792,5.030514358772621,1.4893945712037766,8.274014948859165,-0.5365656963021243,-0.6815806943351691,-0.7984547108575925,173.28010424862313,30.876450629425648,-10.20283610346184,0.056018011868607394,-0.09471192442328877,-0.26234699350531077,-0.9585661714437452
13.0,0.1541894177812746,-0.05827439024390244,-0.06926219512195123,4.987777340676631,1.4860924468922108,8.301152635719905,0.4187131195908733,0.7678034028324154,0.057299862313139216,173.3068868017309,30.57960636309992,-10.152048092053501,0.05580650786172306,-0.09433671524390246,-0.2598684126518489,-0.9593321206170335
14.0,0.16136993394690136,-0.053111219878140256,-0.06623059118438146,4.86923000567215,1.5043166660567584,8.36795403728981,0.40212193864014784,0.9159417426765227,0.07196505681298371,172.89174516380618,29.775401338901798,-10.19035497250837,0.05943176446865223,-0.09566644268609226,-0.25269297655735734,-0.960894151662699
15.0,0.1666818198452052,-0.027638812142059904,-0.059725838471813064,4.924972988673998,1.52707424569557,8.33042351746473,0.20600847620441695,0.2160114152013613,-0.22182136616471188,172.8352848311163,30.156359697775052,-10.389599324373776,0.05983659752887764,-0.09731010387274715,-0.2558319385710665,-0.9598788699139615
16.0,0.17513929701937678,-0.035835535103288005,-0.06977017730042266,4.878208268530548,1.5167266389768175,8.35926821034527,0.048669560682853635,2.4067456269555194,0.5267405265950635,172.66214846394524,29.843930856952042,-10.287894420251405,0.06138000192169688,-0.09690819140814777,-0.2529975306806945,-0.9605614130819808
17.0,0.18679466817923995,-0.040651835214901275,-0.08477493916161966,4.6278413490567765,1.4782807073719644,8.503103814063271,-0.043058020602711654,2.322791578229923,0.5793370217554389,171.92762714306625,28.18005453154447,-9.869778248678022,0.06779445402536455,-0.09513420029888112,-0.23843954665820727,-0.9639273903804867
18.0,0.1859052019102337,-0.0466421056483633,-0.07313245384516862,4.407747680822644,1.4303824858653686,8.627405467220463,0.08829101330210601,0.46764701846193246,0.09469653998865576,171.2568726785355,26.730979886739977,-9.425065412694636,0.07368567956470823,-0.09283500746484183,-0.22575453704389514,-0.9667674118880207
19.0,0.19449606608969316,-0.04521518489378441,-0.06816522423288748,4.416773406766325,1.4408095987411487,8.624589693154997,0.15620820220298975,-0.21157061369000785,-0.3135474036191975,171.1166306058222,26.782830940204562,-9.484736428009441,0.0748344507671125,-0.0937139933328088,-0.22606371609756098,-0.9666143431125097
20.0,0.1755721872541306,-0.05805999213217938,-0.06759952793076318,4.530459874114871,1.487021636506688,8.557810188827695,0.15820834972462627,-1.0353437254130606,-0.5129155192761605,171.4288896538159,27.528413896538158,-9.859893784421715,0.07206893895948072,-0.09616699190637294,-0.2325360527852085,-0.965052233133753
21.0,0.16113296616837136,-0.049968528717545244,-0.06009441384736429,4.679150275373722,1.5113139260424862,8.472824547600315,0.1382277734067663,0.07612116443745076,-0.002950432730133734,171.64039142407552,28.510228166797795,-10.108870967741936,0.07011738897718331,-0.09776228098347757,-0.24094513897718334,-0.962966642722266
22.0,0.143477576711251,-0.04588512981904014,-0.04884343036978757,4.7387096774193544,1.5165302911093628,8.440330448465772,0.15671715184893786,-0.04661683713611331,-0.14221085759244687,171.65234067663258,28.902783241542092,-10.183123524783635,0.06996285664830842,-0.09836629321793863,-0.24427306761605033,-0.9621189697010231
23.0,0.1225896369562774,-0.04187778651980069,-0.04886028998538834,4.848651605410064,1.5548413322842913,8.370833988985051,0.2347748304671987,-0.5226738413697501,-0.291256884343037,171.85452259188492,29.636347457944623,-10.51758317410363,0.06809654727623546,-0.10056501753437488,-0.250566139427897,-0.9604151122101081
24.0,0.12765201753400024,-0.04100183582480987,-0.0497212543554007,4.864687722453262,1.558258589037504,8.361919748229738,0.006697013974748062,0.7512761792364467,0.05522226593233673,171.7691426885467,29.739888913866096,-10.549827188940093,0.06880988403544266,-0.10101362449889476,-0.25133896384848825,-0.9601359452159903
25.0,0.12788580420366416,-0.044820351429320754,-0.043047094526244806,4.794279345097599,1.5353842119066357,8.406026750590083,0.09525448653104043,0.7692012288786483,0.07990755310778913,171.5507052939193,29.271940916413772,-10.350420085422051,0.07071139977932638,-0.09988862346895956,-0.24725780419804427,-0.961174013441984
26.0,0.12413959761717433,-0.04586257539994755,-0.039629762841407214,4.774880821250608,1.539068974560713,8.416758457907159,0.13534852572028022,0.4428323217563973,-0.017771439811172303,171.38628891761266,29.147359128545204,-10.35985304035068,0.07214481551751528,-0.10033812028444046,-0.24601312535393957,-0.9613463200160354
27.0,0.11664965718781613,-0.05206110674009967,-0.035306620209059225,4.744571803229552,1.5374172567532123,8.43471990558615,0.0763091959836649,0.5713768217751302,-0.03623131392604248,171.28745995841294,28.944430941141206,-10.324551815218612,0.0730164110097411,-0.10028691426889214,-0.24419593251646618,-0.9617534525241468
28.0,0.11832022029897718,-0.057928402832415425,-0.032471282454760025,4.663136900078678,1.5192462627852086,8.481956726986624,-0.2329907553107789,2.3640342250196693,0.2494246656176239,171.1209333202203,28.397767505900866,-10.151878442171519,0.07455203697875687,-0.09920245616286388,-0.2394450763619197,-0.9629101887167586
29.0,0.1275653029110936,-0.08676671911880411,-0.02083280881195909,4.3470066876475215,1.4267474429583007,8.656700629425648,-0.13169994099134538,0.6943400865460269,-0.03766473249409914,170.6909003737215,26.33273013375295,-9.36706333595594,0.07849663215027537,-0.09339643516247051,-0.22192676194256492,-0.9671846717084973
30.0,0.14454032258064514,-0.09833064516129031,-0.03484677419354838,4.229217741935484,1.3901290322580646,8.72391129032258,-0.02444556451612903,1.0180443548387095,0.21859879032258064,170.42132056451612,25.556854838709675,-9.056854838709677,0.0809224769516129,-0.09133217118548388,-0.21525160246774191,-0.9687534456370968
31.0,0.16535778914240756,-0.06830114083398897,-0.0635340283241542,4.224118017309205,1.3746386703383164,8.728833595594018,0.046348839496459474,-1.200764653815893,-0.3321216070023604,170.3534888867034,25.526445712037763,-8.95363640833989,0.08148693256294257,-0.09059277412116443,-0.21504982172974035,-0.9687949130332416
32.0,0.1884146341463415,-0.07186585365853657,-0.060468332022029884,4.373547403619197,1.4259246656176239,8.64729976396538,0.3304533831628639,0.07637809795436656,-0.05650201612903229,170.62468774586938,26.495321105428793,-9.36281840086546,0.07901191981530292,-0.09362339648033045,-0.22330943189516128,-0.9668806388625097
33.0,0.17111860739575135,-0.0715619590873328,-0.062133359559402045,4.488568056648308,1.4601921715184896,8.583996656176236,0.28563999803304485,-0.04721921715184893,-0.10655241935483872,170.69802935680565,27.247257326907945,-9.652301337529504,0.07828240644394178,-0.09596965981274586,-0.22962907758064516,-0.9652700551772226
34.0,0.15483752950432728,-0.04956726986624705,-0.05580055074744296,4.581945318646735,1.4900114083398894,8.530824940991343,0.20146415224232886,-0.08111968922108577,-0.13145161290322582,170.6973261703383,27.860901848937843,-9.90447728166798,0.07818933108084186,-0.09808674422088906,-0.23469600276612895,-0.9638888178829661
35.0,0.1407938630999213,-0.04330920535011803,-0.04524547600314713,4.636436664044059,1.4995538945712035,8.500943351691582,0.14970003933910309,0.2622738001573564,-0.09521538158929976,170.72956333595593,28.218745082612116,-10.004002753737215,0.0778617132950433,-0.09886024745869393,-0.23771792566876473,-0.9631256364413845
36.0,0.1465666142145292,-0.043521524109250316,-0.04438906372934697,4.497271383612453,1.4585769173129517,8.578576842381327,-0.023073905998276564,2.350389176126784,0.6137001938855794,170.30746482896856,27.306192162152037,-9.655722434528492,0.08160587101191413,-0.09671500813963507,-0.22977508971141958,-0.9648570535133003
37.0,0.13637536060844477,-0.04700466449364956,-0.03895928402832416,4.310554653253906,1.4054332265557683,8.682543338578544,-0.07921496244052302,1.1666088288187029,0.25587645414184557,169.70122454666367,26.086086836386798,-9.203052995391705,0.08691188326598853,-0.09398129327595442,-0.21912886395405756,-0.9671250834380035
38.0,0.1218687385260949,-0.04753419692031023,-0.030174862313139268,4.30365921096999,1.3898587257877186,8.690008589037502,0.026913098048031173,-0.41210643334831976,-0.305746494604923,169.5343639944176,26.043093821419205,-9.091812197931887,0.08829957257595257,-0.09346549037322505,-0.21868154583963695,-0.9671997002997452
39.0,0.12407684238132705,-0.04638211382113822,-0.034462815181147216,4.450434828219251,1.4368347008354871,8.607974148589408,0.4647910344310816,-0.5740099659061106,-0.0942098928477764,169.52342479674797,26.999029869618973,-9.48346610280619,0.08818957919062606,-0.09688726062920083,-0.22660321097377395,-0.9650402579881983
40.0,0.11765447154471544,-0.05017060057697351,-0.04169718257090406,4.481581694204039,1.4653787980967363,8.587459143531525,-0.037726434003971354,1.5875426173616574,0.3858415523959387,169.43842364935745,27.197710253456222,-9.682660470757934,0.08887773829161515,-0.09871765458761379,-0.22808514124219778,-0.964460719958694
41.0,0.12861218200891686,-0.04269282717020719,-0.037695749503577985,4.54573708366116,1.4673322561912252,8.551989940429358,-0.16563261024315312,0.5271622457007978,0.25870898664343783,169.48044454357273,27.627464957757297,-9.734427393597093,0.08845470923029297,-0.09912024628382224,-0.2317459393922202,-0.9635475080899459
42.0,0.12882271177550483,-0.06999265670076056,-0.03566760331197782,4.449297928140572,1.4339941178674458,8.605829942677307,-0.11640698175414935,-0.5755317803754074,-0.017073639054362877,169.38490596081076,27.009292692293283,-9.465130568356376,0.08940240233082311,-0.0969460028100858,-0.2265450564259488,-0.9648544532716644
43.0,0.16637418980180585,-0.09614503015997902,-0.06207624292832791,4.501366958900004,1.411698269079465,8.584473361807351,-0.13719664399985013,-0.9632440476190476,-0.6001383893447229,169.5844320182833,27.346956253980743,-9.347600548874153,0.08764711692072233,-0.09572797932775093,-0.22964487571812595,-0.9644516936451237
44.0,0.1804374789254805,-0.050299857629912716,-0.08017790641040051,4.584247227529879,1.440856815031284,8.536798892885242,0.557025717938631,-0.5576108870967742,-0.2987491101869544,169.8156175068375,27.884451629294517,-9.585066595481624,0.08555740173993105,-0.09730211466387545,-0.2343283130549155,-0.9634006030860027
45.0,0.1887467685736765,-0.04946405155295794,-0.07984170694241503,4.651986812034019,1.4710246899704018,8.49621445431044,0.3175894964594807,-0.23305959874114865,-0.3076505189015024,170.03319353902066,28.332226921059533,-9.825032314263234,0.08364727497283728,-0.09887380048555691,-0.23816050871717062,-0.962497168014874
46.0,0.18133190963246038,-0.04726274774268481,-0.08103068450039339,4.676100932898729,1.4744831591173055,8.483514293207445,-0.020856749466112184,0.40274343411636887,-0.10582218725413062,170.1362444269604,28.48554990446218,-9.856304559589375,0.08272813805477502,-0.09894327907534374,-0.23954851144767902,-0.9562988469375445
47.0,0.18627177700348435,-0.05254954853696002,-0.06930369787568844,4.630816005395077,1.4759001161440182,8.50838185156045,0.28572131055411937,0.7492179011651867,0.07130212431156571,169.93173846052974,28.1852661009329,-9.833541736915066,0.0845429362382451,-0.09918931211438313,-0.2368353633516916,-0.9597763053924546
48.0,0.19123225057135362,-0.055936457982091355,-0.061078453411262223,4.588588850174216,1.4811794237758042,8.530676819901839,-0.022323770184706437,0.7822135738638492,-0.20586058971188786,169.80038332209358,27.90420225918849,-9.845900771795737,0.08568026178749394,-0.09949228235378967,-0.23429391410850098,-0.9617565471591545
49.0,0.17226743096924058,-0.06203888951331911,-0.0572481360758308,4.564981829080963,1.500651155820314,8.539704769397925,0.19311518864036567,0.30628535836049603,-0.3518742272676183,169.84285199130795,27.751208272451386,-9.962648926604473,0.08535376590910795,-0.10032023725600389,-0.2329837847424225,-0.9627603252808061
50.0,0.14493387284103257,-0.058742647334307445,-0.05095181896519427,4.502013412760855,1.5214465550185454,8.569791315424677,0.3912976284140721,0.9179217713836124,0.06591407215915474,169.90091463414635,27.33144599303136,-10.063314881420704,0.08494157228485258,-0.10089634852384696,-0.22939611166629198,-0.9639665818386346
51.0,0.16056798171668352,-0.06830317335431418,-0.05917013225431794,4.488007942752239,1.5265681315799333,8.57625379341351,-0.1361203214566708,-0.056678749391180616,-0.08428402832415421,169.8462449889476,27.241104211157317,-10.087030740699113,0.08542927126522049,-0.10119353809636204,-0.2285856582791952,-0.964461397158218
52.0,0.16333670525645344,-0.07461578809336483,-0.06215390955752875,4.5150267880558985,1.5214941366003525,8.562827919523437,0.07456867483421376,0.1300251020943389,0.10990361919748227,169.70665907983965,27.42019313626316,-10.07363437113634,0.08659120528642614,-0.1013962911056161,-0.229970489426773,-0.9640097838859539
53.0,0.1566762204488404,-0.07396013637555732,-0.052237458319283656,4.517969727623543,1.5261207897793265,8.560135438911995,0.10153001011576934,0.34407431343898687,-0.05414044059795438,169.57694775392454,27.440009038627252,-10.10551309430145,0.0876712346849125,-0.10192241624911016,-0.22999809721141956,-0.9638527923245666
54.0,0.14986624704956725,-0.06549548536960025,-0.050412498595032045,4.583912180135625,1.5181739163013752,8.525786407403245,0.12086119853134014,0.046527855831553694,0.08298794537484544,169.53297225656587,27.87477871754524,-10.094877486793301,0.08792464216777189,-0.10201149963058709,-0.23368095953280132,-0.9629272855498108
55.0,0.140340189577011,-0.06909182870630551,-0.04757184069536549,4.595028286688397,1.4836030871829453,8.525976921059534,-0.061713217938631,0.8279874302199243,0.24452296654302946,169.38836592859016,27.947109980892435,-9.868195271814468,0.08916171348019931,-0.10051538712712152,-0.2342834415405942,-0.9628236606934923
56.0,0.12360046457607432,-0.06981342025401821,-0.0395609006781312,4.526420516278896,1.4768408826945412,8.563574613165486,0.25349134539732493,-0.044823161365254216,-0.14241691956090063,169.14028839309128,27.495560301225133,-9.78687104267356,0.09132293389981641,-0.10025302551084636,-0.2302923766868982,-0.9635986888321908
57.0,0.13124161702446518,-0.05816005395076994,-0.04265220486306246,4.541845191262973,1.486665917350418,8.55428533962759,0.07951416207710466,0.5685109212843281,-0.11698934097635906,169.16792645461018,27.596767168708553,-9.854047244389495,0.09108638983739835,-0.10078617278296056,-0.23112650335918478,-0.9633784445026414
58.0,0.12385448278445915,-0.05282904349780826,-0.037380390393765686,4.511886403656662,1.4801464913266642,8.571285077366905,0.06387686860739576,0.7739781199655315,-0.026507062305646086,169.1317110636544,27.397886928178036,-9.790418586789555,0.09142873865198003,-0.10031091284702709,-0.22945929538533588,-0.9637999669484097
59.0,0.12511333408264955,-0.05326271027687237,-0.03387883556254917,4.477895357985837,1.4729455621745156,8.59056067588326,0.08636455172155408,0.5376941197407366,-0.09632694541231127,169.04163739650068,27.172023107039827,-9.728726443370425,0.0922353211861676,-0.09991972828781237,-0.2274876648787981,-0.964234821624705
60.0,0.12163238544827841,-0.05152598254093142,-0.03409314000974111,4.443381664231389,1.4691210520400133,8.609780075680945,0.15607320819751977,0.49550644411974076,0.020791184294331425,168.9315499606609,26.93949271289948,-9.678695534075157,0.09318570773181971,-0.09968295315874265,-0.22547295933460718,-0.9646399724053052
61.0,0.11092240830242403,-0.04828856168746021,-0.03124798621258102,4.409165261698699,1.4589547038327522,8.628800344685477,0.07892173391780001,0.5560488554194297,0.06598666217076918,168.81992525570416,26.71482896856618,-9.586618616762205,0.09418442837810496,-0.09911682433704247,-0.2235100535618748,-0.965058250439474
62.0,0.113380165598891,-0.046665917350417765,-0.03237458319283654,4.37687610055824,1.441003709115432,8.64902251695328,-0.00012410550372784351,0.7023458281817841,-0.0034936870106028264,168.67845200629426,26.504739425274437,-9.449116743471581,0.09540396584916261,-0.09822439328575175,-0.22166635343711366,-0.9654551288704059
63.0,0.11648364617286726,-0.04737739312877001,-0.03041062530440973,4.413640365666329,1.4575044022329622,8.626559139784945,0.3977440897680866,0.043726115544565625,0.012729009778577046,168.5517906316736,26.750561987186693,-9.584369497208797,0.09641056908639617,-0.09964325864673484,-0.2235699082273051,-0.9647644646832265
64.0,0.1159184743921172,-0.05514030946761082,-0.03399947547862575,4.450126634446068,1.4833374545727025,8.603348694316434,0.21168886516054103,-0.3990038777115882,-0.12401183919673298,168.54905679817165,26.989912329998877,-9.778911899142033,0.09639479042261437,-0.10124719383949647,-0.2254792224431456,-0.9641579413738713
65.0,0.12474167322318383,-0.0492443145629613,-0.03598029298265333,4.582119815668204,1.523325840170844,8.52457532501592,0.40273406766325726,-0.7857353602337865,0.1061406466599228,168.4307936195721,27.870005338878272,-10.129685568169045,0.09718628049417409,-0.10451960598591284,-0.23262597497883183,-0.9619905722528193
66.0,0.11500655651717806,-0.04213592596755461,-0.03238432430407254,4.685410812633473,1.5462144543104417,8.464356899329363,0.17117427222659323,-0.43036276272900975,-0.45194541231126595,168.4202306020756,28.553093739462742,-10.351403562998764,0.09710254774118618,-0.10645268287887302,-0.2382904270252145,-0.9604040606976135
67.0,0.12115925322794113,-0.04506637112239732,-0.04469261043483868,4.717775759270828,1.5339134043092653,8.449023636571162,0.06360984300953286,0.5549221582399083,0.21856830714647302,168.60321700634216,28.763211599938312,-10.284770016545947,0.09555504883409004,-0.10559982927907935,-0.2402880808750576,-0.9601708851762637
68.0,0.14198777917475883,-0.042906157724100016,-0.04668484629868269,4.691748394415677,1.5271943290700725,8.465791744103274,0.10038667659075047,0.27163280367130105,-0.27907943340364705,168.56899498175937,28.585727741822215,-10.22242837495088,0.09585942423739645,-0.10514493734700658,-0.2388215808563029,-0.9605688499894094
69.0,0.1364700800635699,-0.0403509283244156,-0.04891461976992506,4.693681416869897,1.5411202060096905,8.462419681575447,0.0773870786947608,0.18569159384793932,-0.12770695940535653,168.66717798243116,28.59420315662539,-10.316091299610617,0.0950400861010331,-0.10569722068963233,-0.23894912825457237,-0.960564232533107
70.0,0.13746521125054784,-0.05018867086109506,-0.04147062898128713,4.6994074912456325,1.536205357959699,8.460718663986555,0.01357329750556106,0.31862941780741355,-0.1116680520304292,168.6744687587402,28.633770539760377,-10.287625259973531,0.09497809960319348,-0.10547596462790784,-0.2392799311918398,-0.960518067395211
71.0,0.14507088444585012,-0.04910149140072474,-0.04865820984862941,4.749970314878371,1.5322864862557106,8.432874037324659,0.013097296536677724,-0.09248833332026385,-0.20369285483391752,168.8404576100471,28.97420538714818,-10.29716722516866,0.09353298297495105,-0.10527198242391608,-0.24233278131882274,-0.959911082518931
72.0,0.12935071747030832,-0.04921584054550224,-0.044803866471844436,4.782011914128358,1.5437387134240006,8.412704657000486,0.01265173654040688,0.29254477164587317,-0.11493340451837697,168.89153413135512,29.190857873440486,-10.392824360271252,0.09304132382788205,-0.10597522005095353,-0.24413055648533213,-0.9594271641714434
73.0,0.13322318384474166,-0.04164287587576337,-0.040060132628976064,4.760714473043349,1.543313663781799,8.424621782623355,-0.05688246974635645,0.49236165748754257,-0.06761876662545427,168.87036594732305,29.045773856356078,-10.379919729496834,0.09324068114982578,-0.10586089970589338,-0.24290615006893712,-0.9597332628513355
74.0,0.1423135888501742,-0.05336060844479413,-0.04243790041587052,4.741243565246712,1.5406637443332958,8.435813195459144,-0.07366012888239482,0.382931980817504,-0.15098488254467796,168.8560067063804,28.917894608669584,-10.344865778726911,0.09338512123082687,-0.10560438040747819,-0.24180670140466823,-0.9600257191484018
75.0,0.13344239631336405,-0.06123502304147466,-0.037995391705069124,4.723119815668203,1.5420552995391708,8.445591397849462,0.21250960061443933,0.2571716589861751,-0.1686347926267281,168.81580261136713,28.796774193548387,-10.341733870967742,0.0937812867219662,-0.1056543778156682,-0.24075399894930877,-0.9602455991397848
76.0,0.1380153609831029,-0.06290629800307221,-0.04440860215053764,4.736863287250383,1.5570491551459291,8.43549155145929,0.006240399385560674,-0.002534562211981589,-0.219758064516129,168.86508256528418,28.889554531490013,-10.449212749615976,0.09334071795391705,-0.10641781399231952,-0.24151999486635947,-0.9600112473348692
77.0,0.12444593683264021,-0.0677943314225769,-0.04721666479337605,4.75666203963883,1.5550958000824244,8.42501723427372,0.10759420310216927,0.38155780506537784,-0.09967486699636581,168.9209608341763,29.0210769781949,-10.451338934472295,0.09285169343763815,-0.10634744713759317,-0.24269071332374206,-0.959773716742441
78.0,0.12844800681877788,-0.06836721179423777,-0.04392323255029786,4.766568347008356,1.5497253193960507,8.420864991944848,0.2300403811209771,0.38351123740212056,0.08526721319920574,168.83020007914652,29.08537527865198,-10.423394121614027,0.09359847524416468,-0.10632648492056311,-0.24316742616263903,-0.9595827787437246
79.0,0.1294054550222922,-0.06050215428421565,-0.04149387433966505,4.747659173504179,1.55082233711738,8.43018249597242,0.034148214754036954,0.4511558203139635,-0.32387344985201,168.82172806376678,28.9615132441647,-10.421979318871529,0.09367111165434039,-0.10629215607721704,-0.2421061688716421,-0.9598462570855719
80.0,0.14740729084710202,-0.07206807538121465,-0.05280971113858604,4.690641152448391,1.537556367314825,8.464172867258625,0.1509183807275861,0.15880563673148254,0.0683954797497284,168.8012396500693,28.583943323592223,-10.293684903150876,0.09393528175332508,-0.10522759464598552,-0.2389384358313289,-0.9607198946535536
81.0,0.16714143344198418,-0.07358165673822638,-0.0617120752313514,4.69589891723802,1.5302827919523434,8.46291285452025,-0.12303351316923306,0.8418116125285677,0.2764932467873066,168.64551229815294,28.615478766250796,-10.25250201378742,0.09522229360477313,-0.10521052441362255,-0.23910839491412839,-0.9605539034619532
82.0,0.17003885204750663,-0.07563032482859393,-0.06166642313888576,4.66521460417369,1.5324773519163757,8.479619291146829,0.12311640627927017,0.22713613671274963,-0.10481494230264882,168.4602463143007,28.40838356093814,-10.243117647334307,0.09681828985903489,-0.10548551661593797,-0.23720200663094304,-0.96083631318495
83.0,0.18520298977183322,-0.07568843430369787,-0.06372875688434303,4.638942171518488,1.5201695515342246,8.49643253343824,0.16256146734854446,0.19914314516129034,-0.06144644964594807,168.2681463906373,28.235782602281667,-10.136972610149488,0.09846217322521636,-0.10502369637018097,-0.235623525822384,-0.9611060185855624
84.0,0.19018961447678992,-0.07979032258064517,-0.06798977183320219,4.605061762391816,1.509380015735641,8.516686073957516,0.08699842643587725,1.2038404799370572,0.15865706136900076,168.12645062942562,28.00763424468922,-10.042087922895357,0.0996929033072384,-0.10449095593312352,-0.23359876609795438,-0.9615298123819827
85.0,0.1852214791502754,-0.08268273013375294,-0.06252439024390244,4.587242918961447,1.5298371361132965,8.522458693941777,0.053589693154996065,0.16200088512981903,0.043190647128245455,168.04176583398896,27.889768145161288,-10.1715160306845,0.10044403927675061,-0.10566247205546812,-0.2324164306115264,-0.9616158437401654
86.0,0.18587686860739575,-0.08774862313139259,-0.056713808025177025,4.572867427222659,1.5202008261211641,8.531608379228949,0.12583718528717544,0.25569802321007074,-0.1592262490165224,167.91357444925256,27.793951612903225,-10.103147128245476,0.10153235507789143,-0.10533675368902437,-0.23154622716463413,-0.9617489314870181
87.0,0.1881158536585366,-0.07359205350118016,-0.050207710464201416,4.553417584579071,1.5188221872541303,8.542227576711248,0.10785306845003934,0.3706161487018096,-0.11315647128245475,167.85280536978757,27.66985887096774,-10.079144128638866,0.10207299427281669,-0.10522136868725411,-0.23041889315893,-0.9619727153322186
88.0,0.19898937844217152,-0.06809441384736427,-0.060700629425649084,4.551519276160505,1.517782061369,8.543787175452398,0.04334185680566483,0.27195121951219514,-0.12900767112509834,167.92242083005507,27.65594758064516,-10.072762588512981,0.10147951843076318,-0.1050304082226593,-0.2303915724343037,-0.9620704061943353
89.0,0.17173387096774195,-0.05245161290322581,-0.05513709677419355,4.602596774193547,1.5124999999999997,8.51721774193548,0.15786290322580643,0.04959677419354839,-0.11844758064516128,167.94490927419355,27.992288306451613,-10.064415322580645,0.10124590366935483,-0.10504519549999997,-0.23328370161290324,-0.9613931966612905
90.0,0.16916129032258065,-0.08471774193548387,-0.06264516129032259,4.549370967741935,1.4746129032258066,8.549846774193547,-0.44652217741935474,2.7015120967741932,0.9376512096774193,167.70660282258063,27.65040322580645,-9.781451612903226,0.10337465295161291,-0.10305712319354837,-0.2302698941048387,-0.9620335729838709
91.0,0.1478951612903226,-0.047709677419354835,-0.036040322580645164,4.276701612903226,1.4067419354838706,8.696951612903225,0.23674395161290324,1.3671370967741934,0.21134072580645163,166.87978830645162,25.871522177419354,-9.191683467741935,0.11074361483064515,-0.09910071631451613,-0.21487835356451612,-0.965067807830645
92.0,0.1483064516129032,-0.049596774193548396,-0.04130645161290323,4.1784596774193545,1.384306451612903,8.751330645161293,0.09017137096774194,0.7414818548387095,0.016633064516129045,166.55912298387096,25.225806451612904,-8.990020161290323,0.1135846044919355,-0.09784373608870969,-0.2092860564919355,-0.9661819467499999
93.0,0.1349032258064516,-0.05178225806451613,-0.04466935483870968,4.037362903225807,1.3427903225806448,8.822887096774195,0.6066028225806451,0.9147177419354837,0.5992943548387097,165.91431451612902,24.324899193548383,-8.659274193548388,0.11928243358064516,-0.09577405342741935,-0.20126884227419356,-0.9673827636532257
94.0,0.17232258064516126,-0.06501612903225806,-0.05262096774193547,4.151274193548387,1.4350887096774192,8.755379032258064,0.37001008064516133,-0.14102822580645163,-0.12142137096774186,165.8915322580645,25.056602822580643,-9.317489919354838,0.11923552496774192,-0.10156491195161291,-0.20694338893548386,-0.965612202653226
95.0,0.2034677419354839,-0.0630241935483871,-0.0641532258064516,4.269790322580645,1.5268306451612905,8.682258064516128,0.17076612903225807,-1.0585685483870968,-0.5482862903225806,166.0194052419355,25.827116935483872,-9.981754032258065,0.11789821521774191,-0.10708480301612903,-0.21310907141129032,-0.9638301239112905
96.0,0.19243548387096776,-0.06033064516129034,-0.05848387096774192,4.396612903225806,1.5492177419354842,8.615927419354838,0.1918850806451613,-0.18160282258064508,-0.15624999999999994,166.23377016129032,26.646522177419357,-10.19092741935484,0.1158922260645161,-0.10881987490322581,-0.22016921475,-0.9623296924596777
97.0,0.16489516129032258,-0.0553951612903226,-0.0512016129032258,4.424653225806452,1.5472741935483874,8.60387096774193,-0.035483870967741915,0.0966733870967742,-0.26239919354838703,166.30418346774195,26.82772177419355,-10.188558467741935,0.11526917475806453,-0.10878591195161288,-0.22175676877419354,-0.9620927875483872
98.0,0.15128225806451612,-0.048241935483870985,-0.04623387096774194,4.472637096774194,1.5413145161290327,8.581491935483868,0.08649193548387098,0.6441532258064516,0.12056451612903224,166.29879032258063,27.137953629032257,-10.175201612903226,0.11527055350806453,-0.10885979385483868,-0.22439776975806452,-0.9615005985645162
99.0,0.13280645161290325,-0.041201612903225826,-0.0335,4.496104838709678,1.559709677419355,8.565685483870968,0.3216733870967742,0.012600806451612878,-0.0031250000000000028,166.05851814516132,27.289667338709677,-10.311340725806451,0.11723130726612904,-0.11048997466129035,-0.22537034561290326,-0.9608508691290321
100.0,0.1505241935483871,-0.04797580645161291,-0.053596774193548385,4.33966935483871,1.5153870967741934,8.651612903225807,0.1432459677419355,1.488608870967742,0.41189516129032255,165.59475806451613,26.266280241935483,-9.937752016129032,0.12140310947580646,-0.10777784792741937,-0.21649539116935484,-0.9626148841935481
101.0,0.16413316286388668,-0.05644020456333596,-0.06436270653029111,4.2920621557828476,1.5012401652242329,8.678844020456335,0.15753589693154996,-0.08798313335955943,-0.13264899685287174,165.46144767899295,25.960863739181747,-9.811457513768685,0.1225790820702203,-0.10692536301278521,-0.21388129779661683,-0.9631727532631783
102.0,0.15287706530291106,-0.06121203776553896,-0.04089103068450039,4.307555271439812,1.5004950826121164,8.67183733280881,0.05628810975609755,0.32427960267505895,0.052425501573564126,165.46343553304484,26.06291674862313,-9.814700531077891,0.12255165926494885,-0.10701404152655392,-0.21475784915637292,-0.9629858636880408
103.0,0.1657086939417781,-0.058839889850511425,-0.05500196695515343,4.252007474429583,1.4716628638867035,8.704027537372149,0.27030635326514557,0.03330915617623918,0.017770210464201415,165.23632966168373,25.706029946892208,-9.597572039732494,0.12454802294295828,-0.1054968158076318,-0.2116955869209284,-0.9635799501746655
104.0,0.17012450826121162,-0.06265381589299765,-0.06624291896144768,4.316068253343824,1.4973717545239968,8.668110542879624,-0.1978105330448466,1.543040666797797,0.28950506490952005,165.1686184598741,26.112011949252555,-9.796643882769473,0.12500185970535013,-0.1074444727586546,-0.21491471368627066,-0.962586198555075
105.0,0.17921951219512194,-0.06192368214004722,-0.06470613690007868,4.270715578284815,1.4899197482297404,8.692160110149487,0.09280340283241541,-0.4900472069236823,-0.35159323367427225,165.16875983477576,25.82639407946499,-9.725791699449251,0.1251082089575138,-0.10673119576239182,-0.21253336519394178,-0.9631818029952794
106.0,0.17770967741935484,-0.06566129032258064,-0.06328225806451612,4.303669354838711,1.4977096774193548,8.674379032258063,0.15327620967741934,-0.29032258064516137,-0.317741935483871,165.16159274193546,26.038860887096774,-9.799092741935482,0.12512871520967744,-0.10746090777419356,-0.21427494141129033,-0.962722384951613
107.0,0.17985346184107004,-0.05707710464201417,-0.058034421715184886,4.361702202989772,1.5107977970102284,8.643226986624704,0.019247885523210058,-0.3370279307631786,-0.27884293863099924,165.29155807435092,26.416066335562547,-9.914120279307632,0.12390117375845791,-0.10834024490243901,-0.21749190009874117,-0.9620653890932338
108.0,0.16990656963021245,-0.0454417781274587,-0.05849704956726988,4.473786585365852,1.5131166404405985,8.584919944925254,0.11322777340676633,-0.402183320220299,-0.17087308221872544,165.40709456136898,27.148985788749016,-9.99007425255704,0.12273404734697088,-0.10914714553992919,-0.2237897870171125,-0.9606687338288751
109.0,0.1479734461054288,-0.04721282454760034,-0.037962234461054296,4.479340873328088,1.5078365460267507,8.582560778914239,0.18206751573564123,0.17007769472856016,-0.03445367820613689,165.2918789339103,27.181020112116443,-9.958595594020457,0.12368721568154994,-0.10914293998367428,-0.22402681225452398,-0.9604970795999215
110.0,0.1838774586939418,-0.056611526357199064,-0.05647777340676635,4.471458693941779,1.5107505900865466,8.586753737214789,-0.024301730920535003,0.539250590086546,0.14266202793076319,165.25100683516916,27.129123229740358,-9.967583349724626,0.12403661801199842,-0.10928428544885918,-0.2235028103941778,-0.9605705653758851
111.0,0.1929362331872167,-0.06958514105878386,-0.07159737364654753,4.464566520549998,1.517460548499494,8.58961496384549,0.1748979056610843,0.3978030984226893,-0.14203184125735263,165.18972792795324,27.08075065096849,-10.01358358154434,0.1245752622354539,-0.10973077377934509,-0.22299076530999212,-0.9605706966904387
112.0,0.20584262485481997,-0.06056361694953355,-0.07877272301524858,4.4367954553969495,1.5239663088681574,8.603399142032895,0.09713620696114797,0.21554690719718256,-0.09176729749728371,165.14467710323703,26.899246293226177,-10.043401743565248,0.1250074492766569,-0.10994214773152935,-0.2213744632057435,-0.9608641392460848
113.0,0.2144954291708816,-0.06904947360533512,-0.07996681465662583,4.458602028773744,1.5297110730208683,8.591474532613988,0.11651885232850025,-0.11753616621707691,-0.09098373515417182,165.28995447903787,27.044171197688357,-10.092398596437002,0.12374267753636992,-0.11014195615973549,-0.22268758462591318,-0.9607002443244632
114.0,0.19170431980817507,-0.0552317260499794,-0.07567906785058634,4.550870330823123,1.5316387546363943,8.542206736353082,0.11072318384474167,-0.06032698287812372,-0.1986624704956727,165.45244651755274,27.650322205987038,-10.164844891536474,0.12220768822037387,-0.11066967786519799,-0.22797204579970773,-0.9595852960222544
115.0,0.162567344797872,-0.04065284178187405,-0.0623163238544828,4.637803379416282,1.5334905024165448,8.494521936233188,0.2657028586414897,-0.08014873927541118,-0.06451612903225806,165.51711133902813,28.22791975759619,-10.23166516803417,0.12153419530216172,-0.11133173765801205,-0.23288898996515678,-0.9584105346594356
116.0,0.142491851185793,-0.025799333108538464,-0.051927616050354064,4.7102603873965,1.541290322580645,8.453187216664794,0.237835319021393,0.07085955940204564,-0.019934153834625906,165.50273032108203,28.70982728260462,-10.336841070023603,0.12149808350904798,-0.11241060637967856,-0.23688365912105197,-0.9573148685054887
117.0,0.13206417893672023,-0.021007455696676787,-0.04800944138473645,4.751487392754113,1.5469708890637284,8.42913491439062,0.18790861151699076,0.23492820613690008,-0.018646266531789742,165.42504730058823,28.988469896219698,-10.400939221085759,0.12205011552321005,-0.11326798848488251,-0.2390924863897943,-0.9566053990875198
118.0,0.1263661908508486,-0.015542130306095688,-0.03769903712862015,4.734153834625904,1.5457819115057507,8.439221835075493,0.05408775429920198,0.7722020062942565,-0.06164648196021131,165.3391077516766,28.871827114008468,-10.37872901914503,0.12281007507343297,-0.11323831269866245,-0.23802340356356078,-0.9567796034416093
119.0,0.12991120602450262,-0.019142032894983327,-0.04144168446292759,4.722253568618635,1.5458364242628595,8.445839796185979,0.07982325502978532,0.3235289985388333,-0.09137911655614252,165.32114757783523,28.78945618373234,-10.371560170094789,0.12296775842381323,-0.11315566489003781,-0.23734093875950696,-0.9569397648390843
120.0,0.11928290434978081,-0.018571803229553034,-0.03212918212131431,4.714387995953691,1.536332846277772,8.452302274174814,-0.07513066202090592,0.5350680004495898,-0.020955097223783293,165.29063869843768,28.73274933498183,-10.300724026825522,0.12326053400734327,-0.11264126478176165,-0.23687983982428534,-0.9570780206414149
121.0,0.12547937507024837,-0.02795623993106291,-0.0381574313438987,4.6761908508486005,1.5322419542167776,8.474207785395826,-0.0190021917500281,0.4071386422389569,-0.1735135438911993,165.29025935708665,28.482793825634108,-10.2512176389045,0.12334799894308941,-0.11211211917687611,-0.2348065907894047,-0.9576363896519424
122.0,0.13210632797572214,-0.04945018920235287,-0.05296541905511221,4.508791727548612,1.4921201903263273,8.56821325540444,0.06150598516353827,2.2878041755647973,0.6389513319096325,164.90125182645835,27.381960445468508,-9.884632226218576,0.12694274350773666,-0.10933665336105802,-0.2253666356268031,-0.9596637205694802
123.0,0.14844333295867518,-0.05343246787306583,-0.05440129631711064,4.362564834588438,1.4913458094488776,8.64389157393878,0.09483229365703794,1.165604276722491,-0.0748119684537859,164.62225609756098,26.424740783410137,-9.788288655351991,0.1295295245703046,-0.10857326444704209,-0.2170545038387472,-0.9613223113446477
124.0,0.15850354051927612,-0.05524311565696302,-0.05226593233674272,4.305216365066876,1.5017781274586939,8.671658536585365,0.3940991345397325,0.2839398111723054,0.10253737214791503,164.4827006294256,26.05201612903226,-9.827045633359559,0.1307653297828481,-0.10892255267820614,-0.21370507719433518,-0.9619038142376082
125.0,0.18471125098347757,-0.052358772619984284,-0.0537513768686074,4.275659323367426,1.5160653029110938,8.684949645948073,0.278668371361133,-0.03175649095200622,-0.10599429583005505,164.36441778127457,25.852970102281667,-9.901721085759245,0.13180173634854442,-0.10964003521557827,-0.21185235018489373,-0.9621201023729347
126.0,0.17218646734854445,-0.05001101494885918,-0.05310306845003934,4.314033438237607,1.5311089693154991,8.663828088119594,0.19293371361132966,-0.28235149488591654,-0.1564835759244689,164.42566876475215,26.10009343036979,-10.016728953579857,0.13122380444492523,-0.1106158268288749,-0.21391316584775766,-0.9616423482399684
127.0,0.17289496459480724,-0.047630212431156574,-0.05179228953579859,4.333224429583005,1.5213105822187252,8.65555291109363,0.06434156176239181,0.09269030291109365,-0.16542707513768684,164.4033487411487,26.226305566483084,-9.9632474429583,0.13139095920830055,-0.11032135362372147,-0.215027409248033,-0.9614026781648309
128.0,0.17142328874901658,-0.04884736428009442,-0.04900904799370574,4.341842053501179,1.5220060975609755,8.651530487804882,0.021334087332808817,0.9829378933910307,0.1474023898505114,164.46261187057434,26.278979396144766,-9.970131785995278,0.13089028023721477,-0.11030626013847361,-0.21552794050708102,-0.9613637775985445
129.0,0.17268745082612114,-0.05758497246262785,-0.04989162077104642,4.336239575137688,1.525886113296617,8.654091856805668,0.0038122049567269846,0.08393366443745082,-0.13867279701022817,164.53657307238393,26.244756835169156,-9.9910134736428,0.13029624863473643,-0.11033971539988195,-0.21526944839063727,-0.9615032395774981
130.0,0.17047678992918958,-0.05265538945712038,-0.06071597167584578,4.345208497246262,1.5248422501966958,8.649324154209284,-0.019893292682926826,0.21719364673485445,-0.18299567269866246,164.50573613296615,26.301435877261998,-9.990113591660108,0.13052147672462627,-0.11041159643784419,-0.2157167879614477,-0.9613649835145555
131.0,0.16977419354838708,-0.057177419354838714,-0.0634516129032258,4.321096774193547,1.5084596774193553,8.664177419354838,0.10529233870967741,0.940171370967742,0.1030241935483871,164.47605846774195,26.14092741935484,-9.865473790322582,0.13081645262903224,-0.1093818419112903,-0.21444702117741937,-0.961722441951613
132.0,0.18700806451612906,-0.059459677419354845,-0.057225806451612904,4.308153225806452,1.5165887096774204,8.669258064516129,0.08986895161290322,0.14541330645161288,-0.07711693548387097,164.52857862903227,26.061542338709675,-9.917439516129033,0.13035475183064515,-0.10962155201612905,-0.21376022836290326,-0.9619152435080647
133.0,0.21488886703383164,-0.06026475216365068,-0.06764260424862313,4.279907946498819,1.5161260818253346,8.682925845790715,0.014527193154996069,0.22986452596380802,-0.06424567269866246,164.4345471085759,25.878678206136897,-9.899428353658536,0.1312132115680566,-0.10953614487096777,-0.21212092815007866,-0.9621723570883163
134.0,0.21470653029110937,-0.06610011801730922,-0.06809952793076318,4.299687844217152,1.516107395751377,8.673950826121164,0.07729887883556255,0.2553808516915814,-0.09255630409126672,164.5091586349331,26.003905635326515,-9.910072039732494,0.13056250759854446,-0.10955258909677422,-0.2132531865952006,-0.9620110189030291
135.0,0.21124409913453973,-0.061485247836349344,-0.07092191188040914,4.309465774980331,1.5210104248623137,8.668208300550749,0.15963193351691582,0.6204059303697875,0.08724552517702597,164.44607469512195,26.07122836349331,-9.951278520849725,0.13108833979209283,-0.11002989130586152,-0.2137348190196695,-0.9617795262185287
136.0,0.20285306845003936,-0.06978619197482297,-0.07430605822187254,4.290901652242329,1.5243274980330457,8.676532258064517,0.06829391227380015,0.3828198760818253,-0.1448834579071597,164.40305861526357,25.946021833202202,-9.959164781667978,0.13144804951376865,-0.11011147035031471,-0.21264487882946498,-0.9619614162128245
137.0,0.19759756097560974,-0.07179661683713612,-0.06377340676632573,4.275483477576712,1.5197033831628641,8.685168764752166,0.09123475609756097,0.29961152635719907,-0.07071941384736428,164.3519718725413,25.845653029110935,-9.922676534225019,0.1319191485302911,-0.10983293916797798,-0.21176747740401258,-0.962121788768686
138.0,0.21954622344610544,-0.07482435090479936,-0.07772462627852086,4.236105232100709,1.5196667977970102,8.704622147915027,0.2062930271439811,0.769470397324941,0.17294084382376085,164.2136777143981,25.58910798583792,-9.897117181353265,0.1331523183052714,-0.1097214537460661,-0.20946318446518486,-0.9624657728973247
139.0,0.20968228991045673,-0.08491851185792962,-0.0697163837997827,4.216612715896744,1.522962047131992,8.713939530178713,-0.08184172567532128,0.6603232362968791,0.09854679479974525,164.15501714060917,25.46371201903263,-9.907550766175865,0.1336795601464913,-0.10983347567007606,-0.20834211002809935,-0.9626253274605672
140.0,0.21191038177662883,-0.08862762729009777,-0.07294631149076468,4.174895657712336,1.525918474392117,8.73288636619085,0.08907028586414896,0.13049108313663782,-0.3379463114907647,164.0689277284478,25.197655576786183,-9.909051740286989,0.13448896671762017,-0.10982724869656438,-0.20599171801955718,-0.9630148903667902
141.0,0.20945637106140647,-0.08233899067101268,-0.07311753025364354,4.1769521561575065,1.5129080963620694,8.734440822749239,0.20607133490689744,0.14950498295305537,-0.04682524071784498,163.98376559514443,25.209813232924954,-9.823772526319733,0.13521627785920348,-0.10930144685811699,-0.20609036053613577,-0.9629510288970066
142.0,0.21114045933086062,-0.0628964819602113,-0.07308905623618447,4.1891251732793835,1.5025555430669515,8.73029672923457,-0.07738329399423026,0.8623950957251507,0.2567555543066951,163.9388979431269,25.287095837548236,-9.763405736015887,0.13558139799333108,-0.10895177101757147,-0.2067394451893897,-0.9628047349166386
143.0,0.19926005456067852,-0.06248926343084028,-0.06832155774135171,4.211870511181803,1.5043238989189804,8.718495573370692,0.5144567391847962,-0.8554158356662336,-0.16393463021678767,163.8248108684401,25.439566664314157,-9.788494352464422,0.13647681308655998,-0.10946589245369268,-0.2079020490140131,-0.9623590795631443
144.0,0.19139270009139922,-0.059094094081011544,-0.05872299085224268,4.3528937809365225,1.5400843764948204,8.640945175318219,0.23145071982281284,-0.249040483117295,-0.2550903949855059,164.0027712176302,26.36139239513711,-10.105244680072456,0.13468658881286527,-0.11225710467922731,-0.2156339928633813,-0.9605576498698978
145.0,0.16236432801580186,-0.047713844837516006,-0.048527506441070206,4.440451611160631,1.5655260592151525,8.592136631718908,0.23743071002942373,0.08737000234379155,-0.09432824233933046,164.0124743184925,26.929024285688143,-10.327037170878086,0.13443817158975285,-0.1143567160492911,-0.2202801062310612,-0.9593018913511565
146.0,0.14507280130137065,-0.038742839019859504,-0.046242510104878155,4.509974035320678,1.5758039422747672,8.55487634103648,0.23483946988489282,0.03544837646693903,-0.05867080881718687,163.9384017933926,27.376835116880265,-10.437490851371379,0.1349284440914933,-0.11565046943298543,-0.22393695637674224,-0.9582438376858065
147.0,0.13847660521402128,-0.037538217306939986,-0.04297570037108582,4.541497639218168,1.5790546068572895,8.537906305844754,-0.0028841596287573767,0.646830207116239,-0.1561056640466737,163.90618457096855,27.585176999824867,-10.477572136936672,0.13513331327312667,-0.11617357157723229,-0.22562018884140023,-0.9577682575722501
148.0,0.14657588700310964,-0.04188913866097188,-0.051674646884717707,4.4964022329624225,1.5679384062043387,8.563998164175192,-0.03581942415046271,0.4613980367914278,-0.0844434921883781,163.9672473867596,27.288809430144994,-10.373214988198267,0.1347042058136076,-0.11505648814495523,-0.22325813658499116,-0.9585215782227343
149.0,0.15780330448465774,-0.04738158929976398,-0.041683713611329665,4.453414634146341,1.5541904012588512,8.588316286388672,-0.2653127458693942,1.7111329661683714,0.3010818253343824,163.94687254130605,27.006127065302913,-10.255055074744295,0.13497789740833988,-0.11397834823760816,-0.22091244060739573,-0.9591452663225808
150.0,0.1758072383949646,-0.0568835562549174,-0.05259166011014949,4.20058064516129,1.4976593233674271,8.720774980330448,0.2166355232100708,1.4676730920535013,0.20874803304484657,163.33357592446893,25.369713808025175,-9.74722167584579,0.14061549167033832,-0.10984893316050355,-0.20686414016994492,-0.9618218955074744
151.0,0.18348033044846573,-0.07451888276947286,-0.05563650668764751,4.068305271439812,1.5004520062942563,8.784703776553894,0.08678943745082611,0.4727183320220299,-0.03005753343823761,163.1842741935484,24.51801976789929,-9.691790420928402,0.1421192470924469,-0.10908838971164439,-0.1995277645483871,-0.9632865155129818
152.0,0.1760241935483871,-0.06183064516129032,-0.05374193548387097,4.143935483870968,1.5321048387096774,8.74423387096774,0.24732862903225808,-0.023588709677419356,-0.13472782258064517,163.22318548387096,25.00226814516129,-9.93150201612903,0.14162095610483869,-0.11138817573387097,-0.20346497540322583,-0.9623051301451613
153.0,0.16214516129032258,-0.05622580645161292,-0.04512096774193548,4.202604838709679,1.5389032258064517,8.716346774193548,0.11209677419354838,-0.024546370967741912,-0.11365927419354838,163.29112903225806,25.380191532258067,-9.99873991935484,0.14095611523387094,-0.1120977087016129,-0.20667724593548392,-0.9616601756612901
154.0,0.14750000000000002,-0.04790322580645163,-0.039717741935483865,4.249225806451613,1.5294919354838714,8.69566935483871,0.029939516129032256,-0.037752016129032256,-0.14964717741935482,163.36194556451613,25.68220766129032,-9.96476814516129,0.14027040547580644,-0.11191022288709676,-0.20936338316129033,-0.9612133880241935
155.0,0.12949193548387095,-0.04083064516129034,-0.04129838709677419,4.290330645161291,1.5222016129032254,8.677064516129033,-0.0065524193548387125,-0.02449596774193548,-0.23795362903225806,163.50740927419355,25.946774193548386,-9.941582661290322,0.13899974241129032,-0.11165865001612903,-0.2117775209435484,-0.9609054067983871
156.0,0.12053225806451612,-0.03754032258064518,-0.037774193548387104,4.347556451612904,1.517717741935484,8.64926612903226,0.1061491935483871,-0.03714717741935483,-0.1204133064516129,163.61159274193545,26.31945564516129,-9.947177419354837,0.1380119082983871,-0.11175886661290321,-0.21503984974999998,-0.9603147443145161
157.0,0.11833870967741933,-0.028435483870967754,-0.03341129032258065,4.380645161290321,1.5132419354838706,8.633370967741936,0.11214717741935484,0.1219758064516129,-0.09264112903225806,163.62706653225808,26.54269153225806,-9.938407258064515,0.1377902128709677,-0.11179228884677417,-0.21693435105645162,-0.9599201326370969
158.0,0.12516129032258067,-0.020887096774193554,-0.03700806451612905,4.39233870967742,1.5110403225806448,8.628338709677418,0.12177419354838709,0.2032258064516129,-0.10776209677419354,163.62757056451613,26.620614919354836,-9.931754032258064,0.1378259469516129,-0.11172406713709675,-0.21758122587096776,-0.9597755181935483
159.0,0.12570967741935485,-0.01431451612903226,-0.04027419354838711,4.417145161290321,1.5062177419354836,8.61725,0.1296875,0.12273185483870967,-0.10776209677419354,163.596875,26.773891129032258,-9.927368951612904,0.13793477660483872,-0.11181365120161287,-0.2189153364112903,-0.959447012048387
160.0,0.1266935483870968,-0.0058225806451612915,-0.03956451612903228,4.439927419354837,1.5067741935483867,8.604749999999996,0.20871975806451615,0.16900201612903226,-0.055292338709677424,163.56093749999997,26.921824596774194,-9.953225806451613,0.13819471694354837,-0.11218109179032251,-0.2201198456451613,-0.9590917271290322
161.0,0.12718548387096776,-0.0015564516129032255,-0.040120967741935507,4.458435483870966,1.5095,8.59456451612903,0.09692540322580646,0.12746975806451613,-0.10488911290322579,163.5273185483871,27.043145161290322,-9.977520161290322,0.13847400126612897,-0.11258721953225809,-0.22111019022580647,-0.9587771983629032
162.0,0.1427258064516129,-0.0038064516129032258,-0.04693548387096776,4.46289516129032,1.5149032258064525,8.591153225806448,0.11900201612903225,0.17006048387096773,-0.10856854838709676,163.50831653225805,27.073538306451614,-9.989768145161289,0.1386811787177419,-0.11277637869354841,-0.2213227309919355,-0.9586782626935486
163.0,0.1361935483870968,-0.0003790322580645162,-0.048491935483871,4.486290322580643,1.5176129032258077,8.579427419354834,0.09375,0.17978830645161292,-0.08618951612903225,163.46995967741935,27.226764112903226,-10.009727822580643,0.13888062603225804,-0.11311271394354838,-0.22258315591935485,-0.9583193375161292
164.0,0.14566935483870969,-0.0017258064516129032,-0.052064516129032276,4.490282258064516,1.5190967741935495,8.576677419354837,0.060887096774193544,0.16743951612903224,-0.10262096774193548,163.45171370967745,27.25211693548387,-10.00609879032258,0.13905816954838704,-0.11323739353225806,-0.22274209307258064,-0.9582417140564514
165.0,0.14136290322580647,-0.0060483870967741925,-0.05095161290322582,4.489750000000001,1.5152338709677424,8.57733064516129,0.0017641129032258049,0.6456653225806451,-0.10997983870967741,163.42782258064517,27.245564516129036,-9.996975806451612,0.13926411425806448,-0.1132064338467742,-0.22269543067741931,-0.958225422064516
166.0,0.13383752950432729,-0.013245082612116446,-0.04446066089693157,4.456895357985838,1.513713611329662,8.594056451612904,0.05450924468922108,0.3522066778127459,-0.09584357789142407,163.4001819433517,27.03465406176239,-9.974097659323368,0.1395682963414634,-0.11292794114122737,-0.2208991806347364,-0.9586272007598347
167.0,0.1327421321793863,-0.009664830841856807,-0.042020653029110955,4.479633556254918,1.5128284815106217,8.581725806451612,0.16975437647521638,0.24975535995279308,-0.13582562942564907,163.37938139260424,27.18263793273013,-9.991769522029898,0.1397464777671125,-0.11322548326101492,-0.2220962146306058,-0.9582901139110935
168.0,0.12445141620771044,-0.00839752163650669,-0.02788690007867821,4.649464201416208,1.560851691581432,8.479442958300552,-0.037421321793863094,-1.0568216463414635,-0.6144546616837137,163.85926681746656,28.31764850511408,-10.434480723839496,0.13534071710129816,-0.11633336455861523,-0.23181679009323367,-0.956165005587923
169.0,0.1557132273050841,-0.027126372185380835,-0.04451161440185829,4.5050527612303775,1.5323152467123753,8.557329006031996,0.06834291053163988,2.684198383818516,0.5510627997264995,163.6721929325428,27.36652154518377,-10.16194082274924,0.1372040438691975,-0.11376867436379304,-0.22378081320829116,-0.9579804391847064
170.0,0.16855419429770335,-0.031079315124948482,-0.05887677494286462,4.274844929002285,1.5038471394852198,8.680559664306323,0.24783072945936832,0.25669092578022545,-0.0056933985238470375,163.17306723240043,25.866602506462854,-9.840849443632685,0.14182555439024386,-0.11114230240770297,-0.21087065162833912,-0.9605469715439661
171.0,0.1764628874988782,-0.0499096829956618,-0.06303324960159898,4.366536785764385,1.554179987505587,8.6284756311029,0.45532672366697946,-0.31297351776968624,0.0960299635013283,163.12922283271166,26.45698648094079,-10.218261185505437,0.14198745798766763,-0.11475589329101964,-0.2154537478001538,-0.9591600851114519
172.0,0.19099855625927387,-0.06485649374015978,-0.060806947381444654,4.407571303975819,1.584054588560032,8.604528138132096,0.1642683972386825,0.24191017266511752,-0.1798272684460314,163.1135984344518,26.713603389958987,-10.435595974342018,0.14201347285221305,-0.11673753170609202,-0.21743826831077717,-0.9585309476178817
173.0,0.2051530940226346,-0.07386019022177145,-0.07686688832486865,4.63283757960396,1.655249166821322,8.466406476619156,0.15594419075152063,-1.7847785879396676,-0.5889301566463044,163.68081573964918,28.2179838350267,-11.072685870727263,0.13675843129235354,-0.12143553838648426,-0.23023038189339012,-0.9555745649261713
174.0,0.19600532450185715,-0.07397750809653633,-0.07282406272299781,4.74232152855287,1.701300541598814,8.39973090681207,0.3631981547216072,-0.47515712769655827,-0.07811113410974696,163.92269391661938,28.93506566428192,-11.456245711580333,0.13449934339204617,-0.12444113886494795,-0.23624386167999473,-0.9541354265468591
175.0,0.1856108447843668,-0.07256536695149396,-0.06734338462664446,4.772168435401532,1.6960725760708468,8.38641669258778,-0.044566343567599226,0.8587309365451119,0.214479420159918,163.67394653541436,29.126578367152764,-11.432721842808263,0.13651905630361555,-0.12494414942893346,-0.23760773348427355,-0.9535076825899127
176.0,0.16482253381289574,-0.06850127383762317,-0.0650450713723727,4.745038599153271,1.661036145142557,8.410131327039077,0.036432399966280754,-0.24965361685586895,-0.236053702558915,163.4498887733693,28.945121248735525,-11.171747089374694,0.13846985265614814,-0.12331328345915288,-0.23604754193289873,-0.9538497842680213
177.0,0.14242029148402083,-0.06187928515229851,-0.06697875688434304,4.8982218725413045,1.6881019819414784,8.313433367052562,0.2858009254055674,-1.221069367951744,-0.3980695740137125,163.83075755872767,29.982847682739497,-11.4796607470683,0.13492415017196807,-0.1253788950028099,-0.2450323769948672,-0.9517512039099325
178.0,0.18731557453823383,-0.06778464651005957,-0.06878835562549174,4.679512195121951,1.5954947360533513,8.449112434903153,-1.168493125023416,2.710595331759769,-0.011387265370349564,163.8916769697651,28.53108257465063,-10.710326046232812,0.1349153348814207,-0.11839478421265592,-0.23338239550372786,-0.9553974667858081
179.0,0.23100633172230345,-0.07639429021018321,-0.1006372934697089,4.4491266719118805,1.4952886740848976,8.591652991645123,-0.14163247911280957,1.1463578547075794,-0.019585253456221204,163.89868073507924,26.999756472219097,-9.894526713124275,0.13538256935259077,-0.11104759732269302,-0.22118014386122664,-0.9591435657768537
180.0,0.24560938143943659,-0.096360008991795,-0.10206136900078679,4.313088119590872,1.4890094039189243,8.665488179536174,0.3420230602075607,0.9695449777078414,0.30042078790603577,163.64819953355064,26.1065609662433,-9.760255095350493,0.13775311342531193,-0.10991212562043381,-0.21347251105728524,-0.9607754762283167
181.0,0.24899085834176315,-0.09346502566408155,-0.08325053388782735,4.229565209246562,1.491855307032333,8.709372072983403,0.3482377018470646,1.2774682945562175,0.2568304859315874,163.1749688565434,25.555600436476713,-9.72241228316661,0.1418930079094077,-0.11013294494305195,-0.20835802363530778,-0.9613261210301224
182.0,0.22021355513094307,-0.08712037765538946,-0.07689408414821475,4.091983065452775,1.4561350267880555,8.78209771083886,-0.010068937094900893,1.9383453223933163,0.17809842268929602,162.66911365254205,24.667369150650032,-9.41283344573077,0.14641912333258403,-0.10786565617736316,-0.2005937683691132,-0.9625824976156756
183.0,0.19033494436326853,-0.06741935483870969,-0.061720055449402414,4.01444157206549,1.442158780113147,8.821461916001649,-0.005821250608819467,-0.15710585965306656,-0.14683788542954557,162.36270887190437,24.17018142819677,-9.280841388483008,0.14916267517140608,-0.10695744397774531,-0.19623625031358885,-0.9631852249526056
184.0,0.18355204721845164,-0.058945106820795255,-0.062369943196064356,4.085564912402049,1.4773621474250902,8.782610156693554,0.41887390736721974,0.67767765279567,0.18980504808592927,162.27125878645353,24.62427788248992,-9.544737782542661,0.14978106859197712,-0.10962808320525788,-0.19972414304720978,-0.9620785210297333
185.0,0.1976454177870386,-0.06123101131755734,-0.06717631699535712,4.105335563990167,1.4907463766236386,8.77106117590775,0.3218484407017058,0.08859295700365721,-3.0621096710897744e-06,162.12881881100805,24.753204047460535,-9.641418851932228,0.15093210345806568,-0.11079002642166906,-0.20058064403737358,-0.9615972821356378
186.0,0.2110642509863596,-0.06000653634327906,-0.06519476746699406,4.12602812817919,1.527521890121418,8.75521744869345,0.3899958175184375,-0.21770194793404862,-0.16106565379283713,162.03186121510277,24.8843370748711,-9.891313281198215,0.15167400061494943,-0.11309786574112564,-0.201330570537963,-0.9610638957043256
187.0,0.2255759042950231,-0.0674226230103492,-0.08694454195162299,4.385528657023542,1.5973492707135513,8.607104884100949,0.18839748633218342,-1.564534537715104,-0.42857910185801606,162.61792753535477,26.593757439125255,-10.519269351812625,0.14618805304710608,-0.1180948483014384,-0.21587397092335936,-0.9579138893375698
188.0,0.21958338881155556,-0.07125104399927373,-0.09199941495692873,4.477124674695878,1.5970176723355327,8.56452097076802,-0.046433632915733616,0.9553900875547217,0.10662409973975667,162.66677257963647,27.173781748673562,-10.560839435937783,0.1456029326337025,-0.11887636039855555,-0.2207904326143154,-0.9568974900307046
189.0,0.20286802667565845,-0.035654471544715426,-0.07849763965381588,4.254181503128395,1.5484828406578999,8.682318384474167,-0.6451335422052378,2.9634676716870856,0.16798031171555952,162.2697046757334,25.722846652429656,-10.121005207747931,0.14943436477838973,-0.11488654288213257,-0.20843892015212995,-0.9594621668427186
190.0,0.25873310291858687,-0.050571044546850984,-0.09091436251920124,4.043439708141321,1.5079612135176652,8.789385560675886,0.05447628648233488,1.0843725998463905,-0.1268721198156682,162.18505184331798,24.366935483870968,-9.740639400921658,0.15055128770353302,-0.11096548136482337,-0.19725145162096774,-0.9621218218041476
191.0,0.2543970814132105,-0.09461367127496159,-0.0910115207373272,4.017624423963134,1.5225157450076807,8.801198540706608,-0.11219998079877108,1.0526929723502305,0.2679243471582181,162.09778945852537,24.190077764976955,-9.813721678187402,0.15131540156374806,-0.11163469029953917,-0.1956129577407834,-0.9623269667427037
192.0,0.26031478775617245,-0.09896891274212281,-0.11112043385410814,3.802862369337979,1.4623555318272077,8.905233121651492,0.3502575774605673,0.5123786458918737,-0.10382426426510807,161.8812665083736,22.825597989490838,-9.334664364860814,0.15355300992487164,-0.10685759511711812,-0.18432292732741376,-0.964713229754318
193.0,0.24003465587651268,-0.08919954291708815,-0.09266662920085422,3.840451837698101,1.4946822899104566,8.88513337829231,0.6067869319246189,-2.223547965606384,-0.6400003746581244,161.98368129706643,23.073374452062495,-9.55290641040051,0.1525969544511258,-0.1087493727587951,-0.18626376907440712,-0.964322140033532
194.0,0.23116663312169508,-0.09930657315896918,-0.07793308954416303,3.7810229038095766,1.4824535837792199,8.911730855187663,0.3636629976309409,-0.22919675367448133,-0.20155986296225625,161.80916663181472,22.69542780403289,-9.451459010222939,0.15422346676732335,-0.10782386570413943,-0.1829667640557439,-0.9647827324801497
195.0,0.23160482193719167,-0.099718570757672,-0.07332138348175893,3.8155191323963393,1.5313035968051247,8.89124561192563,-0.1564941540263114,1.2958998950521603,-0.24310904054410812,161.89839091959402,22.902653418145476,-9.770420365326522,0.15339123996200268,-0.11054496383133239,-0.1844559103919272,-0.9643877993660348
196.0,0.2271733787105313,-0.0952202684817546,-0.06199479312336793,3.8489500423886454,1.533965930507017,8.876294848973565,0.2668950120805463,-0.13197996798851275,0.238444519666502,161.673321803883,23.118809427966745,-9.806269130435918,0.1552043396507402,-0.11138884708463703,-0.18606592162453503,-0.9636894888458438
197.0,0.22101166406584222,-0.11010535734979042,-0.07767923688239133,3.84715532541672,1.5422708900221571,8.87756277048356,-0.025936743332174494,1.0210829057438575,0.40118528107636664,161.25835852473568,23.102349901499764,-9.851343933544362,0.15869722137364475,-0.11241687465261786,-0.1854270895107052,-0.9631629999635536
198.0,0.19642767834815847,-0.0954331440002858,-0.0758500339370557,3.8334090665523535,1.5403293680562995,8.884351802236273,0.13497124281070266,0.8851386953881328,0.3930111992283785,161.00920319365557,23.0092612438824,-9.832192423105777,0.1608206482434894,-0.11260754335905404,-0.18441541640160042,-0.96300571606866
199.0,0.22859447004608294,-0.103394777265745,-0.07930107526881722,3.7964285714285717,1.5398003072196622,8.900844854070655,0.270497311827957,0.350326420890937,0.2986751152073733,160.40975422427033,22.775777649769584,-9.808899769585253,0.16592210274193547,-0.1131585701689708,-0.18186934245775727,-0.9625623380952382
200.0,0.252062980030722,-0.12571274961597545,-0.06962211981566821,3.8210245775729645,1.5638248847926264,8.886173579109062,0.11722350230414744,-0.029809907834101368,0.022542242703533028,160.32356950844854,22.93049155145929,-9.975950460829491,0.16656044120122887,-0.11480461575115207,-0.18291934367127494,-0.9620728104439326
201.0,0.2450376156756959,-0.11814439324116743,-0.06997703345697052,3.9308568805964548,1.576513806151886,8.835199205724777,0.23678276385298413,-0.7408267299838897,-0.44876339402794946,160.44262789891724,23.63218406953655,-10.112446611217264,0.1653492162409052,-0.1163955213767562,-0.18881627417350416,-0.9609313810762805
202.0,0.22615626990371285,-0.10502982278670714,-0.06518699186991872,4.1094049679667295,1.6136723989359703,8.745145779476225,0.16231477838971936,-0.7638869375444906,-0.33680547750177964,160.83512513581357,24.78276853621071,-10.450987692480611,0.1616661490404256,-0.11948424108973063,-0.19861640892866506,-0.9591608419883484
203.0,0.21350824247873812,-0.09766468097860703,-0.06887997826982879,4.25591216140272,1.6507225281930236,8.668264133977745,0.2911708300550747,-0.6224628620134127,-0.44266829174628153,161.21645369693903,25.73578230958001,-10.77997733318347,0.15815160874832337,-0.1222546134557716,-0.20675040090058447,-0.9576807770732834
204.0,0.22618745082612113,-0.09160228166797796,-0.06647466374433329,4.377829633584355,1.7051791802480234,8.597030515904235,0.30993271374246,-1.5185713349068974,-0.589713234329924,161.58203883097298,26.52877813448353,-11.218995283990857,0.15481040234735488,-0.1257090470448466,-0.21341410739092764,-0.9563296748249036
205.0,0.2653973249409914,-0.10285601888276946,-0.0925645348619385,4.573338203888952,1.7555134689595742,8.483609081712933,0.26914503015997904,-0.6354412536060844,0.004294518751639109,161.93422174141097,27.810996684275597,-11.695349087707466,0.15138175858191893,-0.12967159146341467,-0.22421557227679742,-0.9538505441231127
206.0,0.23172417668877154,-0.09585965306657673,-0.08460417369150651,4.670115394702334,1.751321419204975,8.433357311453296,0.09180529017271738,-0.26663950395264324,-0.01763234798246599,161.89999203851485,28.44208019557154,-11.731728391592672,0.15145267645461014,-0.1305202615559552,-0.22952215942939563,-0.952506362018658
207.0,0.22528852422164775,-0.08036649057734815,-0.09060106402907347,4.7186399160765795,1.7379903712862008,8.409740024727434,0.2930603948896632,0.3625938986924432,0.1718486568506238,161.7263433835375,28.762282229965155,-11.67295015173654,0.15278574399363082,-0.13066206684092013,-0.23208321214900152,-0.9516738961533102
208.0,0.21682244951481777,-0.07510644037315949,-0.0784149713386535,4.667468959574388,1.727869993630812,8.439973698999662,0.49234432954928625,1.0011174178562061,0.4291942977033457,161.23872372709903,28.420311621895017,-11.563481604286089,0.15700228859435766,-0.1305474962814432,-0.22874018608602154,-0.9517936905651341
209.0,0.20457884680229294,-0.07351852684425461,-0.07134472294031696,4.53446543778802,1.73483642426286,8.509803267018846,0.12102113071821961,1.4331261005582405,-0.0405075680941141,160.75796780750068,27.543783016747216,-11.515549717133116,0.1612764316974261,-0.13040416216211453,-0.22081076747053316,-0.9529470855468886
210.0,0.22163133640552996,-0.07213748079877114,-0.05762826420890936,4.404728878648234,1.7496152073732718,8.574085253456222,-0.20877496159754222,1.1514064900153609,-0.24145545314900152,160.80854934715822,26.69200268817204,-11.525614439324116,0.1611219601658986,-0.12972342280261134,-0.21359958005069127,-0.9547092465913979
211.0,0.2331927803379416,-0.09434831029185867,-0.06838018433179723,4.196508064516129,1.5862476958525344,8.70376305683564,-0.9665226574500767,0.7898929531490015,-0.019825268817204297,160.61752832181259,25.358746159754222,-10.334907834101383,0.16332376102764978,-0.11933406466935483,-0.20341298107373273,-0.9577696272050691
212.0,0.20781874039938555,-0.0757296466973886,-0.04874807987711213,4.236543778801844,1.5270046082949307,8.698325652841781,-0.40576996927803377,0.8751920122887865,-0.15677803379416283,160.97206221198155,25.612855222734254,-9.959821428571427,0.16033227666666666,-0.11604733283410137,-0.20636244143625193,-0.9581329302073733
213.0,0.18006144393241166,-0.06683563748079877,-0.05463901689708141,4.131059907834102,1.5127112135176648,8.752327188940093,0.08486943164362526,1.2493759600614438,-0.059667818740399385,160.9942396313364,24.918058755760367,-9.80381144393241,0.16036232524577573,-0.11416705655145928,-0.20068879721198157,-0.9595787410291858
214.0,0.1669647769085128,-0.06741917622262708,-0.048488193476940666,4.19573107562605,1.543260279355553,8.717323259386275,0.20296815275247382,-0.0821935394562926,-0.2563140785196299,161.0559805129854,25.340735853606258,-10.036457775158075,0.15965892968509982,-0.11632070284053156,-0.2040711078875076,-0.9587568401296753
215.0,0.17029114421462505,-0.06892080162897865,-0.05360661593969921,4.211045261315329,1.5425402779266246,8.711134747972707,0.3594045832886793,0.49281740077876607,0.21717706212267351,160.99347604758333,25.4363769513807,-10.03464593827028,0.16018053671274962,-0.11654584557157147,-0.20480462334851568,-0.9585115221308897
216.0,0.1565001485563028,-0.057645182201473716,-0.04327814967679203,4.1986114995647865,1.5455159521587718,8.717483094641258,0.08000810633843128,0.3852429516351213,0.044099330581774364,160.80229279880945,25.349454632821967,-10.047923756853848,0.16183202131355134,-0.11690631984687376,-0.20387824091192225,-0.9584071265221531
217.0,0.1441924705915154,-0.053316446707495704,-0.04436180909338834,4.207508514759352,1.526246455342059,8.717264588795281,0.04782375363004514,0.21181790438898923,-0.016275987550894693,160.70222166822194,25.408367869406376,-9.922392177966096,0.16274300341560824,-0.11617531711007283,-0.2043912528023513,-0.9582442968739799
218.0,0.13219224144015096,-0.04365284700966184,-0.0378468031642057,4.23414442635049,1.506587129360737,8.707600804382277,0.05812366636955406,0.16200534236346542,-0.02598553601815088,160.62596682489436,25.580921645916707,-9.81113368498919,0.1632986067446705,-0.11556770850357712,-0.20594111799334158,-0.9578929073171742
219.0,0.13006159379566146,-0.034826533288374366,-0.03811932861264099,4.253035929714136,1.4916956652054991,8.70224970963995,0.03517711962833914,0.1997798883518789,-0.06387686860739575,160.55420530328576,25.7025465044397,-9.707858688321906,0.1638013030654903,-0.11502400564201418,-0.20699901805353865,-0.9576453463184593
220.0,0.1372242328874902,-0.03138276947285602,-0.04933831628638867,4.254511014948859,1.4668623131392597,8.704607395751374,0.25211693548387093,0.5021316876475216,0.05897177419354839,160.5500639260425,25.713063040912665,-9.558376770259638,0.16386937453422507,-0.11380426951062156,-0.2072757797942565,-0.9577050670774978
221.0,0.13159402045633362,-0.027874704956726986,-0.03972423288749018,4.214096577498033,1.4830849724626276,8.721634933123525,0.11900201612903225,0.2732678501180173,-0.024457857985837925,160.26760670731707,25.455911929583003,-9.641722806845003,0.1662871703040913,-0.11470398855546812,-0.20469957516463416,-0.9577368427322974
222.0,0.12674055861526357,-0.03882041699449253,-0.03978147128245476,4.227261998426437,1.4880908733280878,8.71443036978757,-0.13679435483870966,0.09442122344610542,-0.21895775963808026,160.3059807730134,25.539523505114083,-9.683084185680567,0.16594621545043275,-0.1150558611083792,-0.20543088179602675,-0.9576024935234069
223.0,0.12851140833988983,-0.05313543891199281,-0.03190513656288637,4.247660185081113,1.4818353752201117,8.704618410700235,0.2966013824884793,0.15600717470308345,0.21747124498894754,160.42960688996288,25.666154321681468,-9.65590461204151,0.16489319488996293,-0.11474557983395149,-0.20669224565396577,-0.957539542393616
224.0,0.15457828481510624,-0.05835371473530404,-0.04101157693604586,4.061162901352516,1.4456698512607242,8.795271439811168,-0.21711040238282564,1.9286133434491026,0.2167706342962047,160.06115966055972,24.473222715522084,-9.334369497208797,0.16839355805867148,-0.11155316012940691,-0.19653888246899703,-0.9593438083329214
225.0,0.14695682065115584,-0.05991830579596119,-0.038577797759544424,3.9701839384062048,1.4057591322917835,8.844606983627434,-0.19293289404668237,0.9911403890824622,0.10521360196320856,159.84800190138998,23.88708928103106,-9.02891482615863,0.17038319534550972,-0.10888966084511634,-0.19175175494923377,-0.9603123635449027
226.0,0.14205826870480687,-0.05334624967217415,-0.037557978344760407,3.913805580532763,1.3643705181521857,8.877555262073354,0.04313819499082089,1.2799427358472892,0.4658394917762541,159.60449367296093,23.523722649956916,-8.733527043291746,0.17256969116606719,-0.1065325020354614,-0.18881731748641864,-0.9607886847779588
227.0,0.13716121539095577,-0.04802648832939943,-0.031603536772694917,3.8846802292907716,1.3597802630100033,8.892134240005994,0.055230461578809335,-0.23207143793788165,-0.109122691169308,159.31582743246787,23.33842751301937,-8.693754449065228,0.17504448551871413,-0.10647728962571654,-0.18702686261024315,-0.9607135909222209
228.0,0.1440290734704582,-0.060959124798621256,-0.032152785583155374,3.937016597354913,1.3537398373983742,8.867021093252408,0.07281480648907872,-2.340601700947885,-1.0238493312352477,159.38069246187854,23.68597326814282,-8.6801309430145,0.17438999629650442,-0.10658498393016372,-0.19006340590198945,-0.9601359920692367
229.0,0.1508264958225619,-0.04973998726162377,-0.03755554306695141,4.2013289123674635,1.4107959611854184,8.732519201228879,0.3003727848338391,0.018035105466261747,-0.1139850511408339,160.17955256453484,25.382817475928213,-9.177078650106777,0.1671046162442396,-0.1109013719454123,-0.20463043448915363,-0.9578468047128246
230.0,0.14504327301337527,-0.05511408339889852,-0.05154209284028326,4.292383949645947,1.4401494885916604,8.686789929189615,0.2525078678206137,-0.46744689221085767,-0.18602478363493308,160.4437450826121,25.96818450039339,-9.412077104642014,0.16469085976396539,-0.11294173899291897,-0.2095486741699449,-0.957057997277734
231.0,0.14605664830841855,-0.04887804878048782,-0.04828166797797011,4.375428796223446,1.4643241542092842,8.64324783634933,0.037224626278520856,0.07722265932336742,-0.20103265145554683,160.56975806451612,26.50709087332809,-9.614447285601887,0.1634245076144768,-0.11488044822659324,-0.21397821305114084,-0.9561259606121163
232.0,0.16153737214791503,-0.03369158143194336,-0.052044059795436665,4.590416994492525,1.5432163650668769,8.512544453186464,0.27581628638867034,-1.975796616837136,-0.9590184893784421,161.3282258064516,27.928432336742723,-10.289447285601888,0.15654827018410705,-0.119788164490952,-0.2261211356758458,-0.9537521395704167
233.0,0.18440991345397323,-0.03991581431943352,-0.0618859166011015,4.595756097560975,1.5814193548387094,8.504315499606605,-0.00015243902439021628,0.6653815892997641,-0.49550550747442956,161.9821744689221,27.962790125885128,-10.53913257277734,0.15106287582454764,-0.12060789380723838,-0.22679845812509836,-0.9544281842037765
234.0,0.1666841070023603,-0.06487293469708892,-0.06598859166011015,4.588723839496459,1.6157081038552321,8.503918568056644,0.04525717938631,0.584874114870181,-0.3328727380015736,162.2751352281668,27.90617869787569,-10.758212037765539,0.14863055041660111,-0.12177666878560185,-0.22638861447797012,-0.9548285058194335
235.0,0.20225708103855233,-0.07675118017309204,-0.06975826121164436,4.5907482297403615,1.5595582218725412,8.51220476003147,-0.1458165322580645,0.9072875688434304,0.39243459874114867,162.2258691483084,27.92237534421715,-10.382833398898505,0.14905953710680564,-0.11889586342977967,-0.22683460838532643,-0.9550040886178207
236.0,0.20972934697088907,-0.06104091266719118,-0.060867033831628635,4.388019276160503,1.5158516915814317,8.624211250983478,-0.07026209677419354,1.5754179779701023,-0.12580891030684496,161.96850413060582,26.594630212431156,-9.968432828481511,0.1516955817025964,-0.11510837619472855,-0.21570238092250194,-0.95758317177262
237.0,0.19803225806451613,-0.0625967741935484,-0.06554838709677419,4.359427419354838,1.5411854838709673,8.637298387096772,0.42051411290322577,0.26199596774193556,-0.10670362903225804,161.6892137096774,26.398790322580645,-10.11577620967742,0.15408551616129032,-0.11671004708870966,-0.21363879804032254,-0.957530015467742
238.0,0.18692741935483873,-0.05854032258064516,-0.06260483870967742,4.437806451612903,1.5688629032258063,8.593443548387096,0.09758064516129032,0.15811491935483873,-0.0535282258064516,161.61013104838707,26.905443548387098,-10.341381048387095,0.15458004902419353,-0.1190841673629032,-0.21761750275806452,-0.9562848979032256
239.0,0.1608629032258065,-0.0550725806451613,-0.05586290322580647,4.496943548387097,1.5558467741935487,8.56570967741935,-0.028679435483870967,0.023185483870967763,-0.0019153225806451575,161.56446572580649,27.297530241935483,-10.291078629032256,0.1548298014677419,-0.11908574187096771,-0.22093934078225808,-0.9554984791532256
240.0,0.13935483870967744,-0.04728225806451615,-0.04352419354838711,4.537217741935484,1.5397580645161295,8.547169354838704,0.02066532258064516,0.1460685483870968,-0.1537802419354839,161.50514112903227,27.564213709677418,-10.204485887096773,0.1551847895483871,-0.1187381862580645,-0.22323982485483873,-0.9549631418629032
241.0,0.13098387096774194,-0.04587903225806454,-0.0375725806451613,4.591298387096774,1.533354838709678,8.520096774193547,0.06355846774193548,0.0021673387096774258,-0.03850806451612904,161.48921370967741,27.92132056451613,-10.196421370967741,0.15518897350806451,-0.11895978370161286,-0.22625983462096771,-0.9542306715564517
242.0,0.12739516129032258,-0.04270161290322583,-0.03598387096774194,4.626604838709678,1.5190645161290326,8.50375,0.028578629032258066,0.25821572580645163,-0.00010080645161290175,161.44334677419354,28.153477822580648,-10.116229838709677,0.1555235339677419,-0.11866528869354837,-0.22826577462903225,-0.9537373707016131
243.0,0.11762096774193548,-0.035572580645161306,-0.027733870967741936,4.619524193548388,1.5203548387096777,8.50741935483871,0.14778225806451614,0.8242943548387096,0.04596774193548387,161.28356854838708,28.101310483870968,-10.123084677419353,0.15689451173387092,-0.11899970201612903,-0.2276619200483871,-0.9536159892096776
244.0,0.1228225806451613,-0.05383870967741937,-0.028548387096774187,4.598072580645162,1.5210483870967741,8.51808064516129,0.3319052419354839,0.44344758064516127,0.0376008064516129,161.12726814516128,27.962852822580647,-10.118598790322581,0.15825475878225806,-0.11915425866935483,-0.2263177192096774,-0.9536935135483873
245.0,0.10783870967741938,-0.04664516129032259,-0.02278225806451613,4.46416935483871,1.534927419354839,8.58458064516129,0.05534274193548387,1.3798387096774194,-0.21083669354838708,161.07222782258066,27.080897177419356,-10.131653225806453,0.15898275073387097,-0.11858820733064517,-0.2187686549596774,-0.9553590843548387
246.0,0.11692741935483872,-0.05292741935483872,-0.027129032258064522,4.356354838709676,1.510733870967742,8.644475806451613,-0.04415322580645161,0.2079637096774194,-0.05468749999999999,161.0211189516129,26.37696572580645,-9.906653225806451,0.15969474594354838,-0.11631912741935485,-0.2130243116935484,-0.9568198421935483
247.0,0.12998387096774194,-0.039362903225806455,-0.022540322580645165,4.427919354838709,1.5184193548387097,8.607846774193545,0.13644153225806452,-0.34863911290322586,-0.08835685483870967,161.05977822580644,26.848639112903225,-10.001814516129032,0.15917161508064515,-0.11737444472580644,-0.21694838007258066,-0.9559087941854839
248.0,0.13095967741935483,-0.04256451612903227,-0.030290322580645165,4.501548387096774,1.5378548387096775,8.565854838709672,0.06335685483870968,-0.263054435483871,-0.19722782258064517,161.07605846774192,27.33271169354839,-10.175201612903226,0.15884876823387095,-0.11911178095161289,-0.22085861672580642,-0.9548558882661291
249.0,0.13655055074744293,-0.04115184893784423,-0.029893391030684502,4.505339103068449,1.5470145554681354,8.562672108575923,0.20071547993705743,0.8439368607395752,-0.13292437057435091,161.01381540125885,27.349820515342252,-10.239107985837922,0.15936459893332022,-0.11974820672324941,-0.2208675342175453,-0.9546910263538553
250.0,0.14147285601888276,-0.0465194728560189,-0.028341856805664832,4.520250196695516,1.5555072777340677,8.552702989771834,-0.08250516325727775,0.08562770456333596,-0.32205694335169155,160.97737141030683,27.453136064122738,-10.307558025177027,0.15963197994649883,-0.12042941976081824,-0.22162488278619205,-0.954383521761605
251.0,0.1623627065302911,-0.056049370574350915,-0.04311998426435877,4.503791306058222,1.5264405979543667,8.567091856805664,0.05850093430369787,0.4339914437450826,-0.12094192564909519,161.10299591856804,27.343478314319434,-10.102806599134539,0.15864492462863888,-0.11849778334166011,-0.22105631716188046,-0.9549304216235247
252.0,0.15542112509834777,-0.0590725806451613,-0.05990833988985052,4.569553304484657,1.5664360739575138,8.519722659323367,0.19344389260424863,-2.123144915420928,-0.7241984657749803,161.40853166797797,27.793134097167584,-10.423587480330449,0.15590653172974037,-0.12061017714319433,-0.2248617659012589,-0.9540743912916991
253.0,0.16001759019894346,-0.06727035330261137,-0.0567533250908546,4.7533932037016235,1.6247224532613989,8.406133603087186,0.2296196517552733,0.6248510733955268,0.008230068187778716,161.89476602600126,29.01923049904462,-10.949746169120676,0.15141169665327261,-0.12460987946791055,-0.23519884797789514,-0.9517595244355961
254.0,0.14456190288861415,-0.08123627814619161,-0.05409420778539583,4.805225319396053,1.6529560338690945,8.373929114682856,0.006051958057022952,-1.7801836293132514,-0.959343856543404,161.86266133715483,29.36475883724851,-11.170885082986773,0.1515390093541737,-0.12672436820051702,-0.23785430769233074,-0.9508748545089072
255.0,0.17182031396350828,-0.08709932186879472,-0.056727211419579635,4.741730171218764,1.645991457794762,8.412628151811472,0.12021467910531641,1.9480082237458318,0.37493396650556365,161.72563270390768,28.92905520587464,-11.073350567607058,0.1528419938581544,-0.12597297125540446,-0.23407909284462927,-0.9517273769201602
256.0,0.19601558577797754,-0.08159214716571128,-0.05828178037540744,4.652538571053914,1.6388493874339662,8.464231463789293,0.05544565583904688,0.8017676838634746,0.1474541980442846,161.55199318122212,28.334084054550225,-10.956162891986061,0.1544889088370237,-0.12504328216192723,-0.22896734282986775,-0.9528594374207411
257.0,0.19277726574500764,-0.07465130568356373,-0.06909447004608295,4.652991551459293,1.6165230414746548,8.470513056835639,0.05953341013824885,0.6736415130568357,0.08243087557603686,161.48172043010752,28.331317204301076,-10.798660714285713,0.15509906035714288,-0.12401860897081413,-0.22902949676190473,-0.9529173865522274
258.0,0.19336328725038404,-0.05947849462365591,-0.07046505376344087,4.6182707373271885,1.5903413978494627,8.495066820276499,0.03529185867895545,1.3769273233486943,0.3346294162826421,161.30794450844854,28.095986943164363,-10.60029041858679,0.15665796094047618,-0.1226475913863287,-0.22710427147158216,-0.9533138386724271
259.0,0.19882582143793787,-0.06448610018358247,-0.06512995017046946,4.501811902888614,1.5511237870443224,8.56342306395414,-0.12310938143943652,0.5861063888576674,-0.07634432018283319,161.04424443164362,27.333147877561725,-10.265656494698588,0.15912154090405006,-0.11988910369139409,-0.22071816412013412,-0.9547360076384361
260.0,0.2066809598741149,-0.05915165224232887,-0.0823337922895358,4.567396734854444,1.5667124311565699,8.52561014948859,0.20593282848151065,-0.1864734952793076,-0.18075088512981907,161.00246975806454,27.76717397718332,-10.413363001573565,0.15929901590440598,-0.12149488790637296,-0.22419371290184892,-0.9536935684958694
261.0,0.19684047993705744,-0.05596695515342251,-0.08007415420928404,4.623944335169158,1.5795578284815108,8.493288945712038,0.18688778520849725,-0.21564098151062155,-0.18674641030684502,161.06698588709676,28.135653520849726,-10.53072383949646,0.15861270704091268,-0.12261349099350907,-0.22726967990656965,-0.9529487639939025
262.0,0.19538394964594807,-0.05502380015735642,-0.06171852871754525,4.624540715971675,1.5712869787568844,8.494696892210861,-0.03352183320220298,0.2835353560188827,-0.14944679386309992,161.09929435483872,28.1400041797797,-10.476753048780488,0.15834616735110146,-0.12210433237175453,-0.22740880090893,-0.9530352086703384
263.0,0.20167584579071593,-0.05104012588512982,-0.07461329661683716,4.697524390243903,1.5887442958300548,8.45030409126672,0.19664634146341464,-0.658509539732494,-0.2245721872541306,161.20574596774196,28.63076317859953,-10.646693056648308,0.15727581041345395,-0.12357872161329662,-0.23149021711172307,-0.9520166404964594
264.0,0.19280645161290322,-0.04929032258064517,-0.0724758064516129,4.711604838709677,1.5860322580645159,8.443233870967743,0.028629032258064527,0.18805443548387096,-0.1464717741935484,161.2429939516129,28.72157258064516,-10.63422379032258,0.1569368910241935,-0.12350877239516127,-0.2323097473064516,-0.9519019834354839
265.0,0.17462903225806448,-0.05033870967741936,-0.06949193548387098,4.788282258064515,1.5804999999999998,8.400862903225807,0.2372983870967742,-0.10181451612903228,-0.0107358870967742,161.2274697580645,29.23563508064516,-10.650604838709677,0.156886587016129,-0.12406586668548389,-0.23661843593548382,-0.9507743582338711
266.0,0.15808870967741936,-0.04572580645161291,-0.0678225806451613,4.8501935483870975,1.5738387096774193,8.36677419354839,0.13538306451612903,0.3675907258064516,-0.013608870967741936,161.135685483871,29.647983870967742,-10.651058467741937,0.15749979337903225,-0.12456118667741935,-0.24000367253225802,-0.9497592553709677
267.0,0.14017741935483868,-0.042241935483870965,-0.06919354838709679,4.730612903225805,1.546467741935484,8.438879032258065,0.007106854838709681,1.0754032258064514,0.03689516129032258,160.82041330645163,28.84657258064516,-10.382308467741936,0.1604425740564516,-0.12245404635483872,-0.23317979420967744,-0.9512067730564515
268.0,0.15280645161290324,-0.04758870967741936,-0.06067741935483872,4.656838709677418,1.5285080645161289,8.483161290322581,0.1880040322580645,1.0971270161290323,0.19138104838709674,160.64475806451614,28.351764112903226,-10.212852822580643,0.16209884217741935,-0.12108730251612904,-0.22901488289516128,-0.952109109814516
269.0,0.17665322580645162,-0.05320967741935484,-0.07153225806451613,4.574943548387097,1.5245564516129035,8.528645161290324,0.005191532258064513,0.8446572580645161,0.03654233870967741,160.40115927419356,27.80902217741935,-10.130594758064516,0.16432962766935483,-0.12049417857258063,-0.2242620655564516,-0.9529460292661289
270.0,0.16951612903225807,-0.06487096774193549,-0.06654838709677419,4.57092741935484,1.5373870967741934,8.529443548387096,0.07036290322580645,0.4433467741935484,-0.01260080645161291,160.3601814516129,27.782711693548386,-10.212651209677418,0.16464922483064515,-0.12121975837903226,-0.2239114087580645,-0.952900302
271.0,0.1766451612903226,-0.06802419354838711,-0.06574999999999998,4.479903225806452,1.5250806451612906,8.579548387096775,-0.0009072580645161296,1.6272681451612903,0.2730846774193548,160.15030241935483,27.182308467741933,-10.07484879032258,0.16664842175806452,-0.11997281966129034,-0.21875216530645156,-0.9538950766612901
272.0,0.18063709677419357,-0.06808870967741935,-0.061685483870967735,4.461314516129033,1.5225322580645164,8.590185483870965,0.21365927419354838,0.056350806451612945,0.05458669354838712,160.0118447580645,27.06376008064516,-10.047530241935483,0.1678136518548387,-0.11991148925,-0.21763704346774193,-0.9539686634596773
273.0,0.18182258064516132,-0.07048387096774195,-0.07553225806451612,4.459096774193549,1.525241935483871,8.59090322580645,0.1637600806451613,-0.036945564516129056,-0.1860383064516129,159.89551411290321,27.048891129032256,-10.061391129032257,0.16879853254032257,-0.12024885608870968,-0.21738423973387094,-0.9538142545161291
274.0,0.1872606215578285,-0.061237804878048786,-0.0813845397324941,4.48131077891424,1.5219512195121956,8.580325727773404,0.12564048977183317,0.3462824547600315,-0.018745082612116437,159.96354002753736,27.19171051337529,-10.051666994492525,0.16820000981372935,-0.12017944022816679,-0.2186629657804878,-0.9536420519040125
275.0,0.17552950432730136,-0.07301003147128245,-0.06924468922108576,4.481816679779701,1.5198304484657754,8.580662863886701,0.04837972069236822,-0.020860788749016507,-0.2028201219512195,160.02536880409127,27.196384490558614,-10.037023013375295,0.16769579759638079,-0.11995841566247048,-0.21876997888217942,-0.9537375550003935
276.0,0.16288571990558617,-0.06272678992918962,-0.06467073170731708,4.566376081825334,1.5250361919748228,8.534387883556253,0.2720729248623131,-0.2805664830841857,-0.019807238394964607,160.01147472462625,27.757239624311566,-10.12158610346184,0.16758092201593233,-0.121157280218332,-0.2234119021628639,-0.9525167097421323
277.0,0.1486888276947286,-0.05518194335169159,-0.05307730133752951,4.6028009441384725,1.5243245476003153,8.515097167584578,0.0769890833988985,0.25024095200629426,-0.14851249016522422,159.95341881392602,27.991850658929977,-10.141866640440599,0.1679630602942565,-0.12162019598819826,-0.22534105733143195,-0.9519459609234855
278.0,0.14642840283241543,-0.059407553107789154,-0.047900472069236824,4.555428402832414,1.519271833202203,8.54047167584579,0.09317712431156569,1.7143587726199843,0.29101839103068444,159.80839152242328,27.675902340676632,-10.08073859166011,0.169302831175059,-0.12112041212863885,-0.2225716128111723,-0.9524027399874113
279.0,0.1428766719118804,-0.06563611329661684,-0.04706195908733281,4.442626868607395,1.5119136506687647,8.600788158929975,0.06547133162863887,0.06483084185680565,-0.23739796420141626,159.5044121262785,26.94224404996066,-9.97032602281668,0.17210761533654603,-0.12010075949468921,-0.21614704780055077,-0.9534913891479151
280.0,0.1484824940991345,-0.07324901652242329,-0.05231648308418569,4.447381392604249,1.5273066483084183,8.59569335169158,0.15821203776553894,-0.6216463414634147,-0.2967323957513769,159.5437450826121,26.976223200236035,-10.07592569826908,0.171750768640834,-0.1209245456050354,-0.21633666759166012,-0.9534256290902832
281.0,0.1631565696302124,-0.08931805664830844,-0.05473485444531865,4.391767309205351,1.5145928402832416,8.624358772619983,-0.38021857789142405,2.5833300550747444,0.5665531569630213,159.44692294453188,26.604769866247047,-9.961375147521636,0.172705770070417,-0.1197446123992919,-0.2132126921264752,-0.9540394596701415
282.0,0.1743524783634933,-0.08981628638867031,-0.06952871754523995,4.130444138473644,1.4720786782061368,8.756905192761604,-0.04895505507474429,0.6785601888276949,0.0909126671911881,158.92514998033045,24.920328481510623,-9.54749704956727,0.17767014196262787,-0.11560264593351692,-0.19895780409952793,-0.95663332338749
283.0,0.22103933910306844,-0.11978619197482297,-0.06753776553894571,4.080214201416208,1.4846703383162865,8.781587922895357,0.42379155192761603,0.4548878835562549,0.0602084972462628,158.6654172403619,24.59337627852085,-9.59716512588513,0.17994548033615262,-0.11617376629091267,-0.19585394180586152,-0.9568646052185286
284.0,0.2696302124311566,-0.11916876475216363,-0.0977077104642014,4.290750196695516,1.5938438237608181,8.65523603461841,0.5991492918961447,-2.2013473642800943,-0.6928550354051928,159.23110001966955,25.973323170731707,-10.4490583202203,0.17463560917387883,-0.1232388737714398,-0.20714507736270654,-0.9544286721829267
285.0,0.2943894571203777,-0.11647187254130607,-0.12405448465774979,4.695356215578284,1.7248259244689224,8.406485051140834,0.5779233870967742,-1.8985936270653028,-0.6334161093627065,160.25266153619197,28.659778225806452,-11.627322236428009,0.165024293902439,-0.1325957122673092,-0.2297459361282455,-0.9494334234848543
286.0,0.30484343036978767,-0.10641306058221875,-0.12442407553107787,4.5846821400472075,1.7017470495672695,8.47641011014949,-0.09582390833988985,2.2405758261211646,0.4822629819040126,159.89651848937845,27.9041724036192,-11.37378294649882,0.1683102385489772,-0.13081450210562545,-0.22315716130527147,-0.9507759868855232
287.0,0.26010700236034623,-0.10325806451612905,-0.10896144767899292,4.575420141620771,1.670947285601888,8.493450039339105,0.19005704169944923,-0.8262932730133752,-0.31054779701022817,159.7144079464988,27.833669354838708,-11.144880999213218,0.16990476046813535,-0.12950716513768684,-0.22255250476396535,-0.9509762361353264
288.0,0.23317702596380802,-0.09885562549173882,-0.09220692368214005,4.729850118017309,1.6867206923682134,8.409073564122739,0.28631490952006294,-0.2971454563335955,-0.033347265932336764,159.79573662470494,28.85118754917388,-11.348994394177812,0.16882030378245472,-0.1319241403461841,-0.23099397433320212,-0.9489237786970888
289.0,0.17967427222659324,-0.08882985837922897,-0.05724272226593235,5.016794453186468,1.7238630999213211,8.227554091266718,-0.7117058418568056,-2.5243300059008655,-1.342096528324154,160.38127212824548,30.801906717151848,-11.849398849331234,0.16310674072206924,-0.13587727952714398,-0.2477296918149095,-0.9449630510928402
290.0,0.20219197482297402,-0.07653186467348547,-0.08275845790715974,5.053175452399685,1.6902218725413056,8.216047206923683,-0.034834775767112525,1.158575924468922,-0.1651258851298189,161.06044453186468,31.04029307631786,-11.631579464988198,0.1574716541715185,-0.13300194436034618,-0.2506429870243902,-0.9456309295625491
291.0,0.191435090479937,-0.09696616837136116,-0.07333595594020458,4.917587726199843,1.6539952793076318,8.306257277734069,0.025693351691581438,1.3259785601888274,-0.0945220298977183,160.98288257277733,30.11414732494099,-11.26771243115657,0.15850957343981115,-0.1298145308638867,-0.24315043409992132,-0.947910801263572
292.0,0.2219370574350905,-0.09280959874114872,-0.08626199842643589,4.675291896144768,1.5895515342250197,8.445613296616838,-0.9761777143981117,4.4437622934697085,0.5193646734854445,160.97130458300552,28.506645849724627,-10.681254917387884,0.1592406528198269,-0.12383570047049566,-0.23015833506412273,-0.9515731464067664
293.0,0.28606451612903233,-0.1160806451612903,-0.07456451612903225,4.121225806451612,1.4465161290322581,8.737330645161292,0.18855846774193552,1.3406754032258061,0.6485887096774193,159.9633568548387,24.92998991935484,-9.447983870967741,0.1689976352580645,-0.11236114493548385,-0.2003289003306451,-0.9576111826612903
294.0,0.30116129032258065,-0.121008064516129,-0.08783870967741936,3.94399193548387,1.4173387096774195,8.84083870967742,0.11496975806451615,1.7485887096774193,0.24868951612903228,159.4134576612903,23.746723790322577,-9.126159274193547,0.17405026360483872,-0.10988961522580645,-0.19004629817741936,-0.9595076036693546
295.0,0.31039516129032263,-0.13441129032258062,-0.09776612903225806,3.854040322580645,1.4133387096774193,8.891072580645162,0.23185483870967744,0.48170362903225805,-0.014566532258064535,159.16602822580643,23.155997983870964,-9.037197580645163,0.1763237244758065,-0.1091793429032258,-0.18489025429032258,-0.9604437054919355
296.0,0.3317016129032258,-0.12403225806451613,-0.0999516129032258,3.9099193548387103,1.4379677419354837,8.866806451612902,0.2851310483870968,-0.14294354838709672,-0.13513104838709677,159.18039314516128,23.502620967741933,-9.211995967741935,0.17606722891129034,-0.11106360616935484,-0.18761828072580644,-0.9598517139193549
297.0,0.32695967741935483,-0.1285806451612903,-0.10424999999999997,3.9526935483870975,1.4603951612903223,8.846064516129033,0.2175907258064516,-0.045766129032258046,-0.11295362903225806,159.22867943548385,23.771118951612902,-9.370211693548388,0.17555975137903224,-0.11262369433064515,-0.18972970316129031,-0.9593930146290323
298.0,0.3031935483870968,-0.13316129032258067,-0.10116935483870967,3.9803548387096774,1.4832983870967742,8.830266129032257,0.1205141129032258,0.4037298387096774,0.0062500000000000056,159.19848790322578,23.94742943548387,-9.530796370967742,0.17573183104032253,-0.11413598791129033,-0.1909751151451613,-0.9589587287661289
299.0,0.35162096774193546,-0.12754032258064518,-0.11957258064516131,3.957822580645162,1.4806209677419355,8.840862903225805,0.040272177419354835,0.7778225806451612,0.1358366935483871,159.12217741935484,23.80070564516129,-9.5046875,0.17643511294354836,-0.1138893865,-0.1897086356048387,-0.9591135320887096
300.0,0.303006884343037,-0.12512529504327302,-0.10349291896144769,3.9951404405979547,1.4869874114870183,8.82293017309205,-0.0021575039339103066,0.04557558025177022,-0.25001966955153426,159.08301780094413,24.04105404209284,-9.5626942368214,0.1766593587918961,-0.11467911479248621,-0.19166050477006297,-0.9585876719720692
301.0,0.25066876475216365,-0.1084699055861526,-0.09463355625491737,4.143650865460268,1.5127275767112511,8.748420731707316,0.5153779012588513,-0.5974995082612116,-0.019415076711251006,159.0512367230527,25.006590529110937,-9.81385719905586,0.17654836838788351,-0.1177360343680173,-0.19948298492132177,-0.9566006694134539
302.0,0.2443021243115657,-0.09649704956726984,-0.07408693941778127,4.18922462627852,1.5360371754523996,8.723601494885916,0.16759318450039337,0.5081050845790716,-0.13463193351691582,158.93484215184893,25.29636482100708,-9.986011260818252,0.17740310886329658,-0.11962356869610544,-0.20157082451711253,-0.9557893630696304
303.0,0.2657397718332022,-0.1064138473642801,-0.1029628245476003,4.182684893784421,1.5404661683713607,8.726244295830057,-0.025301190007867833,0.14157774390243896,-0.2140145554681353,158.97125172108576,25.253096725019667,-10.00835341266719,0.17712288962922892,-0.11972807783595593,-0.20121295352871754,-0.95591766870417
304.0,0.2514948859166011,-0.1010456333595594,-0.10179189614476791,4.218382769472855,1.5484992132179385,8.707678599527934,0.027495574350904793,-0.1465750393391031,-0.28200727773406764,159.10430025570417,25.4825211447679,-10.081419649881983,0.17596408375413058,-0.12032265920023605,-0.20323972524822972,-0.9556327406424077
305.0,0.2707741935483871,-0.11717741935483869,-0.08586290322580645,4.277685483870967,1.5726532258064516,8.67408870967742,0.15297379032258063,-0.4259576612903226,-0.3511088709677419,159.41759072580643,25.87132056451613,-10.273739919354838,0.17316023283064513,-0.12166211528225805,-0.2065886959435484,-0.95525153375
306.0,0.3112096774193548,-0.12522580645161288,-0.11818548387096776,4.3426693548387085,1.603225806451613,8.635774193548386,0.20131048387096773,-0.7642137096774193,-0.2714717741935484,159.78659274193546,26.29758064516129,-10.515171370967742,0.16989608204838708,-0.12330105671774191,-0.21029279118548388,-0.9548117852500001
307.0,0.3464354838709677,-0.11645161290322581,-0.13316935483870967,4.490370967741935,1.6319838709677423,8.552750000000001,-0.43286290322580645,-1.0671370967741935,-0.7059979838709678,160.52419354838707,27.27071572580645,-10.80453629032258,0.16338934118548387,-0.12497908017741934,-0.2190199818951613,-0.9536947929919355
308.0,0.36084677419354844,-0.12472580645161291,-0.14795967741935484,4.669661290322581,1.6516129032258067,8.45141129032258,0.16678427419354838,-1.3473790322580643,-0.7928427419354839,161.29092741935483,28.459173387096776,-11.060836693548387,0.15657954073387095,-0.1263919947983871,-0.2296534876451613,-0.9521147699032257
309.0,0.3401290322580645,-0.10403225806451613,-0.1885967741935484,4.872443548387096,1.6791935483870963,8.329733870967743,0.13860887096774194,-0.6134576612903225,-0.6184979838709678,161.9522177419355,29.810282258064518,-11.395211693548386,0.15059041683064517,-0.12860314129032258,-0.24149952559677418,-0.9498460838790322
310.0,0.32888709677419353,-0.1075483870967742,-0.17109677419354838,4.9815241935483865,1.7079596774193546,8.260129032258064,0.055292338709677424,-0.36713709677419354,-0.24027217741935483,162.4469254032258,30.541481854838707,-11.679233870967742,0.14619908502419357,-0.13022101616935483,-0.2479825910725807,-0.9486867108548389
311.0,0.284192396313364,-0.10362672811059906,-0.1379612135176651,5.116385176651304,1.7075545314900151,8.178390168970811,0.14765985023041475,-0.5781682027649769,-0.18329013056835636,162.48957133256528,31.461472734254993,-11.792441916282641,0.14551831281182792,-0.13155893476190478,-0.25569374992396315,-0.946584026110983
312.0,0.258205069124424,-0.07099078341013824,-0.11747657450076804,5.203075652841781,1.696462749615975,8.120856374807985,-0.07876584101382487,1.8936275921658987,0.13033074116743473,162.5256576420891,32.074939996159756,-11.808090917818742,0.14499204870430105,-0.13176398400998462,-0.2608841221474655,-0.9451013264143624
313.0,0.2022342549923195,-0.07514016897081413,-0.08574539170506912,4.91310253456221,1.6357181259600617,8.307001152073731,0.14767185099846392,1.691237039170507,0.40470430107526884,161.53148281490016,30.102244143625192,-11.153809043778802,0.15402112426036865,-0.12758179377995388,-0.24378673558563752,-0.9486675917104455
314.0,0.16108683638679702,-0.07260008055149675,-0.062654265482747,4.749431184668989,1.5775671668352627,8.415391508373606,-0.04437193248660595,2.8990047558165672,0.6956903193023866,160.8983848722416,28.991109655408188,-10.627704212093963,0.1597184651256603,-0.12407391647622794,-0.2342531134547975,-0.9506491020322486
315.0,0.17058756624964333,-0.06003939097880876,-0.020554179887775477,4.327071568347728,1.4660880705971184,8.648661324906406,-0.188136648625437,2.666799084897531,1.1895770920333273,159.44638665655089,26.23689128862221,-9.650200586195865,0.17292219842676726,-0.11636994429932157,-0.21064145554501662,-0.954492128691786
316.0,0.17075517460509593,-0.08919778922886712,-0.0590442773853474,4.18066590294049,1.4322827299896534,8.730763542450205,0.5220276911981279,0.4879091383799783,0.3474427646671451,158.6135431887153,25.283528794998603,-9.339407550225802,0.1801827263953925,-0.11461932658533197,-0.20217725903866546,-0.9553398327073257
317.0,0.19633630466045887,-0.10305473178801268,-0.05877828308591488,4.113736177276696,1.4784036537813092,8.76292305386719,0.9360450475959918,-1.477220786032745,-0.08841499439453804,158.05186088007193,24.83186856416597,-9.586140027033023,0.18498039881789596,-0.11729386753594556,-0.19734949196921753,-0.955330750591758
318.0,0.19577371225679646,-0.10775118665755959,-0.06761391768472808,4.290176319877341,1.573673839928757,8.660969413487116,0.4232538049414525,0.07842062867633282,-0.10001750806235463,158.29349312502342,25.961537200669774,-10.30940510774303,0.1824971508871616,-0.12386753385180252,-0.2061705601055671,-0.953135835886715
319.0,0.22010164763115198,-0.11895427153491667,-0.05611223028217522,4.2045177429441765,1.5205702008455741,8.71469792468219,-0.4110127513451667,1.8058310853845865,0.20387598239683213,158.27430360421113,25.398131896951725,-9.902858533415182,0.18292683731612208,-0.12014915646169985,-0.2018993497734759,-0.9545069257954424
320.0,0.21443213068075384,-0.10809831029185868,-0.0585102094338916,4.055597167584578,1.5316655801581054,8.784368813457721,0.25049548536960026,1.3254289835525084,-0.4292654827469934,158.1501222322131,24.436627983215317,-9.892170581844066,0.18429114155797832,-0.11925889042853396,-0.1935918845864898,-0.956095971896894
321.0,0.19657090405005428,-0.10426552021280583,-0.0481968828444045,3.744789142407553,1.513287550110524,8.911417294219024,0.18219109437638153,1.127776450863587,0.6546876756209957,157.57270076992245,22.485180632048255,-9.64403474017459,0.18977468878449663,-0.11554374671702072,-0.17678868505878387,-0.9583770417903038
322.0,0.18477546738601025,-0.09108437300962871,-0.045131467535873535,3.8291188415570785,1.5134179686036489,8.88367715709415,0.3535763459593121,0.5687125341875537,0.40138857667378514,157.0339742328875,23.00499911018695,-9.672415795586527,0.19412633630085047,-0.11749388324330298,-0.18058904738346257,-0.9567729144243379
323.0,0.162421565321644,-0.07148632497845715,-0.03824551346895959,3.9432093027612307,1.5380945075118948,8.832599396800418,0.3989606749466112,-0.7854263843617698,-0.0962667659510697,156.7460341266719,23.728709232512827,-9.877872925330635,0.196234208869544,-0.12061531638561689,-0.18613880742107825,-0.9549835568762128
324.0,0.14282724513881084,-0.057268395713911055,-0.03720469446629951,4.162870433854108,1.5580068281443182,8.72673729908958,0.3288825704357274,-1.045933144599303,-0.10569726218575551,157.00226240820876,25.14423828490877,-10.127990123075193,0.19353939246332091,-0.12386618946589675,-0.198047195221348,-0.9527065042059684
325.0,0.1262177138361245,-0.051763328462777716,-0.03566037241017572,4.354331460042712,1.5861838822074859,8.62855187141733,0.04571156944288335,-0.4193393840620433,-0.17554606421640256,157.1379458431681,26.380618232737625,-10.415796054849949,0.19188988216144015,-0.12737592180641416,-0.20826030456464728,-0.9504271439253682
326.0,0.1301524296579371,-0.0463728410325578,-0.0289861938481136,4.468738732156908,1.6044159829155893,8.569847851335656,0.25779804053800903,-0.2909529429395676,-0.11930402570154734,157.17764251058406,27.121291235809824,-10.604110702109326,0.19127026600578845,-0.12965552577338804,-0.21426988345125697,-0.948990581971676
327.0,0.12356737289723127,-0.042556620209059245,-0.027401286950657522,4.544726883593721,1.6286454610168222,8.526077872691168,0.10273324809861001,0.18958321625266947,-0.07430465793713237,157.18607489415908,27.614170214210784,-10.809537390880822,0.190978810658471,-0.13183719523879772,-0.21816301381078826,-0.9478916318834252
328.0,0.13213311603162115,-0.05137911655614252,-0.03595762616612341,4.58355138436177,1.6341315424674983,8.504960848225993,-0.2765456989247312,0.9212655951444306,0.1216608594657375,157.25254767524632,27.86374386497321,-10.869515941703195,0.1903333568987674,-0.1324602770278371,-0.2202832696832266,-0.9474556939352218
329.0,0.1359001161440186,-0.04899629088456784,-0.02859503203326964,4.404692593008879,1.5612060245026411,8.609854632647707,-0.09213779925817692,1.331342962047132,0.023814207036079574,157.04997236896332,26.691562699037128,-10.281965362856393,0.19257789174515755,-0.12685190971675847,-0.21098506409576262,-0.9498201835967179
330.0,0.14392960173841368,-0.05192536810160729,-0.032114195796335836,4.473581544340789,1.5564920759806675,8.567492225843917,-0.38347546925930087,-1.6842006668914615,-1.0663777115881756,157.751112266307,27.17072234086396,-10.307878826196095,0.1865395330480312,-0.12600420557041697,-0.21582603850342813,-0.9497824077739685
331.0,0.1609624967217414,-0.061892023528530224,-0.046041736915064996,4.183346071709565,1.44559626840508,8.727590198943465,-0.35045989284777634,1.786739912329999,0.23116406279270174,157.36446742347607,25.282461784871305,-9.424508729534299,0.19055575060619684,-0.11750384863774305,-0.20071186449364953,-0.9533048928923605
332.0,0.1906944662995017,-0.06720407628039415,-0.06698310291858679,4.123305608632123,1.4176281892772844,8.768474092390694,0.32934322430781915,0.6708483196583117,0.15629800307219663,157.06330176838634,24.882118972687422,-9.193317504027576,0.19325697243055712,-0.1159025698365741,-0.1973019607661009,-0.9538743852227342
333.0,0.1833999475478626,-0.07521494136600353,-0.06865048143568994,4.177441159941553,1.4898896257165335,8.733964032820051,0.35857405117829977,-0.2361582555917725,-0.17087735566295753,157.0922281855307,25.224099415533324,-9.682078696939044,0.1928254294725563,-0.12027196353669775,-0.19948134140271995,-0.9530642785326887
334.0,0.19719564647259377,-0.07272706155632985,-0.06932996141021316,4.2726159379566155,1.538058109475104,8.680660222546923,0.24306062905099096,-0.16406162189502077,-0.19713714360645912,157.25641602038138,25.839464145217487,-10.044024202914839,0.19119735499827656,-0.12361599664325053,-0.20434263550387768,-0.9519741706251168
335.0,0.21147744558090742,-0.07022663069948672,-0.07210793900565732,4.358691918624256,1.5705318084747668,8.632843879959538,0.30526851279457495,-0.44301625547937507,-0.08361971263721854,157.313077207673,26.401463976621333,-10.310711944101007,0.19048246177529876,-0.12629586596127906,-0.20876175082432283,-0.9508398806666103
336.0,0.1970213648795474,-0.05780916788430558,-0.06472140421865048,4.531953486193848,1.614470973361807,8.534052508336142,0.1734915912667191,-0.26211872681802856,-0.15555313588850173,157.38412116912068,27.534785367726947,-10.713103667903038,0.18939060817643588,-0.13056899776174552,-0.21788177238988798,-0.9484199706405247
337.0,0.1667485856655802,-0.06452555168408827,-0.06684457307706718,4.586750936645313,1.6221104866809035,8.50496980255517,-0.028198760818253357,-0.01717327469933684,-0.2717785840732831,157.52956058456033,27.88931808708928,-10.796471188790228,0.1880192389874115,-0.1313637433445824,-0.22094773216268598,-0.9479040055904238
338.0,0.18416461541343523,-0.05183535648720543,-0.07101099621595294,4.663903694129107,1.6322729852759352,8.461565546438875,0.12209013571990558,-0.44391929863999097,-0.15647900977857704,157.737738961635,28.39881730967367,-10.913658981491889,0.1860627193646735,-0.13240639024890408,-0.22534070133537526,-0.9471146971419862
339.0,0.1811150575100221,-0.050854932374208545,-0.06524251620396387,4.691911131092878,1.6316387546363944,8.446081750402758,0.11801239181746656,-0.160772591884905,-0.03458539395301787,157.85489303510548,28.586706427260125,-10.92978016934547,0.18501970789221084,-0.13247920504439695,-0.22702356072020535,-0.9469175698354503
340.0,0.16798632497845717,-0.04718041661983441,-0.0605945075118954,4.752152261061782,1.6212151286950656,8.414796185980293,0.08101642407553107,0.0686695655839047,-0.0860574491401596,157.83305233974,28.985534566895208,-10.905694569330485,0.18503466033477578,-0.13273005354580192,-0.23041523363704994,-0.946064655777678
341.0,0.14879346970889062,-0.040780684500393405,-0.05750078678206137,4.817358772619983,1.622211250983478,8.376284421715184,0.16339127655389457,0.06368386113296617,-0.0716721577498033,157.81829268292682,29.42732469512195,-10.9562795043273,0.1849692121190008,-0.13358522912313137,-0.234047275224823,-0.9450626069602676
342.0,0.13473544453186465,-0.028789535798583805,-0.04917781274586941,4.8752600314712815,1.6182265932336746,8.344045436664043,0.13076317859952793,0.0042965676632572836,-0.12336128048780487,157.7809709382376,29.816409323367427,-10.981012736034618,0.18516164163611332,-0.13422302412608184,-0.2372352820761212,-0.9441386348511014
343.0,0.13147836349331238,-0.02519708890637294,-0.04893391030684502,4.909704956726985,1.6231966955153427,8.323125491738784,0.2584284028324154,0.2279307631785995,0.054071597167584584,157.64550796616834,30.04940991345397,-11.039998033044846,0.18617012688670337,-0.13518679158615263,-0.23895798542722269,-0.9433724799559401
344.0,0.13201298190401262,-0.03359067663257278,-0.04943863099921322,4.898001180173091,1.6273804091266717,8.328968725413059,-0.03150078678206136,0.40239476789929185,-0.09196007081038551,157.57994320416992,29.96662077104642,-11.05341266719119,0.1867173052238395,-0.13535661410228167,-0.2381909690393391,-0.9434387564728561
345.0,0.14492191188040912,-0.04100688434303698,-0.05062155782848152,4.836270062942566,1.6269905586152635,8.365027340676633,0.10613075334382376,0.6839816089693155,-0.012341414240755307,157.5359448760818,29.553851544059793,-11.00516940401259,0.18723352921597167,-0.1346594051811566,-0.23471119142958302,-0.9442973855798583
346.0,0.15229523996852873,-0.053176632572777334,-0.05237824547600316,4.824458300550748,1.6328721479150277,8.371124508261213,-0.07667559992132181,0.7061000196695515,-0.11140342250196694,157.53135572383948,29.471304583005505,-11.035503540519276,0.18730541001003143,-0.13482244851652242,-0.23396335697659326,-0.944448272628442
347.0,0.16470338316286387,-0.053103461841070024,-0.05786821400472068,4.8360436664044055,1.628287175452399,8.364992918961448,0.09319187647521636,-0.019128638867033865,-0.03625590086546027,157.55506982690795,29.552424272226595,-11.013817859952793,0.18708692475688432,-0.1346988610086546,-0.23469503111329665,-0.9443265348760816
348.0,0.15074272226593233,-0.04507651455546814,-0.051550157356412274,4.884288552321005,1.6227470495672693,8.337937057435092,0.0585206038552321,0.18287765538945713,-0.060269964594807234,157.51221725019667,29.876256392604247,-11.013227773406767,0.18728777187883555,-0.13511093979228955,-0.23738201018292682,-0.9435573232326906
349.0,0.146852871754524,-0.04225019669551535,-0.06298190401258852,4.93714398111723,1.6345318646734852,8.30413060582219,0.03029110936270653,-0.7272324940991345,-0.4938040912667191,157.53869984264358,30.238001573564123,-11.13463808025177,0.1869075123446105,-0.1363328983084186,-0.24031116104642014,-0.9427028745633359
350.0,0.15484657749803304,-0.03922895357985838,-0.06678206136900079,5.149693154996066,1.6494492525570412,8.166624704956728,-0.25068843430369786,-0.7509834775767112,-0.6884834775767112,158.3635424862313,31.700826121164436,-11.419748229740362,0.17942463110149487,-0.13793465107789143,-0.2532659806451613,-0.9404104309834774
351.0,0.15102281667977968,-0.042871754523996844,-0.08765538945712037,5.130078678206136,1.6674114870180958,8.177073170731706,0.3128933910306845,0.3471675845790717,0.061909913453973286,158.5205055074744,31.560287175452398,-11.526701416207711,0.17819004968528718,-0.13835147664830838,-0.25214060013375295,-0.9409469730055074
352.0,0.14789030010115767,-0.07417706342962048,-0.07230976733730472,5.032927203926418,1.6751099621595293,8.236502191750029,0.06396584991195534,1.4732564347532877,0.08881036679030387,158.27541352890486,30.887181072271552,-11.493120340189577,0.18050904943239293,-0.1380638737038702,-0.24622303244014834,-0.942123466867858
353.0,0.16175002809935932,-0.07426398411449553,-0.07419579633584356,4.90437862950058,1.6428106852497093,8.316921434191304,-0.14088784609044247,-0.313652073732719,-0.43983458843805023,158.21704881795358,30.030431606159382,-11.174717133116031,0.18141021796560639,-0.13489247200142368,-0.2393234621681466,-0.9440914213214191
354.0,0.19379948297178823,-0.09391405342624853,-0.09513566370686749,4.817437937881683,1.6256980255516842,8.372647184444197,-0.028385504477164585,2.1773448915364733,0.33662283166610474,158.0953949833277,29.43172839159267,-10.98897146978382,0.18270557517477803,-0.13317774264508636,-0.2343506070297853,-0.9453791098998913
355.0,0.2144961222884118,-0.08979730995466637,-0.08143486568506239,4.665249260050206,1.6040252519575886,8.463746880971112,0.08526141770634296,1.2497906597729571,0.09553407515641979,157.7752496159754,28.416665730021357,-10.730151549211344,0.18581371977070926,-0.13083111028399086,-0.22574232056445992,-0.9472262492969165
356.0,0.21428740024727436,-0.1059458619010153,-0.07318792851522987,4.643379154021956,1.589046457607433,8.4804957850961,0.0847038795848788,0.3495363605709789,-0.11320857217788766,157.8466285452025,28.264676295380468,-10.614013618822824,0.18526945543138135,-0.12966664002319134,-0.22473680302573903,-0.9477778748711176
357.0,0.17937411487018096,-0.09916955153422499,-0.0738658536585366,4.540317073170732,1.528572383949646,8.544346970889064,-0.3911782061369001,0.46032405586152636,-0.18665420928402832,158.0343405782848,27.58481510621558,-10.143378737214793,0.18405761480094412,-0.124896943438631,-0.21984349695987415,-0.9497329202128246
358.0,0.2352928796223446,-0.07408516915814319,-0.09224370574350907,4.539800550747442,1.5332712431156565,8.545776947285603,0.11113296616837137,-0.18961078874901643,-0.3173387096774194,158.27459554484656,27.57941089693155,-10.170307582612118,0.18205275745554683,-0.12468447415047207,-0.2200151001361133,-0.9501546412315107
359.0,0.24746498819826906,-0.06402242328874902,-0.1001420141620771,4.587795436664043,1.5543493312352479,8.516122344610544,-0.6578407749803303,0.01610690401258852,-0.8054435483870968,158.60970200629424,27.89958448072384,-10.343747541306058,0.1791225787116444,-0.1257036450389457,-0.22286477793902437,-0.9499098181601102
360.0,0.26100786782061364,-0.08884756097560975,-0.11142899291896147,4.556945712037765,1.538579858379229,8.536209874114874,-0.19306279504327298,0.3404787077104642,-0.37421075924468916,159.25069581038554,27.6953125,-10.2160810877262,0.17390670349901655,-0.12330551198446105,-0.2219496345603855,-0.9514219948951612
361.0,0.25888630999213214,-0.09095810385523209,-0.10990952006294258,4.63881254917388,1.5570643194335174,8.488719512195125,0.14248500196695518,-0.21211644374508265,-0.3091401947285602,159.64518833595594,28.237594659716756,-10.395276848937844,0.17041074685464203,-0.12441155295318647,-0.22675694082041697,-0.9507753036546025
362.0,0.25149960660896936,-0.08243469708890637,-0.09943863099921321,4.7317167584579085,1.5661007081038556,8.435996852871757,-0.05302665224232889,0.5039216168371362,-0.10943400865460269,159.8642776357199,28.8533487411487,-10.517346085759245,0.16837404321361135,-0.12547093088788358,-0.2320329308819827,-0.9497377499885915
363.0,0.24240204563335954,-0.09951160503540521,-0.10743686073957509,4.592393391030686,1.5091754523996854,8.521507474429583,-0.014155930369787573,0.9483563630999212,0.10598323170731708,159.59096061172306,27.933529209284025,-10.04547969118804,0.1710208074486625,-0.12146475093882769,-0.2245429518154996,-0.9515590788330053
364.0,0.2225234067663257,-0.10361664044059796,-0.08860503540519275,4.626409520062943,1.50738217938631,8.50357651455547,0.2543568056648309,-0.3222585562549174,-0.19640538945712038,159.5832550649095,28.15643194335169,-10.052012440991344,0.17102315960424866,-0.12179603860031471,-0.22643717903717542,-0.95108633620653
365.0,0.2227254130605822,-0.08934461054287962,-0.1186089693154996,4.709228953579858,1.5461306058221873,8.450695515342252,0.10187598347757672,-0.5950506490952007,-0.42481559795436663,159.84699547600314,28.708155487804873,-10.36872295436664,0.16857183796341468,-0.124224750122738,-0.23097765415971672,-0.9501128456758458
366.0,0.2382116443745082,-0.10599645948072385,-0.10777104642014163,4.467678206136899,1.4512651455546814,8.588014162077105,-1.7767469020456332,4.089669797403619,-0.0197396243115657,160.0360124901652,27.126461693548386,-9.61140711054288,0.1675972022492132,-0.11627244184421714,-0.21864851307671127,-0.953963187107789
367.0,0.3154767899291896,-0.0812159716758458,-0.10110326514555468,4.267693941778127,1.4104712824547598,8.697394177812747,0.6272263473642801,1.8488419551534225,0.8557803894571203,159.21599011605036,25.81819556451613,-9.228107789142408,0.1749716129189614,-0.11345408106726985,-0.20719371094158145,-0.9555286216909913
368.0,0.28298033044846577,-0.1116644374508261,-0.08507985837922895,4.06455664830842,1.426284028324154,8.792745476003148,0.3911585365853658,-0.17270603855232103,0.1206825334382376,158.26618558221872,24.505342741935483,-9.218186959087333,0.18336546599173875,-0.11362268439653815,-0.19520274931353265,-0.9564726151317859
369.0,0.3076129032258065,-0.08870161290322581,-0.08707258064516127,3.960088709677419,1.3471451612903227,8.85525,-0.1877016129032258,0.3222278225806451,-0.3110887096774193,158.75640120967742,23.82484879032258,-8.65226814516129,0.17957094228225806,-0.10761920548387097,-0.19066255650806452,-0.958869737298387
370.0,0.3368951612903226,-0.09189516129032257,-0.10721774193548388,3.8906290322580634,1.3408145161290324,8.886677419354836,0.2705141129032258,-1.4079133064516127,-0.5018145161290323,159.12253024193546,23.396219758064518,-8.586340725806451,0.17664189481451614,-0.10596328280645162,-0.1874171104596774,-0.9602511498548386
371.0,0.3528709677419355,-0.15804838709677413,-0.13023387096774194,4.02,1.3948709677419355,8.815524193548384,0.2340725806451613,-2.514868951612903,-1.0334173387096774,159.37308467741934,24.242540322580645,-9.009173387096773,0.17423484508064518,-0.10970065207258065,-0.1943004488951613,-0.9587758219596774
372.0,0.4048870967741936,-0.13371774193548383,-0.18037096774193548,4.361822580645162,1.5169193548387097,8.627346774193548,0.5915826612903226,0.2230846774193549,-0.12686491935483873,160.19868951612904,26.449294354838706,-9.995715725806452,0.16650996078225808,-0.11818286505645163,-0.21267291679838707,-0.9551424087419356
373.0,0.4067983870967742,-0.15232258064516127,-0.18904838709677418,4.441814516129032,1.6024193548387093,8.57807258064516,0.2788306451612903,0.4556451612903227,-0.05962701612903226,160.3553427419355,26.953477822580645,-10.590272177419354,0.16496823225,-0.12325242549193552,-0.2164045765,-0.9541279947258064
