time,linaccel_x,linaccel_y,linaccel_z,gravity_x,gravity_y,gravity_z,gyro_x,gyro_y,gyro_z,euler_x,euler_y,euler_z,quaternion_w,quaternion_y,quaternion_x,quaternion_z
0.0,-0.006562500000000002,-0.08406249999999998,-0.01968750000000001,-0.2799999999999999,-9.799999999999999,0.0,0.0888671875,0.2236328125,-0.021484375,341.625,-1.625,89.9501953125,0.698047636875,-0.09242248812500005,-0.7010612449999999,0.11268615812500012
1.0,-0.007083333333333334,-0.08218749999999998,-0.021250000000000012,-0.2799999999999999,-9.799999999999999,0.0,0.017903645833333332,0.0673828125,-0.032552083333333336,341.625,-1.625,89.94173177083333,0.6980552656250001,-0.09241231604166672,-0.701053615,0.11267598604166679
2.0,-0.008568594104308392,-0.08365858843537415,-0.023982426303854887,-0.2799999999999999,-9.799999999999997,0.0,0.14316051941609975,0.058356806264172334,0.009858630952380952,341.625,-1.625,89.93931361607142,0.6981604180569723,-0.0923905856051587,-0.7009484665646261,0.11270131129676866
3.0,0.018167989417989416,-0.08362400793650793,-0.027941798941798955,-0.2795833333333332,-9.799999999999997,0.0,0.023579075727513235,0.9105665095899471,-0.004774305555555557,341.73749999999995,-1.6229166666666668,89.93938802083333,0.6983581427599201,-0.0917138321157407,-0.7009445303968254,0.1120279446051587
4.0,-0.01671188367820247,-0.08334748012108067,-0.015341857172976725,-0.28404886148007563,-9.799999999999999,0.011309297912713479,0.19499556795164302,0.8722855027427638,-0.0018357645477545853,342.7581831119545,-1.6519805502846299,89.88291071216793,0.6996408366675136,-0.0851116205493622,-0.7013986628675342,0.1058726923611299
5.0,0.017630089266889533,-0.11117503614348967,-0.04385108411644227,-0.30274332474925436,-9.798599078341013,0.0017468148549742444,-0.06799085729721996,-2.0329020174938255,0.09205536801414115,341.9095639062076,-1.7638358972621306,89.95331856532937,0.698321809997063,-0.08902199399616725,-0.7012983042379145,0.11098930897578382
6.0,0.03621459820487334,-0.13449823235745917,0.02901044584500465,-0.30796152412577926,-9.79701382488479,-0.08532014095960971,-0.34707596580298783,1.321971100268064,0.02866962309117195,341.00645246001625,-1.7948787781241529,90.4818148126186,0.6942234419386237,-0.09461365974001912,-0.7038404750498328,0.11591906515148637
7.0,-0.036888604635402576,-0.11233360158579561,0.028196979194903764,-0.313741130726484,-9.795188940092164,-0.1282637571157496,-0.3266709834135267,-0.7048234616427218,-0.09924045727161832,341.9866939719436,-1.8311375457441041,90.73868966437382,0.6935889422027988,-0.08834824403027583,-0.7062300882791407,0.10976059485992137
8.0,-0.01962352483019561,-0.09858044089966744,0.023473738064057975,-0.2888868008811884,-9.797594470046079,-0.13275523157922878,-0.1284070767107388,0.5681712428269807,-0.07296233520668603,341.6020812970804,-1.6849695779038556,90.77104833698587,0.6930770532497126,-0.092508217996581,-0.7059262614762924,0.11206132798851362
9.0,-0.0384341533069384,-0.09241091711559679,0.025508080742519645,-0.2716285454663465,-9.798797235023038,-0.13898909586551572,-0.10081618744726423,1.6765861296813138,-0.08672640682806516,343.1563274810151,-1.5859073797624457,90.8076215356656,0.694216726921075,-0.08419218230142139,-0.7072233790597784,0.10261734743279027
10.0,-0.031597112330591245,-0.09085901883726918,0.02746379211795226,-0.26484422665022384,-9.799442396313363,-0.14163049263321864,-0.05932923241844407,1.064141325580957,-0.03949400094636498,344.3027029110144,-1.5370205101577206,90.82281998442267,0.695083348057312,-0.07771240340609943,-0.7081350276957878,0.09568826776760672
11.0,-0.02713496169524955,-0.08751937116978666,0.02731254122026646,-0.26158109950022707,-9.79979262672811,-0.14037976244564157,-0.03398489270691789,0.34760925726052466,-0.037834558076869126,344.8908531836178,-1.5133547251249433,90.81501022262609,0.6956241170678268,-0.07438134896111426,-0.7085098468409816,0.09214305676629178
12.0,-0.023698817253154734,-0.08803387913328041,0.026789911163128628,-0.2598504575842149,-9.8,-0.13977283053157652,-0.05264912838110871,0.1882343521325665,-0.007324537102950692,345.140184656325,-1.5008737911339,90.81133575647434,0.6958502018611026,-0.07300244808654793,-0.7086623932430716,0.0906408905167864
13.0,-0.023285119667013538,-0.08918163743124724,0.024730712055894166,-0.25985253456221186,-9.8,-0.14040322580645156,-0.036951835885238586,0.030239961163966114,0.013205064478965363,345.2920794930875,-1.499769585253456,90.81502016129032,0.6959578585691248,-0.07208671705554112,-0.708796291419355,0.08972232932927002
14.0,-0.052537136738602615,-0.0911490568776486,0.02966469483780483,-0.2698737727910237,-9.799177185600747,-0.14670932678821874,-0.19422914875808714,-3.437886890118611,0.0259375435932528,344.36486091631605,-1.5631136044880785,90.85022571879384,0.6949756425473355,-0.07703939044946295,-0.7083788961173445,0.09529439594821211
15.0,0.026432879652858725,-0.0863452558208061,0.026475552120577603,-0.29197913991663876,-9.79442730247779,-0.16814339578847565,-0.390178531744464,-0.9657562024569695,0.03274831665160434,340.7069221664724,-1.6960274973826124,90.97902301387215,0.6905477028116049,-0.09803229195077974,-0.7062425171886131,0.11718833425391285
16.0,0.005285996278042266,-0.092359623878145,0.03598979218932105,-0.29375915521177565,-9.792052360916312,-0.21165695135045892,-0.08635330677084949,0.5759024107242802,-0.049863330873506584,340.9378216823145,-1.7122994629770205,91.23493201384852,0.689438300147738,-0.09667967555754713,-0.7081465331519103,0.11555648127096568
17.0,0.0017948238558670188,-0.09392650772760298,0.0474639821161659,-0.298384953949974,-9.790864890135573,-0.23009370865013995,-0.19021406377968997,-1.0131380643511216,-0.05968188945109021,340.8720246404404,-1.7419024196605533,91.34136833667336,0.688802218586414,-0.09679267338809258,-0.7088685513967438,0.11587977151361906
18.0,0.01896247086093599,-0.09545453022856576,0.05036660644269832,-0.29983763826530974,-9.790271154745206,-0.24212606493301045,-0.1434429984686291,-0.8444557800043448,-0.04672214819949051,339.9255129405676,-1.7499834678947928,91.4048951155296,0.6874296588352744,-0.10242718717117101,-0.7085505680927582,0.12144946377914197
19.0,0.021765903388347742,-0.094482869646886,0.05084538385537929,-0.3002554250232582,-9.79,-0.2476338599559863,-0.10460151659890414,-0.30801397161574356,-0.02391624006514965,339.422813740036,-1.7520516918716602,91.43013865173396,0.6867292846139909,-0.10540073042523025,-0.7083427635578334,0.12437379737811696
20.0,0.02489505297569815,-0.0988452873291583,0.04790273346724959,-0.29992780337941666,-9.79,-0.2520284572058765,-0.13119842746858876,0.22732851825593758,0.010970671353735868,339.35135700992555,-1.7499183947772656,91.45669470538422,0.6865153939420026,-0.10589087813891848,-0.7084318638242353,0.1247847189324904
21.0,0.013160998973617577,-0.09565983531543304,0.0596581978531694,-0.29762492093611637,-9.789999999999997,-0.2685979911402111,-0.23549196922358687,0.6826785583960631,0.031292634402809924,339.9906029424797,-1.7504200268817205,91.55758461211201,0.686576309824891,-0.1023060981320778,-0.7095624906451072,0.12089024489169926
22.0,0.006134710956342839,-0.10032543737097817,0.06478205591583201,-0.2945113851992408,-9.79,-0.3016354651041556,-0.0334745912426178,0.3109573347535871,0.08376067652040137,340.4608732678348,-1.751008064516129,91.75727292881587,0.6858657704478398,-0.09975383691998155,-0.7111162730801702,0.11792374947989984
23.0,0.019591804463720976,-0.09505353754404985,0.05545627390741242,-0.30476992409867154,-9.789999999999997,-0.30237327188940094,-0.1632250346375109,-0.5730180849221409,0.023416792792385767,340.1051921440619,-1.796519212523719,91.76419879107557,0.685492507084086,-0.10121964542408357,-0.7109201187778602,0.12004818255880847
24.0,0.018162517695250145,-0.09609947742537875,0.05303791677961507,-0.30754625237191635,-9.79,-0.30336405529953936,-0.055210827610614126,-0.24693050943495673,0.0076761383316767545,339.8403984913858,-1.8055176707779885,91.77070826650552,0.6851298534613981,-0.10282982859913861,-0.7107683447921558,0.12166664676327521
25.0,0.020608396584440237,-0.09889587286527513,0.05765951138519923,-0.3089344165085388,-9.79,-0.30241935483870996,-0.059631463472485755,-0.12805754862428842,0.003102022058823529,339.70700160104366,-1.8100168999051234,91.76485042101518,0.6849796077496446,-0.10362491324478187,-0.7106735339142547,0.12244189361717264
26.0,0.022951257115749538,-0.09972782258064514,0.05946542931688802,-0.3097043999051232,-9.79,-0.3014658444022774,-0.006971210863377604,-0.10149023066888045,-0.004734567718216319,339.61719861835866,-1.8122665144686905,91.75899660519448,0.6848981605517677,-0.10415370916982933,-0.7105892860344514,0.12296992421370963
27.0,0.0247380613535737,-0.09763776881720429,0.06301984503478808,-0.31014705882352933,-9.79,-0.3002188092979131,0.0020902514231499053,-0.08024465330487032,0.0025270793801391526,339.56776639587287,-1.8133598197343455,91.75142685602466,0.6848806725919122,-0.10444108219580184,-0.7105164970368825,0.12326467879032252
28.0,0.024619468569065356,-0.09953600599669143,0.06466847601323406,-0.30999999999999994,-9.79,-0.3000856854838714,-0.005744029156327544,-0.011566732578577335,0.022700191273779986,339.5624054939516,-1.8125,91.75053553427418,0.6848735210635086,-0.10449363580141141,-0.7105111729586686,0.12329403475806446
29.0,0.023916717131434888,-0.10022551227893967,0.0662540088719524,-0.30999999999999994,-9.79,-0.3000000000000004,0.002484828259777855,-0.022388679029304026,-0.011053338182874468,339.5625,-1.8125,91.75,0.6848754900000006,-0.10449219000000012,-0.7105102499999991,0.12329101999999993
30.0,0.024445117718303214,-0.09983925863562959,0.0646558622828784,-0.30999999999999994,-9.79,-0.3000000000000004,0.01052175800789712,-0.007350093482905981,0.0026658552301193454,339.5625,-1.8125,91.75,0.6848754900000006,-0.10449219000000012,-0.7105102499999991,0.12329101999999993
31.0,0.026504312891409674,-0.10023716964039542,0.06318982630272951,-0.30999999999999994,-9.79,-0.30629032258064537,0.05561685178620662,-0.05601564653984009,0.029227962897317737,339.55796370967744,-1.8125,91.78931451612902,0.6846879540322584,-0.1045428867741936,-0.7106874495161288,0.12328511161290318
32.0,0.024659197722152984,-0.09710566425134581,0.06415127804904078,-0.30999999999999994,-9.79,-0.3031451612903229,0.03536078021152163,0.018769080129316863,-0.014740748866984557,339.50560126170654,-1.8125,91.76965725806451,0.6848091582700311,-0.10478936798126948,-0.7104769084469307,0.12359343055150881
33.0,0.024793618712193124,-0.09797963113311708,0.057219559620053886,-0.30999999999999994,-9.79,-0.3015725806451616,0.020518479435785626,0.043457120709819726,0.035154439462289355,339.50179256633714,-1.8125,91.75982862903226,0.6849053280059831,-0.10492429382934432,-0.7103360721266916,0.12372574011446413
34.0,0.02592777082150132,-0.09872727489298769,0.051332803115776565,-0.30999999999999994,-9.790000000000001,-0.300786290322581,0.04804849694003245,0.12262482416740675,0.039613210679726674,339.4998882186525,-1.8125,91.75491431451613,0.6849630659020545,-0.10492875304890738,-0.7102773392111086,0.12372889119146727
35.0,0.02624345530322379,-0.09732318685765615,0.0473433088799569,-0.30999999999999994,-9.790000000000001,-0.3003931451612907,-0.0018334064198967277,0.03967902754709304,0.03235140820724685,339.4989360448101,-1.8125,91.75245715725805,0.6850137811768334,-0.10480497475026018,-0.7102677868636185,0.1236044588215401
36.0,0.025646929264515127,-0.09857086762237643,0.04517619073030101,-0.30999999999999994,-9.79,-0.3000000000000004,-0.004523684056722557,0.002844176071933619,0.025894076079429874,339.4986017169615,-1.8125,91.75,0.6850449993132148,-0.10474150132674304,-0.7102574732049944,0.12354242727367329
37.0,0.005774740876366028,-0.10052020763747212,0.04483881459144666,-0.30537001897533195,-9.79,-0.2907400379506642,0.12984721257162646,0.9563480230301519,0.02381959726111422,339.8624288425047,-1.7849857685009487,91.6954459203036,0.6857316484501436,-0.10276687114035626,-0.7102246044126826,0.12144293522005264
38.0,0.03470857625938883,-0.09462795305755303,0.03875835169918385,-0.30238422483204275,-9.792231909328677,-0.23420175393609935,0.4052994194438845,1.0560053943867813,-0.050904147449518,340.382173444792,-1.7712799374326889,91.36657649110211,0.688261085968751,-0.09946112618046583,-0.7086869932787041,0.11870856436242387
39.0,0.03517694643028304,-0.08969539669123167,0.04166838019208341,-0.29055417308044107,-9.796277244986918,-0.1871393940600092,0.028135881231719034,1.928331228185672,-0.020341133239878514,341.860200829281,-1.7013748026113853,91.09463875108787,0.6913510315342768,-0.09100753443553553,-0.7081188246001593,0.1100950822771164
40.0,0.0009290417941392633,-0.09042362390050354,0.05632885827654437,-0.2760414624167984,-9.798299912816038,-0.19494884616511468,-0.06414089083630994,2.536132654766048,-0.035816034016809176,344.6801004146405,-1.6115423568924152,91.12778922126623,0.6934396259892047,-0.07456370719672992,-0.710143921100921,0.09301016672995605
41.0,-0.0066347734577690805,-0.09239175146638079,0.058267755751175404,-0.26721427959549593,-9.7993112467306,-0.20102281017933168,-0.02646308654718723,1.2580644372620562,-0.036887981726146525,346.48571552990086,-1.5507308558655626,91.14857202998795,0.6946871467042797,-0.0640319891628811,-0.7114198125665891,0.08210974586497805
42.0,-0.03182287888485642,-0.09441563546807025,0.04367148778552169,-0.269560550012356,-9.799816913687877,-0.194099279585216,0.10939299069492336,-4.006942071130311,0.00032693044275029434,345.58398529388114,-1.571162208139639,91.11705171140201,0.6942198221008704,-0.06948262835736459,-0.7106364737235289,0.08764833826155069
43.0,0.0483350420621178,-0.08602952653961489,0.0182027883565795,-0.2807293346649151,-9.799999999999997,-0.14418695452669694,0.04359649846117447,-5.323405024853983,0.0887201814998656,339.77538721662546,-1.6369289524942807,90.83497801350399,0.6898052938576964,-0.10413703284451867,-0.7037833433020434,0.12295573718632401
44.0,-0.0004173503111547655,-0.09497351788383408,-0.00022054451533888055,-0.2710504855531819,-9.799999999999995,-0.1594309832816441,-0.029236897615825857,0.9118226707966746,0.06478886087778815,338.16911914193497,-1.5747652974101425,90.92704973804177,0.6878799657586241,-0.11491108621148524,-0.7030589823542261,0.13250632425196474
45.0,-0.0041796071468872325,-0.0951222675633179,-0.0013175433849141665,-0.27557103107788616,-9.799013282732442,-0.18394836571611856,-0.05484391837863041,0.44523341415971596,0.04361978313256622,338.95196943814017,-1.6004532836911836,91.07495853786008,0.6882097100933758,-0.10993736667228002,-0.7050600308549451,0.12766951764147894
46.0,-0.0017167796999157108,-0.09707586272431126,-0.008011642276174442,-0.27810809618410437,-9.799506641366222,-0.1969741828580594,-0.04090807230055432,0.23114000257076933,0.029561137646032208,339.2821685648362,-1.6147427708778497,91.16348733344617,0.6882913287563657,-0.10772791478019243,-0.7060500112465256,0.12553790140390483
47.0,0.0007881491132700028,-0.0957620670189685,-0.010143647052993938,-0.27916990452094803,-9.799753320683111,-0.20380740037950693,-0.03690229647183188,0.2725175397942736,0.025110367594835363,339.5033059998193,-1.6203257243757716,91.20911474804976,0.6883655726198915,-0.10629018887351285,-0.7065894527768299,0.12413070369377437
48.0,-0.0004540289527588308,-0.09656837842263562,-0.009818721789524264,-0.27938909972591175,-9.799876660341555,-0.2087262808349149,-0.05565759098671352,0.24688554231826404,-0.006033082774719856,339.7809732764073,-1.621381180160236,91.24054527725067,0.6885312106509599,-0.10457580575242463,-0.7070625808077704,0.12241193493674898
49.0,0.0021619384166057356,-0.09675577139257738,-0.011440338877353021,-0.2799857685009487,-9.799938330170779,-0.20994781783681243,-0.007631502866628653,-0.024418691974508522,0.002483810635169513,339.87805384250476,-1.6249407020872864,91.24908088235293,0.6886034364231506,-0.10393004334440228,-0.7072145046489575,0.12181285120493368
50.0,0.0032854284113389204,-0.0967092606780432,-0.012864199507279638,-0.2799999999999999,-9.8,-0.2100000000000003,-0.011910828794283528,-0.01936546370729513,-0.019927905658915026,339.875,-1.6249999999999998,91.25,0.6885986300000007,-0.10394287,-0.7072143600000012,0.1218261700000001
51.0,0.006163648468539207,-0.09551399069193034,-0.013378808958413542,-0.2799999999999999,-9.8,-0.2100000000000003,0.03912562463551017,0.30420517235683725,-0.012173078828906093,339.9375310173697,-1.6249999999999998,91.25,0.6886587265558317,-0.1035905322133995,-0.7072700937568246,0.12147480158312657
52.0,0.002157233447556029,-0.0943226594194336,-0.013721926818701019,-0.2799999999999999,-9.8,-0.2100000000000003,0.033265882862657054,0.19880312339989759,0.018661625113238017,340.259568120052,-1.6249999999999998,91.25,0.688974702077199,-0.10176057277080627,-0.7075247417376028,0.11964335739422591
53.0,0.0030265075426365753,-0.09475190042931975,-0.014808854228209075,-0.2799999999999999,-9.8,-0.2100000000000003,0.018788648627358302,0.08477687187364606,0.021241482531805113,340.4221227697034,-1.6249999999999998,91.25,0.6891331899095673,-0.10083559235314507,-0.7076530657075106,0.11871863466485494
54.0,0.003837882547559967,-0.09496427586750164,-0.013909803458190562,-0.2799999999999999,-9.8,-0.2100000000000003,0.01189048406790342,0.03425991571152861,0.0053084012761432115,340.5034000945292,-1.6249999999999998,91.25,0.6892124338257515,-0.10037310214431447,-0.7077172276924646,0.11825627330016947
55.0,0.004633581472291151,-0.09475757217692699,-0.013798574185670966,-0.2799999999999999,-9.8,-0.2100000000000003,-0.009144708338256726,0.039648568277600535,-0.006123714994682737,340.544038756942,-1.6249999999999998,91.25,0.6892520557838435,-0.10014185703989917,-0.7077493086849415,0.11802509261782672
56.0,0.004423010219056006,-0.09505396418819934,-0.013835171187928737,-0.2799999999999999,-9.8,-0.2100000000000003,-0.03354357805450417,0.016771074341313676,0.005324839052726668,340.5624039938556,-1.6249999999999998,91.25,0.6892699887455198,-0.1000372450435228,-0.7077636075012792,0.11792048253968265
57.0,0.005949344331238194,-0.09521771430096089,-0.013869710529960274,-0.2799999999999999,-9.8,-0.2100000000000003,0.003477506927689028,0.010945701021143268,0.022543691927797024,340.5625,-1.6249999999999998,91.25,0.6892700200000001,-0.10003662,-0.7077636699999992,0.11791992000000011
58.0,0.006088816086214631,-0.09625649983038116,-0.015495649309645153,-0.2799999999999999,-9.8,-0.2100000000000003,0.0230476864663259,0.012870493190472378,0.008433756633873697,340.5625,-1.6249999999999998,91.25,0.6892700200000001,-0.10003662,-0.7077636699999992,0.11791992000000011
59.0,0.004831612260242786,-0.09448215689310602,-0.013291460759008656,-0.2799999999999999,-9.8,-0.2100000000000003,0.04421472233467135,0.01095383086659677,0.0006751434491840012,340.5625,-1.6249999999999998,91.25,0.6892700200000001,-0.10003662,-0.7077636699999992,0.1179199200000001
60.0,0.004711091489922882,-0.09534281541925775,-0.01563580482119168,-0.2799999999999999,-9.8,-0.2100000000000003,0.008692348760387787,0.008252970023869103,0.010557795049654036,340.5625,-1.6249999999999998,91.25,0.6892700200000001,-0.10003662,-0.7077636699999992,0.1179199200000001
61.0,0.004462725765773096,-0.09427910802180367,-0.016061919059919463,-0.2799999999999999,-9.8,-0.20919354838709697,0.054099035982691286,0.03919737471016556,-0.008590119124496604,340.5625,-1.6249999999999998,91.2414314516129,0.689305952096774,-0.10003219040322578,-0.7077336449999992,0.11792139677419364
62.0,0.006550919334499453,-0.08745709433348248,-0.012645374852540378,-0.27919354838709665,-9.8,-0.2000806451612904,0.1922303395639263,0.18227509864540536,0.10040189104259041,340.58921370967744,-1.6249999999999998,91.1640625,0.6897344293548386,-0.099860160766129,-0.707377032741935,0.11780301870967747
63.0,-0.012004061570525788,-0.07555689339356944,0.005565650042712443,-0.2927277039848197,-9.799165085388994,-0.17946157495256165,-0.2859558782402234,0.6464232740344236,0.02371302404997715,340.8647562855788,-1.7075426944971537,91.04479216081594,0.6906988380360533,-0.09705993436788424,-0.7070862401755215,0.11624050593927895
64.0,-0.0220062771367945,-0.08596893265935684,0.011821555220177032,-0.279122638704013,-9.796809312073405,-0.21298788906511093,0.007177056657215325,0.1391603177278837,-0.0554327193695985,341.52537585583707,-1.624865473392053,91.24272588300788,0.6901414685173044,-0.09410038079491949,-0.708691149098353,0.1120469442166303
65.0,-0.03703363448669121,-0.08900723038189548,0.014725968029767018,-0.27522284342867787,-9.79713303378331,-0.21111993798744094,0.2270241740293305,-0.9819543018833521,0.10661582285916449,341.273951953164,-1.6010898194449745,91.22906513879238,0.6899815010047954,-0.095897903670017,-0.7083616366085501,0.11358866977077423
66.0,-0.009280000171560053,-0.09337618021820807,0.002539004857682235,-0.28160960435859156,-9.79696724383395,-0.20251611108822298,-0.20832471124464869,-0.5011665002431299,-0.09665299944899566,339.7274036231063,-1.63894222912276,91.18119061368004,0.6886103616407299,-0.10494886824718622,-0.7067396204451342,0.1229158558602281
67.0,-0.02724540212562821,-0.09319796321157083,0.008631338292218727,-0.2682303832988404,-9.793322331594393,-0.2368400645573942,-0.0870484220952845,-0.2181945448914891,-0.07818392530561737,339.8865268752984,-1.5598648527017973,91.37943729272712,0.6876119567345901,-0.1051434326777618,-0.7079502815702602,0.12177707862923645
68.0,-0.019717232717118057,-0.09646442925111917,0.0067680151871650825,-0.26338226944828164,-9.791525966556208,-0.2522936594421723,-0.06435215366163799,-0.4529474499801014,-0.05634585834598332,339.70375512516,-1.5253368381156047,91.47863514771484,0.6868480624696324,-0.10669154720714609,-0.7083255430869675,0.1227782492405138
69.0,-0.015996246181793093,-0.09370458396167469,0.004008343670494449,-0.2615948419942419,-9.790688356412431,-0.26154403723191894,-0.05482158584488844,-0.41581073808127655,-0.03989141049908011,339.45338256636296,-1.5119462235835606,91.52262884010682,0.6862925226905564,-0.1083503900636307,-0.708383063582291,0.1242296137567556
70.0,-0.014068716826286916,-0.09306845076361603,0.0024415044885686575,-0.2606104177245636,-9.790222626079052,-0.26847187836350495,-0.019716830153095756,-0.1652731386016056,-0.019754451902606485,339.3233339900538,-1.5047020739236174,91.55987550424737,0.6859316955109891,-0.1092503630123926,-0.7084619942483257,0.12501267195020394
71.0,-0.015614480396264079,-0.09524342092653286,0.002005381820372334,-0.2586064631131044,-9.789999999999996,-0.2746787131274795,0.017257788990473998,0.4899836584193794,-0.03108186089685141,339.5734830772485,-1.4931717555057213,91.59445259042033,0.6859992214068651,-0.10792300016238565,-0.7088735035830039,0.12345288894895683
72.0,-0.01973875907433924,-0.09288715270178918,0.002780247623771938,-0.25506047475233795,-9.790693307655268,-0.2698956099269048,0.0705224184551339,1.2000075033296025,-0.0460058968875772,340.2849964541557,-1.479490378021914,91.56932848586976,0.6868867301129672,-0.10380640280606471,-0.7093249302044068,0.11920764861488886
73.0,-0.012322947474608525,-0.09224269658549866,-0.0006528869408022025,-0.2572956332705971,-9.790346653827633,-0.2639385185509401,0.0920030225217996,0.37853503221221074,-0.022437821366564747,340.9275208321609,-1.489745189010957,91.55670419894662,0.6876740241718302,-0.09979673746363843,-0.709761095534755,0.11540570780451191
74.0,-0.008950978717235882,-0.09260186627170644,-0.00684784148503533,-0.25864781663529846,-9.790173326913816,-0.2514853883077282,0.06477174481391171,0.2323045930596756,-0.004543386675552329,341.21707262806206,-1.4948725945054784,91.49508597044104,0.6883380608186338,-0.09796958740053394,-0.7096326288221653,0.11377428718438597
75.0,-0.007674827654730432,-0.09340575304712474,-0.011783383860045302,-0.2593239083176492,-9.790086663456908,-0.24520505974526205,0.04185321957591592,0.10840265369954981,0.005035012053606646,341.3625685720955,-1.4974362972527393,91.46391028727331,0.6886725587475375,-0.09705060714601468,-0.7095679330767721,0.11295323064742266
76.0,-0.007740702699436607,-0.09258209009528373,-0.01348668451981233,-0.2597010548430865,-9.790043331728455,-0.24198669409550505,0.03860222783103178,0.04307960626200333,-0.012281728514236628,341.42685491165867,-1.4989167067886373,91.44786423454576,0.6888333194006503,-0.09663869818444422,-0.709525382850703,0.11259532505245029
77.0,-0.007735663804342267,-0.09373917307111893,-0.014506905396603634,-0.2599853372434016,-9.79,-0.2405865102639298,0.025025659390903926,-0.024726083258861616,-0.00874712060976369,341.43976050830884,-1.5,91.4409518572825,0.6888873131476047,-0.09654488192082097,-0.7094944666275665,0.11253033441837723
78.0,-0.007817001012630567,-0.09490477715139525,-0.016466551427529584,-0.2599999999999999,-9.79,-0.2400000000000002,-0.0018291791022019936,-0.0015950797525979628,0.020324020340279445,341.4375,-1.5,91.4375,0.6889038099999996,-0.09655761999999984,-0.7094726600000005,0.1125488299999999
79.0,-0.012651602704152136,-0.09561181846249481,-0.020307976940391104,-0.2647702834799607,-9.79,-0.24523949169110465,0.024420545093997225,-0.6451581924477995,0.04711255095782932,341.0259652981427,-1.5469208211143695,91.45998289345064,0.6883821170185723,-0.0984634907331377,-0.7093514231671555,0.11491577561094819
80.0,-0.01034813385827954,-0.09170665364812086,-0.01703984454960002,-0.2675464320625608,-9.790555831265507,-0.23833190465448545,0.009914987187197124,-0.12383529969784515,-0.02034881136972058,340.63669542822765,-1.5879765395894427,91.41052804722159,0.6882964403529582,-0.10040340864696591,-0.7087984770773743,0.11725034969381154
81.0,-0.01326980053996183,-0.09703178676162547,-0.02167028647875423,-0.26893450635386085,-9.790358560794044,-0.24069821039175887,0.0568077797538483,0.07900001404285682,-0.028335826080281727,340.6439525528235,-1.5772543988269794,91.41443741070756,0.6882531095313181,-0.10020278819445069,-0.7088958554741709,0.11715985750819613
82.0,-0.023017900782013694,-0.09277549399525203,-0.015239649127753975,-0.25930596285434987,-9.79349725274725,-0.2441832065783679,-0.07367944345640919,3.2026848508514334,-0.07949369389011525,342.13703964046704,-1.5146640657729367,91.43057700028466,0.6894951675260276,-0.09171752634607325,-0.7100240095527537,0.10815071403981234
83.0,0.009333903551645487,-0.09093355792952565,-0.012061188811188818,-0.2820902574128381,-9.791748626373622,-0.2473245781995781,-0.008220140074978791,-0.36919793915761656,0.00159604900028288,343.207072687617,-1.6462209217753574,91.44792738903121,0.6903760008060245,-0.08352007976801872,-0.7111449221598893,0.10172346922420725
84.0,0.011797939068100359,-0.09504400281618021,-0.020163047973531856,-0.286379928315412,-9.79087431318681,-0.24511145821024855,0.0011288107054236059,0.01745687108590327,-0.036149067386466574,343.0851468032415,-1.6684183787762419,91.4329385234501,0.6904142258086818,-0.08396535827843757,-0.7110656725535518,0.1024889735295034
85.0,0.012753319485174323,-0.09028641978541169,-0.015019489247311831,-0.28851254480286703,-9.790419786866357,-0.24855482678164129,-0.0770861698785086,-0.15290025834380677,-0.022086113511264716,342.99350580255316,-1.6789672539042497,91.45547501403726,0.6902192231752635,-0.08444201525524254,-0.711184237254594,0.10304163603507274
86.0,0.014252763813247686,-0.09658510217381183,-0.02101868919610856,-0.2895788530465946,-9.790207373271887,-0.256026765349346,0.006413792300889072,-0.09110106683191362,-0.028893449180747564,342.8729499778895,-1.6852182539682539,91.50771867581344,0.6898373766995589,-0.0852126606961377,-0.7113905065422839,0.10372134205967513
87.0,0.012723156100172231,-0.09452296583344971,-0.017138376856118798,-0.29043458781361964,-9.79,-0.25305485732905086,0.024030628869338544,-0.16756954263254667,-0.04264372919866871,342.7661264866406,-1.6901321684587813,91.50472339320626,0.689844992845171,-0.08583251289876015,-0.7112253758656124,0.10437532026486065
88.0,0.012022420343992929,-0.09432081471395987,-0.0187439196108551,-0.28999999999999954,-9.79,-0.2527540671693897,-0.053894903819298984,-0.031937453087906714,-0.044143325172811054,342.7026056940372,-1.6875,91.50293573334147,0.6898236653649181,-0.08626602698925469,-0.7111424260875681,0.10475389168260954
89.0,0.012040492820279506,-0.09409540345479471,-0.01782571891052641,-0.28999999999999954,-9.79,-0.25240363348063655,0.0004389782412350038,-0.027378045450040772,-0.020953341013824886,342.69177663734115,-1.6875,91.47726517253702,0.6898796474711721,-0.0863155484579631,-0.7110680007349097,0.10481892178173147
90.0,0.010097921423298638,-0.09386546998064949,-0.016215588983799184,-0.28999999999999954,-9.79,-0.25117982260542093,-0.03258772382772447,-0.0008915379517291586,-0.004849602682263973,342.6875,-1.6875,91.4567869117817,0.6899415955610995,-0.08632327709066291,-0.7109983800350991,0.10485110065870548
91.0,0.009890230552919162,-0.09213498793451316,-0.015455464742795653,-0.28999999999999954,-9.79,-0.25038253803082106,-0.03362297097684226,0.005506611976516372,-0.004920961095356256,342.6875,-1.6875,91.44523933402706,0.6899814558732279,-0.08631164964620194,-0.7109586112541086,0.10485581293559959
92.0,0.00825408705065313,-0.09369098187048239,-0.019048296887526864,-0.28999999999999954,-9.79,-0.25019126901541056,0.0516896485841595,0.014062529778580767,0.02015796703296703,342.6875,-1.6875,91.4403616024974,0.6900170836977024,-0.08630669530697198,-0.7109229198609257,0.10485710646779983
93.0,0.00892470799520748,-0.0948616117089062,-0.025018425238768644,-0.28999999999999954,-9.790000000000001,-0.25005723204994795,0.06793938931198296,0.02242373387827342,-0.00017509209919459694,342.6875,-1.6875,91.43792273673256,0.6900437977679497,-0.08630421813735699,-0.7108961740062442,0.1048580188969824
94.0,0.009105954413836832,-0.09301093072438027,-0.022472792223962892,-0.28999999999999954,-9.79,-0.25,-0.007718650817473659,0.012902813869417667,0.004952776531047863,342.6875,-1.6875,91.4375,0.6900554808064512,-0.08630371000000006,-0.7108844591935493,0.1048584000000001
95.0,0.009418982169697575,-0.09056377801727697,-0.021406371298085668,-0.28999999999999954,-9.79,-0.25,-0.02947191846084601,0.041989558299473095,-0.014831304042168375,342.6875,-1.6875,91.4375,0.6900604649193542,-0.08630371000000006,-0.710879475080646,0.1048584000000001
96.0,0.010378024193548392,-0.09259999349635797,-0.023363195889698242,-0.28999999999999954,-9.790000000000001,-0.25,-0.0007123520421436005,0.013014397437565037,-0.004197897697710717,342.6875,-1.6875,91.4375,0.6900629569758059,-0.08630371000000006,-0.7108769830241943,0.10485840000000009
97.0,0.008971464019851121,-0.09336075202113184,-0.022993671456015382,-0.28999999999999954,-9.790000000000001,-0.25,-0.013432178269831105,0.011635484621387977,-0.02064224715840871,342.6875,-1.6875,91.4375,0.6900634799999994,-0.08630371000000006,-0.7108764600000008,0.1048584000000001
98.0,0.01174899943968623,-0.09101960597934843,-0.02261546215880894,-0.28999999999999954,-9.79,-0.24669354838709684,0.026810185578924194,0.03256397019831105,-0.017540166243096136,342.6875,-1.6875,91.4375,0.6900836592741928,-0.08630371000000006,-0.7108562807258064,0.1048584000000001
99.0,0.009836193268230212,-0.0921025449251581,-0.023326380272952862,-0.28999999999999954,-9.79,-0.2431854838709679,0.005608343797526614,0.00968231272012327,0.0016570842171616095,342.6875,-1.6875,91.4375,0.6901050689919348,-0.08630371000000006,-0.7108348710080641,0.1048584000000001
100.0,0.009605519090690792,-0.09298470143280235,-0.02428101736972706,-0.28999999999999954,-9.79,-0.24143145161290339,0.020512424457696313,0.009678169775074042,0.01724496968302249,342.6875,-1.6875,91.4375,0.6901157738508057,-0.08630371000000006,-0.7108241661491927,0.1048584000000001
101.0,0.009448961418394304,-0.09366716861442406,-0.02214311014167935,-0.28999999999999954,-9.79,-0.24055443548387112,-0.021384006293524372,-0.011566352157208035,0.00020026840030417173,342.6875,-1.6875,91.4375,0.6901211262802414,-0.08630371000000006,-0.7108188137197573,0.10485840000000009
102.0,0.010081800808452737,-0.09144896892259663,-0.019917708916993525,-0.28999999999999954,-9.79,-0.240115927419355,-0.04459398825842472,-0.01786444158728888,0.02845001013067318,342.6875,-1.6875,91.4375,0.690123802494959,-0.08630371000000006,-0.7108161375050395,0.1048584000000001
103.0,0.010707663077037431,-0.09287218191393526,-0.021802812471809624,-0.28999999999999954,-9.79,-0.2400000000000002,-0.05666594374198758,-0.011318873539420168,0.004732647554455894,342.6875,-1.6875,91.4375,0.6901245099999993,-0.08630371000000006,-0.7108154299999991,0.1048584000000001
104.0,0.009741432344970331,-0.09235342966664503,-0.02720936994558224,-0.28999999999999954,-9.79,-0.2400000000000002,-0.03712203437099379,-0.005958705922935891,0.012620230027227945,342.6875,-1.6875,91.4375,0.6901245099999993,-0.08630371000000006,-0.7108154299999991,0.1048584000000001
105.0,0.01012257721466879,-0.09402038728989817,-0.03158731524574397,-0.28999999999999954,-9.79,-0.2400000000000002,0.012665719787207819,-0.006189650728217325,0.015894482259271543,342.6875,-1.6875,91.4375,0.6901245099999993,-0.08630371000000006,-0.7108154299999991,0.1048584000000001
106.0,0.009743993461735403,-0.0952988892827602,-0.03398358048761275,-0.28999999999999954,-9.79,-0.2400000000000002,-0.014196970144550788,-0.01230315663279373,0.01588787836267675,342.6875,-1.6875,91.4375,0.6901245099999993,-0.08630371000000006,-0.7108154299999991,0.1048584000000001
107.0,0.009627467066983201,-0.09477080714983935,-0.035237673392915336,-0.28999999999999954,-9.789999999999997,-0.2400000000000002,0.013521956314295026,-0.016043299498440626,-0.005632269556160685,342.6875,-1.6875,91.4375,0.6901245099999993,-0.08630371000000006,-0.7108154299999991,0.1048584000000001
108.0,0.010623158239898619,-0.09506597771230962,-0.03571812150229815,-0.28999999999999954,-9.79,-0.2400000000000002,0.03537648696906631,-0.0012098589558998639,0.019860413295189894,342.6875,-1.6875,91.4375,0.6901245099999993,-0.08630371000000006,-0.7108154299999991,0.1048584000000001
109.0,0.010815611378013828,-0.09395435982389674,-0.03580512929953618,-0.28999999999999954,-9.79,-0.2400000000000002,0.008899180984533156,0.006971305401082327,0.007079274187917529,342.6875,-1.6875,91.4375,0.6901245099999993,-0.08630371000000006,-0.7108154299999991,0.1048584000000001
110.0,0.011851858108361757,-0.09390258313775482,-0.03595700013363906,-0.28999999999999954,-9.79,-0.2400000000000002,0.030675018919685933,-0.015573067057523354,0.009273004029442634,342.6875,-1.6875,91.4375,0.6901245099999993,-0.08630371000000006,-0.7108154299999991,0.1048584000000001
111.0,0.011500685838615084,-0.09442697001229777,-0.03909345142370638,-0.28999999999999954,-9.79,-0.2400000000000002,0.037682939567369844,-0.005466385039258349,0.011452938266641441,342.6875,-1.6875,91.4375,0.6901245099999993,-0.08630371000000006,-0.7108154299999991,0.1048584000000001
112.0,0.010043034099095497,-0.09405320979748659,-0.03643652945649565,-0.28999999999999954,-9.79,-0.2400000000000002,0.00036451662931241344,0.005528001931081406,0.018530533348675257,342.6875,-1.6875,91.4375,0.6901245099999993,-0.08630371000000006,-0.7108154299999991,0.1048584000000001
113.0,0.010732829670329675,-0.09333348595848595,-0.036893173470794446,-0.28999999999999954,-9.79,-0.2400000000000002,-0.00426370364626413,0.02866630387421718,0.004469862994308559,342.6875,-1.6875,91.4375,0.6901245099999993,-0.08630371000000006,-0.7108154299999991,0.1048584000000001
114.0,0.011907873488518655,-0.09276833348103508,-0.03876040681988263,-0.28999999999999954,-9.79,-0.2400000000000002,0.011976551114655952,0.01819314897691914,0.00897011254874158,342.6875,-1.6875,91.4375,0.6901245099999993,-0.08630371000000006,-0.7108154299999991,0.1048584000000001
115.0,0.012020236372050894,-0.09322686990428924,-0.036425837715152246,-0.28999999999999954,-9.79,-0.2400000000000002,0.016552113181397456,-0.006185780505336958,0.005288600008862105,342.6875,-1.6875,91.4375,0.6901245099999993,-0.08630371000000006,-0.7108154299999991,0.1048584000000001
116.0,0.010091299381621968,-0.09358092087124342,-0.037115128598999576,-0.28999999999999954,-9.79,-0.2400000000000002,0.008622828784119107,-0.0005957304344401124,-0.017033459372169046,342.6875,-1.6875,91.4375,0.6901245099999993,-0.08630371000000006,-0.7108154299999991,0.1048584000000001
117.0,0.010703217929024384,-0.09427185001378546,-0.03722753948560401,-0.28999999999999954,-9.79,-0.2400000000000002,0.015291563275434244,0.004416774981291111,-0.013370948048367401,342.6875,-1.6875,91.4375,0.6901245099999993,-0.08630371000000006,-0.7108154299999991,0.1048584000000001
118.0,0.01163937138130687,-0.0950417109771948,-0.03947654496041593,-0.28999999999999954,-9.79,-0.2400000000000002,-0.002482866595769821,-0.01806491000039387,0.003171156800189057,342.6875,-1.6875,91.4375,0.6901245099999993,-0.08630371000000006,-0.7108154299999991,0.1048584000000001
119.0,0.01028717160975226,-0.09409791642049703,-0.039246721020914574,-0.28999999999999954,-9.79,-0.2400000000000002,-0.019314589979912557,-8.788254755996705e-05,-0.012231305880499428,342.6875,-1.6875,91.4375,0.6901245099999993,-0.08630371000000006,-0.7108154299999991,0.1048584000000001
120.0,0.010028201189491517,-0.09271521131198548,-0.03520152428216945,-0.28999999999999954,-9.79,-0.2400000000000002,-0.0069898011934302244,0.006500723738626964,-0.017739412245460634,342.6875,-1.6875,91.4375,0.6901245099999993,-0.08630371000000006,-0.7108154299999991,0.1048584000000001
121.0,0.009626029306570413,-0.09295853392185335,-0.0341376863106832,-0.28999999999999954,-9.79,-0.2400000000000002,0.03133261868709969,-0.012958675509078735,-0.006180501755586303,342.6875,-1.6875,91.4375,0.6901245099999994,-0.08630371000000006,-0.7108154299999991,0.10485840000000009
122.0,0.010507803735171066,-0.09417901882196886,-0.034493160773207604,-0.28999999999999954,-9.79,-0.2400000000000002,0.020303406117743394,-0.00018281169994879658,-0.016846454351738562,342.6875,-1.6875,91.4375,0.6901245099999993,-0.08630371000000006,-0.7108154299999991,0.1048584000000001
123.0,0.010535519891139041,-0.09417476286720562,-0.03641452713519572,-0.28999999999999954,-9.79,-0.2400000000000002,-0.00616134097594653,0.021685987903225803,-0.006207085342791964,342.6875,-1.6875,91.4375,0.6901245099999993,-0.08630371000000006,-0.7108154299999991,0.1048584000000001
124.0,0.0114925583326663,-0.09421439756263505,-0.03612561034179141,-0.28999999999999954,-9.79,-0.2400000000000002,0.005031098665252542,0.004511088709677419,0.01597092809473305,342.6875,-1.6875,91.4375,0.6901245099999993,-0.08630371000000006,-0.7108154299999991,0.1048584000000001
125.0,0.011635896101817023,-0.09434258184583366,-0.03667167613863764,-0.28999999999999954,-9.79,-0.2400000000000002,-0.0016112147802769547,0.004082661290322581,-0.005765165992956055,342.6875,-1.6875,91.4375,0.6901245099999993,-0.08630371000000006,-0.7108154299999991,0.1048584000000001
126.0,0.011163941807412158,-0.09519938665652766,-0.03886133234611383,-0.28999999999999954,-9.79,-0.2400000000000002,0.002267363473545185,-0.0031778420915712802,0.00017412876210678042,342.6875,-1.6875,91.4375,0.6901245099999994,-0.08630371000000006,-0.7108154299999991,0.10485840000000009
127.0,0.011671300928519977,-0.09410093402305289,-0.039274338629632595,-0.28999999999999954,-9.79,-0.2400000000000002,-0.001502794690026415,-0.02412304015248539,0.00399525296666133,342.6875,-1.6875,91.4375,0.6901245099999993,-0.08630371000000006,-0.7108154299999991,0.1048584000000001
128.0,0.011153270791960965,-0.0934570770345679,-0.03786001557697709,-0.28999999999999954,-9.79,-0.2400000000000002,-0.014056498871510902,0.0021258879178689266,-0.011393980579521356,342.6875,-1.6875,91.4375,0.6901245099999993,-0.08630371000000006,-0.7108154299999991,0.1048584000000001
129.0,0.010700123299206289,-0.09432178448502587,-0.03722133843364984,-0.28999999999999954,-9.79,-0.2400000000000002,-0.02339354681478771,0.010324536700869946,-0.013336229201051,342.6875,-1.6875,91.4375,0.6901245099999993,-0.08630371000000006,-0.7108154299999991,0.1048584000000001
130.0,0.011048146327022501,-0.09362258579090002,-0.03825532647488944,-0.28999999999999954,-9.79,-0.2400000000000002,-0.01106673308481321,-0.0024612195527908337,0.0028454942704422403,342.6875,-1.6875,91.4375,0.6901245099999993,-0.08630371000000006,-0.7108154299999991,0.1048584000000001
131.0,0.010677517822679117,-0.09392702056008506,-0.03968813265587459,-0.28999999999999954,-9.79,-0.2400000000000002,-0.001567177222419158,0.004068568080664855,0.017710241147741147,342.6875,-1.6875,91.4375,0.6901245099999993,-0.08630371000000006,-0.7108154299999991,0.1048584000000001
132.0,0.011971513253771323,-0.09389899415101027,-0.04016912836267675,-0.28999999999999954,-9.79,-0.2400000000000002,-0.023534829305998664,0.0012433411122927248,0.033064177645830875,342.6875,-1.6875,91.4375,0.6901245099999993,-0.08630371000000006,-0.7108154299999991,0.1048584000000001
133.0,0.011474995680120555,-0.09190341412619638,-0.04089010734900433,-0.28999999999999954,-9.79,-0.2400000000000002,-0.01653830063486346,0.0006779322214090683,0.00029879182739159585,342.6875,-1.6875,91.4375,0.6901245099999994,-0.08630371000000006,-0.7108154299999991,0.10485840000000009
134.0,0.011619554291673185,-0.09320725141793687,-0.04259727141643764,-0.28999999999999954,-9.79,-0.2400000000000002,-0.011293343865818827,-0.012041326228005142,0.008938458413695796,342.6875,-1.6875,91.4375,0.6901245099999993,-0.08630371000000006,-0.7108154299999991,0.1048584000000001
135.0,0.011190321500675305,-0.09341058135412973,-0.041956397804993016,-0.28999999999999954,-9.79,-0.2400000000000002,0.005426286736445425,0.032522053619868395,-0.009927192164119844,342.6875,-1.6875,91.4375,0.6901245099999993,-0.08630371000000006,-0.7108154299999991,0.1048584000000001
136.0,0.009622298487152809,-0.09179745657568238,-0.04233124549747858,-0.28999999999999954,-9.79,-0.2400000000000002,0.002081102917633875,0.007028435924117508,-0.005475628852157207,342.6875,-1.6875,91.4375,0.6901245099999993,-0.08630371000000006,-0.7108154299999991,0.1048584000000001
137.0,0.009362017729928764,-0.09282180521091812,-0.04210855078844153,-0.28999999999999954,-9.79,-0.2400000000000002,0.01763484426278716,-0.006364814296005763,0.015857098725286158,342.6875,-1.6875,91.4375,0.6901245099999993,-0.08630371000000006,-0.7108154299999991,0.1048584000000001
138.0,0.009583474880853916,-0.09329518319941707,-0.042751292390405295,-0.28999999999999954,-9.79,-0.2400000000000002,0.023828963515203434,0.006017923608649415,-0.007936207917306709,342.6875,-1.6875,91.4375,0.6901365117204301,-0.08630371000000006,-0.7108154299999991,0.1048584000000001
139.0,0.009927866152664545,-0.09419611470518727,-0.040408944326283044,-0.28999999999999954,-9.79,-0.2400000000000002,-0.01460096523100555,0.008507313698845958,-0.018060755888376856,342.6875,-1.6875,91.4375,0.6901620153763444,-0.08630371000000006,-0.7108154299999991,0.1048584000000001
140.0,0.010507163535389346,-0.09362818297294104,-0.0385168170762929,-0.28999999999999954,-9.79,-0.2400000000000002,-0.01459489561178069,0.015463528127338613,-0.03042557800622317,342.6875,-1.6875,91.4375,0.6901747672043013,-0.08630371000000006,-0.7108154299999991,0.1048584000000001
141.0,0.010365748946394112,-0.09328370554177004,-0.0383963133640553,-0.28999999999999954,-9.79,-0.2400000000000002,-0.024178778211036277,0.007503249438733311,-0.00650823191145772,342.6875,-1.6875,91.4375,0.6901811431182798,-0.08630371000000006,-0.7108154299999991,0.1048584000000001
142.0,0.011324313679152393,-0.09174110835401156,-0.03981354129741226,-0.28999999999999954,-9.79,-0.2400000000000002,-0.015105828311473472,0.007590024223088739,-0.011419438536374022,342.6875,-1.6875,91.4375,0.6901843310752691,-0.08630371000000006,-0.7108154299999991,0.1048584000000001
143.0,0.01017316554413329,-0.09113937138130684,-0.04116381109929497,-0.28999999999999954,-9.79,-0.2400000000000002,-0.019281664795777698,-0.0036614651029973602,0.020403952006774584,342.6875,-1.6875,91.4375,0.6901855500000003,-0.08630371000000006,-0.7108154299999991,0.1048584000000001
144.0,0.010565333412107608,-0.09226195399582493,-0.04423909961006735,-0.28999999999999954,-9.79,-0.24056451612903246,-0.09953458559809367,0.007081837853007207,-0.013559544733939895,342.6875,-1.6875,91.44002016129033,0.6901658610483873,-0.08630666354838717,-0.7108277350806447,0.10485643096774203
145.0,0.010734505190150357,-0.10101292300889073,-0.057108120374249394,-0.28906158357771244,-9.789999999999997,-0.24012585532746844,0.0662856059151422,0.385362390465717,-0.019782629724666014,342.95240713587486,-1.6831011730205279,91.42165353128055,0.6904563581146139,-0.08469333441837737,-0.7109432946810847,0.1032851775171066
146.0,0.0077840472699343705,-0.09496089884649976,-0.050744073896389186,-0.2843695014662755,-9.79,-0.2339859245419862,0.08986230397337805,0.17500728990936942,-0.024211199076858224,343.20340830258885,-1.6530425219941347,91.365060636608,0.6909367656702099,-0.08347273981584843,-0.7108117838181696,0.1018737608709363
147.0,0.00643738653819299,-0.0923947639393789,-0.0467228433998075,-0.2820234604105571,-9.79,-0.23239618807744483,-0.021522351037504522,0.08638532338210407,-0.030518527965848467,343.33255092548796,-1.6380131964809383,91.34230854411047,0.6911085038028467,-0.08287652603695653,-0.710802283763923,0.10115749406450047
148.0,0.006841325117534795,-0.09405452482683227,-0.04979255329232567,-0.28085043988269787,-9.79,-0.23873777657840506,-0.013481349609894092,0.05263326588972075,0.002373864537301061,343.39712223693755,-1.63049853372434,91.39758476360669,0.690878539118525,-0.08263749374812492,-0.711113876195838,0.10076230205529169
149.0,0.008405541591025462,-0.09374601241341612,-0.05204093390422734,-0.2802639296187682,-9.79,-0.2395931826440413,-0.05380468690172124,0.020992792219053924,0.0014389483976827888,343.4294078926623,-1.6267412023460408,91.41746362676301,0.6908161746777098,-0.082517384414385,-0.7112182530802781,0.10057376739861354
150.0,0.007679423175390917,-0.09378596958741336,-0.054605811714877786,-0.2799999999999999,-9.79,-0.24234242183559315,0.02952741630551204,0.0020263043733061946,0.016531753317572128,343.4372723725286,-1.6249999999999998,91.42801639304915,0.6907756067841136,-0.08250779243202139,-0.7112805634352444,0.10052857097447779
151.0,0.006506204823907738,-0.09307404618808754,-0.054227983901143355,-0.2799999999999999,-9.79,-0.2413611172653513,0.0036424802651389542,0.017694994018078697,0.004542541591148186,343.4375,-1.6249999999999998,91.43477432555684,0.6907448491178629,-0.08251593175451222,-0.7113021240303175,0.10052552869743657
152.0,0.007925481444211933,-0.0919427690617857,-0.049974375015087794,-0.2799999999999999,-9.79,-0.24082420782622413,-0.0046681751900111675,-0.0037218074264445226,0.02452744519073538,343.4375,-1.6249999999999998,91.43798003072197,0.6907316098361489,-0.08251956130568348,-0.7113111463473163,0.10052433751152066
153.0,0.008441747378531978,-0.09370435944128713,-0.055430095853678044,-0.2799999999999999,-9.79,-0.23871983560794063,0.07286272500100056,-0.005173115694789081,0.04394575024513728,343.4375,-1.6249999999999998,91.42540322580646,0.6908141079032253,-0.08250673330645161,-0.7112294774491319,0.10052588451612895
154.0,0.0071240994957176024,-0.09074834907548227,-0.06643984631393579,-0.2799999999999999,-9.794758064516127,-0.22911042183622848,0.16752700262146802,0.00664353287841191,0.04366201322740734,343.4375,-1.6249999999999998,91.33669354838709,0.6913326639516131,-0.08242010495967736,-0.7107393645310172,0.10058642741935477
155.0,0.004818873569198752,-0.09111114724245575,-0.07301768990634755,-0.2799999999999999,-9.794395161290325,-0.22415322580645183,0.0702942085067638,0.021862399193548387,0.00874943093132154,343.4375,-1.6249999999999998,91.30897177419354,0.6915437031048386,-0.08237531425403216,-0.7105234179032258,0.10059996483870973
156.0,0.005871975806451614,-0.09108366935483869,-0.0679032258064516,-0.2799999999999999,-9.792197580645162,-0.22747983870967764,0.004189768145161289,0.010427167338709678,-0.016664566532258063,343.4375,-1.6249999999999998,91.32484879032258,0.6914503659879029,-0.08243118027217741,-0.7106108497580641,0.10054668274193557
157.0,0.004742332600195504,-0.09498671187683283,-0.06543468963831864,-0.2799999999999999,-9.791098790322579,-0.23366171798631497,-0.056777133736559134,-0.0031902950879765385,0.0017431115591397834,343.4375,-1.6249999999999998,91.34891633064515,0.6912520343820255,-0.08253692721820013,-0.710798340758797,0.10047278750000009
158.0,0.0043575734301540756,-0.0933882532118419,-0.05959410493180653,-0.2799999999999999,-9.790549395161289,-0.23688126221896402,0.004082761296722991,0.0005474895847879723,0.0013995895737327188,343.4375,-1.6249999999999998,91.361328125,0.6911484829521013,-0.08259163237674118,-0.7108959024812125,0.10043580911290333
159.0,0.005147536715077038,-0.09487204999301771,-0.05670481456267746,-0.2799999999999999,-9.790126008064515,-0.23876069159335306,-0.015111467133896571,-0.012106547546315691,0.005062824020737327,343.4375,-1.6249999999999998,91.3701171875,0.691081740609115,-0.0826214921435117,-0.710958773133247,0.10041544333669365
160.0,0.004436632811632812,-0.09447533951263787,-0.056856400767691086,-0.2799999999999999,-9.79,-0.23970292644183794,0.023575770387766357,-0.0006807260839518901,-0.013948261919532082,343.4375,-1.6249999999999998,91.37399193548386,0.6910498769023394,-0.08263646816853003,-0.7109892855535183,0.10040578338709688
161.0,0.005252590599364794,-0.09423615765954474,-0.052581426190297154,-0.2799999999999999,-9.79,-0.23999511241446742,0.018812834790657373,0.021837056312862764,-0.0007682337823466858,343.4375,-1.6249999999999998,91.375,0.6910401593206252,-0.08264151051319645,-0.7109984504985329,0.1004028300000001
162.0,0.006138401473078894,-0.09213759157509155,-0.052281389085824574,-0.2799999999999999,-9.79,-0.2400000000000002,-0.020010973009964947,0.010697176927015637,0.023597479469455274,343.4375,-1.6249999999999998,91.375,0.6910400399999996,-0.08264159999999995,-0.7109985399999992,0.1004028300000001
163.0,0.006498994436884656,-0.09345222574641798,-0.05190915662771152,-0.2799999999999999,-9.79,-0.2402497398543186,-0.027742879762667094,0.010487497998879373,0.015913067567837988,343.4375,-1.6249999999999998,91.37812174817898,0.6910288618938603,-0.08264159999999997,-0.7110122583766902,0.10039978167533825
164.0,0.015601548926222224,-0.09170372791115969,-0.05778851450930168,-0.2781783681214422,-9.792125237191648,-0.22623492685315555,0.3432743292125943,-0.880051851095437,0.01538915653059831,342.90808823529414,-1.6231024667931688,91.30635214543673,0.6910163831670442,-0.08580848007590132,-0.7101566952035254,0.1036557431052213
165.0,-0.015788190651470673,-0.09154636110928001,-0.03904533009073317,-0.2570777988614802,-9.796223908918403,-0.2236297973924223,0.05350295062293707,0.2746836059075434,-0.008381542009113337,342.94082068311195,-1.5120967741935485,91.29039144273735,0.6911282753406376,-0.08695274531309302,-0.709952207127379,0.10346865247291429
166.0,-0.02296858468321816,-0.09189473495707257,-0.026097559281220633,-0.25305502846299816,-9.798273244781782,-0.22665360837363066,0.030264208323102584,0.12924526838211653,0.0003953544746871174,343.09238614800756,-1.471774193548387,91.30043765685254,0.6911471615412867,-0.08652978685009491,-0.7101288496927216,0.10256578510742492
167.0,-0.02570885809843291,-0.09271659824776705,-0.022930913635647546,-0.25104364326375717,-9.79929791271347,-0.22816551386423484,-0.005060203530756396,0.06615023965011532,-0.005098538643549741,343.16816888045537,-1.4516129032258065,91.30546076391013,0.6911566046416113,-0.08631830761859585,-0.7102171709753929,0.10211435142468023
168.0,-0.027282108549736755,-0.09178233658486167,-0.021455050990560512,-0.25003795066413664,-9.799810246679318,-0.2289136622390895,0.016200387308503175,0.038115442405702825,-0.004760507615219199,343.2060602466793,-1.441532258064516,91.30787476280834,0.6911616755075904,-0.08621256800284632,-0.7102609029174569,0.10188872984345357
169.0,-0.027417145356462315,-0.09225976411785777,-0.019302003673648382,-0.2495920303605313,-9.8,-0.22972960151802685,0.013081218322183277,0.037158409058638896,-0.018746477716528005,343.2415500474383,-1.4365512333965844,91.31137333965845,0.6911644262428845,-0.08606073319259964,-0.7103097195872862,0.10167412262808355
170.0,-0.027555971852954816,-0.09192541532599915,-0.01954535742852324,-0.25,-9.8,-0.23000000000000032,-0.014887350463618462,-0.00017705469480030914,-0.021143168604355986,343.25,-1.4375,91.3125,0.6911621100000003,-0.08599854000000003,-0.7103271499999997,0.10162354000000007
171.0,-0.02579697229654957,-0.09259062257403827,-0.019615482487653414,-0.25,-9.8,-0.23000000000000032,-0.017444890666551048,0.008987784895652676,-0.012801480585080025,343.25,-1.4375,91.3125,0.6911621100000003,-0.08599854000000001,-0.7103271499999997,0.10162354000000007
172.0,-0.025400385962170577,-0.09386021513317297,-0.02050978063588627,-0.25,-9.8,-0.23000000000000032,-0.024934352126079494,-0.014411921370411878,-0.00427386955742835,343.25,-1.4375,91.3125,0.6911621100000003,-0.08599854000000003,-0.7103271499999997,0.10162354000000007
173.0,-0.025830906180476954,-0.09358199262221763,-0.021747966440571812,-0.25,-9.8,-0.23000000000000032,-0.06812309337673542,-0.02225688920517712,-0.0020718983583187535,343.25,-1.4375,91.3125,0.6911621100000003,-0.08599854000000003,-0.7103271499999997,0.10162354000000007
174.0,-0.02636807405798042,-0.09328041163368944,-0.023799890478350433,-0.25,-9.8,-0.23000000000000032,-0.057751062817399966,-0.012341272223556304,0.005012437917614817,343.25,-1.4375,91.3125,0.6911621100000003,-0.08599854000000003,-0.7103271499999997,0.10162354000000007
175.0,-0.025836366778094158,-0.0944000624476691,-0.022557907348750232,-0.25,-9.8,-0.23000000000000032,-0.023483186298612936,-0.023179724693447378,0.010570735087839666,343.25,-1.4375,91.3125,0.6911621100000003,-0.08599854000000003,-0.7103271499999997,0.10162354000000007
176.0,-0.026742666082962233,-0.09502478685748121,-0.023825097547731086,-0.25,-9.8,-0.23000000000000032,-0.00720210431424736,-0.01027980494408641,0.0037639417749974332,343.25,-1.4375,91.3125,0.6911621100000003,-0.08599854000000001,-0.7103271499999997,0.10162354000000007
177.0,-0.027512321085694978,-0.09571496505066704,-0.023767049112236857,-0.25,-9.799999999999999,-0.23000000000000032,0.014521551046124683,-0.00503933100050399,-0.002578890831427518,343.25,-1.4375,91.3125,0.6911621100000003,-0.08599854000000004,-0.7103271499999997,0.10162354000000007
178.0,-0.028066494329768172,-0.09297186658040435,-0.021336898445496487,-0.25,-9.8,-0.23000000000000032,0.012103987721893687,-0.010379066764960232,-0.0018097367788771305,343.25,-1.4375,91.3125,0.6911621100000003,-0.08599854000000001,-0.7103271499999997,0.10162354000000007
179.0,-0.02771268264875506,-0.0926477276450409,-0.022432562125974054,-0.25,-9.8,-0.23000000000000032,0.0072805724899791015,-0.00967857068086721,0.0190831608444324,343.25,-1.4375,91.3125,0.6911621100000003,-0.08599854000000003,-0.7103271499999997,0.10162354000000007
180.0,-0.025767214588008347,-0.09231902428698371,-0.023776444913473464,-0.25,-9.8,-0.23000000000000032,0.03211230200238512,0.0029728275380164213,0.005659525519089497,343.25,-1.4375,91.3125,0.6911621100000003,-0.08599854000000001,-0.7103271499999997,0.10162354000000007
181.0,-0.027349792146228166,-0.09287196797017296,-0.02352932945479773,-0.25,-9.8,-0.23000000000000032,0.010803618117776545,0.011677492227537754,-0.01043351231956851,343.25,-1.4375,91.3125,0.6911621100000003,-0.08599854000000003,-0.7103271499999997,0.10162354000000007
182.0,-0.025918763316981334,-0.09239837285070115,-0.02146023797135921,-0.25,-9.8,-0.22696876600102436,-0.0074368307958806125,-0.034084536249029615,0.028714870009745142,343.25,-1.4375,91.3125,0.6912546170353301,-0.08597953727598567,-0.7102346428008189,0.10164253961085509
183.0,-0.02798279476983302,-0.09335839558247858,-0.0302358421906744,-0.25,-9.8,-0.21874452868209382,0.02271888949279851,-0.1380100100599987,0.05287525498406092,343.1849635796045,-1.4562304890738815,91.28024193548387,0.6914934064312965,-0.08614400613018842,-0.7099282751308984,0.10205526540376261
184.0,-0.0413419324345443,-0.09219722663739312,-0.03824109882486574,-0.25,-9.8,-0.20467995664873917,0.048068259495158555,-0.15720071494004895,0.0009936913878120963,343.0725686384375,-1.474656807812375,91.19165632754343,0.6919209646871121,-0.08657433347204208,-0.7093532462627196,0.10277912843885398
185.0,-0.023179401243917378,-0.0902045793263275,-0.04014449858154333,-0.2551612903225806,-9.799999999999999,-0.2018561073566275,-0.05555024811008162,-0.39700980312322665,-0.042888851811848684,342.63635763300175,-1.4898027440821404,91.16996672682157,0.6916494069036732,-0.08889775935576688,-0.7089271152770099,0.1054784962917632
186.0,-0.020175859982311604,-0.09234869558698902,-0.04470831215264097,-0.2577419354838709,-9.799999999999999,-0.20044418271057168,-0.01768955550173032,-0.22562392948709287,-0.0036586722330738987,342.36253365521054,-1.4959094365571992,91.17671723437851,0.6914057584518367,-0.0902203251617544,-0.7087756084300678,0.10701623621039769
187.0,-0.018562072336265893,-0.09315719469569622,-0.0486521591485171,-0.259032258064516,-9.799999999999999,-0.19983294645001182,-0.022573656399098647,-0.09745098164062785,0.0006428221015890106,342.2256216663149,-1.4989627827947287,91.180092488157,0.6912810433810646,-0.09088220189987362,-0.7087037152262983,0.10778451243187573
188.0,-0.018546269143043345,-0.09290368860530146,-0.04918568349213509,-0.25967741935483857,-9.8,-0.1997369727047144,-0.01570027195027195,-0.031112234539653897,0.006798728824938502,342.1591980600045,-1.4999041281299346,91.18278817956237,0.6912126690994814,-0.09120770369967665,-0.7086758971891114,0.108156049730506
189.0,-0.01713913953430083,-0.09167268797510729,-0.04926777971132809,-0.2599999999999999,-9.8,-0.1999999999999998,0.04608906998019901,-0.023217407592407594,-0.0012842584163148688,342.128482404692,-1.500091642228739,91.18640029325513,0.6911688518475076,-0.09135957669599218,-0.7086751708278061,0.10832564650048868
190.0,-0.01686624620898815,-0.09142774183701599,-0.04944816160541966,-0.2599999999999999,-9.8,-0.1999999999999998,-0.010282688861317894,-0.002169554236086495,0.0037414240665248726,342.125,-1.5,91.1875,0.6911621100000003,-0.09136963000000001,-0.7086791394143914,0.10833739999999992
191.0,-0.016537341466776954,-0.09289997513687026,-0.05184566889203985,-0.2599999999999999,-9.8,-0.1999999999999998,0.017229933484973807,-0.008311824264445232,0.010904520966264918,342.125,-1.5,91.1875,0.6911621100000003,-0.09136963000000001,-0.7086791999999993,0.10833739999999992
192.0,-0.01645919492693687,-0.09299988676198351,-0.05291376186537477,-0.2599999999999999,-9.8,-0.1999999999999998,0.02669712400055142,-0.024254198422545198,0.007862164717003427,342.125,-1.5,91.1875,0.6911621100000003,-0.09136963000000001,-0.7086791999999993,0.10833739999999992
193.0,-0.016445163259679395,-0.09391417789200046,-0.05269600023632281,-0.2599999999999999,-9.8,-0.1999999999999998,0.007828208697664343,0.013042511643822126,0.011883591319075189,342.125,-1.5,91.1875,0.6911621100000003,-0.09136963000000001,-0.7086791999999993,0.10833739999999992
194.0,-0.016922333490881885,-0.09377594750679426,-0.056680506321635335,-0.2599999999999999,-9.8,-0.1999999999999998,0.005170307822777581,0.009824605697841583,-0.007287112529048014,342.125,-1.5,91.1875,0.6911621100000003,-0.09136963000000001,-0.7086791999999993,0.10833739999999992
195.0,-0.01598196807672615,-0.09146070640828703,-0.05548039012958367,-0.2599999999999999,-9.8,-0.1999999999999998,0.0067756721045531525,-0.00019227384398755407,-0.0011778984624246725,342.125,-1.5,91.1875,0.6911621100000003,-0.09136963000000001,-0.7086791999999993,0.10833739999999992
196.0,-0.006299606867147197,-0.09177145121903185,-0.05235705300523846,-0.2599999999999999,-9.8,-0.2004764267990073,-0.05091897419896412,0.4155404945916539,0.016977786578341012,342.16718362282876,-1.5,91.1875,0.6911868267841195,-0.09116995555831266,-0.7087140944516124,0.10810670858560786
197.0,-0.021027903995645917,-0.09193014154304477,-0.041027545930771736,-0.2623460410557183,-9.799999999999999,-0.20899676667418607,0.0052697750278395405,0.5876611739514965,0.027960480379835218,342.8093371682081,-1.5273704789833822,91.21878054740958,0.6915152634653736,-0.08719075926986991,-0.709439807108504,0.1042289365606436
198.0,-0.030892856247694955,-0.09477908471456858,-0.033247082666437514,-0.26117302052785907,-9.799999999999999,-0.21132716745619975,0.17501933550320645,-0.04096450144837238,-0.1847869424482328,343.1708906684713,-1.5186480186480185,91.2200137228363,0.6917986171743742,-0.08518105545875627,-0.709722982899165,0.1020517229999248
199.0,0.006769452769452764,-0.0955203261844628,-0.03204552352559943,-0.2602070036225632,-9.79673624288425,-0.214012729838157,-0.03497427619818512,-0.12209332939883223,0.2438886408763069,342.955820097044,-1.5197604419615804,91.23459177602915,0.691514181727604,-0.08651030227397015,-0.7096546273888615,0.10337995421343488
200.0,0.014366755686214587,-0.09510386921845573,-0.026970765660855652,-0.27042608245644284,-9.793206831119544,-0.2173289455642399,-0.04411800376481774,0.0015483091208438604,0.18221811344477684,342.82709058962496,-1.5743963500130482,91.24330395253071,0.6912751419928341,-0.08664031710472694,-0.7097654530492692,0.10422514453647817
201.0,0.017058067669410027,-0.09404945321964969,-0.024946921291966295,-0.27553562187338265,-9.791442125237191,-0.21897216508981238,-0.03600906391714832,-0.014726775960669887,0.09407896987375318,342.76504963724426,-1.601714304038782,91.24766004078148,0.6911548497259453,-0.08671156434640806,-0.7098197754278599,0.10465037556848729
202.0,0.01965678780116866,-0.09476966983863903,-0.025322208672150535,-0.27801707779886137,-9.790559772296016,-0.21953495840023377,-0.04379594484676125,-0.030133897041166584,0.0598280404673676,342.7146209818675,-1.6145179535834182,91.2488605678003,0.6910848261459637,-0.08686841793811112,-0.7098248033224339,0.10498056690692212
203.0,0.019485331944619152,-0.09406560218073193,-0.02772065768595121,-0.27933111954459194,-9.790118595825426,-0.2198766603415562,-0.02113509282985587,-0.015382291779474937,0.018708379995785503,342.6881417564424,-1.621620018975332,91.24991105313092,0.6910460913757112,-0.08694747303605302,-0.7098298072865268,0.10515311031202192
204.0,0.018347504681987002,-0.09439471905854578,-0.0279584167133595,-0.2799999999999999,-9.79,-0.22000000000000022,-0.003765163551112432,0.015332409065743484,-0.005608041793086668,342.68727237252864,-1.6249999999999998,91.25,0.6910400399999996,-0.08691405999999988,-0.7098388699999993,0.1051638558272634
205.0,0.020451067637559585,-0.09381806712552677,-0.030383995037220855,-0.2799999999999999,-9.79,-0.22000000000000022,0.0009627616167434717,0.004707047404880067,-0.014770722249300877,342.6875,-1.6249999999999998,91.25,0.6910400399999996,-0.08691405999999988,-0.7098388699999993,0.10516357000000012
206.0,0.018729449761707838,-0.09321102642876834,-0.032516129032258076,-0.2799999999999999,-9.79,-0.22000000000000022,-0.005978228760486825,0.009380169561621174,-0.017917454409389893,342.6875,-1.6249999999999998,91.25,0.6910400399999996,-0.08691405999999988,-0.7098388699999993,0.10516357000000012
207.0,0.01984115167986137,-0.09385737425656779,-0.03471215880893301,-0.2799999999999999,-9.79,-0.22000000000000022,-0.029431422072551106,-0.00857759511993383,-0.021978268147622985,342.6875,-1.6249999999999998,91.25,0.6910400399999996,-0.08691405999999988,-0.7098388699999993,0.10516357000000012
208.0,0.018796085808052518,-0.09412002221243895,-0.03460373809333228,-0.2799999999999999,-9.79,-0.22000000000000022,-0.03259762967261666,-0.009675981049387657,0.00256218482350116,342.6875,-1.6249999999999998,91.25,0.6910400399999996,-0.08691405999999988,-0.7098388699999993,0.10516357000000012
209.0,0.018704494516929487,-0.09359599125510285,-0.03337755142880014,-0.2799999999999999,-9.79,-0.22000000000000022,-0.0032870282358120548,0.022263436274313615,-0.007147877811574481,342.6875,-1.6249999999999998,91.25,0.6910400399999996,-0.08691405999999988,-0.7098388699999993,0.10516357000000012
210.0,0.01890229846174176,-0.09403897905049047,-0.032467705565910575,-0.2799999999999999,-9.79,-0.22000000000000022,0.001365678470419625,0.031132498187080002,-0.005307049824886063,342.6875,-1.6249999999999998,91.25,0.6910400399999996,-0.08691405999999988,-0.7098388699999993,0.10516357000000012
211.0,0.019417650471565677,-0.09560633816048095,-0.0325353416167022,-0.2799999999999999,-9.79,-0.22000000000000022,0.0008999608232991422,0.008292675892547445,0.009264899405174835,342.6875,-1.6249999999999998,91.25,0.6910400399999996,-0.08691405999999988,-0.7098388699999993,0.10516357000000012
212.0,0.018593757150113882,-0.09476075600514791,-0.03014648823299415,-0.2799999999999999,-9.790000000000001,-0.2200000000000002,0.042019731039624184,-0.0012454128634830199,0.007141507823290749,342.6875,-1.6249999999999998,91.25,0.6910400399999996,-0.08691405999999988,-0.7098388699999993,0.10516357000000012
213.0,0.017317169938220314,-0.09521336447499851,-0.02903526284698616,-0.2799999999999999,-9.79,-0.22000000000000022,0.03315541702865704,-0.01102853369500894,0.007700566606754635,342.6875,-1.6249999999999998,91.25,0.6910400399999996,-0.08691405999999988,-0.7098388699999993,0.10516357000000012
214.0,0.018842556743303714,-0.09457240804395084,-0.028113901584783406,-0.2799999999999999,-9.79,-0.22000000000000022,0.02574479520787691,0.0001718470637858526,-0.0014263043982355858,342.6875,-1.6249999999999998,91.25,0.6910400399999996,-0.08691405999999988,-0.7098388699999993,0.10516357000000012
215.0,0.01835187315552448,-0.09371295856007228,-0.028448622827143874,-0.2799999999999999,-9.790000000000001,-0.22000000000000022,-0.009075845793316387,-0.0010584077698265128,-0.012095558092449806,342.6875,-1.6249999999999998,91.25,0.6910400399999996,-0.08691405999999988,-0.7098388699999993,0.10516357000000012
216.0,0.019099052272551327,-0.09452222834951504,-0.030213726736152594,-0.2799999999999999,-9.790000000000001,-0.22000000000000022,0.006876469162895157,-0.013211915578461644,-0.007898885978607037,342.6875,-1.6249999999999998,91.25,0.6910400399999996,-0.08691405999999988,-0.7098388699999993,0.10516357000000012
217.0,0.019084419775074052,-0.09386258804930758,-0.0333852107180021,-0.2799999999999999,-9.790000000000001,-0.22000000000000022,0.013091878326863043,-0.013187963384495318,-0.004535836943688466,342.6875,-1.6249999999999998,91.25,0.6910400399999996,-0.08691405999999988,-0.7098388699999993,0.10516357000000012
218.0,0.018652360321780206,-0.09311103968222201,-0.03235808302649486,-0.2799999999999999,-9.790000000000001,-0.22000000000000022,-0.006223281912871209,-0.018173880498078925,0.002056823696269911,342.6875,-1.6249999999999998,91.25,0.6910400399999996,-0.08691405999999988,-0.7098388699999993,0.10516357000000012
219.0,0.018829588379016066,-0.09403219834853546,-0.031631510471260754,-0.2799999999999999,-9.79,-0.22000000000000022,0.01143804022315989,-0.01492406382494832,0.008882164488303925,342.6875,-1.6249999999999998,91.25,0.6910400399999996,-0.08691405999999988,-0.7098388699999993,0.10516357000000012
220.0,0.02004089234545898,-0.09501528035507323,-0.03252619176861345,-0.2799999999999999,-9.790000000000001,-0.2200000000000002,0.011161289093685332,-0.011147517915783554,-0.003133528390262325,342.6875,-1.6249999999999998,91.25,0.6910400399999996,-0.08691405999999988,-0.7098388699999993,0.10516357000000012
221.0,0.01854827318442747,-0.09463277310912116,-0.03319704365696419,-0.2799999999999999,-9.790000000000001,-0.22000000000000022,-0.014233300468715251,0.011726548261770282,0.003600089560432271,342.6875,-1.6249999999999998,91.25,0.6910400399999996,-0.08691405999999988,-0.7098388699999993,0.10516357000000012
222.0,0.019451035655689286,-0.09508693806340551,-0.034642226302987814,-0.2799999999999999,-9.79,-0.22000000000000022,0.017743521461792217,0.016155287658460582,0.0008082393691859584,342.6875,-1.6249999999999998,91.25,0.6910400399999996,-0.08691405999999988,-0.7098388699999993,0.10516357000000012
223.0,0.01902948805116971,-0.09492312163716181,-0.032462552357449256,-0.2799999999999999,-9.79,-0.22000000000000022,-0.004349393115257737,0.007441787749825826,0.0017766382950148154,342.6875,-1.6249999999999998,91.25,0.6910400399999996,-0.08691405999999988,-0.7098388699999993,0.10516357000000012
224.0,0.020431282684059006,-0.09402070060352714,-0.034003933628801435,-0.2799999999999999,-9.79,-0.22000000000000022,-0.006734988416307824,0.012089429461190434,0.003208467637010736,342.6875,-1.6249999999999998,91.25,0.6910400399999996,-0.08691405999999988,-0.7098388699999993,0.10516357000000012
225.0,0.02019713261648747,-0.09343816627214961,-0.034148978977277505,-0.2799999999999999,-9.79,-0.2200000000000002,-0.0288996200674876,-0.0001854544920383101,-0.01559896554690976,342.6875,-1.6249999999999998,91.25,0.6910400399999996,-0.08691405999999988,-0.7098388699999993,0.10516357000000012
226.0,0.02046722990271379,-0.09439189419598262,-0.037093690717517405,-0.2799999999999999,-9.79,-0.22000000000000022,0.0022872611388112443,-0.00011672878211746538,-0.018040138175400604,342.6875,-1.6249999999999998,91.25,0.6910400399999996,-0.08691405999999988,-0.7098388699999993,0.10516357000000012
227.0,0.01853634829350391,-0.09354613383781149,-0.040725132310107194,-0.2799999999999999,-9.790000000000001,-0.2200000000000002,0.04689230438616924,0.003328360556059194,-0.02168026458611384,342.6875,-1.6249999999999998,91.25,0.6910400399999996,-0.08691405999999988,-0.7098388699999993,0.10516357000000012
228.0,0.017274726566106798,-0.094681333047938,-0.0397930097034407,-0.2799999999999999,-9.790000000000001,-0.22000000000000022,0.01026255844308462,0.00824810164899734,-0.007359159510798855,342.6875,-1.6249999999999998,91.25,0.6910400399999996,-0.08691405999999988,-0.7098388699999993,0.10516357000000012
229.0,0.018199575264620224,-0.09327256616554605,-0.03956112338730663,-0.2799999999999999,-9.79,-0.22000000000000022,0.004235221873872058,0.003868034439450026,0.009041234376705027,342.6875,-1.6249999999999998,91.25,0.6910400399999996,-0.08691405999999988,-0.7098388699999993,0.10516357000000012
230.0,0.017809465051664954,-0.09223385050741606,-0.038905363385879646,-0.2799999999999999,-9.79,-0.22000000000000022,-0.018258512807114737,-0.0008918685549973559,0.024219189372382127,342.6875,-1.6249999999999998,91.25,0.6910400399999996,-0.08691405999999988,-0.7098388699999993,0.10516357000000012
231.0,0.017362393816155064,-0.09248285267306286,-0.03792294378971402,-0.2799999999999999,-9.79,-0.22000000000000022,-0.007113127371299304,0.025243959875727126,0.031073808395868485,342.6875,-1.6249999999999998,91.25,0.6910400399999996,-0.08691405999999988,-0.7098388699999993,0.10516357000000012
232.0,0.017803354496655006,-0.09356559344388204,-0.03559552794985438,-0.2799999999999999,-9.79,-0.2200000000000002,0.011911442660199105,0.021496252809360124,0.004299463690266342,342.6875,-1.6249999999999998,91.25,0.6910400399999996,-0.08691405999999988,-0.7098388699999993,0.10516357000000012
233.0,0.01856145547413396,-0.09378632494774747,-0.03782044542654009,-0.2799999999999999,-9.79,-0.22000000000000022,-0.02890125951667464,0.016087718138551033,0.015648345756423494,342.6875,-1.6249999999999998,91.25,0.6910400399999996,-0.08691405999999988,-0.7098388699999993,0.10516357000000012
234.0,0.018648367265996835,-0.09379792437863564,-0.03811657191961925,-0.2799999999999999,-9.79,-0.22000000000000022,-0.007362176097303012,0.004011601004759387,0.009440276308831307,342.6875,-1.6249999999999998,91.25,0.6910400399999996,-0.08691405999999988,-0.7098388699999993,0.10516357000000012
235.0,0.018954879997565753,-0.09425463295224665,-0.038842752165646796,-0.2799999999999999,-9.79,-0.22000000000000022,0.01592566678365776,0.010292830872323369,0.008729894778839616,342.6875,-1.6249999999999998,91.25,0.6910400399999996,-0.08691405999999988,-0.7098388699999993,0.10516357000000012
236.0,0.02008983919233127,-0.09506582454063943,-0.04027571076024275,-0.2799999999999999,-9.79,-0.22000000000000022,-0.013285276487203375,0.0008148882184197495,0.007814418155548841,342.6875,-1.6249999999999998,91.25,0.6910400399999996,-0.08691405999999988,-0.7098388699999993,0.10516357000000012
237.0,0.02024049797251541,-0.09445679620269887,-0.04032422204053318,-0.2799999999999999,-9.79,-0.22000000000000022,-0.01653670351031498,0.012093209449275721,0.00010844242418611618,342.6875,-1.6249999999999998,91.25,0.6910400399999996,-0.08691405999999988,-0.7098388699999993,0.10516357000000012
238.0,0.018842527212064163,-0.09546932552070428,-0.0358879174718795,-0.2799999999999999,-9.79,-0.22000000000000022,0.008963251067423154,-0.002191172493104075,-0.00037105600564887745,342.6875,-1.6249999999999998,91.25,0.6910400399999996,-0.08691405999999988,-0.7098388699999993,0.10516357000000012
239.0,0.019774411368779225,-0.09392287816097648,-0.03239163693573164,-0.2799999999999999,-9.790000000000001,-0.22000000000000022,-0.03528103217960788,-0.015537736350610308,0.007555838412368069,342.6875,-1.6249999999999998,91.27705515088448,0.6910136168574396,-0.08691405999999988,-0.7098652888137358,0.10516357000000012
240.0,0.020145782233288747,-0.09450880211172222,-0.031861461068992306,-0.2799999999999999,-9.790000000000001,-0.22000000000000022,-0.034105569853244797,-0.00495268793977008,-0.00814284372264341,342.6875,-1.6249999999999998,91.29578563995837,0.6909953239125903,-0.08691405999999988,-0.709883578761707,0.10516357000000012
241.0,0.018744446096163065,-0.09560201530317292,-0.03533205221908397,-0.2799999999999999,-9.79,-0.22000000000000022,-0.043016946632971606,-0.01670300447615744,-0.007269626546421552,342.6875,-1.6249999999999998,91.3051508844953,0.6909861774401658,-0.08691405999999988,-0.7098927237356927,0.10516357000000012
242.0,0.017785334390433255,-0.09290506592421913,-0.034666546400905156,-0.2799999999999999,-9.790000000000001,-0.22000000000000022,-0.04202746395124127,-0.01496895801331285,0.0037793386518672678,342.6875,-1.6249999999999998,91.30983350676378,0.6909816042039536,-0.08691405999999988,-0.7098972962226855,0.10516357000000012
243.0,0.01877418084285931,-0.09349312694473982,-0.03476708988779749,-0.2799999999999999,-9.790000000000001,-0.22000000000000022,-0.014569873414826589,-0.0002845720587656064,-0.007043333155455944,342.6875,-1.6249999999999998,91.31217481789801,0.6909793175858474,-0.08691405999999988,-0.709899582466182,0.10516357000000012
244.0,0.01878440537682107,-0.093399767955405,-0.03620406148234061,-0.2799999999999999,-9.790000000000001,-0.2200000000000002,0.003998349145779249,-0.0049752383843409236,-0.023331920155797263,342.6875,-1.6249999999999998,91.3125,0.6909789999999993,-0.08691405999999988,-0.7098999000000009,0.10516357000000012
245.0,0.01954581251943973,-0.09339215228287402,-0.03565707426395577,-0.2799999999999999,-9.790000000000001,-0.22000000000000022,-0.014641890455272177,-0.010648141465595961,-0.008273742976004111,342.6875,-1.6249999999999998,91.3125,0.6909789999999993,-0.08691405999999988,-0.7098999000000009,0.10516357000000012
246.0,0.018666915476309727,-0.09453785801547693,-0.03891148644073363,-0.2799999999999999,-9.79,-0.22000000000000022,0.017064615448247167,-0.012556533610422149,-0.011721356895068107,342.6875,-1.6249999999999998,91.3125,0.6909789999999993,-0.08691405999999988,-0.709899900000001,0.10516357000000012
247.0,0.019544175740236036,-0.09484437125539716,-0.040759073085091066,-0.2799999999999999,-9.79,-0.22000000000000022,-0.007450392588051233,-0.012131544640799002,0.0009681456939851976,342.6875,-1.6249999999999998,91.3125,0.6909789999999993,-0.08691405999999988,-0.709899900000001,0.10516357000000012
248.0,0.020341566778306612,-0.0921938977865075,-0.03796390378820311,-0.2799999999999999,-9.79,-0.22000000000000022,0.011178649859820537,-0.016363539069779155,-0.013853706309334943,342.6875,-1.6249999999999998,91.3125,0.6909789999999993,-0.08691405999999988,-0.709899900000001,0.10516357000000012
249.0,0.02068877182333219,-0.0942074383083098,-0.03694309209982988,-0.2799999999999999,-9.79,-0.22000000000000022,-0.022300104626050903,0.00811251920122888,-0.01151831781750161,342.6875,-1.6249999999999998,91.3125,0.6909789999999993,-0.08691405999999988,-0.7098999000000009,0.10516357000000012
250.0,0.020912822291594416,-0.09466988338866589,-0.036012508671522725,-0.2799999999999999,-9.79,-0.22000000000000022,-0.00959045249863733,0.002772177419354839,-0.008925861577721619,342.6875,-1.6249999999999998,91.3125,0.6909789999999993,-0.08691405999999988,-0.709899900000001,0.10516357000000012
251.0,0.022636174035237523,-0.09375146065923902,-0.03670250074168519,-0.2799999999999999,-9.79,-0.22000000000000022,0.003898007040688819,-0.003336675085667021,-0.0017415258497139345,342.6875,-1.6249999999999998,91.3125,0.6909789999999993,-0.08691405999999988,-0.709899900000001,0.10516357000000012
252.0,0.019749019324559136,-0.09453213306666738,-0.036280212369865075,-0.27882697947214075,-9.793128054740954,-0.2095992179863148,0.0699174671383796,0.842606696059317,0.011616445347381547,343.217803030303,-1.6249999999999998,91.2450513196481,0.6917999635972627,-0.08363641972629514,-0.7099333125513201,0.10190263549364617
253.0,0.015892399155033196,-0.09242070947396014,-0.03904104558418453,-0.27784266224658916,-9.796725317693056,-0.20275659824046935,-0.0982861201884072,-0.7630473634593551,-0.04703093077126014,343.0190376769093,-1.6161173445535297,91.19649421989885,0.6918670359454289,-0.08503372595945424,-0.7095121033116578,0.10313316625313451
254.0,0.015310243442080757,-0.09023805024646536,-0.03132749469635866,-0.2754275345972398,-9.795585983908564,-0.22241551996390707,-0.17880241933537866,-0.4922014112582135,0.026274917228633923,342.4815566796458,-1.6116256697953752,91.30164351193454,0.6906926573573301,-0.08847806219064522,-0.7097757921471444,0.10622992651862684
255.0,0.01630777730917984,-0.091757529987544,-0.021588664724709612,-0.2828750576212003,-9.792792991954279,-0.2506896759154823,-0.10800603674025833,-0.2445864268970861,-0.021468392523792238,342.1260728168512,-1.6505708994138168,91.46005318314224,0.6893819648272479,-0.09024056549414956,-0.710533755985596,0.10826273230623429
256.0,0.018801531334490668,-0.09226089898880922,-0.008680188441759273,-0.2865988191331805,-9.79139649597714,-0.264406872697195,-0.049831182141841325,-0.19360214645102441,0.043282553117756487,341.93135216524945,-1.6700435142230372,91.54508552457361,0.6887153984632518,-0.09114981736245936,-0.7109185968860979,0.1092861407709832
257.0,0.01903340843204211,-0.09204387616485518,0.00822904146480132,-0.2884973567806663,-9.790600496277916,-0.2786574930445894,-0.13264250905408215,-0.16168032227164472,0.03841377521873382,341.8089831451858,-1.6797798216276476,91.62444892064457,0.6881280604147375,-0.0917490333268797,-0.711342596642131,0.10987842410494424
258.0,0.018370122420070398,-0.09411403719416206,0.01614023368237729,-0.28945905707195985,-9.790138957816378,-0.2858341228663805,-0.05026144944199054,-0.02893101955276773,0.02236121925247836,341.762296037296,-1.684925558312655,91.66459414241672,0.6878375021241528,-0.091953762360027,-0.7115789522644967,0.11008515958402895
259.0,0.020799205130630737,-0.09369721710824727,0.017247536196027362,-0.28999999999999954,-9.79,-0.2887011805398898,-0.016515650279307927,0.011154837618157078,-0.003475097569790595,341.7526430558688,-1.6875,91.6806221332431,0.6877299703151787,-0.09197032427926904,-0.7116823084052009,0.1101109806083917
260.0,0.02675795012371107,-0.09587765686097646,0.018224773335754594,-0.2897688974482423,-9.79,-0.2908678937817116,0.10835531517052534,0.6054353049648101,0.11489816013385407,341.88918882633976,-1.6870185363505055,91.6944765934595,0.6877557040938467,-0.0912203562616199,-0.7118601748512632,0.10933201721943636
261.0,0.014441686543921858,-0.08460481835454267,0.041284204097759236,-0.30489911148071946,-9.789999999999997,-0.2615638814724033,-0.02074197922953544,0.32645627944683847,0.15155530985864069,342.29880290628967,-1.7811009104039917,91.52051965247078,0.6891873735743314,-0.08752054357858799,-0.7112590430616943,0.10708099855415006
262.0,0.04296656945004922,-0.09140022395354606,0.058461040654498794,-0.30740347279105107,-9.7911797235023,-0.2393579776025611,0.5256485027295166,1.0612055070491215,0.1374530860278784,342.6202539877071,-1.7942082893033784,91.38972411194968,0.690282369314221,-0.08528552652662116,-0.7107208336134991,0.1052972994890566
263.0,0.018840959308505656,-0.08979227787539054,0.07517982908300976,-0.3249505843217927,-9.79081105990783,-0.20222737589805484,-0.2693451920950077,-0.25649845172180574,0.002320569954740337,343.02614081873827,-1.8975361723014585,91.17640007440801,0.6919542772054976,-0.08141834146607553,-0.7098411566039848,0.10305896368922875
264.0,0.04198050208723783,-0.10176758941475114,0.09765142777412639,-0.32659387462341316,-9.790696306873494,-0.18621364251513375,-0.2515794618897347,-0.21117761778502825,0.03927994294533928,342.6574933989193,-1.907920176109839,91.08347207264244,0.6921977587549524,-0.08352100687570019,-0.70902948648918,0.10537280543843536
265.0,0.04878146574808521,-0.09438998293134113,0.10447129999825297,-0.31187152169529164,-9.791183068047754,-0.20178506193274887,-0.3049375756870011,-0.3999524980369249,0.03120925975611012,342.7392617239576,-1.8181236157674006,91.17409959801937,0.6917185178867797,-0.08417550758282728,-0.7095265020373906,0.1047883728034738
266.0,0.03749190589457047,-0.09067983995051904,0.09485783963744514,-0.2903052623139213,-9.79446250176581,-0.2122854928432074,-0.3048698142364624,-0.17695877590018289,0.052933564384408924,342.73317558338647,-1.6898994178543747,91.23152377261673,0.6913489247425102,-0.08580669016971279,-0.7097016579810611,0.10480491912656588
267.0,0.027614104508985188,-0.09053858869005725,0.08424868428364832,-0.27951899060396507,-9.797355674846038,-0.21615196301146558,-0.14655293067173863,-0.16412262911752618,0.01889029729717118,342.73909643224624,-1.622311460079261,91.24040186326688,0.6912539000970617,-0.08667020515858907,-0.7097009457071206,0.10485002638125535
268.0,0.024445301102418868,-0.09102044641876132,0.08229024075933566,-0.27361663815912524,-9.798832215303204,-0.2188985621508942,-0.05816989851559282,-0.06251926386751884,0.005974526528769921,342.73439556635356,-1.5854932876433172,91.2494636044445,0.6911712574033697,-0.08718789004473229,-0.709719659533284,0.1049146577044526
269.0,0.021939210088230618,-0.08996844264763897,0.07792698555272627,-0.27088828273244747,-9.799568311195445,-0.22019212523719187,-0.037598916456014805,-0.039266191917671354,0.013442877701935701,342.74990734701134,-1.5683741994781784,91.25356528700189,0.6911484508189045,-0.08732059942718212,-0.7097406361841797,0.10483969181451622
270.0,0.022619442398411873,-0.09060039252348213,0.07604795559374816,-0.27001008064516097,-9.79991935483871,-0.22010080645161312,-0.00358577867016276,-0.008459910286717366,0.00368689169877364,342.7492124495968,-1.5627835181451613,91.25132308467741,0.6911557726461697,-0.0874000943649193,-0.7097227680897181,0.10485738469758074
271.0,0.02267312845727046,-0.09027499464883784,0.07496702215171278,-0.2699999999999997,-9.8,-0.22000000000000022,-0.0025016846979846064,-0.000937994457874812,0.00310352649454811,342.75,-1.5625,91.25,0.6911621100000003,-0.08740233999999994,-0.7097168000000005,0.1048584000000001
272.0,0.023040353271133955,-0.08964338570127502,0.07556978859761777,-0.2699999999999997,-9.8,-0.22000000000000022,-0.009515371278843814,-0.03678332134568088,0.02491325838296274,342.75,-1.5625,91.25,0.6911621100000003,-0.08740233999999994,-0.7097168000000005,0.1048584000000001
273.0,0.023396896745654032,-0.08938938518294676,0.07351470100643817,-0.2699999999999997,-9.8,-0.22000000000000022,0.015258845418565804,-0.006969429650054981,0.02696680784291506,342.75,-1.5625,91.25,0.6911621100000003,-0.08740233999999994,-0.7097168000000005,0.1048584000000001
274.0,0.022615952338982497,-0.08741547524615342,0.07379331031284361,-0.2699999999999997,-9.8,-0.2200000000000002,0.0037789467706261064,0.0016051846990338516,0.017879226237692326,342.75,-1.5625,91.25,0.6911621100000003,-0.08740233999999994,-0.7097168000000004,0.10485840000000009
275.0,0.023013045293915218,-0.09070594550838137,0.07390894394290413,-0.2699999999999997,-9.8,-0.22000000000000022,0.011162066831293596,-0.0012935418030688398,0.024140585981109346,342.75,-1.5625,91.25,0.6911621100000003,-0.08740233999999994,-0.7097168000000005,0.1048584000000001
276.0,0.022280412175887464,-0.08986394145618759,0.07688386745276285,-0.2699999999999997,-9.8,-0.22000000000000022,0.007290392814648334,-0.004869041126828838,0.02735252105315068,342.75,-1.5625,91.25,0.6911621100000003,-0.08740233999999994,-0.7097168000000005,0.1048584000000001
277.0,0.012510432605970304,-0.09260363818539927,0.07243283149677991,-0.27417457305502807,-9.799999999999999,-0.20368121442125253,0.1684924672208915,-1.4979325118466211,0.13913767240987704,342.3467741935484,-1.5919117647058822,91.16603415559771,0.6913288854079698,-0.08945089840607208,-0.708888481593928,0.10734520584440227
278.0,0.004347173061457136,-0.09335005834902613,0.05650401950714317,-0.2689614346420074,-9.799999999999997,-0.18581607290803667,-0.20306567547849652,0.5201047110974518,-0.01765792940665216,341.664697864607,-1.5667560868054626,91.07625878611326,0.6912681253823129,-0.0938773575946762,-0.7077035790613893,0.11145226442151965
279.0,0.003719453952260904,-0.093492150523317,0.0409468179782893,-0.2666723681748935,-9.799999999999997,-0.19584921292460644,-0.11326021509949959,-0.31789523676159853,-0.029850560808716946,341.71209276532056,-1.5622561268941926,91.13846146136783,0.6909468871788227,-0.09380209714648416,-0.7081144283921743,0.11108965205895716
280.0,0.005860979419923218,-0.09199587670349621,0.02788100307516616,-0.2683361840874466,-9.799999999999997,-0.1976020258171418,-0.06426075500209584,-0.1554633044756184,-0.028105533031435693,341.55802585480103,-1.5623780634470963,91.16197266616778,0.6906492669178576,-0.09475618901312481,-0.7081595625831836,0.11190748034032907
281.0,0.004663472878948941,-0.09301121816939836,0.017650096371007257,-0.2691680920437231,-9.799999999999999,-0.1984784322634095,-0.019171096494160253,-0.07968480949793837,-0.01765454541666428,341.4765935725618,-1.5624390317235481,91.17372826856776,0.6904961607169937,-0.09523753031301405,-0.7081821296786883,0.11232068984758395
282.0,0.005502988811390979,-0.09303549523270677,0.014982543441670616,-0.26945359061389174,-9.799999999999999,-0.1994265975358792,0.007447777179864848,0.007936888419911267,-0.01831493874248774,341.4484782378938,-1.5615503982147152,91.18223000240532,0.6904143958850628,-0.0954141835127689,-0.7082192981766304,0.11244958191857382
283.0,0.006213592053617763,-0.09320103842822211,0.012617647843576722,-0.26982447817836774,-9.8,-0.20020398481973412,0.01119405075398373,-0.016346185503810836,0.008442703627043621,341.4494350526134,-1.5623517552182162,91.18797438330171,0.6903780180856487,-0.09539619198809735,-0.7082619681546485,0.11242453871485261
284.0,0.006303081240646279,-0.09353107679694567,0.011512480322313834,-0.2699999999999997,-9.8,-0.1999999999999998,0.02929269936619052,0.025764014969595093,0.026213579225578442,341.4377749266862,-1.5625,91.1875,0.6903689185043997,-0.09545871153958949,-0.7082519499999995,0.11248752153958955
285.0,0.006643720483470747,-0.09385253742095571,0.012342261666533263,-0.2699999999999997,-9.8,-0.1999999999999998,0.03906900364203954,0.014287188325462259,0.02761680916313135,341.4375,-1.5625,91.1875,0.6903686500000008,-0.09545898000000005,-0.7082519499999995,0.11248779000000012
286.0,0.006087208836948693,-0.09236331345553508,0.013673732290082452,-0.2699999999999997,-9.8,-0.1999999999999998,0.014445401925078042,-0.00683923622228448,0.030034991470223323,341.4375,-1.5625,91.1875,0.6903686500000008,-0.09545898000000005,-0.7082519499999995,0.11248779000000012
287.0,0.00492790962939246,-0.09279874729848714,0.011294915152485395,-0.2699999999999997,-9.8,-0.1999999999999998,0.05218722484591372,0.003993048607220042,0.019160980148883372,341.4375,-1.5625,91.1875,0.6903686500000008,-0.09545898000000005,-0.7082519499999995,0.11248779000000012
288.0,0.005018545385415832,-0.09328026694949171,0.011272767749939969,-0.2699999999999997,-9.8,-0.1999999999999998,0.06192642880012807,0.018528782368126148,0.0005466811414392061,341.4375,-1.5625,91.1875,0.6903696344354847,-0.09545012080645161,-0.7082509655645156,0.11248779000000012
289.0,0.005438769718979136,-0.09346237932924975,0.0075902615385250675,-0.2699999999999997,-9.8,-0.1999999999999998,0.022041781889921848,-0.08903014582015134,-0.009610122740163062,341.4375,-1.5625,91.15729006656426,0.6904921497753462,-0.09542305104838708,-0.7081289502963386,0.11248779000000012
290.0,0.0055898485691669875,-0.09263340740656036,0.005355110607972211,-0.2699999999999997,-9.8,-0.1999999999999998,0.0011922619127028612,-0.03599377754717245,-0.020367057337823468,341.4375,-1.5625,91.140136968766,0.6905564076296089,-0.09540951616935481,-0.7080644424062339,0.11248779000000012
291.0,0.0014775961046122328,-0.09244804836740318,0.0044863523573201,-0.2699999999999997,-9.8,-0.1999999999999998,-0.04841268302709834,-0.19984155909055104,-0.0004469055250305252,341.416506656426,-1.5625,91.13156041986687,0.6905725359832632,-0.09554875786450331,-0.7080056872835062,0.11264530070148496
292.0,0.005134241318717125,-0.09273594237303912,0.0007673509286412509,-0.2699999999999997,-9.799999999999999,-0.1957771260997066,0.060877123408625416,0.12516428324140014,-0.003768832114346227,341.3536895452218,-1.5625,91.12433959409766,0.6906037611636746,-0.0959678093428088,-0.707852938993659,0.11312690226178845
293.0,-0.007756700065167809,-0.09065208536982727,-4.3551878229297516e-05,-0.2668049155145926,-9.799999999999999,-0.19248149699762596,0.02778414182144021,-0.024486930799934845,0.01579246526323139,341.4258047060466,-1.5625,91.10113229064842,0.6908406980337944,-0.09555166353349155,-0.7077424567043706,0.11275134408276313
294.0,0.0011111800436096296,-0.09357962882487438,-0.01172050197101353,-0.26840245775729615,-9.799999999999997,-0.1858411336697326,0.07433104348257664,-0.06937022599025713,-0.06788700555532975,341.22125273819427,-1.5625,91.07929968576335,0.6908251065064082,-0.0967386493088739,-0.707391681301876,0.11403292846651396
295.0,0.0011769842525740457,-0.09271242607496817,-0.015841252846548956,-0.2692012288786479,-9.799999999999999,-0.17743669586712432,0.11437211680952653,-0.041404493035451156,-0.04587792042654825,341.2613862946554,-1.5625,91.0376337138494,0.6911265372556854,-0.09658347757999533,-0.7071317414425009,0.11390348840447295
296.0,0.0019978623259798026,-0.09406230622744821,-0.01862979180985922,-0.2696006144393238,-9.799999999999999,-0.1732344769658202,0.07233102768279706,0.00011508579154221807,-0.032835593597810735,341.28558306028214,-1.5625,91.01680072789244,0.6912796913876993,-0.0964901819722814,-0.7070035690443426,0.11382076086378293
297.0,0.0010209252978872622,-0.09375647080678372,-0.019918512718223848,-0.26980030721966175,-9.8,-0.1712653323245523,0.03598222938392052,-0.021096538238148735,-0.022359267962150722,341.2993164568272,-1.5625,91.0064758771427,0.6913555446723443,-0.09643261446121407,-0.7069433381805287,0.11376680814938912
298.0,0.002578662110483363,-0.09256468965904485,-0.02060714298514632,-0.2699999999999997,-9.8,-0.17031776600866627,-0.008495741757175067,-0.015128175136285275,-0.002358424262363044,341.3029480389615,-1.5625,91.00192585459797,0.6913865539695567,-0.0964233915931263,-0.706914289589496,0.1137590930096665
299.0,0.002259480308973025,-0.09287237853197788,-0.02195619546946291,-0.2699999999999997,-9.8,-0.16999999999999993,-0.018729394711038183,-0.0056833701873048904,0.006238337218842552,341.3122828784119,-1.5625,91.0,0.691406128828784,-0.09637520668486366,-0.7069091194143913,0.1137093178312657
300.0,0.0040106334547346505,-0.09180963839750259,-0.02042598855359002,-0.2699999999999997,-9.8,-0.16999999999999993,-0.019329027380332986,0.016513153616024973,0.0004826921826222683,341.3125,-1.5625,91.0,0.69140625,-0.09637451000000014,-0.7069091799999991,0.1137085000000002
301.0,0.0032944198751300724,-0.09065264047866803,-0.01962018730489075,-0.2699999999999997,-9.8,-0.16999999999999993,-0.0007245463709677422,0.008304337929240374,0.018750812955254943,341.3125,-1.5625,91.0,0.69140625,-0.09637451000000012,-0.7069091799999991,0.11370850000000018
302.0,0.00317442767950052,-0.09244829604578561,-0.02100969042663893,-0.2699999999999997,-9.8,-0.16999999999999993,-0.01253780241935484,5.690686784599452e-05,0.005532160509885536,341.3125,-1.5625,91.0,0.69140625,-0.09637451000000014,-0.7069091799999991,0.1137085000000002
303.0,0.0033640088449531733,-0.09311800858480747,-0.020078206295525505,-0.2699999999999997,-9.8,-0.16999999999999993,-0.04029920818158168,-0.0028656672736732565,-0.000648331815816857,341.3125,-1.5625,91.0,0.69140625,-0.09637451000000012,-0.7069091799999991,0.11370850000000018
304.0,0.0033142159609381248,-0.09412642829984791,-0.022288909289201964,-0.2699999999999997,-9.8,-0.16999999999999993,-0.02918510928620027,-0.01830628276835028,0.00845132649283599,341.3125,-1.5625,91.0,0.69140625,-0.09637451000000014,-0.7069091799999991,0.1137085000000002
305.0,0.004358555627216815,-0.09450434152961723,-0.021838986307742184,-0.2699999999999997,-9.8,-0.16999999999999993,-0.02757680776644757,-0.015039886988352822,0.022828894836846338,341.3125,-1.5625,91.0,0.69140625,-0.09637451000000012,-0.7069091799999991,0.11370850000000018
306.0,0.005005038017100141,-0.09446935524526051,-0.021429254810875212,-0.2699999999999997,-9.8,-0.16999999999999993,0.0033280464083045476,-0.016752792461026417,-0.010147964834025506,341.3125,-1.5625,91.0,0.69140625,-0.09637451000000014,-0.7069091799999991,0.1137085000000002
307.0,0.004666617510854218,-0.09339551191602502,-0.021004525958945038,-0.2699999999999997,-9.8,-0.16999999999999993,-0.0005181164527857697,-0.010282768238321709,-0.01058033482356677,341.3125,-1.5625,91.0,0.69140625,-0.09637451000000014,-0.7069091799999991,0.1137085000000002
308.0,0.003969625092575911,-0.09292824503189387,-0.018499141231293544,-0.2699999999999997,-9.8,-0.16999999999999993,0.006878688912004617,-0.00403576497243869,-0.0021684192328031574,341.3125,-1.5625,91.0,0.69140625,-0.09637451000000014,-0.7069091799999991,0.1137085000000002
309.0,0.003948832397404581,-0.0931564302082546,-0.019500190963041317,-0.2699999999999997,-9.8,-0.16999999999999993,0.0082702997909899,0.001029574089463037,-0.008923849814912744,341.3125,-1.5625,91.0,0.69140625,-0.09637451000000014,-0.7069091799999991,0.1137085000000002
310.0,0.003607590885816692,-0.09399615975422426,-0.021277329749103954,-0.2699999999999997,-9.8,-0.16999999999999993,0.0045482910906298,0.004981118791602662,-0.01418010752688172,341.3125,-1.5625,91.0,0.69140625,-0.09637451000000012,-0.7069091799999991,0.11370850000000018
311.0,0.0026670433061562098,-0.09478751624719364,-0.0224496066209776,-0.2699999999999997,-9.8,-0.16999999999999993,0.001233832811453779,-0.005161868821143015,0.02235010732994604,341.3125,-1.5625,91.0,0.69140625,-0.09637451000000014,-0.7069091799999991,0.1137085000000002
312.0,0.002618178297332845,-0.0923553556658395,-0.023837513474758994,-0.2699999999999997,-9.8,-0.16999999999999993,0.028724420204002767,-0.0025169303143093465,0.024571583174009138,341.3125,-1.5625,91.0,0.69140625,-0.09637451000000012,-0.7069091799999991,0.11370850000000018
313.0,0.003272294793827713,-0.0912180004135649,-0.02335272851157305,-0.2699999999999997,-9.8,-0.16999999999999993,-0.008004221349611523,-0.013386741366832093,0.031848543603133606,341.3125,-1.5625,91.0,0.69140625,-0.09637451000000014,-0.7069091799999991,0.1137085000000002
314.0,0.003071582490566302,-0.09055355665839532,-0.023747449063278726,-0.2699999999999997,-9.8,-0.16999999999999993,-0.004664161110549778,-0.013535913444862456,0.02136345055416826,341.3125,-1.5625,91.0,0.69140625,-0.09637451000000012,-0.7069091799999991,0.11370850000000018
315.0,0.003417511675390678,-0.09124720843672454,-0.026260821305832918,-0.2699999999999997,-9.8,-0.16999999999999993,0.009764693638273498,-0.0018620427439366045,-0.0031455596691524305,341.3125,-1.5625,91.0,0.69140625,-0.09637451000000014,-0.7069091799999991,0.1137085000000002
316.0,0.0028886565821122116,-0.09150201612903223,-0.027266887079715477,-0.2699999999999997,-9.8,-0.16999999999999993,-0.015263434818580373,-0.009251430801248699,-0.0024722835566605827,341.3125,-1.5625,91.0,0.69140625,-0.09637451000000014,-0.7069091799999991,0.1137085000000002
317.0,0.0033265715665179276,-0.090838487561509,-0.024076353308700345,-0.2699999999999997,-9.8,-0.16999999999999993,-0.0024933613247147225,0.006855968579692764,-0.0011025361172595635,341.3125,-1.5625,91.0,0.69140625,-0.09637451000000011,-0.7069091799999992,0.11370850000000018
318.0,0.0017590906840033809,-0.09256064421499766,-0.022471760711422137,-0.2699999999999997,-9.8,-0.16999999999999993,-0.023382420426625354,0.022168291361806678,0.008760000939509176,341.3125,-1.5625,91.0,0.69140625,-0.09637451000000014,-0.7069091799999991,0.1137085000000002
319.0,0.0024712239836283028,-0.09463925707933701,-0.023710526474998196,-0.2699999999999997,-9.8,-0.16999999999999993,-0.015259180498894824,0.007711284656507457,-0.004487147672887831,341.3125,-1.5625,91.0,0.69140625,-0.09637451000000014,-0.7069091799999991,0.1137085000000002
320.0,0.004078353927298022,-0.0926900922493459,-0.020103751140724907,-0.2699999999999997,-9.8,-0.16999999999999993,-0.003471324120415155,-0.0033583193652946585,0.012814389873233504,341.3034274193548,-1.5625,91.0,0.6913973894354841,-0.09642176306451618,-0.7069032728225799,0.11376313556451625
321.0,0.0030336326088103017,-0.09337932031822133,-0.015950603858203648,-0.26547394540942904,-9.8,-0.18445161290322565,-0.037333909578818,0.2447424536082956,-0.023865757916981263,341.3675170595534,-1.5625,91.06153846153846,0.6910519053554589,-0.09606033817990081,-0.7073840874931757,0.11324050804528543
322.0,0.0023027873178587087,-0.09397143197744728,-0.009920824430872027,-0.2625756823821338,-9.8,-0.19270967741935469,-0.010393767344867952,0.1738368556974784,-0.04050628420546784,341.4690407878412,-1.5625,91.0952853598015,0.6909140583228907,-0.09549287699317627,-0.7077136685852976,0.11256094531296532
323.0,0.0028668609872999086,-0.09293533626092454,-0.006812581551476318,-0.26112655086848624,-9.799999999999999,-0.19683870967741915,-0.017679965107128312,0.057996610418857245,-0.007855593414862649,341.51980265198506,-1.5625,91.112158808933,0.6908451348066065,-0.09520914639981398,-0.7078784591313584,0.11222116394680526
324.0,0.0032665078105982392,-0.09144462665580791,-0.00472477515873867,-0.2604019851116624,-9.799999999999999,-0.1989032258064514,0.019945859740342648,0.03986300054993041,0.011705203804601444,341.5451835840571,-1.5625,91.12059553349876,0.6908106730484644,-0.09506728110313287,-0.7079608544043888,0.11205127326372524
325.0,0.002361780531003164,-0.09259399311541033,-0.004220266483619207,-0.26003970223325046,-9.8,-0.19993548387096755,-0.00655387784552248,0.021176079928063002,-0.005868898273710541,341.55815756823824,-1.5625,91.12481389578164,0.6907937190620345,-0.09499487179652616,-0.7080022366401983,0.11196462056079409
326.0,0.001640183660278848,-0.09229750859047525,-0.0060078842363347935,-0.2599999999999999,-9.8,-0.1999999999999998,-0.0031688704679185917,0.005967928892307527,-0.00762077983125048,341.5625,-1.5625,91.125,0.6907958999999997,-0.0949707000000001,-0.7080078099999998,0.11193848000000003
327.0,0.002461144590176848,-0.09147438582922451,-0.006902774644710131,-0.2599999999999999,-9.8,-0.1999999999999998,0.0075804347981767335,-0.0031020502794696344,0.0030373300534590865,341.5625,-1.5625,91.125,0.6907958999999997,-0.0949707000000001,-0.7080078099999998,0.11193848000000003
328.0,0.001983260467131435,-0.09264090747961715,-0.005318444995864351,-0.2599999999999999,-9.8,-0.1999999999999998,-0.014950618378037732,0.009919527157430382,-0.003918773878451297,341.5625,-1.5625,91.125,0.6907958999999997,-0.0949707000000001,-0.7080078099999999,0.11193848000000003
329.0,0.001432226173641366,-0.09381529211914225,-0.004270391419194749,-0.25999999999999984,-9.8,-0.1999999999999998,-0.00576990972087226,0.0067049075259923326,-0.0024394176611918545,341.5625,-1.5625,91.125,0.6907958999999998,-0.0949707000000001,-0.70800781,0.11193848000000003
330.0,0.0015639605798294662,-0.09399268288654343,-0.005086001176531874,-0.2599999999999999,-9.8,-0.1999999999999998,0.03137397617268846,0.009275786702458138,-0.0018602421324195517,341.5625,-1.5625,91.125,0.6907958999999998,-0.0949707000000001,-0.70800781,0.11193848000000003
331.0,0.001976296726166653,-0.09349531737773151,-0.005479508524773875,-0.2599999999999999,-9.8,-0.1999999999999998,0.039408506263507566,0.008070113013287441,0.013862825682382134,341.5625,-1.5625,91.125,0.6907958999999998,-0.0949707000000001,-0.70800781,0.11193848000000003
332.0,0.002682937444969182,-0.09475262146802209,-0.004680200912511007,-0.2599999999999999,-9.8,-0.1999999999999998,0.018913310203714083,0.006656024248579204,-0.007150473014888338,341.5625,-1.5625,91.125,0.6907958999999998,-0.0949707000000001,-0.7080078099999999,0.11193848000000003
333.0,0.0013162671095813651,-0.09239775210625885,-0.006048177773203788,-0.2599999999999999,-9.8,-0.1999999999999998,0.009031127868114082,-0.010315611067594677,-0.001369595346409863,341.5625,-1.5625,91.125,0.6907958999999997,-0.0949707000000001,-0.7080078099999999,0.11193848000000003
334.0,0.0020352539485604,-0.09226778575367282,-0.005265966560321399,-0.2599999999999999,-9.8,-0.1999999999999998,-0.016047042395328684,-0.00522284195419276,0.006995693878254361,341.5625,-1.5625,91.125,0.6907958999999997,-0.0949707000000001,-0.7080078099999999,0.11193848000000003
335.0,0.002441944592146204,-0.09300237922919373,-0.005925787250384026,-0.2599999999999999,-9.8,-0.1999999999999998,-0.022182950478061365,-0.006325751001910275,0.02268209011530584,341.5625,-1.5625,91.125,0.6907958999999997,-0.0949707000000001,-0.7080078099999999,0.11193848000000003
336.0,0.0030674504706762764,-0.09251833471188306,-0.004751408090117768,-0.2599999999999999,-9.8,-0.1999999999999998,-0.03589731281263539,-0.03399509876324392,0.017540691835046675,341.5625,-1.5625,91.125,0.6907958999999997,-0.0949707000000001,-0.7080078099999999,0.11193848000000003
337.0,0.002431988262633423,-0.09251475048249239,-0.004455108511560123,-0.2599999999999999,-9.8,-0.1999999999999998,-0.009992701071330101,0.003768579650636105,0.011685978671865768,341.5625,-1.5625,91.125,0.6907958999999997,-0.0949707000000001,-0.7080078099999999,0.11193848000000003
338.0,0.0034279756981369877,-0.09371257237386267,-0.0051410207176336205,-0.2599999999999999,-9.8,-0.1999999999999998,0.019613224477135763,0.01151690631277325,0.014483542331324588,341.5625,-1.5625,91.125,0.6907958999999997,-0.0949707000000001,-0.7080078099999999,0.11193848000000003
339.0,0.0034446586119973206,-0.09423979873173419,-0.004031083835519319,-0.2599999999999999,-9.8,-0.1999999999999998,0.01145471771731852,0.004750388640257593,0.024642884836937252,341.5625,-1.5625,91.125,0.6907958999999997,-0.0949707000000001,-0.7080078099999999,0.11193848000000003
340.0,0.00331547126708417,-0.0938617708456418,-0.004613228169679783,-0.2599999999999999,-9.8,-0.1999999999999998,-0.013832392965457482,-0.004170974634684311,0.01837933012328173,341.5625,-1.5625,91.125,0.6907958999999997,-0.0949707000000001,-0.7080078099999999,0.11193848000000003
341.0,0.003237356729292213,-0.09345418291386032,-0.005197039072039073,-0.2599999999999999,-9.8,-0.1999999999999998,-0.01947700037417779,-0.006245753574382606,0.02587873316199929,341.5625,-1.5625,91.125,0.6907958999999997,-0.0949707000000001,-0.7080078099999999,0.11193848000000003
342.0,0.0029387776202292335,-0.09359061503013114,-0.0055488917444562625,-0.2599999999999999,-9.8,-0.1999999999999998,-0.005520137904210485,-0.01816630110480917,0.021298547722438853,341.5625,-1.5625,91.125,0.6907958999999997,-0.0949707000000001,-0.7080078099999999,0.11193848000000003
343.0,0.0029568440072472333,-0.09417625989601797,-0.004564000403718146,-0.2599999999999999,-9.8,-0.1999999999999998,-0.02503349445133719,-0.004762874054708732,0.012425387532494388,341.5625,-1.5625,91.125,0.6907958999999997,-0.0949707000000001,-0.7080078099999999,0.11193848000000003
344.0,0.0008584623262042619,-0.09435123478671867,-0.006024439717988106,-0.2599999999999999,-9.8,-0.1999999999999998,-0.06446357182244278,-0.06031364468864469,0.028342860096892356,341.5625,-1.5625,91.13961693548387,0.6907668591129035,-0.0949707000000001,-0.7080353743548391,0.11193848000000003
345.0,0.0030419196654888642,-0.09445019909562052,-0.008089024774508648,-0.25999999999999984,-9.8,-0.1999999999999998,-0.02276279279888801,0.049135478169362146,-0.04430921593870345,341.5364854318418,-1.5625,91.16456653225806,0.6906950013670654,-0.09511246024973995,-0.7080530957778359,0.11207972953173781
346.0,0.0029784414192582766,-0.09400275916417955,-0.009034232344716217,-0.2599999999999999,-9.8,-0.1999999999999998,-0.029823930567784627,0.07485181880424466,-0.04898537129205053,341.581750780437,-1.5625,91.17704133064515,0.6907139461674034,-0.09478956464099902,-0.7081249612760148,0.11175708928199798
347.0,0.0012882281537978729,-0.09241825303122128,-0.008710664559454883,-0.2599999999999999,-9.8,-0.1999999999999998,-0.03688777173550522,0.04829749749145236,-0.01631960872294834,341.6043834547346,-1.5625,91.1832787298387,0.6907234185675724,-0.09462811683662857,-0.7081608940251041,0.11159576915712807
348.0,0.001805148383094533,-0.09330974095493474,-0.008731932382133996,-0.2599999999999999,-9.8,-0.1999999999999998,-0.018275875115064434,0.02249264275494277,0.0048810302519410875,341.61569979188346,-1.5625,91.18639742943549,0.6907281547676569,-0.09454739293444334,-0.7081788603996488,0.11151510909469312
349.0,0.002640645428106406,-0.09281066444828148,-0.008343780771200127,-0.2599999999999999,-9.8,-0.1999999999999998,-0.017244206358735494,0.017665982235766316,0.004291883613553748,341.62135796045783,-1.5625,91.1875,0.6907314303954208,-0.09450703098335073,-0.7081869822008324,0.11147477906347564
350.0,0.0022201790145338525,-0.09288907105439362,-0.008516488439875538,-0.2599999999999999,-9.8,-0.1999999999999998,-0.03757234309149631,0.011481934843830005,0.017279813600378113,341.625,-1.5625,91.1875,0.6907348599999994,-0.09448242000000004,-0.7081909199999998,0.11145020000000011
351.0,0.0021577622646171027,-0.09318609504294986,-0.007071087290845357,-0.2599999999999999,-9.799999999999999,-0.19999999999999976,-0.0362809079920975,-0.007555615027893254,0.004574281565208982,341.625,-1.5625,91.1875,0.6907348599999994,-0.09448242000000005,-0.7081909199999998,0.11145020000000011
352.0,0.0028042740189917603,-0.09460939318298187,-0.007252035039333428,-0.2599999999999999,-9.799999999999999,-0.1999999999999998,-0.011825711390983568,-0.013832112527929059,0.010728050231578455,341.625,-1.5625,91.1875,0.6907348599999994,-0.09448242000000005,-0.7081909199999998,0.11145020000000011
353.0,0.0021707862030442672,-0.09376891030116834,-0.006229344132569941,-0.2599999999999999,-9.799999999999999,-0.1999999999999998,-0.019505975655169202,-0.009892996788158078,0.014027079551273098,341.625,-1.5625,91.1875,0.6907348599999994,-0.09448242000000004,-0.7081909199999998,0.11145020000000011
354.0,0.001605106363170879,-0.09463151096215609,-0.007328701764185638,-0.2599999999999999,-9.8,-0.1999999999999998,-0.0027925423590746176,-0.007138638691058045,0.007445567425406134,341.625,-1.5625,91.1875,0.6907348599999994,-0.09448242000000004,-0.7081909199999998,0.11145020000000011
355.0,0.0019008634734441184,-0.0944445317227575,-0.006104187031606387,-0.2599999999999999,-9.8,-0.1999999999999998,0.012100592619745845,-0.0012091682958618442,0.01137127321603128,341.625,-1.5625,91.1875,0.6907348599999994,-0.09448242000000004,-0.7081909199999998,0.11145020000000011
356.0,0.002821925834022608,-0.09319831669226827,-0.0063736214502343545,-0.2599999999999999,-9.8,-0.1999999999999998,-0.0038064128411910685,0.00670987558588365,-0.0016057950785773366,341.625,-1.5625,91.1875,0.6907348599999994,-0.09448242000000004,-0.7081909199999998,0.11145020000000011
357.0,0.002913779097246839,-0.09224175947260624,-0.007326595671353738,-0.2599999999999999,-9.8,-0.1999999999999998,-0.0061754798460947665,-0.01272609139292607,0.0025093144422781515,341.625,-1.5625,91.1875,0.6907348599999994,-0.09448242000000004,-0.7081909199999998,0.11145020000000011
358.0,0.001754268580881484,-0.09276654505888376,-0.007287289771160741,-0.2599999999999999,-9.8,-0.1999999999999998,-0.020807623995628025,-0.016853217067430776,-0.0020530544724093112,341.625,-1.5625,91.1875,0.6907348599999994,-0.09448242000000004,-0.7081909199999998,0.11145020000000011
359.0,0.0019708756745047064,-0.09336074308755757,-0.010336740320611291,-0.2599999999999999,-9.8,-0.1999999999999998,0.00725417965211312,-0.007866326521820472,-0.010968086572925282,341.625,-1.5625,91.1875,0.6907348599999994,-0.09448242000000004,-0.7081909199999998,0.11145020000000011
360.0,0.0017694080113434952,-0.0936604582693292,-0.008774360943715786,-0.2599999999999999,-9.8,-0.1999999999999998,0.005793478474930089,-0.000939721680649101,0.0004083338256725341,341.625,-1.5625,91.1875,0.6907348599999994,-0.09448242000000004,-0.7081909199999998,0.11145020000000011
361.0,0.0017928925912796881,-0.09429797107014846,-0.010812738784512985,-0.2599999999999999,-9.8,-0.1999999999999998,0.024391776458308714,-0.005727305009059041,0.010013410089014928,341.625,-1.5625,91.1875,0.6907348599999994,-0.09448242000000004,-0.7081909199999998,0.11145020000000011
362.0,0.002076681830714089,-0.09376444892473115,-0.012154961302138726,-0.2599999999999999,-9.8,-0.1999999999999998,0.007715601490803103,-0.01515243898686439,-0.008930186916578046,341.625,-1.5625,91.1875,0.6907348599999994,-0.09448242000000004,-0.7081909199999998,0.11145020000000011
363.0,0.003251585332230494,-0.09365560380479732,-0.011361056953798895,-0.2599999999999999,-9.8,-0.1999999999999998,0.0009508916262948508,0.00019872041041395921,0.013991695468509984,341.625,-1.5625,91.1875,0.6907348599999994,-0.09448242000000004,-0.7081909199999998,0.11145020000000011
364.0,0.0020072863025516513,-0.09442717755276286,-0.010878159150076429,-0.25999999999999984,-9.8,-0.1999999999999998,0.007721503605511149,-0.007720518927107116,-0.006741845373885566,341.625,-1.5625,91.1875,0.6907348599999994,-0.09448242000000004,-0.7081909199999998,0.11145020000000011
365.0,0.0019611444313577505,-0.09239536040976595,-0.009583984848975748,-0.2599999999999999,-9.8,-0.1999999999999998,0.005316844992719732,0.006284389793998925,-0.013291557607577702,341.625,-1.5625,91.1875,0.6907348599999994,-0.09448242000000004,-0.7081909199999998,0.11145020000000011
366.0,0.001506161545703689,-0.09175479093689289,-0.013163541742105742,-0.2599999999999999,-9.8,-0.19714143920595517,0.05311350546782388,0.01868432036226001,-0.014389216691505974,341.625,-1.5625,91.16864143920596,0.6907901110570718,-0.09448242000000004,-0.7081356689429279,0.11145020000000011
367.0,0.001521129927997774,-0.09139070832046894,-0.014108652591482982,-0.2599999999999999,-9.8,-0.19340942928039692,0.033757213563405025,0.0036937986859943168,-0.014323064566951144,341.625,-1.5625,91.14581265508684,0.6908569939156328,-0.09448242000000004,-0.7080687860843671,0.11145020000000011
368.0,0.0011675128548177456,-0.09198815813045778,-0.01530246525355787,-0.2599999999999999,-9.8,-0.19154342431761778,0.04130478544175214,0.004095658648208076,-0.016668356104815523,341.625,-1.5625,91.1343982630273,0.6908904353449135,-0.09448242000000004,-0.7080353446550867,0.11145020000000011
369.0,0.0018815530347788413,-0.09353244023002084,-0.01534696128244516,-0.2599999999999999,-9.8,-0.19061042183622823,0.019896473374295953,0.010996272992240734,-0.00021469066327937415,341.625,-1.5625,91.12869106699752,0.6909071560595537,-0.09448242000000004,-0.7080186239404465,0.11145020000000011
370.0,0.0012276724171885463,-0.09406126915199496,-0.017307101500649895,-0.2599999999999999,-9.8,-0.19014392059553345,-0.0010178805289692405,0.0036892822679113002,-0.012210273765213282,341.625,-1.5625,91.12583746898262,0.6909155164168739,-0.09448242000000004,-0.7080102635831265,0.11145020000000011
371.0,0.0018867890621922883,-0.09418820281421088,-0.016450076804915524,-0.2599999999999999,-9.8,-0.18999999999999995,-0.030836173515104967,-0.009724837774232937,-0.016457184029008625,341.625,-1.5625,91.125,0.6909179700000003,-0.09448242000000004,-0.7080078099999999,0.11145020000000011
372.0,0.0014827090472251765,-0.09409258931033125,-0.018225038402457764,-0.2599999999999999,-9.8,-0.18919354838709673,0.10482510880696363,-0.009713729370987436,-0.06948426237740754,341.6265120967742,-1.5609879032258065,91.11844758064515,0.6909657150806454,-0.0944755291935484,-0.7079615416935485,0.11145610629032265
373.0,0.017823240379691997,-0.09248798200007878,-0.016752717712395136,-0.2599999999999999,-9.8,-0.1771774193548387,0.0007453707806530374,-0.05735376294852101,0.05676686384851708,341.61265120967744,-1.529485887096774,91.04359879032258,0.6915010029435488,-0.09462614830645161,-0.7073940139919359,0.1116864635483871
374.0,0.010160980148883378,-0.09132335607940445,-0.025227357320099265,-0.2599999999999999,-9.8,-0.168991935483871,0.1395015896401985,0.117220455955335,-0.011171099565756824,341.699470766129,-1.513734879032258,90.99256552419354,0.691835097439516,-0.09412457641129039,-0.707202787560484,0.11120211919354833
375.0,0.009425403225806454,-0.09228326612903226,-0.034324596774193555,-0.2599999999999999,-9.8,-0.1640120967741936,0.07614037298387095,0.024382560483870976,0.0391570060483871,341.7590095766129,-1.505859375,90.96200856854838,0.6920380769455642,-0.0937679627217743,-0.7071012678125002,0.11085362798387088
376.0,0.01064012096774194,-0.09349294354838708,-0.04021673387096775,-0.2599999999999999,-9.8,-0.16152217741935493,0.0702179939516129,0.04630796370967742,-0.013356854838709672,341.7887789818549,-1.501921622983871,90.94673009072581,0.6921395666985883,-0.09358965587701626,-0.7070505079385081,0.11067938237903216
377.0,0.011225211528291914,-0.09413719592808037,-0.04026424510840825,-0.25999999999999984,-9.8,-0.1603024193548388,0.04086327918429402,0.012735077340031731,-0.006343266624801691,341.8036164314516,-1.5,90.93929561491936,0.6921888195413302,-0.09350071779233884,-0.7070265738860888,0.11059207500504023
378.0,0.011113071024691865,-0.09578548692185655,-0.04195958843509742,-0.2599999999999999,-9.8,-0.1600554435483872,0.003660208528251229,0.005027976014929018,-0.015948124084733353,341.8114919354839,-1.5,90.9378150201613,0.6921974642338705,-0.0934514342338711,-0.7070316191582662,0.11054131493951602
379.0,0.01002210130855689,-0.09542738567803016,-0.04412191531329884,-0.2599999999999999,-9.8,-0.1600000000000001,-0.008661567202848271,0.013307178771673416,-0.02825085975742044,341.8125,-1.5,90.9375,0.6921997099999995,-0.09344482000000014,-0.70703125,0.1105346699999999
380.0,0.010592083532690356,-0.0944076677149456,-0.04233573278071888,-0.2599999999999999,-9.8,-0.1600000000000001,-0.0020384061200345574,0.002761878777896261,0.014265156349577621,341.8125,-1.5,90.9375,0.6921997099999995,-0.09344482000000014,-0.70703125,0.1105346699999999
381.0,0.011663569288106575,-0.09434021058558338,-0.0410847010677788,-0.2599999999999999,-9.8,-0.1600000000000001,-0.009164224341379285,-0.015547394024390322,-0.010261035016455429,341.8125,-1.5,90.9375,0.6921997099999995,-0.09344482000000014,-0.70703125,0.1105346699999999
382.0,0.011873015873015879,-0.0926669029894836,-0.042923470794438534,-0.2599999999999999,-9.8,-0.1600000000000001,-0.005903639371381306,0.003309504115955728,0.027689156721414785,341.8125,-1.5,90.9375,0.6921997099999995,-0.09344482000000014,-0.70703125,0.1105346699999999
383.0,0.011623852849659305,-0.0930431289140966,-0.04181409271731852,-0.2599999999999999,-9.8,-0.1600000000000001,0.02690239867659222,0.0027403599984245144,-0.0002373074953720116,341.8125,-1.5,90.9375,0.6921997099999995,-0.09344482000000014,-0.70703125,0.1105346699999999
384.0,0.012663833333968614,-0.09468881748382263,-0.04222751280399564,-0.25999999999999984,-9.8,-0.1600000000000001,0.005838841179632021,-0.024604127517759148,0.015121547431641083,341.8125,-1.5,90.9375,0.6921997099999995,-0.09344482000000014,-0.70703125,0.1105346699999999
385.0,0.012282288875421037,-0.09487046333248203,-0.04328125019852387,-0.2599999999999999,-9.8,-0.1600000000000001,0.007882199746143554,-0.011642944652179823,0.011670575204654289,341.8125,-1.5,90.9375,0.6921997099999995,-0.09344482000000014,-0.70703125,0.1105346699999999
386.0,0.010129879716768379,-0.09365642982292302,-0.04365675413152001,-0.2599999999999999,-9.8,-0.1600000000000001,0.018782049693860305,-0.00734156961231623,0.022036324468686593,341.8125,-1.5,90.9375,0.6921997099999995,-0.09344482000000014,-0.70703125,0.1105346699999999
387.0,0.010113582971543434,-0.09213799473737039,-0.046096170204520885,-0.2599999999999999,-9.8,-0.1600000000000001,0.02888027215875811,-0.005542904621826318,-0.003318755328380718,341.8125,-1.5,90.9375,0.6921997099999995,-0.09344482000000014,-0.70703125,0.1105346699999999
388.0,0.009711878334406954,-0.09286676411806484,-0.04464858138017608,-0.2599999999999999,-9.8,-0.1600000000000001,-0.020245037617891416,-0.015403276132253108,0.005342793551690534,341.8125,-1.5,90.9375,0.6921997099999995,-0.09344482000000014,-0.70703125,0.1105346699999999
389.0,0.00929922740861867,-0.09308010422344448,-0.04369525843202353,-0.25999999999999984,-9.8,-0.1600000000000001,0.005209817299274895,0.005582050799638274,0.007939346827874404,341.8125,-1.5,90.9375,0.6921997099999995,-0.09344482000000014,-0.70703125,0.1105346699999999
390.0,0.00978066209140611,-0.09299166501494804,-0.04581184292568918,-0.2599999999999999,-9.8,-0.1600000000000001,0.013032075988347123,0.0002551131014320398,0.0017960343010339761,341.8125,-1.5,90.9375,0.6921997099999995,-0.09344482000000014,-0.70703125,0.1105346699999999
391.0,0.010485089110219187,-0.0920200260558611,-0.044939691624134914,-0.2599999999999999,-9.8,-0.1600000000000001,0.020172161986109046,0.019343786389425698,-0.018743489905934625,341.8125,-1.5,90.9375,0.6921997099999995,-0.09344482000000014,-0.70703125,0.1105346699999999
392.0,0.010643210197710723,-0.09422557882414148,-0.04378577003121749,-0.2599999999999999,-9.8,-0.1600000000000001,0.03367159046566077,0.028873122073361082,0.00011686231789802097,341.8125,-1.5,90.9375,0.6921997099999995,-0.09344482000000014,-0.70703125,0.1105346699999999
393.0,0.009363943808532782,-0.09439353537981265,-0.041036030176899066,-0.2599999999999999,-9.8,-0.1600000000000001,0.036036274063475544,-0.0018027282778355878,0.00035770031217481754,341.8125,-1.5,90.9375,0.6921997099999995,-0.09344482000000014,-0.70703125,0.1105346699999999
394.0,0.009780827263267433,-0.09447304240374604,-0.04172248959417274,-0.25999999999999984,-9.8,-0.1600000000000001,0.01806691434703434,-0.02522498536680541,0.009885535900104058,341.8125,-1.5,90.9375,0.6921997099999995,-0.09344482000000014,-0.70703125,0.1105346699999999
395.0,0.009962407492972187,-0.09542407386195967,-0.04181371530743783,-0.2599999999999999,-9.799999999999999,-0.1600000000000001,-0.008148541728143879,0.007206271986192867,-0.003179110059095781,341.8125,-1.5,90.9375,0.6921997099999995,-0.09344482000000014,-0.70703125,0.1105346699999999
396.0,0.010124852940034483,-0.09446858935033466,-0.04261552700855761,-0.2599999999999999,-9.799999999999999,-0.1600000000000001,0.029758894458508704,0.010061049299548045,-0.014599887690838214,341.8125,-1.5,90.9375,0.6921997099999995,-0.09344482000000014,-0.70703125,0.1105346699999999
397.0,0.009658818820945884,-0.0936975155940334,-0.04251362249743618,-0.2599999999999999,-9.799999999999999,-0.1600000000000001,0.019988501481453765,0.011274606089167964,-0.028111321228117055,341.8125,-1.5,90.9375,0.6921997099999995,-0.09344482000000014,-0.70703125,0.1105346699999999
398.0,0.009133844894343912,-0.09354986666798441,-0.04692717415194389,-0.2599999999999999,-9.799999999999999,-0.1600000000000001,0.02001189186975914,0.006661118568777529,-0.004494798718897236,341.8125,-1.5,90.9375,0.6921997099999995,-0.09344482000000014,-0.70703125,0.1105346699999999
399.0,0.008611467392341251,-0.09257554167466298,-0.048506451079814106,-0.2599999999999999,-9.799999999999999,-0.1600000000000001,0.026863135961294363,0.025914706406777302,0.0038952905468989368,341.8125,-1.5,90.9375,0.6921997099999995,-0.09344482000000014,-0.70703125,0.1105346699999999
400.0,0.009928937326114749,-0.09345450315813217,-0.04773858466802014,-0.2599999999999999,-9.799999999999999,-0.1600000000000001,0.027154649785698176,0.020160614754868786,-0.014903126527370478,341.8125,-1.5,90.9375,0.6921997099999995,-0.09344482000000014,-0.70703125,0.1105346699999999
