time,linaccel_x,linaccel_y,linaccel_z,gravity_x,gravity_y,gravity_z,gyro_x,gyro_y,gyro_z,euler_x,euler_y,euler_z,quaternion_w,quaternion_y,quaternion_x,quaternion_z
0.0,0.0012500000000000002,-0.10453124999999998,0.010625000000000006,0.28999999999999954,-9.779999999999985,-0.5300000000000005,-0.0126953125,0.0361328125,-0.001953125,252.0625,1.6875,93.0625,0.40472412000000063,-0.5995483399999991,-0.40942383000000043,0.55596924
1.0,-0.0002798507462686567,-0.10439598880597013,0.00981032338308458,0.28999999999999954,-9.779999999999985,-0.5300000000000005,-0.000500427549751244,0.015775614116915422,-0.003760494402985074,252.0625,1.6875,93.0625,0.4047241200000006,-0.5995483399999991,-0.4094238300000005,0.55596924
2.0,-3.0650319829424215e-05,-0.10563399520255864,0.007865138592750535,0.28999999999999954,-9.779999999999985,-0.5300000000000005,-0.00802696894989339,-0.0027256296641791043,0.0028526452558635396,252.0625,1.6874999999999998,93.0625,0.4047241200000006,-0.599548339999999,-0.40942383000000043,0.55596924
3.0,-0.0011148325831161654,-0.10356041469241097,0.014083096422648666,0.2899999999999996,-9.779999999999985,-0.5206031746031748,0.007365192267827527,0.04264338340539366,-0.015070881949380083,252.0625,1.6875,93.01858465608466,0.4049127169100531,-0.5993194413756606,-0.4092352334285716,0.5562162215026454
4.0,0.001604485474670838,-0.10418431976431797,0.01030819802088459,0.28999999999999954,-9.779999999999985,-0.5202918586789553,-0.01727986974633656,0.03651478849640637,0.011069920644840902,252.0625,1.6875,93.04125064004097,0.40490988495647695,-0.5993430742140291,-0.40923806520737316,0.5561832504045059
5.0,0.0014076923952044316,-0.1042087135234102,0.01280286489509528,0.28999999999999954,-9.779999999999985,-0.519984639016897,-0.034339375091887725,-0.0008982180746218461,0.010942806424570989,252.0625,1.6875,93.05187532002049,0.40491151086533494,-0.5993511987199174,-0.4092364392165897,0.5561707484280592
6.0,0.0015941465568481696,-0.10306680259704451,0.009584758991008994,0.28999999999999954,-9.779999999999985,-0.5198310291858677,0.00060604298255508,0.007897341094165691,0.0020726864980897238,252.0625,1.6875,93.05718766001024,0.40491232381976394,-0.5993552609728616,-0.4092356262211979,0.5561644974398361
7.0,0.002700260313163539,-0.10420671085187211,0.0057213109471174,0.28999999999999954,-9.779999999999985,-0.519754224270353,0.01987837431385818,0.018608497237529498,-0.009015223128126354,252.0625,1.6875,93.05984383000512,0.4049127302969785,-0.5993572920993337,-0.40923521972350196,0.5561613719457246
8.0,0.0028692382885931273,-0.10528144973306262,0.008332656590721108,0.28999999999999954,-9.779999999999985,-0.5199999999999998,-0.043182758102112945,0.011886232047522372,-0.002056545604932702,252.0625,1.6875,93.0625,0.40490722999999945,-0.5993652299999994,-0.40924071999999967,0.5561523399999999
9.0,0.0008760701663927468,-0.10608658724787756,0.005040250072508138,0.28999999999999954,-9.779999999999985,-0.52147465437788,-0.013771555505426476,-0.017594636546249452,-0.057925698853118206,252.0625,1.6875,93.06966845878136,0.40483022510496625,-0.5994562366564256,-0.409323725755248,0.5560598346031748
10.0,0.0006604202249363538,-0.10555551258777064,0.005420907049939309,0.28999999999999954,-9.779999999999985,-0.52073732718894,-0.010612561721432691,-0.01073707878143362,-0.040723602114731146,252.0625,1.6875,93.06608422939068,0.40480572368151524,-0.5994737371991805,-0.4093452267485916,0.5560430834306199
11.0,0.0005375189326802228,-0.1053261433906595,0.005812491272168692,0.28999999999999954,-9.779999999999985,-0.5203686635944699,-0.03372383105246009,0.006098018245195665,-0.025140825796067728,252.0625,1.6875,93.06429211469533,0.40479347296978974,-0.599482487470558,-0.40935597724526335,0.5560347078443426
12.0,0.001479677580484032,-0.10630823298565234,0.0019211339735533284,0.28999999999999954,-9.779999999999985,-0.5201843317972348,-0.04228065001754518,0.006569480586617684,-0.010275127538232376,252.0625,1.6875,93.06339605734766,0.404787347613927,-0.5994868626062468,-0.40936135249359923,0.5560305200512039
13.0,0.0020643744696164056,-0.10660230808617904,-0.0003493059359994846,0.28999999999999954,-9.779999999999985,-0.5200921658986173,0.04603342865691656,0.011731099042086945,0.008410212379466413,252.0625,1.6875,93.06294802867383,0.40478428493599555,-0.599489050174091,-0.40936404011776717,0.5560284261546344
14.0,0.002397424148432214,-0.10446153846153841,-0.001237632998721708,0.28999999999999954,-9.779999999999985,-0.5199999999999998,0.05951726574836454,-0.004332518539927815,0.024823779630987294,252.0625,1.6875,93.0625,0.40478515999999964,-0.5994873000000001,-0.40936278999999964,0.5560302700000006
15.0,0.0018949639070606817,-0.10621659523272423,-0.0021247274231145194,0.28999999999999954,-9.779999999999985,-0.5199999999999998,0.043585631438454016,0.007198908282577638,0.01717298998044966,252.0625,1.6875,93.0625,0.40478515999999964,-0.5994873000000001,-0.40936278999999964,0.5560302700000006
16.0,0.002069182833295737,-0.10609216858410403,-0.002372236634333408,0.28999999999999954,-9.779999999999985,-0.5199999999999998,0.08869164269869914,-0.01541630832205429,0.034444877199413484,252.0625,1.6875,93.0625,0.40478515999999964,-0.5994873000000001,-0.40936278999999964,0.5560302700000006
17.0,0.002185956180915858,-0.10547040190991802,0.0008287700203022785,0.28999999999999954,-9.779999999999985,-0.5199999999999998,0.01981108189525528,-0.009321057386833597,0.02807851800417325,252.0625,1.6875,93.0625,0.40478515999999964,-0.5994873000000001,-0.40936278999999964,0.5560302700000006
18.0,0.0021449545078577334,-0.1052831603879991,0.0034213192721257247,0.28999999999999954,-9.779999999999985,-0.5199999999999998,-0.01902381053086698,-0.007372088596886983,0.009703913358147229,252.0625,1.6875,93.0625,0.40478515999999964,-0.5994873000000001,-0.40936278999999964,0.5560302700000006
19.0,0.0007883581472291148,-0.10510187796074891,0.0069848531844499614,0.28999999999999954,-9.779999999999985,-0.5199999999999998,-0.01015551568726972,-0.011409369360478231,0.01182311052522746,252.0625,1.6875,93.0625,0.40478515999999964,-0.5994873000000001,-0.40936278999999964,0.5560302700000006
20.0,0.0013552878573039862,-0.10471776856655889,0.007059200320289031,0.28999999999999954,-9.779999999999985,-0.5199999999999998,-0.003457290497361062,-0.02340399925455369,0.013966616241061805,252.0625,1.6875,93.0625,0.40478515999999964,-0.5994873000000001,-0.40936278999999964,0.5560302700000006
21.0,0.0004835527375849955,-0.10496287001528938,0.008093457170070074,0.28999999999999954,-9.779999999999985,-0.5199999999999998,-0.03009475683366812,-0.023526160219708606,-0.010197164506640311,252.0625,1.6875,93.0625,0.40478515999999964,-0.5994873000000001,-0.40936278999999964,0.5560302700000006
22.0,0.000595562367739787,-0.10466987022833794,0.008676775957017893,0.28999999999999954,-9.779999999999985,-0.5199999999999998,-0.01230140127569563,-0.003407658649594133,-0.018147495705459413,252.0625,1.6875,93.0625,0.40478515999999964,-0.5994873000000001,-0.40936278999999964,0.5560302700000006
23.0,0.000989374536753569,-0.10612281390204775,0.007955201272741597,0.28999999999999954,-9.779999999999985,-0.5199999999999998,0.013338546673980142,0.022566087586248874,-0.026088654988604583,252.0625,1.6875,93.0625,0.40480337056451615,-0.5994873000000001,-0.40936278999999964,0.5560302700000006
24.0,0.002725572814282492,-0.10441256234804619,0.007545800078058143,0.28999999999999954,-9.779999999999985,-0.5203970223325058,-0.05091471588447395,0.04825962567898051,-0.015265704277801051,252.0625,1.6875,93.0625,0.4048238262152607,-0.599489238739454,-0.40936618271463987,0.5560268776823828
25.0,-0.0020305944055944054,-0.1056536581697872,-0.0016548800661703895,0.28999999999999954,-9.779999999999985,-0.5170704564252953,0.07956172691555756,0.004145988420181969,0.013127749266862169,252.12457233626589,1.6875,93.03659579667644,0.40511378256999575,-0.5992415063589744,-0.40947617738371306,0.5560228484061961
26.0,-0.0008438411874285963,-0.10582258670916318,-0.0048814702900290856,0.28999999999999954,-9.779999999999985,-0.5133739378900674,0.10563924415096695,-0.0022219109367912692,0.0018727476022936474,252.1580522971652,1.6875,92.99907963611138,0.40533003261694356,-0.599025504365752,-0.4094611487074651,0.5561103962062198
27.0,-0.0002702890711150335,-0.10447892822866808,-0.007584802547146463,0.28999999999999954,-9.779999999999985,-0.5115256786224534,0.04917429786564314,-0.003930772300309242,-0.0022507392649984996,252.17479227761484,1.6875,92.96627368902344,0.40546711888911663,-0.5988783789570699,-0.40941196935373236,0.5561963408450454
28.0,-0.00015782598717041998,-0.10330956336991716,-0.009863663680521124,0.28999999999999954,-9.779999999999985,-0.5106015489886464,0.06172148322252381,-0.005202824115415166,-0.002078669105203965,252.1831622678397,1.6875,92.94987071547946,0.40553509294506207,-0.5988048162527289,-0.409387379676866,0.5562393131644583
29.0,-0.0005516177082254085,-0.1046746328015839,-0.010854908763337487,0.28999999999999954,-9.779999999999985,-0.5101270772238521,0.04828474905543064,0.002299332359165866,-0.010049880458309178,252.1873472629521,1.6875,92.94166922870747,0.40556872527401955,-0.5987679743149503,-0.4093749788161003,0.5562609053340903
30.0,0.00023890045091918145,-0.10493087875241883,-0.01058641728256713,0.28999999999999954,-9.779999999999985,-0.5100000000000007,0.0413398388017925,0.030464996906203978,0.007119109717314711,252.1875,1.6875,92.93837799167534,0.4055767999219557,-0.5987573252757551,-0.40936539406347516,0.5562717743288244
31.0,0.0001948924731182796,-0.10656273386112097,-0.010412875654811143,0.28999999999999954,-9.779999999999985,-0.5100000000000007,0.019141563521603844,0.012354636850604592,0.01380279107093623,252.1875,1.6875,92.9375,0.40557860999999945,-0.5987548800000007,-0.40936278999999964,0.5562744100000002
32.0,0.00025113484186064833,-0.10569170211508921,-0.006717761629051955,0.28999999999999954,-9.779999999999985,-0.5100000000000007,0.041444575529756986,0.001294544389302453,0.006517124788294143,252.1875,1.6875,92.9375,0.40557860999999945,-0.5987548800000007,-0.40936278999999964,0.5562744100000002
33.0,0.0007915403657794397,-0.10597200170190545,-0.004754462340180343,0.28999999999999954,-9.779999999999985,-0.5100000000000007,0.01538129680994373,0.0022856897084589586,-0.0013775338197327008,252.1875,1.6875,92.9375,0.40557860999999945,-0.5987548800000007,-0.40936278999999964,0.5562744100000002
34.0,0.00032896652284009206,-0.10487534638445148,-0.0039426778202142415,0.28999999999999954,-9.779999999999985,-0.5100000000000007,0.00323214382990983,0.007901723576313847,0.0120016991261138,252.1875,1.6875,92.9375,0.40557860999999945,-0.5987548800000007,-0.40936278999999964,0.5562744100000002
35.0,0.000707513707676299,-0.10529115304570559,-0.0038694443888577603,0.28999999999999954,-9.779999999999985,-0.5100000000000007,0.0228122592401745,-0.010344699281597695,-0.007302401845033218,252.1875,1.6875,92.9375,0.40557860999999945,-0.5987548800000007,-0.40936278999999964,0.5562744100000002
36.0,0.0012524143679190503,-0.104972285432223,0.00109647180198689,0.28999999999999954,-9.779999999999985,-0.5100000000000007,0.06361772116194593,-0.03375167871785978,-0.0019180900034177868,252.1875,1.6875,92.9375,0.40557860999999945,-0.5987548800000007,-0.40936278999999964,0.5562744100000002
37.0,0.002036436912607568,-0.10415739861941736,0.004263196278805019,0.28999999999999954,-9.779999999999985,-0.5100000000000007,0.013646689765316196,0.0046111933794035775,0.0016579204989714876,252.1875,1.6875,92.9375,0.40557860999999945,-0.5987548800000007,-0.40936278999999964,0.5562744100000002
38.0,-0.0015025931982227505,-0.10738306975715928,0.003471348399548192,0.28999999999999954,-9.779999999999985,-0.5100000000000007,-0.0162320661475188,0.02846649679376006,-0.003056965869140687,252.1875,1.6875,92.9375,0.40557860999999945,-0.5987548800000007,-0.40936278999999964,0.5562744100000002
39.0,-0.0004311973435282487,-0.106091038600664,0.0004403888399726072,0.28999999999999954,-9.779999999999985,-0.5100000000000007,0.01632565427115375,-0.06141811636738797,-0.0019162000561584328,252.1875,1.6875,92.9375,0.40557860999999945,-0.5987548800000007,-0.40936278999999964,0.5562744100000002
40.0,0.001487461708715611,-0.10524761469597577,0.0011858882243897854,0.28999999999999954,-9.779999999999985,-0.5100000000000007,-0.0037842759405584576,-0.027730159841892414,0.0025173223989561136,252.1875,1.6875,92.9375,0.40557860999999945,-0.5987548800000007,-0.40936278999999964,0.5562744100000002
41.0,0.0009537824515061769,-0.10373806942999189,-0.0023552224166167967,0.28999999999999954,-9.779999999999985,-0.5100000000000007,0.0029273704782614776,-0.009495077163846677,-0.007242067462540929,252.1875,1.6875,92.9375,0.40557860999999945,-0.5987548800000007,-0.40936278999999964,0.5562744100000002
42.0,0.001623733457402812,-0.10427594258340223,-0.0011332663752018587,0.28999999999999954,-9.779999999999985,-0.5100000000000007,-0.009910434267793138,4.489518098388986e-05,0.002749283646461065,252.1875,1.6875,92.9375,0.40557860999999945,-0.5987548800000007,-0.40936278999999964,0.5562744100000002
43.0,0.0019721977640812186,-0.10438327241032752,-0.001855655039838182,0.28999999999999954,-9.779999999999985,-0.5100000000000007,-0.04325252300018169,0.0038860174396074493,0.012947059877340836,252.1875,1.6875,92.9375,0.40557860999999945,-0.5987548800000007,-0.40936278999999964,0.5562744100000002
44.0,0.0012219490533746517,-0.10408091896541427,-0.0008856438970903066,0.28999999999999954,-9.779999999999985,-0.5100000000000007,-0.012145531656457775,0.0119808203705186,0.013129955949935138,252.1875,1.6875,92.9375,0.40557860999999945,-0.5987548800000007,-0.40936278999999964,0.5562744100000002
45.0,0.0011924468178370364,-0.10522435802144439,-0.0006297926839029855,0.28999999999999954,-9.779999999999985,-0.5100000000000007,-0.006713299130052511,0.01633224129321944,0.00448386016804331,252.1875,1.6875,92.9375,0.40557860999999945,-0.5987548800000007,-0.40936278999999964,0.5562744100000002
46.0,0.0013145856917969301,-0.10378463558640459,0.00033894981189466105,0.28999999999999954,-9.779999999999985,-0.5100000000000007,-0.009606649565026255,0.002513205013855378,0.0004894486944434914,252.1875,1.6875,92.9375,0.40557860999999945,-0.5987548800000007,-0.40936278999999964,0.5562744100000002
47.0,0.001521249677597232,-0.10419122676953063,-0.00024511408928682614,0.28999999999999954,-9.779999999999985,-0.5100000000000007,-0.006991280196274993,0.007230400214596364,0.005675471915066087,252.1875,1.6875,92.9375,0.40557860999999945,-0.5987548800000007,-0.40936278999999964,0.5562744100000002
48.0,0.0014526123518059,-0.104116945330655,-0.000486760998857773,0.28999999999999954,-9.779999999999985,-0.5100000000000007,0.03754234117137343,0.012541448806569773,0.00449616467761629,252.1875,1.6875,92.9375,0.40557860999999945,-0.5987548800000007,-0.40936278999999964,0.5562744100000002
49.0,0.0016863676198353617,-0.10465831905549647,-0.0012111224349127575,0.28999999999999954,-9.779999999999985,-0.5100000000000007,0.053733408168892036,0.020143612268108235,-0.0040083180708180705,252.1875,1.6875,92.9375,0.40557860999999945,-0.5987548800000007,-0.40936278999999964,0.5562744100000002
50.0,0.001406059020035347,-0.10505780757065225,6.537450654906418e-05,0.28999999999999954,-9.779999999999985,-0.5100000000000007,0.039905005533257355,-0.001700286237674051,0.024072443862213633,252.1875,1.6875,92.9375,0.40557860999999945,-0.5987548800000007,-0.40936278999999964,0.5562744100000002
51.0,0.0013841603751203126,-0.10350771915678264,-0.0007669675609972176,0.28999999999999954,-9.779999999999985,-0.5100000000000007,0.03236047869526992,-0.0036094333497754417,0.016498052942837023,252.1875,1.6875,92.9375,0.40557860999999945,-0.5987548800000007,-0.40936278999999964,0.5562744100000002
52.0,9.940225617254743e-05,-0.10426025998801755,-0.0010964894128590796,0.28999999999999954,-9.779999999999985,-0.5100000000000007,-0.0013808845642953975,-0.01661366444754517,0.0075689829486330525,252.1875,1.6875,92.9375,0.40557860999999945,-0.5987548800000007,-0.40936278999999964,0.5562744100000002
53.0,0.0006929926213224856,-0.10298031859962789,-0.007361866584681363,0.28999999999999954,-9.779999999999985,-0.5119979188345479,-0.08518139002538391,0.01898509187872481,-0.013968418905496167,252.1875,1.6875,92.96039281997918,0.40550188808532756,-0.5988392243912593,-0.4094440859001036,0.5561743170967743
54.0,0.002539579437212112,-0.10363031903926802,-0.01127352014097592,0.28999999999999954,-9.779999999999985,-0.5213215400624355,0.010401027226762144,0.015006852701149006,-0.008780309018504908,252.1875,1.6875,93.01346253902184,0.40528823355879284,-0.5991120715504681,-0.4096554534339225,0.5558778448387098
55.0,0.003910426050709611,-0.1054021743085218,-0.011991882575454381,0.28999999999999954,-9.779999999999985,-0.5259833506763792,-0.004003617973034595,0.002973541130002497,-0.01791083214933696,252.1875,1.6875,93.03999739854318,0.40518140629552557,-0.5992484951300724,-0.40976113720083196,0.5557296087096775
56.0,0.0021714322899611667,-0.10759239477137497,-0.006924356958078344,0.28999999999999954,-9.779999999999985,-0.5295053229808695,0.1311151076989478,0.00257096862500576,-0.057231837234154155,252.1875,1.6875,93.07311594492916,0.40509988419739057,-0.5993598419670213,-0.409844028275354,0.55560411746402
57.0,0.005494305757402347,-0.10533327008669856,0.02467798010305036,0.2883822821376982,-9.780154068367823,-0.53931934420589,-0.21843617771949578,0.1225896395694841,0.05758182565049634,252.2216839191141,1.6875,93.13915486702405,0.4050933449706259,-0.5994245730778777,-0.4104125898406141,0.555110810077701
58.0,0.007963532875028528,-0.08464940421761627,0.04898494708157966,0.2859273839530996,-9.780077034183904,-0.5540469525093843,-0.13934907986176784,0.05426610429230158,-6.804230727310012e-05,252.30421245291566,1.6756404174573056,93.22783973687248,0.4052170018383152,-0.5994187899797483,-0.4113018151539789,0.554368486101469
59.0,-0.0032822383748776496,-0.09686910394353254,0.07071309163237566,0.29719145346237563,-9.780038517091944,-0.5712707880826495,-0.3064578507061302,0.32069083844587254,0.008825667544761825,252.59385231638942,1.73973247656834,93.3352969456601,0.40626578345581443,-0.599313733704439,-0.412547229986569,0.5527810932609005
60.0,-0.007046788786656813,-0.10364227435690801,0.07071578335284472,0.30391830737634906,-9.780019258545964,-0.5759579746864857,-0.17714754705394486,0.15192960788373783,0.022451079129174656,252.77777293238825,1.778132367316428,93.36119685992682,0.4070114789859716,-0.599014126448994,-0.4133014188642523,0.5520002100981924
61.0,-0.007501061887124933,-0.10682858134718849,0.06762588175086404,0.30728173433333583,-9.780009629272975,-0.5735869277898931,-0.06892426980488807,0.07742262031904013,0.028114497380964498,252.86973324038763,1.7973323126904721,93.34026034063338,0.4074693725599835,-0.5987473031575,-0.41359143442716306,0.5517555919126202
62.0,-0.009366656272254,-0.10717515138245687,0.06120225978954631,0.30901400149502606,-9.779999999999985,-0.5721497469955725,-0.06576861429209627,0.04684549963398397,0.00937894973859158,252.91464514691503,1.8069322853774938,93.32824584195848,0.4076972499150424,-0.5986136084588661,-0.4137199698327435,0.5516467378749432
63.0,-0.009605054891345218,-0.10729488119407474,0.059865835777126085,0.30993157380254144,-9.779999999999985,-0.5711223118279571,-0.016236418151740734,0.020087242226859158,0.010648915096999775,252.9350562072336,1.8121028836754642,93.32047669232648,0.40780729706378327,-0.5985478708874032,-0.41376525362842087,0.5516078982994266
64.0,-0.009262562034739458,-0.10715586228287842,0.0589872828784119,0.30999999999999994,-9.779999999999985,-0.5702923387096777,0.015605614143920594,-0.007572600031017371,0.011004865849875931,252.93749999999997,1.8125,93.31457913306451,0.4078316495362906,-0.5985179694808478,-0.41376270373991886,0.551626726376009
65.0,-0.009948821339950377,-0.10728256823821342,0.05936259305210917,0.30999999999999994,-9.779999999999985,-0.5700000000000002,0.007046758684863522,-0.009062887717121588,0.012007599255583127,252.93749999999997,1.8125,93.3125,0.40783691000000033,-0.598510740000001,-0.4137573199999995,0.5516357400000009
66.0,-0.010656792803970229,-0.10880257444168734,0.056899658808932996,0.30999999999999994,-9.779999999999985,-0.5700000000000002,-0.009317811724565757,0.012559126861042182,0.005018998138957816,252.93749999999997,1.8125,93.3125,0.40783691000000033,-0.598510740000001,-0.4137573199999995,0.5516357400000009
67.0,-0.010318470843672461,-0.10944347084367245,0.054780530960974495,0.3099999999999999,-9.779999999999985,-0.5700000000000002,0.007349985783705541,0.009817423419993983,0.002571533808933002,252.93749999999997,1.8125,93.3125,0.40783691000000033,-0.598510740000001,-0.41375731999999943,0.5516357400000009
68.0,-0.010010545905707201,-0.1090589330024814,0.05805306789984209,0.3099999999999999,-9.779999999999985,-0.5700000000000002,0.0026826793837882545,0.014595581669674411,0.005160514888337469,252.93749999999997,1.8125,93.3125,0.40783691000000033,-0.598510740000001,-0.4137573199999995,0.5516357400000009
69.0,-0.01010208653353815,-0.10933083717357912,0.05601018828841409,0.30999999999999994,-9.779999999999985,-0.5700000000000002,0.0008295530913978494,0.00704940570741982,0.0008580549155145932,252.93749999999997,1.8125,93.3125,0.40783691000000033,-0.598510740000001,-0.4137573199999995,0.5516357400000009
70.0,-0.01012160778289811,-0.10986703149001537,0.05784380382162639,0.30999999999999994,-9.779999999999985,-0.5700000000000002,-0.006594422043010753,0.006722157490806685,0.013817384312596007,252.93749999999997,1.8125,93.3125,0.40783691000000033,-0.598510740000001,-0.4137573199999995,0.5516357400000009
71.0,-0.008476615230647494,-0.10953746857980728,0.05853837918354046,0.3099999999999999,-9.779999999999985,-0.5700000000000002,0.003923432917888563,-0.012814729233580041,0.00496940895126379,252.93749999999997,1.8125,93.3125,0.40783691000000033,-0.598510740000001,-0.41375731999999943,0.5516357400000009
72.0,-0.008512501163710846,-0.10823647622538751,0.05946713680584647,0.3099999999999999,-9.779999999999985,-0.5700000000000002,0.024307146566471163,-0.017114231674463527,0.003996801249825443,252.93749999999997,1.8125,93.3125,0.40783691000000033,-0.598510740000001,-0.4137573199999995,0.5516357400000009
73.0,-0.008166471745100781,-0.10953192640692638,0.059165997532933,0.3099999999999999,-9.779999999999985,-0.5700000000000002,-0.002004673753665689,0.0067838887143322636,0.008226253752967462,252.93749999999997,1.8125,93.3125,0.40783691000000033,-0.598510740000001,-0.41375731999999943,0.5516357400000009
74.0,-0.008921866775697425,-0.10985304816151589,0.055707501503872464,0.3099999999999999,-9.779999999999985,-0.5700000000000002,0.02480411473607038,0.006385612875028198,0.012597854514437175,252.93749999999997,1.8125,93.3125,0.40783691000000033,-0.598510740000001,-0.41375731999999943,0.5516357400000009
75.0,-0.010207632789513647,-0.11108693641166323,0.05561113238565111,0.30999999999999994,-9.779999999999985,-0.5700000000000002,0.028751603739002932,0.001537426299636888,0.005873650039476652,252.93749999999997,1.8125,93.3125,0.40783691000000033,-0.598510740000001,-0.41375731999999954,0.5516357400000009
76.0,-0.010232096716585534,-0.11111151843517217,0.05440583688987044,0.30999999999999994,-9.779999999999985,-0.5700000000000002,0.021109860821302354,-0.002216473706336154,-0.000972303486164373,252.93749999999997,1.8125,93.3125,0.40783691000000033,-0.598510740000001,-0.4137573199999995,0.5516357400000009
77.0,-0.00990051641040195,-0.11044483334909971,0.05219791689406673,0.30999999999999994,-9.779999999999985,-0.5700000000000002,-0.004049646589969171,0.0031927576412487963,0.0014517068952552823,252.93749999999997,1.8125,93.3125,0.40783691000000033,-0.598510740000001,-0.4137573199999995,0.5516357400000009
78.0,-0.0110328584007044,-0.10779084287200831,0.0523257424157528,0.30999999999999994,-9.779999999999985,-0.5700000000000002,0.011018920595533497,-0.007964960377811574,0.010103908188585609,252.93749999999997,1.8125,93.3125,0.40783691000000033,-0.598510740000001,-0.4137573199999995,0.5516357400000009
79.0,-0.011871267910029622,-0.10849591771391978,0.05120505483070517,0.30999999999999994,-9.779999999999985,-0.5700000000000002,0.009169509925558313,-0.0045718102137196825,-0.0021595843672456575,252.93749999999997,1.8125,93.3125,0.40783691000000033,-0.598510740000001,-0.4137573199999995,0.5516357400000009
80.0,-0.012182692307692315,-0.1096879652605459,0.053925868486352335,0.30999999999999994,-9.779999999999985,-0.5700000000000002,0.044279233870967744,-0.011170130272952853,-0.0025686259305210918,252.93749999999997,1.8125,93.3125,0.40783691000000033,-0.598510740000001,-0.4137573199999995,0.5516357400000009
81.0,-0.01213725186104219,-0.11031048387096776,0.0538438275434243,0.30999999999999994,-9.779999999999985,-0.5700000000000002,0.002769269540942927,-0.006988601116625311,-0.006704598325062035,252.93749999999997,1.8125,93.3125,0.40783691000000033,-0.598510740000001,-0.4137573199999995,0.5516357400000009
82.0,-0.010995424937965266,-0.11072472084367248,0.05457824131513646,0.30999999999999994,-9.779999999999985,-0.5700000000000002,0.029036619882133997,0.006966307382133994,-0.011982882289081885,252.93749999999997,1.8125,93.3125,0.40783691000000033,-0.598510740000001,-0.4137573199999995,0.5516357400000009
83.0,-0.010386749003684491,-0.11028156252349802,0.05287188886382433,0.3099999999999999,-9.779999999999985,-0.5700000000000002,0.03514115253026543,0.0032779132829536053,-0.021442225449281902,252.93749999999997,1.8125,93.3125,0.40783691000000033,-0.598510740000001,-0.41375731999999943,0.5516357400000009
84.0,-0.012117396716187046,-0.10982548723677757,0.05438277179809436,0.3099999999999999,-9.779999999999985,-0.5700000000000002,0.04303263660622532,-0.018826845477551122,-0.013064154987038053,252.93749999999997,1.8125,93.3125,0.40783691000000033,-0.598510740000001,-0.4137573199999995,0.5516357400000009
85.0,-0.010696415479681613,-0.10876882302285529,0.056520170018153876,0.30999999999999994,-9.779999999999985,-0.5700000000000002,0.011187534184005959,0.002458475524251734,-0.009509744987315553,252.93749999999997,1.8125,93.3125,0.40783691000000033,-0.598510740000001,-0.4137573199999995,0.5516357400000009
86.0,-0.01094105659125821,-0.10882188096401806,0.05953391198854907,0.3099999999999999,-9.779999999999985,-0.5700000000000002,-0.005049141326863103,-0.0754586020778057,-0.0265757463023088,252.93749999999997,1.8125,93.3125,0.40783691000000033,-0.598510740000001,-0.41375731999999943,0.5516357400000009
87.0,-0.008860145231112976,-0.10794168644975094,0.06347411325233905,0.3099999999999999,-9.779999999999985,-0.5700000000000002,0.01325793941721361,-0.009834265756644787,-0.023100751175347947,252.93749999999997,1.8125,93.3125,0.40786004612903226,-0.5984876076612907,-0.4137804561290322,0.5516126076612908
88.0,-0.01110001020484892,-0.10826109061189707,0.058543809013567066,0.30999999999999994,-9.779999999999985,-0.5700000000000002,0.005475922487011196,0.058125436111827244,0.011751893379917576,252.93749999999997,1.8125,93.3125,0.407879982580645,-0.5984676744758065,-0.41380039258064527,0.5515926744758067
89.0,-0.01119237348672833,-0.10859337638168284,0.06027944535303405,0.3099999999999999,-9.779999999999985,-0.5700000000000002,0.02539832059741334,0.009174899780998572,0.02404001828144973,252.93749999999997,1.8125,93.3125,0.4078899508064514,-0.5984577078830644,-0.4138103608064518,0.5515827078830646
90.0,-0.012187953132542107,-0.1090822305945875,0.058414225147901,0.30999999999999994,-9.779999999999985,-0.5700000000000002,0.014023261170194704,0.01307012987879273,0.015236263368092192,252.93749999999997,1.8125,93.3125,0.4078949349193546,-0.5984527245866934,-0.41381534491935507,0.5515777245866937
91.0,-0.012122813320914264,-0.10883241539504547,0.055864004069551665,0.30999999999999994,-9.779999999999985,-0.5700000000000002,0.016435506440424817,0.0033886817526905966,0.0037691580770079745,252.93749999999997,1.8125,93.3125,0.40789742697580617,-0.5984502329385079,-0.4138178369758067,0.5515752329385082
92.0,-0.012988642730838367,-0.10899236238960489,0.051875290768891164,0.3099999999999999,-9.779999999999985,-0.5700000000000002,0.024804519318697257,-0.009940403747310615,0.01295228737183732,252.93749999999997,1.8125,93.3125,0.40789794999999973,-0.5984497099999997,-0.4138183600000003,0.5515747100000001
93.0,-0.01160350250685839,-0.11040561047519945,0.055074121811244575,0.3099999999999999,-9.779999999999985,-0.5700000000000002,0.01897018769905086,0.009189227406741714,0.002738550633809478,252.93749999999997,1.8125,93.3125,0.40789794999999973,-0.5984497099999998,-0.4138183600000003,0.5515747100000001
94.0,-0.012447250915057894,-0.10902884478944576,0.05520500586388982,0.30999999999999994,-9.779999999999985,-0.5700000000000002,0.021158903910432264,-0.004193171092478455,-0.01358791131366899,252.93749999999997,1.8125,93.3125,0.40789794999999973,-0.5984497099999998,-0.4138183600000003,0.5515747100000001
95.0,-0.011333006711030911,-0.11166614736070384,0.05670427992706216,0.30999999999999994,-9.779999999999985,-0.5700000000000002,-0.0013637362301676809,-0.010809714898676593,0.0010489363626964426,252.93749999999997,1.8125,93.3125,0.40789794999999973,-0.5984497099999998,-0.4138183600000003,0.5515747100000001
96.0,-0.012569225129709006,-0.10996865835777128,0.05410062786675688,0.30999999999999994,-9.779999999999985,-0.5700000000000002,-0.027175063679599966,-0.0032154673283705543,-0.0018539340363937138,252.93749999999997,1.8125,93.3125,0.40789794999999973,-0.5984497099999998,-0.4138183600000003,0.5515747100000001
97.0,-0.011781792803970226,-0.109046138337469,0.052312965260545886,0.30999999999999994,-9.779999999999985,-0.5700000000000002,0.005232727202233249,0.0012096774193548383,-0.019128993486352358,252.93749999999997,1.8125,93.3125,0.40789794999999973,-0.5984497099999998,-0.4138183600000003,0.5515747100000001
98.0,-0.012473945409429286,-0.10965415632754343,0.04864330024813894,0.30999999999999994,-9.779999999999985,-0.5700000000000002,0.0029078784119106697,-0.0033731389578163773,-0.010958824441687345,252.93749999999997,1.8125,93.3125,0.40789794999999973,-0.5984497099999998,-0.4138183600000003,0.5515747100000001
99.0,-0.012331816928591127,-0.1100281494938753,0.04489028220883058,0.30999999999999994,-9.779999999999985,-0.5700000000000002,0.04766120416322029,0.0016802921540824763,-0.007077791440190634,252.93749999999997,1.8125,93.3125,0.40789794999999973,-0.5984497099999998,-0.4138183600000003,0.5515747100000001
100.0,-0.012113799283154127,-0.1091530325633148,0.043899235397219266,0.30999999999999994,-9.779999999999985,-0.5700000000000002,0.04802415046870692,0.02442885575446059,0.0026645782253141128,252.93749999999997,1.8125,93.3125,0.40789794999999973,-0.5984497099999998,-0.4138183600000003,0.5515747100000001
101.0,-0.011778429455848815,-0.11022984900404252,0.04543859008375136,0.3099999999999999,-9.779999999999985,-0.5700000000000002,0.02727492042008171,-0.001045057093444192,0.011186215218473284,252.93749999999997,1.8125,93.3125,0.40789794999999973,-0.5984497099999997,-0.4138183600000003,0.5515747100000001
102.0,-0.009258941775070811,-0.11135437859631404,0.046905399260237964,0.3099999999999999,-9.779999999999985,-0.5700000000000002,0.023617298919718276,-0.0031202332613622943,0.012199807361097683,252.93749999999997,1.8125,93.3125,0.40789794999999973,-0.5984497099999997,-0.4138183600000003,0.5515747100000001
103.0,-0.010532696693987018,-0.1112280577845094,0.04979761278148373,0.30999999999999994,-9.779999999999985,-0.5700000000000002,0.009311751196831843,0.002518667488425552,0.014583154300896238,252.93749999999997,1.8125,93.3125,0.40789794999999973,-0.5984497099999998,-0.4138183600000003,0.5515747100000001
104.0,-0.00944849236784721,-0.11201653319798482,0.050190897811865545,0.3099999999999999,-9.779999999999985,-0.5700000000000002,-0.0007102860177456952,0.005073396026016993,-0.0043746240318820965,252.93749999999997,1.8125,93.3125,0.40789794999999973,-0.5984497099999997,-0.4138183600000003,0.5515747100000001
105.0,-0.010759497670787998,-0.1113607814676363,0.0509394758467339,0.3099999999999999,-9.779999999999985,-0.5700000000000002,0.014261423220596606,0.006416084755298465,0.0032434355519032933,252.93749999999997,1.8125,93.3125,0.40789794999999973,-0.5984497099999997,-0.4138183600000003,0.5515747100000001
106.0,-0.013550395393137335,-0.11041506466204046,0.04838611366232332,0.30999999999999994,-9.779999999999985,-0.5714746543778804,0.011150605247127424,0.007204661797655749,-0.00021985463013688843,252.93749999999997,1.8125,93.32837301587301,0.40786394766513023,-0.598490711863799,-0.41384636147465464,0.5515352069585255
107.0,-0.012685815976138562,-0.11071713949133304,0.04624660644015481,0.3099999999999999,-9.779999999999985,-0.5707373271889403,0.008665841327131649,0.018832601090665608,-0.009585351924061602,252.93749999999997,1.8125,93.3204365079365,0.407880948832565,-0.5984702109318993,-0.41383236073732743,0.5515549584792627
108.0,-0.012742411710153653,-0.11192928934864418,0.04196945706623126,0.3099999999999999,-9.779999999999985,-0.5703686635944702,0.009373243244210986,0.02219545687287623,-0.014981881917365788,252.93749999999997,1.8125,93.31646825396825,0.40788944941628236,-0.5984599604659495,-0.41382536036866385,0.5515648342396315
109.0,-0.013525700106345274,-0.1110845068909585,0.04229320500288242,0.30999999999999994,-9.779999999999985,-0.5701843317972353,0.007368975110910595,0.011999604338314014,-0.003028109882948593,252.93749999999997,1.8125,93.31448412698413,0.40789369970814104,-0.5984548352329746,-0.41382186018433204,0.5515697721198158
110.0,-0.012761825987632446,-0.11140546192159095,0.040009417106191304,0.30999999999999994,-9.779999999999985,-0.5700921658986178,0.026033240952595793,-0.001588375781924169,-0.0011937882905624841,252.93749999999997,1.8125,93.31349206349205,0.4078958248540704,-0.5984522726164873,-0.4138201100921661,0.551572241059908
111.0,-0.013216550474614995,-0.11127492758137919,0.04063578894224056,0.30999999999999994,-9.779999999999985,-0.5700000000000002,-0.01634525868396836,0.014214772682514618,0.000963205701108927,252.93749999999997,1.8125,93.3125,0.40789794999999973,-0.5984497099999998,-0.4138183600000003,0.5515747100000001
112.0,-0.01264642167867975,-0.11062035724132499,0.04049524400330853,0.30999999999999994,-9.779999999999985,-0.5700000000000002,0.008105503367600143,0.019946753515301903,0.004356032632242309,252.93749999999997,1.8125,93.3125,0.40789794999999973,-0.5984497099999998,-0.4138183600000003,0.5515747100000001
113.0,-0.012707826223955263,-0.11105459549411165,0.03781586021505378,0.30999999999999994,-9.779999999999985,-0.5700000000000002,-0.03481201258419,0.026443600082712987,-0.0034671449742014263,252.93749999999997,1.8125,93.3125,0.40789794999999973,-0.5984497099999998,-0.4138183600000003,0.5515747100000001
114.0,-0.014415403592822954,-0.11044397605083092,0.03440436915235304,0.3099999999999999,-9.779999999999985,-0.5700000000000002,0.0025530892718392748,-0.003916751371388466,-0.028743301109732562,252.93749999999997,1.8125,93.31494379276637,0.407895085953079,-0.5984525735777126,-0.4138183600000003,0.5515747100000001
115.0,-0.01567180169235321,-0.11011144612194952,0.035650275507097845,0.30999999999999994,-9.779999999999985,-0.5700000000000002,-0.03689783301556519,0.011801830029506279,0.0033027471078248254,252.93749999999997,1.8125,93.34597996089931,0.4078650134604106,-0.5984826411436955,-0.4138183600000003,0.5515696286264309
116.0,-0.014065739555854023,-0.11116711419000702,0.040221811140645686,0.30999999999999994,-9.779999999999985,-0.5658064516129031,0.04950093228253998,-0.02531758296911783,0.03235008827165435,252.93749999999997,1.8125,93.33377627077223,0.4079287342302051,-0.5983667471847509,-0.41374009524193545,0.5516730735874089
117.0,-0.012703399964586234,-0.11089636256909932,0.04057243328991508,0.3099999999999999,-9.779999999999985,-0.562741935483871,0.045743809715258724,-0.024316264835580654,-0.003976063716893581,252.93749999999997,1.8125,93.32313813538612,0.40797634598607,-0.5982822208504399,-0.41368471923387073,0.5517498995356396
118.0,-0.012656910900407263,-0.11137622098678293,0.03893385932485829,0.3099999999999999,-9.779999999999985,-0.5612096774193547,0.041947587239763356,-0.015166817281313898,0.014575243575796384,252.93749999999997,1.8125,93.31781906769305,0.40800015186400257,-0.5982399576832844,-0.41365703122983843,0.5517883125097551
119.0,-0.012342366270566068,-0.1102141274871504,0.04119431518013725,0.30999999999999994,-9.779999999999985,-0.5604435483870966,0.039702410433175905,-0.038810615573509046,0.0021723405637459996,252.93749999999997,1.8125,93.31508316532258,0.4080121443044351,-0.5982187366129033,-0.4136431872278223,0.5518075189968128
120.0,-0.013251560267689306,-0.1102660679374389,0.04385284137905106,0.3099999999999999,-9.779999999999985,-0.5600604838709676,0.04057220291469284,-0.023249354392247536,0.006398463347808105,252.93749999999997,1.8125,93.31278351814515,0.40801903553931407,-0.5982072312096773,-0.4136362652268142,0.5518172810332658
121.0,-0.012714489811264012,-0.10937194525904202,0.04306049327017069,0.3099999999999999,-9.779999999999985,-0.5599999999999998,0.045408959320249645,-0.022256607639672157,-0.0012898056244830436,252.93749999999997,1.8125,93.3125,0.4080200199999996,-0.59820557,-0.4136352499999997,0.5518188499999996
122.0,-0.0126460546621837,-0.11065930037704232,0.0420071353377805,0.30999999999999994,-9.779999999999985,-0.5599999999999998,-0.003057169085394891,-2.4320437626889138e-05,0.0020294501645308095,252.93749999999997,1.8125,93.3125,0.4080200199999996,-0.59820557,-0.4136352499999997,0.5518188499999996
123.0,-0.012766669710218104,-0.11006526940801135,0.03815478204591108,0.3099999999999999,-9.779999999999985,-0.5599999999999998,-0.003553172857608342,0.00593048584480036,-0.0063396812640764254,252.93749999999997,1.8125,93.3125,0.4080200199999996,-0.59820557,-0.4136352499999997,0.5518188499999996
124.0,-0.012834421402969795,-0.11059493262114231,0.03902776323139227,0.30999999999999983,-9.779999999999985,-0.5599999999999998,-0.0009151494786575434,-0.00435109665200391,-0.007871321946422753,252.93749999999997,1.8125,93.3125,0.4080200199999996,-0.59820557,-0.4136352499999997,0.5518188499999995
125.0,-0.013203623213703865,-0.10996999807987712,0.038042718370339346,0.3099999999999999,-9.779999999999985,-0.5599999999999998,-0.03735884551156728,-0.0005565356182795698,0.022594764246729973,252.93749999999997,1.8125,93.3125,0.4080200199999996,-0.59820557,-0.4136352499999997,0.5518188499999996
126.0,-0.014469755155239034,-0.11024961597542243,0.03696742773355677,0.3099999999999999,-9.779999999999985,-0.5599999999999998,-0.011465461062235255,8.400537634408616e-05,0.005863284341106922,252.93749999999997,1.8125,93.3125,0.4080200199999996,-0.59820557,-0.4136352499999997,0.5518188499999996
127.0,-0.013288734115347027,-0.10985948191593353,0.03878115835777126,0.3099999999999999,-9.779999999999985,-0.5599999999999998,-0.03329667644183773,0.013879979227761486,-0.0010424303519061583,252.93749999999997,1.8125,93.3125,0.4080200199999996,-0.59820557,-0.4136352499999997,0.5518188499999996
128.0,-0.012726967253176938,-0.1102596529814272,0.04165841886608016,0.3099999999999999,-9.779999999999985,-0.5599999999999998,-0.07507025904203324,0.031958318059628545,0.005741003787878788,252.93749999999997,1.8125,93.3125,0.4080200199999996,-0.59820557,-0.4136352499999997,0.5518188499999996
129.0,-0.014381567693059639,-0.1097901392961877,0.04244211265884654,0.30999999999999994,-9.779999999999985,-0.5599999999999998,0.00022146871945259022,-0.0039224783113391976,0.016632109909579668,252.93749999999997,1.8125,93.3125,0.4080200199999996,-0.59820557,-0.4136352499999997,0.5518188499999996
130.0,-0.014166055718475082,-0.10841932429130009,0.044782960654936456,0.3099999999999999,-9.779999999999985,-0.5599999999999998,-0.010485398338220916,-0.011783663245356794,0.024099042338709676,252.93749999999997,1.8125,93.3125,0.4080200199999996,-0.59820557,-0.4136352499999997,0.5518188499999996
131.0,-0.012786346717798339,-0.10848746146326793,0.04571006748627715,0.3099999999999999,-9.779999999999985,-0.5599999999999998,0.02279312589292428,-0.0004327745507180991,0.008252558933002481,252.93749999999997,1.8125,93.3125,0.4080200199999996,-0.59820557,-0.4136352499999997,0.5518188499999996
132.0,-0.014262186066621557,-0.10868654598090083,0.04550654889465372,0.30999999999999994,-9.779999999999985,-0.5636290322580646,0.002201792662982179,-0.015276260198135197,-0.0028079825080833147,252.93749999999997,1.8125,93.3125,0.4080027902419353,-0.5982498695161292,-0.41365346419354854,0.5517789799999999
133.0,-0.013268831303105503,-0.10816017181742989,0.04636069441311376,0.3099999999999999,-9.779999999999985,-0.566975806451613,0.01319194288574329,0.0023270076697496055,0.011114719034325888,252.93749999999997,1.8125,93.3125,0.40797990060483863,-0.5982907236290327,-0.41367586161290354,0.5517359111290323
134.0,-0.013337280998571328,-0.10799534739454093,0.04829123430333107,0.30999999999999983,-9.779999999999985,-0.5686491935483873,0.020566160989548086,-0.013846729547334386,0.016862287578013384,252.93749999999997,1.8125,93.3125,0.4079684557862903,-0.5983111506854843,-0.41368706032258107,0.5517143766935485
135.0,-0.012875573351379808,-0.10999695935784644,0.04697361173772463,0.3099999999999999,-9.779999999999985,-0.5694858870967744,0.008664537747199039,-0.024980173556282424,0.007911837826152342,252.93749999999997,1.8125,93.3125,0.40796273337701616,-0.5983213642137102,-0.4136926596774198,0.5517036094758065
136.0,-0.013055201518911203,-0.10892599302579141,0.04792074827054664,0.30999999999999983,-9.779999999999985,-0.5699042338709679,-0.01707958540115798,-0.018037026397661478,0.007990056818181818,252.93749999999997,1.8125,93.3125,0.40795987217237906,-0.5983264709778232,-0.4136954593548392,0.5516982258669356
137.0,-0.013439763734900958,-0.1092495350901706,0.049423670054868876,0.30999999999999983,-9.779999999999985,-0.5700000000000002,0.011033773440489857,-0.0008583155730483598,-0.018894712653740094,252.93749999999997,1.8125,93.3125,0.40795898,-0.5983276400000006,-0.41369629000000047,0.5516967800000001
138.0,-0.013112505372977215,-0.10894678423806975,0.04824958222647195,0.30999999999999983,-9.779999999999985,-0.5700000000000002,-0.0196177568619793,-0.009698181773290102,-0.01728864138589704,252.93749999999997,1.8125,93.3125,0.40795898,-0.5983276400000006,-0.41369629000000047,0.5516967800000001
139.0,-0.013435529323829763,-0.10845921812098991,0.048721565306784356,0.3099999999999999,-9.779999999999985,-0.5700000000000002,0.008870862526977115,-0.007384525881757466,0.0015737878114503046,252.93749999999997,1.8125,93.3125,0.40795898,-0.5983276400000006,-0.41369629000000047,0.5516967800000001
140.0,-0.012381874745379808,-0.10880882554293723,0.04747522734848203,0.3099999999999999,-9.779999999999985,-0.5700000000000002,0.01280636140861225,0.006656729464565286,0.004208203778647928,252.93749999999997,1.8125,93.3125,0.40795898,-0.5983276400000006,-0.41369629000000047,0.5516967800000001
141.0,-0.01144775446027252,-0.11051710444506543,0.045906899211364774,0.30999999999999983,-9.779999999999985,-0.5700000000000002,0.05037640475998083,-0.0027626519584572065,-0.0028327242439393375,252.93749999999997,1.8125,93.3125,0.40795898,-0.5983276400000006,-0.41369629000000047,0.5516967800000001
142.0,-0.014290319213766499,-0.11244319353211385,0.05471560656283212,0.3099999999999999,-9.779999999999985,-0.5722580645161288,-0.06361927234316797,-0.003134154578169383,-0.0017022311638570063,252.93749999999997,1.8125,93.32913306451613,0.4079072982258063,-0.5984098390322588,-0.41376027806451654,0.5516268846774195
143.0,-0.012735730326486228,-0.11108512033925791,0.06280693479506369,0.3099999999999999,-9.779999999999985,-0.5762903225806446,-0.07123271309466091,-0.014687424683625636,-0.002603596971506667,252.93749999999997,1.8125,93.3530745967742,0.40777563201612876,-0.5985892504838717,-0.4138857911290327,0.5514413162096774
144.0,-0.011072777186703527,-0.10987150994968761,0.06978850222157876,0.3099999999999999,-9.779999999999985,-0.5783064516129024,-0.049411375792198495,-0.021423204338391507,0.009120118516934839,252.93749999999997,1.8125,93.36504536290323,0.40770979891129,-0.5986789562096781,-0.4139485476612908,0.5513485319758062
145.0,-0.01107891058748666,-0.10970603845480469,0.07431018463962613,0.3099999999999999,-9.779999999999985,-0.5793145161290314,-0.005308082813010293,-0.022105785942411787,0.004957175583003098,252.93749999999997,1.8125,93.37103074596774,0.40767688235887056,-0.5987238090725813,-0.41397992592741983,0.5513021398588707
146.0,-0.012142729246559897,-0.10893221999774418,0.0778086792240018,0.30999999999999994,-9.779999999999985,-0.5798185483870959,0.02421764853090458,-0.013881491911985865,0.0001088838916459881,252.93749999999997,1.8125,93.3740234375,0.4076604240826609,-0.5987462355040329,-0.4139956150604843,0.5512789438004029
147.0,-0.010495752261700748,-0.10962916819579072,0.07778990172081165,0.3099999999999999,-9.779999999999985,-0.5830813673567644,-0.01594842289090303,-0.005930565632810457,0.013085462498302532,252.93749999999997,1.8125,93.39522147327878,0.407580932195474,-0.5988465662397691,-0.41407434065479043,0.551160448902263
148.0,-0.01705680913333177,-0.10974014241055044,0.07365425607132393,0.30904714640198516,-9.779999999999985,-0.5867019740009631,0.033976781110379745,-0.18120659795288166,0.01007871139803464,252.91566377171213,1.8060483870967743,93.4233241361431,0.4073828021250322,-0.5990343245491647,-0.414064075295137,0.5511054601211065
149.0,-0.0074873488481908106,-0.10973077501759196,0.0714092394726121,0.30436228287841216,-9.779999999999985,-0.5931090515166109,0.059739490261934744,-0.1919748776665679,-0.004369246451520313,252.5893843052109,1.777016129032258,93.4636781971038,0.40571875243348365,-0.6002053825971627,-0.4126634158733752,0.5521113922379725
150.0,-0.008964246694566871,-0.10971413905966447,0.08066297891744748,0.30201985111662566,-9.779999999999985,-0.5968771064034673,-0.0015137749527795313,-0.09613719457149734,-0.00021526257129365553,252.40860344292804,1.7625,93.48385522758417,0.4047961599264191,-0.6008662216211618,-0.4119148482592684,0.5526355243447926
151.0,-0.008875888855968302,-0.11036121810303322,0.0834257434909818,0.30084863523573235,-9.779999999999985,-0.5987611338468952,-0.013053335987556019,-0.05293687039368911,-0.006480489148550053,252.31821301178658,1.755241935483871,93.49394374282434,0.40433486367288685,-0.6011966411331613,-0.411540564452215,0.5528975903982026
152.0,-0.0069908498759305255,-0.10953815136476427,0.08588523573200993,0.30026302729528576,-9.779999999999985,-0.5973835297766754,0.011805986352357316,-0.02798736042183623,-0.04086732320099255,252.27301779621587,1.7516129032258063,93.48594913151365,0.40414526466982004,-0.6013032510638956,-0.41129444206048393,0.5531061824027603
153.0,-0.009064039119482671,-0.11227400086472669,0.06989532107677268,0.3000000000000004,-9.779999999999985,-0.5835255869802244,0.0715912028160012,-0.012809380639521768,-0.011255809882321976,252.2594114659702,1.75,93.4082637792315,0.4043981118772816,-0.6009372344217891,-0.41096464187970444,0.553570686070167
154.0,-0.006514775547033613,-0.10981261749003687,0.06464004812391907,0.3000000000000004,-9.779999999999985,-0.5711352733288217,-0.0012068576584705615,0.0236587337393789,-0.011698247988570568,252.25415444770283,1.75,93.3490488006617,0.40464837653989044,-0.6005535094802614,-0.4107779605630498,0.5539424711260992
155.0,-0.006556395217685543,-0.10926611023385219,0.06232746823069402,0.3000000000000004,-9.779999999999985,-0.5649224753740882,0.013966980600045116,0.01738923039326265,-0.009439384540190991,252.25207722385142,1.75,93.32775020678245,0.40476106536671963,-0.6003669310304529,-0.41070140092668617,0.5541200647565977
156.0,-0.006682664110083467,-0.10921494097300549,0.05751857282502443,0.3000000000000004,-9.779999999999985,-0.5618160763967215,-0.008788842206180914,0.012881960109782691,-0.005022111624934206,252.2510386119257,1.75,93.31710090984284,0.40481740978013425,-0.6002736418055488,-0.4106631211085042,0.554208861571847
157.0,-0.007185708189258983,-0.1087799455800178,0.05846174187712462,0.29822821376986053,-9.779999999999985,-0.5585605695860869,0.09279989577406225,-0.21209699076100433,-0.013384495685064415,252.17107780379627,1.7398892633606162,93.29386835981383,0.4044964380845044,-0.6004384375040485,-0.41021083788549917,0.5545998168928085
158.0,-0.004598192841903723,-0.11034402948600106,0.04844287936024816,0.29395281656234934,-9.779999999999985,-0.5487915262397683,0.07160273569062538,-0.13519142905972617,0.02378678253569172,252.01673086181992,1.712686567164179,93.20605869114836,0.4039801358848719,-0.6006371825761092,-0.40925860514456947,0.555476669585663
159.0,-0.0025657025746547895,-0.11021355922002889,0.04414952235014223,0.2918151179585938,-9.779999999999985,-0.5440731824747226,0.08248726483362903,-0.06536357167272022,-0.012997656304653327,251.9398170438132,1.6990852190659607,93.16276480500721,0.40371964305729413,-0.6007437143134704,-0.4087864706783455,0.5559077875738677
160.0,-0.0034772138803795044,-0.11155622129735937,0.04554847395422744,0.290746268656716,-9.779999999999985,-0.5417140105921996,0.028907685223886474,-0.028884823600007756,-0.011351350252202594,251.9013601348098,1.692284545016851,93.14085820895522,0.40358987394800183,-0.6007967415115743,-0.4085499261456246,0.5561235852385469
161.0,-0.0030793327466413652,-0.1100649050035184,0.04763310794485565,0.2902118440057771,-9.779999999999985,-0.5405344246509382,0.0008449716442013016,-0.011040194058068394,0.0024045920109954776,251.88213168030813,1.6888842079922965,93.12990491092921,0.4035249893933557,-0.6008232551106263,-0.40843165387926406,0.5562314840708864
162.0,-0.002809622277364213,-0.11145166213714605,0.04619269171688527,0.28999999999999954,-9.779999999999985,-0.5399999999999994,-0.011336356296033714,-0.002273560892512505,0.004650636102249005,251.875,1.6875,93.125,0.4035034199999999,-0.6008299588287849,-0.4083861088486356,0.5562745311712161
163.0,-0.0021616349600220566,-0.11140821320256808,0.04716334337705306,0.28999999999999954,-9.779999999999985,-0.5399999999999994,-0.01743926995943125,-0.00568082511126866,-0.004591555398007011,251.875,1.6875,93.125,0.4035034199999999,-0.6008300800000008,-0.4083862300000004,0.5562744100000002
164.0,-0.003338416511803608,-0.10976569017899662,0.04756226099169647,0.28999999999999954,-9.779999999999985,-0.5399999999999994,-0.019918897187042345,0.003417442492543299,-0.010798140032011001,251.875,1.6875,93.125,0.4035034199999999,-0.6008300800000008,-0.4083862300000004,0.5562744100000002
165.0,-0.0018430236877817522,-0.10934662861779798,0.047430584984012404,0.28999999999999954,-9.779999999999985,-0.5399999999999994,-0.0054909779960183175,0.004656848387947178,0.01933358979729947,251.875,1.6875,93.125,0.4035034199999999,-0.6008300800000008,-0.4083862300000004,0.5562744100000002
166.0,-0.0021050275888985564,-0.10985984624694302,0.04716123303220077,0.28999999999999954,-9.779999999999985,-0.5399999999999994,-0.014593247254537575,-0.010070619344812891,0.020679499711757775,251.875,1.6875,93.125,0.4035034199999999,-0.6008300800000008,-0.4083862300000004,0.5562744100000002
167.0,-0.0015648222744996938,-0.11044223160352193,0.045481242771565344,0.28999999999999954,-9.779999999999985,-0.5399999999999994,-0.00305438289309257,-0.02278930746672682,0.024139525349202766,251.875,1.6875,93.125,0.4035034199999999,-0.6008300800000008,-0.4083862300000004,0.5562744100000002
168.0,-0.0017253391769520802,-0.11052136394071879,0.04454955438826405,0.28999999999999954,-9.779999999999985,-0.5399999999999994,-0.02285938747632296,0.0023848127678772844,0.010743770118770117,251.875,1.6875,93.125,0.4035034199999999,-0.6008300800000008,-0.4083862300000004,0.5562744100000002
169.0,-0.0021627673401866943,-0.11141903974162043,0.04263401473078891,0.28999999999999954,-9.779999999999985,-0.5399999999999994,-0.022212929319784157,-0.010094861455748554,0.008182246740714482,251.875,1.6875,93.125,0.4035034199999999,-0.6008300800000008,-0.4083862300000004,0.5562744100000002
170.0,-0.0016211127582095321,-0.11072488085391316,0.041355642565319976,0.28999999999999954,-9.779999999999985,-0.5399999999999994,-0.03029605643012901,-0.010031022405014342,0.0008792814488379004,251.875,1.6875,93.125,0.4035034199999999,-0.6008300800000008,-0.4083862300000004,0.5562744100000002
171.0,-0.0018044119858635988,-0.11059553349875935,0.04096219640574479,0.28999999999999954,-9.779999999999985,-0.5399999999999994,-0.04404440065982404,-0.014557044937589293,-0.005371438876983232,251.875,1.6875,93.125,0.4035034199999999,-0.6008300800000008,-0.4083862300000004,0.5562744100000002
172.0,-0.005879633352253021,-0.10978091731369567,0.04383217480577002,0.28999999999999954,-9.779999999999985,-0.5403329864724242,0.0023074242598582484,0.005246491539049746,-0.005201128067323762,251.875,1.6875,93.13852757544225,0.4034693768782518,-0.6008427816857446,-0.40841570013527595,0.55625662735692
173.0,-0.003554736030965221,-0.11092876510846073,0.03774270030611082,0.291370967741935,-9.779999999999985,-0.5400858480749214,-0.023874639684587,0.030927807261460355,0.0055112051195639255,251.875,1.7137096774193548,93.162005723205,0.4034548945681583,-0.6008994341493239,-0.408437882003122,0.5561783985171693
174.0,-0.00236013622173872,-0.1106637044017377,0.03432054981092443,0.29068548387096727,-9.779999999999985,-0.5400429240374603,0.00893706157266251,0.020698011340896355,0.0241822238635454,251.875,1.7328629032258065,93.17576092611863,0.4034476527679503,-0.6009277609456296,-0.40847505987252886,0.5561319010327781
175.0,-0.0022919938195692623,-0.11033185220086883,0.03401022602960689,0.2903427419354834,-9.779999999999985,-0.5400214620187298,-0.02568176246880071,-0.011171644378427676,0.009143286907334774,251.875,1.742439516129032,93.18263852757543,0.4034440318678463,-0.6009419243437826,-0.40849364880723227,0.5561086522905823
176.0,-0.0009498883588373708,-0.10860190231060418,0.03273259341970322,0.2901713709677415,-9.779999999999985,-0.5400107310093646,0.031084883860719576,-0.013980205583597232,0.008838501147944437,251.875,1.747227822580645,93.18607732830384,0.4034422214177943,-0.6009490060428591,-0.40850294327458403,0.5560970279194846
177.0,-0.00103349696898084,-0.10947536882919948,0.029272043928293946,0.2900856854838705,-9.779999999999985,-0.5399949596774187,-0.0011026293095345533,-0.0009124493058464819,-0.0009747700775926587,251.875,1.7496219758064515,93.18737399193549,0.40344238004032285,-0.6009521499647177,-0.4085066695665325,0.5560917714415319
178.0,-0.0004965871941678394,-0.10930169651137392,0.028716163093179238,0.28999999999999954,-9.779999999999985,-0.5399999999999994,0.0037802125629746576,0.0193112904680445,-0.00023536890976407106,251.875,1.75,93.1875,0.4034423800000003,-0.6009521500000001,-0.40850830000000027,0.5560913099999996
179.0,-0.0024061626097916424,-0.11012738784512978,0.03151595055929735,0.28999999999999954,-9.779999999999985,-0.5399999999999994,-0.009840098997105046,0.012023069476446492,-0.003309888755957304,251.875,1.75,93.1875,0.4034423800000003,-0.6009521500000001,-0.40850830000000027,0.5560913099999996
180.0,-0.0022794615778486743,-0.10934905372405375,0.031806633778407985,0.28999999999999954,-9.779999999999985,-0.5399999999999994,-0.00048529259718775846,-0.00571811980582142,0.008861397898696288,251.875,1.75,93.1875,0.4034423800000003,-0.6009521500000001,-0.40850830000000027,0.5560913099999996
181.0,-0.002018300248138958,-0.10869091191067,0.03151039081885858,0.28999999999999954,-9.779999999999985,-0.5399999999999994,-0.008534623138957816,-0.025912104528535977,0.0033101349255583133,251.875,1.75,93.1875,0.4034423800000003,-0.6009521500000001,-0.40850830000000027,0.5560913099999996
182.0,-0.0019699205364527945,-0.10868509123045415,0.03130381882902046,0.28999999999999954,-9.779999999999985,-0.5399999999999994,-0.00018680426316515075,-0.015717829017980228,0.0171866460991965,251.875,1.75,93.1875,0.4034423800000003,-0.6009521500000001,-0.40850830000000027,0.5560913099999996
183.0,-0.0032788670782622396,-0.1078804920437985,0.032072360323368396,0.28999999999999954,-9.779999999999985,-0.5399999999999994,0.00030837358206309783,-0.018745361241581,0.0065294409611445885,251.875,1.75,93.1875,0.4034423800000003,-0.6009521500000001,-0.40850830000000027,0.5560913099999996
184.0,-0.0024448383158060575,-0.1077340580566387,0.03192098940486039,0.28999999999999954,-9.779999999999985,-0.5399999999999994,-0.00892857142857143,-0.002999822757887274,0.005328587183425893,251.875,1.75,93.1875,0.4034423800000003,-0.6009521500000001,-0.40850830000000027,0.5560913099999996
185.0,-0.0021405333018236243,-0.1082541258025129,0.032355035645358236,0.28999999999999954,-9.779999999999985,-0.543414392059553,0.03959588798298476,0.014768699042892592,0.010775335775335775,251.875,1.75,93.1875,0.4034011852803974,-0.6009933447196032,-0.4085291414491315,0.5560496304367244
186.0,-0.0005591003978100754,-0.10827222419157903,0.03567379573831187,0.28999999999999954,-9.779999999999985,-0.5418684863523568,0.031103775257001063,0.027770515774548032,0.009450943321911064,251.875,1.75,93.1875,0.40342079828536015,-0.6009737317146403,-0.4085197052406949,0.556069485702233
187.0,-0.0006458505652054036,-0.11003004253810705,0.036553546811611326,0.28999999999999954,-9.779999999999985,-0.5409342431761781,0.05216444621686557,0.0005657592855173484,-0.009154062783095041,251.875,1.75,93.1875,0.40343158914268024,-0.6009629408573203,-0.4085140026203476,0.5560803978511163
188.0,-0.0009770471464019847,-0.10925465260545905,0.036700992555831265,0.28999999999999954,-9.779999999999985,-0.5404671215880887,0.0033847704714640194,-0.005445486972704715,0.006071650124069478,251.875,1.75,93.1875,0.40343698457134025,-0.6009575454286602,-0.4085111513101739,0.556085853925558
189.0,-0.0017099275594332829,-0.10966454714640197,0.036817077563435524,0.28999999999999954,-9.779999999999985,-0.540233560794044,0.0030276329744657006,-0.0008431909369246782,-0.004830580124869928,251.875,1.75,93.1875,0.4034396822856703,-0.6009548477143302,-0.4085097256550871,0.5560885819627788
190.0,-0.0013090580725206116,-0.11009406017369727,0.03755742215640759,0.28999999999999954,-9.779999999999985,-0.5400100806451607,-0.007930972594653005,-0.003942066932482191,0.011937997778756104,251.875,1.75,93.1875,0.40344231847782286,-0.6009522115221775,-0.40850836153225834,0.5560912484677415
191.0,-0.0013842902025134073,-0.10943951612903223,0.03435222224445691,0.28999999999999954,-9.779999999999985,-0.5399999999999994,0.07211479053269831,0.007836513447530618,-0.0020974558252621475,251.875,1.75,93.1875,0.4034670989280398,-0.600904170009926,-0.40848358512158817,0.5561392897518607
192.0,-0.00011522202433362691,-0.1085634305210918,0.03665626000560315,0.28999999999999954,-9.779999999999985,-0.5399999999999994,0.030877494521932284,0.0073611847634675424,0.01247484528836148,251.875,1.75,93.1875,0.4034862439801489,-0.6008769683920597,-0.4084644432059553,0.5561664895533496
193.0,0.0005385471419550502,-0.10922499163023355,0.035431744634137986,0.28999999999999954,-9.779999999999985,-0.5399999999999994,0.014099411543480222,0.0013094406280215335,0.006930717015020474,251.875,1.75,93.1875,0.40349581650620336,-0.6008830546799004,-0.4084548722481389,0.5561603991315134
194.0,0.0010341018748276814,-0.10880604420221354,0.038332417582417594,0.28999999999999954,-9.779999999999985,-0.5399999999999994,0.03473896175509079,-0.0034425741709007834,0.009253599922702745,251.875,1.7459677419354838,93.1875,0.4034966647047146,-0.6008860978238209,-0.4084500867692307,0.5561612919851119
195.0,-2.365936035290863e-05,-0.1099512928827445,0.04014930432470755,0.28999999999999954,-9.779999999999985,-0.5399999999999994,0.03896144737878608,-0.016515118506045926,-0.008733205078971209,251.875,1.715725806451613,93.1875,0.40346952235235745,-0.6008876193957811,-0.40844769402977665,0.5561893048635236
196.0,-0.0005629738764819409,-0.10909431988262634,0.04111478765410217,0.28999999999999954,-9.779999999999985,-0.5399999999999994,0.008899861898853834,-0.029576585209145696,-0.004118463581669227,251.875,1.7006048387096775,93.1875,0.4034551787096776,-0.600889879556451,-0.4084472699999999,0.5562018119354837
197.0,-0.0007755548662806725,-0.10934422879987396,0.04065443942258458,0.28999999999999954,-9.779999999999985,-0.5399999999999994,-0.03214862674288077,-0.0099200194966324,0.0069605223965103005,251.875,1.6930443548387095,93.1875,0.40344779483870996,-0.6008911099999994,-0.4084472699999999,0.5562079651612901
198.0,-0.0004056985800937412,-0.10857985540445217,0.036118310341092606,0.28999999999999954,-9.779999999999985,-0.5399999999999994,-0.007212655316233947,0.002451373671131735,0.005403293363222799,251.875,1.689264112903226,93.1875,0.4034441029032261,-0.6008911099999994,-0.4084472699999999,0.5562116570967739
199.0,-0.000641763832190471,-0.10923188269702316,0.03512788240779917,0.28999999999999954,-9.779999999999985,-0.5399999999999994,-0.002911759012175246,-0.004891801457878461,0.004609551045555208,251.875,1.6875,93.1875,0.4034423800000003,-0.6008911099999994,-0.4084472699999999,0.5562133799999996
200.0,-0.0005492879186947866,-0.11000819783754229,0.03507640723249465,0.28999999999999954,-9.779999999999985,-0.5399999999999994,0.0035096075158510113,0.003139687517939339,-0.011628916233494796,251.875,1.6875,93.1875,0.40344238000000027,-0.6008911099999994,-0.4084472699999999,0.5562133799999996
201.0,-0.0009713630109051544,-0.10900000265661038,0.03385743635483491,0.28999999999999954,-9.779999999999985,-0.5399999999999994,-0.009403571916579201,0.009173776564515379,-0.013258626851238714,251.875,1.6875,93.1875,0.4034423800000003,-0.6008911099999994,-0.4084472699999999,0.5562133799999998
202.0,-0.0009472199669910388,-0.10887220976502973,0.03351184472828595,0.28999999999999954,-9.779999999999985,-0.5399999999999994,0.0143118616843903,0.010883414336848259,-0.0009686434504332523,251.875,1.6875,93.1875,0.4034423800000003,-0.6008911099999994,-0.4084472699999999,0.5562133799999998
203.0,-0.0013607067576890677,-0.1084219308844699,0.03390645999855159,0.28999999999999954,-9.779999999999985,-0.5399999999999994,0.00839310093017169,-0.011924495177616925,0.006511035068527264,251.875,1.6875,93.1875,0.4034423800000003,-0.6008911099999994,-0.4084472699999999,0.5562133799999998
204.0,-0.0012231773602741345,-0.10953118476505572,0.03259763086375991,0.28999999999999954,-9.779999999999985,-0.5399999999999994,0.007621718559218559,-0.014203862893379023,0.005175592776399228,251.875,1.6875,93.1875,0.4034423800000003,-0.6008911099999994,-0.4084472699999999,0.5562133799999998
205.0,-0.0014103598014888336,-0.10975279156327544,0.030891749379652625,0.28999999999999954,-9.779999999999985,-0.5399999999999994,-0.007453861662531018,0.016931606699751862,0.001019696029776675,251.875,1.6875,93.1875,0.4034423800000003,-0.6008911099999994,-0.4084472699999999,0.5562133799999998
206.0,-0.0020147932842391743,-0.1116568328263828,0.028983535780036835,0.28999999999999954,-9.779999999999985,-0.5399999999999994,0.01640084072080365,-7.598004882734301e-05,0.009587431461618506,251.875,1.6875,93.1875,0.40344238000000027,-0.6008911099999994,-0.4084472699999999,0.5562133799999996
207.0,-0.0013150889498118952,-0.11133213849755863,0.0293565321580085,0.28999999999999954,-9.779999999999985,-0.5399999999999994,0.021755010931121428,-0.008808151314736251,0.0030955147382534212,251.875,1.6875,93.1875,0.40344238000000027,-0.6008911099999994,-0.4084472699999999,0.5562133799999996
208.0,-0.0017246418600476872,-0.11132444229374511,0.03047043677792899,0.28999999999999954,-9.779999999999985,-0.5399999999999994,0.016695355080663353,-0.005823575596273306,0.0008384847029488027,251.875,1.6875,93.1875,0.4034423800000003,-0.6008911099999994,-0.4084472699999999,0.5562133799999998
209.0,-0.0022159189449121814,-0.1117813278466244,0.02956772459243845,0.28999999999999954,-9.779999999999985,-0.5399999999999994,0.01126331029467411,0.01398492436067228,-0.009723437549270015,251.875,1.6875,93.1875,0.4034423800000003,-0.6008911099999994,-0.4084472699999999,0.5562133799999998
210.0,-0.001410458832415128,-0.10990756100472542,0.028565064293147036,0.28999999999999954,-9.779999999999985,-0.5399999999999994,0.028507619209037,-0.01066066761997108,-0.017599533994809097,251.875,1.6875,93.1875,0.4034423800000003,-0.6008911099999994,-0.4084472699999999,0.5562133799999998
211.0,-0.0012194373726631793,-0.11085200350724546,0.02781807204891884,0.28999999999999954,-9.779999999999985,-0.5399999999999994,0.040434971054930734,-0.007551577706567627,-0.016024062602943652,251.875,1.6875,93.1875,0.4034423800000003,-0.6008911099999994,-0.4084472699999999,0.5562133799999998
212.0,-0.0022125412669767508,-0.10984636465684852,0.027056717476072332,0.28999999999999954,-9.779999999999985,-0.5399999999999994,0.028345005688755687,-0.012580602361348328,-0.01552526214824602,251.875,1.6875,93.1875,0.4034423800000003,-0.6008911099999994,-0.4084472699999999,0.5562133799999998
213.0,-0.0019732352101303713,-0.11064095917523337,0.028091850801528234,0.28999999999999954,-9.779999999999985,-0.5399999999999994,0.018597513317775413,-0.0016209114306392526,-0.01133158676001418,251.875,1.6875,93.1875,0.4034423800000003,-0.6008911099999994,-0.4084472699999999,0.5562133799999998
214.0,-0.002429600865084736,-0.11036339869807615,0.026094434687176635,0.28999999999999954,-9.779999999999985,-0.5399999999999994,0.015069353249796798,0.010888724850418398,2.5570867304738377e-05,251.875,1.6875,93.1875,0.4034423800000003,-0.6008911099999994,-0.4084472699999999,0.5562133799999998
215.0,-0.0020916565513339706,-0.10940596970234069,0.026392071414248847,0.28999999999999954,-9.779999999999985,-0.5399999999999994,0.019431438017627534,-0.006124377974176361,-0.002611382513096223,251.875,1.6875,93.1875,0.4034423800000003,-0.6008911099999994,-0.4084472699999999,0.5562133799999998
216.0,-0.002805296200655799,-0.1100962647600505,0.025535619972673798,0.28999999999999954,-9.779999999999985,-0.5399999999999994,0.008878250026183494,-0.014618701617767918,-0.005847956236412245,251.875,1.6875,93.1875,0.40344238000000027,-0.6008911099999994,-0.4084472699999999,0.5562133799999996
217.0,-0.001511053807523929,-0.11030398690856127,0.02695232456450068,0.28999999999999954,-9.779999999999985,-0.5399999999999994,0.012111804526119041,-0.019432780554541527,-0.01608721671932275,251.875,1.6875,93.1875,0.40344238000000027,-0.6008911099999994,-0.4084472699999999,0.5562133799999996
218.0,-0.002213191103361648,-0.11051995882224602,0.024813498780877165,0.28999999999999954,-9.779999999999985,-0.5399999999999994,0.02790602794383036,-0.011815433706959354,-0.009397876851026641,251.875,1.6875,93.1875,0.4034423800000003,-0.6008911099999994,-0.4084472699999999,0.5562133799999998
219.0,-0.002834357037506826,-0.10977366465061472,0.023789936096205937,0.28999999999999954,-9.779999999999985,-0.5399999999999994,0.00923343919185653,-0.006793591731290039,0.0006774056605081853,251.875,1.6875,93.1875,0.4034423800000003,-0.6008911099999994,-0.4084472699999999,0.5562133799999998
220.0,-0.0027393326750809566,-0.10983262947170937,0.023057072576638957,0.28999999999999954,-9.779999999999985,-0.5399999999999994,0.009185723550642906,0.0014477295685981564,-0.0010556248682570737,251.875,1.6875,93.1875,0.4034423800000003,-0.6008911099999994,-0.4084472699999999,0.5562133799999998
221.0,-0.002187589292428002,-0.10934726295210168,0.02375458681103844,0.28999999999999954,-9.779999999999985,-0.5399999999999994,0.01799236549740582,0.00505765236107978,0.001109752143018272,251.875,1.6875,93.1875,0.4034423800000003,-0.6008911099999994,-0.4084472699999999,0.5562133799999998
222.0,-0.0053489445142670955,-0.1105673649826876,0.024364906151196488,0.28999999999999954,-9.779999999999985,-0.5399999999999994,0.04407830492759929,-0.03241371783458477,-0.008242979298926879,251.875,1.6875,93.1859639016897,0.4034428801536101,-0.6008896100307215,-0.4084437697439836,0.5562163801024061
223.0,0.0014547715531405946,-0.10788340382601941,0.028452824094404507,0.28707270101107324,-9.779999999999985,-0.5391526239768893,0.04012891807854119,-0.6781582821530199,-0.04162983319566207,251.41135050553683,1.6778707270101108,93.15495534997821,0.40123184814132096,-0.6022529412767956,-0.406233793882584,0.5579216301715689
224.0,0.0025032594324842757,-0.11106825983089824,0.03645866400223647,0.2885363505055364,-9.779999999999985,-0.5428607694664505,-0.027203361555792945,-0.21345244187685208,-0.022943211899639437,251.03320457828158,1.6826853635050552,93.17807029473495,0.39931769432481495,-0.6036258628231486,-0.4044437768288774,0.5590931789078764
225.0,0.000433598285307481,-0.1116314304643626,0.05211924853619605,0.28926817525276793,-9.779999999999985,-0.548077501057761,-0.03868345384354051,0.11503058408450803,-0.03146418057949112,251.04550013860316,1.6850926817525278,93.20331300660501,0.39928992768049154,-0.6037538800381627,-0.40454060321893504,0.5589252922789629
226.0,0.0007602234602715992,-0.1113492139914865,0.06614434599798105,0.3020211844005776,-9.779999999999983,-0.5521493496072216,-0.11146553053750935,1.8191423746370783,0.011871153240917323,252.2740749540942,1.760029059770273,93.22674290883246,0.4051220961075269,-0.5999953978024914,-0.410278226600251,0.5544438852270392
227.0,-0.0033775786081997007,-0.11406083725294126,0.0655411162421273,0.30633317284545003,-9.779999999999983,-0.5518712008582015,-0.0920725679392025,0.9245710396167786,-0.0017168515964856848,253.49389231575677,1.7882806589173943,93.21759129371671,0.4109698597837649,-0.5959026520407946,-0.41615517315707107,0.5501534842498976
228.0,-0.005071960297766752,-0.1117874276261373,0.0728262597617436,0.30858064516129025,-9.779999999999983,-0.5507263489198975,-0.1324791471968891,0.4125019469777534,0.04051365301365301,254.11283098621806,1.8027073732718892,93.20949400062304,0.413959935760369,-0.5938010506090794,-0.41913308977749103,0.5479996288486997
229.0,-0.006057485525227462,-0.11437611850515074,0.09627138990042212,0.30961290322580637,-9.779999999999985,-0.5780024706476321,-0.35508060487899196,0.26936192168047,0.08130582455179229,254.41620288313837,1.8096198156682028,93.38124687812189,0.4148242145053068,-0.593523315795742,-0.4212871201795567,0.5460248399399898
230.0,-0.010386476426799011,-0.1150124069478908,0.11511494151010279,0.31012903225806443,-9.779999999999985,-0.6052451258419003,-0.27006159163417226,0.1337020338532435,0.053189804147465436,254.57772509748315,1.8130760368663594,93.5417964595888,0.4150264893029958,-0.5937267631373625,-0.42277072384588765,0.5445269415046969
231.0,-0.013420510940672236,-0.1165565456049327,0.1234674693585984,0.3099999999999999,-9.779999999999985,-0.618820719602978,-0.11212591172268589,0.01668387895706444,0.00911305596285435,254.62028535980147,1.8125,93.62173348325061,0.4149482784253425,-0.5939383938405707,-0.423329964449197,0.5439249588352979
232.0,-0.013831123156240226,-0.11708416410159386,0.12355763606407467,0.30999999999999994,-9.779999999999985,-0.6256808312655089,-0.03623135016215141,0.0016641999443931035,-0.021730192582088394,254.6226426799007,1.8125,93.6623555753722,0.4148248858105263,-0.594080758244227,-0.42348885284990867,0.5437414756806765
233.0,-0.01598945184555877,-0.11789404549953458,0.11892352637029405,0.30999999999999994,-9.779999999999985,-0.6291431451612906,0.032698407789458775,0.014299054164957192,-0.015193496385573324,254.62399193548384,1.8125,93.68280619959677,0.41475261125513935,-0.5941630051121882,-0.4235692209162695,0.5436483407510085
234.0,-0.015588592237915868,-0.11685350538004025,0.11736068533154902,0.30999999999999994,-9.779999999999985,-0.6300000000000003,0.014999948311602838,0.018950424647615073,-0.010495175999858622,254.62499999999997,1.8125,93.6875,0.4147369748891627,-0.5941792951821026,-0.42358929042033233,0.5436295200000005
235.0,-0.013773204307543543,-0.11640193879423849,0.11598927566825588,0.30999999999999994,-9.779999999999985,-0.6300000000000003,-0.004201328573727117,0.015841527460283965,-0.0157004415979442,254.62499999999997,1.8125,93.6875,0.41473543244458155,-0.5941772882362129,-0.42358565069403714,0.5436367988709683
236.0,-0.0148880684294316,-0.11680590209882616,0.11497234292473625,0.30999999999999994,-9.779999999999985,-0.6300000000000003,0.021094453767125463,-0.007616588702371742,-0.01973786272693661,254.62499999999997,1.8125,93.6875,0.41473455682102034,-0.5941765830697197,-0.42358398,0.5436401400000006
237.0,-0.014443513923352639,-0.11590102997361063,0.11515482590885814,0.30999999999999994,-9.779999999999985,-0.6300000000000003,-0.002941326706447674,0.01425281987277955,-0.01449877407538698,254.62499999999997,1.8125,93.6875,0.4147338900000005,-0.5941772500000007,-0.42358398,0.5436401400000006
238.0,-0.013761241295125277,-0.11597819779076282,0.12201632414151925,0.30999999999999994,-9.779999999999985,-0.6300000000000002,-0.025867579594572962,0.024984585117665895,-0.01755920815656768,254.62499999999997,1.8125,93.6875,0.4147338900000005,-0.5941772500000007,-0.42358398,0.5436401400000006
239.0,-0.014832450180037336,-0.11723684398183619,0.12590874893908843,0.30999999999999994,-9.779999999999985,-0.6300000000000002,0.025282317572046697,0.013082114922848859,-0.02666973366196181,254.62499999999997,1.8125,93.6875,0.4147338900000005,-0.5941772500000007,-0.42358398,0.5436401400000006
240.0,-0.014368574655775495,-0.11677823898843673,0.1280349808591224,0.30999999999999994,-9.779999999999985,-0.6300000000000002,-0.012212235677376154,-0.0011078743779055957,-0.016493792079119864,254.62499999999997,1.8125,93.6875,0.4147338900000005,-0.5941772500000007,-0.42358398,0.5436401400000006
241.0,-0.01474880345692001,-0.11786926837759307,0.1290261752930848,0.30999999999999994,-9.779999999999985,-0.6300000000000003,0.015326884642701502,0.0069832836547196585,0.0042375952755765445,254.62499999999997,1.8125,93.6875,0.4147338900000005,-0.5941772500000007,-0.42358398,0.5436401400000006
242.0,-0.01329298851801454,-0.115573178440244,0.12941863729402756,0.30999999999999994,-9.779999999999985,-0.6300000000000003,-0.01958310145745109,0.0019092636320784083,0.007409720872259894,254.62499999999997,1.8125,93.6875,0.4147338900000005,-0.5941772500000007,-0.42358398,0.5436401400000006
243.0,-0.01342076785221947,-0.11665795718618299,0.13100580467919176,0.30999999999999994,-9.779999999999985,-0.6300000000000003,0.0033307977864429506,0.006340898125172319,0.004526320453739809,254.62499999999997,1.8125,93.6875,0.4147338900000005,-0.5941772500000007,-0.42358398,0.5436401400000006
244.0,-0.013954367541061097,-0.1171449028122415,0.1303518526724172,0.30999999999999994,-9.779999999999985,-0.6300000000000003,0.009049871499468273,-0.005430101372641695,-0.013809868446965221,254.62499999999997,1.8125,93.6875,0.4147338900000005,-0.5941772500000007,-0.42358398,0.5436401400000006
245.0,-0.013829821247517665,-0.11771629195682914,0.1295149161705158,0.30999999999999994,-9.779999999999985,-0.6300000000000002,0.0047955873146104675,0.01312632048153315,-0.010958704334744915,254.62499999999997,1.8125,93.6875,0.4147338900000005,-0.5941772500000007,-0.42358398,0.5436401400000006
246.0,-0.013975665896711691,-0.1183993603084394,0.12746228904059287,0.30999999999999994,-9.779999999999985,-0.6300000000000002,0.015600530940183646,-0.004079190100424493,-0.009827599685982881,254.62499999999997,1.8125,93.6875,0.4147338900000005,-0.5941772500000007,-0.42358398,0.5436401400000006
247.0,-0.01418043604418475,-0.11756030877291285,0.1297736432402145,0.30999999999999994,-9.779999999999985,-0.6300000000000002,0.013130822010325782,-0.008459205905306973,0.007333137807172018,254.62499999999997,1.8125,93.6875,0.4147338900000005,-0.5941772500000007,-0.42358398,0.5436401400000006
248.0,-0.01378132504202354,-0.1160702368326263,0.12751621407988473,0.30999999999999994,-9.779999999999985,-0.6300000000000002,-0.014113669279796685,-0.00857803807632274,-0.001031562049747858,254.62499999999997,1.8125,93.6875,0.4147338900000005,-0.5941772500000007,-0.42358398,0.5436401400000006
249.0,-0.014720803650044034,-0.1163793724485712,0.12811798607220043,0.30999999999999994,-9.779999999999985,-0.6300000000000002,0.024933462739133917,-0.0009970583526774995,0.002524163531577684,254.62499999999997,1.8125,93.6875,0.4147338900000005,-0.5941772500000007,-0.42358398,0.5436401400000006
250.0,-0.015000320179300414,-0.1172654486512447,0.12804754662611062,0.30999999999999994,-9.779999999999985,-0.6300000000000002,0.04225966541263107,-0.010911860641959497,0.015287936244296807,254.62499999999997,1.8125,93.6875,0.4147338900000005,-0.5941772500000007,-0.42358398,0.5436401400000006
251.0,-0.01743316257103979,-0.1184863223405107,0.1277247658688866,0.30999999999999994,-9.779999999999985,-0.6300000000000003,0.01363913791723365,-0.007146376971103818,0.008776102117185623,254.62499999999997,1.8125,93.6875,0.4147609597580645,-0.5941501758064519,-0.4235569102419353,0.5436672097580644
252.0,-0.01630839269991196,-0.11639452593452335,0.13052367325702394,0.30999999999999994,-9.779999999999985,-0.6300000000000003,-0.005920815656767789,-0.005891736872648683,0.005008398453133754,254.62499999999997,1.8125,93.6875,0.4147789242338707,-0.5941322083870969,-0.42353894576612877,0.5436851742338705
253.0,-0.01603753101736974,-0.11590097704714641,0.12922301488833746,0.30999999999999994,-9.779999999999985,-0.6300000000000003,0.022487593052109185,-0.016215299317617865,0.0036430870037220844,254.62499999999997,1.8125,93.6875,0.41478790647177377,-0.5941232246774195,-0.4235299635282255,0.5436941564717735
254.0,-0.013774152869869428,-0.11732652137656104,0.12954705741772765,0.30999999999999994,-9.779999999999985,-0.6300000000000002,-0.009859455721433511,-0.015076825194239921,0.009675099408127568,254.62499999999997,1.8125,93.6875,0.4147923975907254,-0.5941187328225807,-0.4235254724092739,0.5436986475907251
255.0,-0.013031587837510636,-0.1150883266617336,0.133574347961296,0.30999999999999994,-9.779999999999985,-0.6300000000000002,-0.01661293712457118,-0.0036440095091684866,0.009523634228857986,254.62499999999997,1.8125,93.6875,0.4147946431502011,-0.5941164868951613,-0.42352322684979804,0.5437008931502009
256.0,-0.013662273447291302,-0.11596111432342265,0.1324652524545934,0.30999999999999994,-9.779999999999985,-0.6300000000000002,0.013750273838458827,0.020077227565515013,0.01812981882038433,254.62499999999997,1.8125,93.6875,0.4147949199999995,-0.59411621,-0.4235229499999996,0.5437011699999993
257.0,-0.013118939143000493,-0.11355515393590487,0.1310990576789096,0.30999999999999994,-9.779999999999985,-0.6300000000000003,0.00021246050793909121,0.02271817527469299,0.015081794490837326,254.62499999999997,1.8125,93.6875,0.4147949199999995,-0.59411621,-0.4235229499999996,0.5437011699999993
258.0,-0.013270013507850637,-0.11423041087239924,0.1262422304031241,0.30999999999999994,-9.779999999999985,-0.6300000000000003,0.04131748315877084,-0.010239586985521677,0.020822731898221057,254.62499999999997,1.8125,93.6875,0.4147949199999995,-0.594095710419867,-0.4235024470609319,0.5437216729390679
259.0,-0.01264082378195282,-0.11562767340186694,0.12701209677419356,0.30999999999999994,-9.779999999999985,-0.6300000000000003,0.024760661605419673,-0.019297019624640595,0.010163481232029618,254.62499999999997,1.8125,93.6875,0.414777958808933,-0.5941088706218445,-0.4235156038604908,0.5437085161395094
260.0,-0.012491686852573954,-0.11591035487809681,0.1291140873015873,0.30999999999999994,-9.779999999999985,-0.6300000000000003,0.03086151359840876,-0.013288742787230691,-0.012719398656898655,254.62499999999997,1.8125,93.6875,0.4147549400496281,-0.5941440448270516,-0.42355077628508414,0.5436733437149163
261.0,-0.014004268144128973,-0.11650636610470116,0.1290377128255315,0.30999999999999994,-9.779999999999985,-0.6300000000000002,0.04336439963919477,-0.011489084432917355,-0.002095811551294121,254.62499999999997,1.8125,93.6875,0.41474343066997565,-0.5941616319296551,-0.4235683624973808,0.5436557575026197
262.0,-0.014262020858664987,-0.1144240887595466,0.12705983811251761,0.30999999999999994,-9.779999999999985,-0.6300000000000002,0.02984316058262468,0.002298407147685245,-0.005207141197483289,254.62499999999997,1.8125,93.6875,0.4147376759801493,-0.5941704254809569,-0.4235771556035291,0.5436469643964714
263.0,-0.01604491014968383,-0.11411779096293924,0.12120158788921796,0.30999999999999994,-9.779999999999985,-0.6300000000000002,0.06125217621868246,-0.006599476957095974,-0.01790793469342832,254.62499999999997,1.8125,93.6830334987593,0.4147391599255586,-0.5941667383821343,-0.4235720153647643,0.5436511344714645
264.0,-0.015154609081085416,-0.1141091636316337,0.11489671966301129,0.30999999999999994,-9.779999999999985,-0.6300000000000002,0.08202637226847034,-0.007532608885976146,-0.017798920520491472,254.62499999999997,1.8125,93.65300868486352,0.4147990745161293,-0.594078379369727,-0.42351588737469,0.5437392468982637
265.0,-0.014014156499068056,-0.11400442660588342,0.11021881714077346,0.30999999999999994,-9.779999999999985,-0.6300000000000002,0.06195152618799861,-0.0016079163061473154,0.002916545964152622,254.62499999999997,1.8125,93.63799627791562,0.4148294861290326,-0.5940333062977665,-0.42348692981637737,0.5437841966749387
266.0,-0.013903740380327274,-0.11419047873158175,0.10607042674056202,0.30999999999999994,-9.779999999999985,-0.6300000000000002,0.06382841057658956,-0.004147830721712095,-0.0006731706263444041,254.62499999999997,1.8125,93.6304900744417,0.41484469193548423,-0.5940107697617862,-0.4234724510372211,0.5438066715632763
267.0,-0.013131131788780075,-0.1136220458925974,0.10051682852931554,0.3111730205278592,-9.779999999999985,-0.6133431085043992,0.16558590992774136,-0.11719582302308629,-0.025139202051272812,254.56781524926683,1.8125,93.54267050154147,0.41490193354838734,-0.5938147850910592,-0.42277885082652844,0.5445128628295364
268.0,-0.011282687482479369,-0.11333707753686942,0.0806331040909605,0.3105865102639296,-9.779999999999985,-0.5788725468080309,0.1031403495048136,-0.07917793632543893,0.019161168205132827,254.4673753665689,1.8125,93.3665895932025,0.4150949912456575,-0.5933105130343634,-0.421520853182495,0.545888790717498
269.0,-0.009322483967645262,-0.11269572005055878,0.06756807350355737,0.3102932551319647,-9.779999999999985,-0.5579846605007892,0.08563989773667192,-0.06094801256091578,-0.01849100720068462,254.41715542521993,1.8125,93.26998834498835,0.41522749110669954,-0.5929907832913757,-0.4208532809460861,0.5466516334232654
270.0,-0.009615159034513876,-0.11152206932852093,0.05954267238138204,0.3101466275659823,-9.779999999999985,-0.5475407173471685,0.07787991578314159,-0.024582675389127003,-0.017537972779908262,254.39204545454544,1.8125,93.22168772088126,0.4152937410372205,-0.5928309184198817,-0.42051949482788165,0.547033054776149
271.0,-0.010910997431288798,-0.11177128040187354,0.055501905309397484,0.31007331378299113,-9.779999999999985,-0.542318745770358,0.03476361914187097,-0.016865399168989176,0.005861206518074364,254.37949046920818,1.8125,93.19753740882773,0.41532686600248103,-0.5927509859841347,-0.42035260176877937,0.5472237654525909
272.0,-0.011276613085145869,-0.11091496571413328,0.053887316291062366,0.3099999999999999,-9.779999999999985,-0.5402282878411904,0.00586543615940078,-0.006309654618707689,0.001265769436945295,254.375,1.8125,93.18808933002481,0.4153418772754338,-0.5927167921538468,-0.42029060401488805,0.5472974034838716
273.0,-0.011516718453242912,-0.10977261933349342,0.05404539511823589,0.3099999999999999,-9.779999999999985,-0.5399999999999994,0.006716837186400142,0.012384874923896776,-0.01423994406564646,254.375,1.8125,93.1875,0.4153442399999996,-0.5927124000000006,-0.4202880899999998,0.5473022500000005
274.0,-0.012435964775194751,-0.10968824608158635,0.0510213243803254,0.30999999999999994,-9.779999999999985,-0.5399999999999994,-0.011069413878987237,0.01044870986338208,-0.007770195465304727,254.375,1.8125,93.1875,0.4153442399999996,-0.5927124000000006,-0.4202880899999998,0.5473022500000005
275.0,-0.011773813653106063,-0.10991608333855991,0.05022033960951753,0.30999999999999994,-9.779999999999985,-0.5399999999999994,0.0181625635319704,-0.01878308923704345,0.008769989115982873,254.375,1.8125,93.1875,0.4153442399999996,-0.5927124000000006,-0.4202880899999998,0.5473022500000005
276.0,-0.011241493273751343,-0.11000242409919829,0.05029534623083008,0.3099999999999999,-9.779999999999985,-0.5399999999999994,0.005268767970380875,0.014215197884552723,0.007839808041420945,254.375,1.8125,93.1875,0.4153442399999996,-0.5927124000000006,-0.4202880899999998,0.5473022500000005
277.0,-0.013625098915421501,-0.11139149739149737,0.047877040522201805,0.3099999999999999,-9.779999999999985,-0.5399999999999994,0.02744106252170768,0.0010090268154784292,0.002972207004465069,254.375,1.8125,93.1875,0.4153442399999996,-0.5927124000000006,-0.4202880899999998,0.5473022500000005
278.0,-0.012752996107834823,-0.11063495465108365,0.04822139867301157,0.30999999999999994,-9.779999999999985,-0.5399999999999994,0.009044662774501482,-0.015585747138166493,-0.005136104934492031,254.375,1.8125,93.1875,0.4153442399999996,-0.5927124000000006,-0.4202880899999998,0.5473022500000005
279.0,-0.012107308462147179,-0.11165202091814994,0.047965840611001884,0.3099999999999999,-9.779999999999985,-0.5399999999999994,-0.005814330159088223,-0.013769983376838215,-0.00985142769416963,254.375,1.8125,93.1875,0.4153442399999996,-0.5927124000000006,-0.4202880899999998,0.5473022500000005
280.0,-0.013939510310478059,-0.11106546455336774,0.04721617092584833,0.3099999999999999,-9.779999999999985,-0.5399999999999994,-0.04854147029046223,0.018052973572126797,-0.010353753549318065,254.375,1.8125,93.1875,0.4153442399999996,-0.5927124000000006,-0.4202880899999998,0.5473022500000005
281.0,-0.014906844947167536,-0.11061221372713309,0.04655262300423589,0.30999999999999994,-9.779999999999985,-0.5399999999999994,-0.00981162794418843,-0.008091699686961783,-0.0017148370222967,254.375,1.8125,93.1875,0.4153442399999996,-0.5927124000000006,-0.4202880899999998,0.5473022500000005
282.0,-0.01632891973617781,-0.1118506734081331,0.050171738655609616,0.30999999999999994,-9.779999999999985,-0.5412704714640194,-0.030984036824510612,0.01947122448004504,0.01158153142780159,254.375,1.8125,93.19097394540943,0.4153287311960295,-0.5927346938362286,-0.4203074754094291,0.5472780176625314
283.0,-0.015402057619799566,-0.11092785686535686,0.05667494557413911,0.3099999999999999,-9.779999999999985,-0.5509578163771709,-0.01290646657330125,0.025864167194812354,0.01627520944557235,254.375,1.8125,93.22149503722083,0.41521047785607923,-0.5929125585310172,-0.42045528980148894,0.5471011222183622
284.0,-0.015217533810275755,-0.11081940628815631,0.05869422893414829,0.3099999999999999,-9.779999999999985,-0.5558014888337467,-0.03390877505670852,0.013115368054884183,0.001915097391407875,254.375,1.8125,93.23675558312655,0.41515135118610413,-0.5930014908784115,-0.42052919699751884,0.5470126744962776
285.0,-0.014707679417356845,-0.1102457399231593,0.0579998209675629,0.3099999999999999,-9.779999999999985,-0.5582233250620345,-0.022883926109732562,0.016065565259113644,-0.00279500964984836,254.375,1.8125,93.24438585607939,0.41512178785111664,-0.5930459570521087,-0.4205661505955338,0.5469684506352351
286.0,-0.013903902549063847,-0.11004210842920523,0.05914700353410031,0.30999999999999983,-9.779999999999985,-0.5594342431761785,0.01645800436123017,0.0031684713136326042,0.0024005564328144977,254.375,1.8125,93.24820099255582,0.41510700618362284,-0.5930681901389572,-0.4205846273945413,0.546946338704714
287.0,-0.013440785021430191,-0.10916497481013612,0.061048687871268506,0.30999999999999983,-9.779999999999985,-0.5599999999999998,0.00700381607639672,0.0028714565004887586,-0.004227761485826002,254.375,1.8125,93.25,0.41510009999999997,-0.5930786099999994,-0.42059326000000036,0.5469360399999994
288.0,-0.014025354573741678,-0.10950056216185249,0.06302003820552206,0.3099999999999999,-9.779999999999985,-0.5599999999999998,-0.015007640209253114,0.0019710352371642694,-0.009091054554764232,254.375,1.8125,93.25,0.41510009999999997,-0.5930786099999994,-0.42059326000000036,0.5469360399999994
289.0,-0.014475400889700367,-0.10873642974208692,0.06327684255374431,0.3099999999999999,-9.779999999999985,-0.5599999999999998,-0.010487042948224942,-0.023569128505635487,-0.015417578312528962,254.375,1.8125,93.25,0.41510009999999997,-0.5930786099999994,-0.42059326000000036,0.5469360399999994
290.0,-0.015062724882777852,-0.10960770656214805,0.06082708207843618,0.30999999999999983,-9.779999999999985,-0.5599999999999998,0.035552544019533665,-0.02285800022544726,-0.01394046071051668,254.375,1.8125,93.25,0.41510009999999997,-0.5930786099999994,-0.42059326000000036,0.5469360399999994
291.0,-0.014254236341682186,-0.10843532933190494,0.06380308160617801,0.3099999999999999,-9.779999999999985,-0.5599999999999998,0.015378300357762923,0.0023478816077064767,0.019621289683842344,254.375,1.8125,93.25,0.41510009999999997,-0.5930786099999994,-0.42059326000000036,0.5469360399999994
292.0,-0.014657360106324967,-0.11057228954376283,0.06655078017259047,0.30999999999999983,-9.779999999999985,-0.5599999999999998,0.010195946977512938,-0.0027991316546022845,0.018765808881510616,254.375,1.8125,93.25,0.41510009999999997,-0.5930786099999994,-0.42059326000000036,0.5469360399999994
293.0,-0.013842524631523195,-0.11092394066774183,0.06359304733943635,0.3099999999999999,-9.779999999999985,-0.5599999999999998,0.004185176608217653,-0.00341667953796324,0.002146749019116015,254.375,1.8125,93.25,0.41510009999999997,-0.5930786099999994,-0.42059326000000036,0.5469360399999994
294.0,-0.014341820813595016,-0.11218681385818483,0.059725026317768236,0.3099999999999999,-9.779999999999985,-0.5599999999999998,0.04555972841003082,0.020732380019174372,0.007467813604406346,254.375,1.8125,93.25,0.41510009999999997,-0.5930786099999994,-0.42059326000000036,0.5469360399999994
295.0,-0.016068759869163105,-0.11171168649898489,0.06551989341303857,0.3099999999999999,-9.779999999999985,-0.5599999999999998,-0.02003233032088879,0.07912840897341905,-0.017572911379615006,254.3960166177908,1.8125,93.25,0.4151874460019549,-0.5930122666177899,-0.4207164040860216,0.5468133698924725
296.0,-0.01657619933829612,-0.11371393525829013,0.07094344499586434,0.30999999999999983,-9.779999999999985,-0.5599999999999998,-0.0388056667794571,0.03131879041657267,-0.014508844649973682,254.41776637341152,1.8125,93.25,0.41526978074291276,-0.5929509350830879,-0.4208438436559139,0.5466856881720425
297.0,-0.018286819587222822,-0.11009499304458982,0.06909365611986579,0.3099999999999999,-9.779999999999985,-0.5599999999999998,-0.040472545487666454,0.02295004362796701,-0.03210692197587359,254.42864125122188,1.8125,93.25,0.41531094811339164,-0.5929202693157369,-0.42090756344086,0.5466218473118275
298.0,-0.018108118919610866,-0.10806143956849601,0.0644524958688265,0.3099999999999999,-9.779999999999985,-0.5599999999999998,0.0335736941709724,0.00744079439265931,-0.008140339163524645,254.43407869012705,1.8125,93.25,0.41533153179863114,-0.5929049364320615,-0.4209394233333331,0.54658992688172
299.0,-0.018184371184371197,-0.1073897070671264,0.05816021970860679,0.30999999999999994,-9.779999999999985,-0.5599999999999998,0.043223823667372055,0.009494716752781268,-0.007733127087965796,254.43679740957964,1.8125,93.25,0.41534182364125083,-0.5928972699902237,-0.4209553532795696,0.5465739666666662
300.0,-0.017017405533534577,-0.10758048403209693,0.059295163617744256,0.3099999999999999,-9.779999999999985,-0.5599999999999998,0.009224937249130797,-0.011564958339151887,0.006580650532263435,254.4375,1.8125,93.25,0.4153442399999996,-0.592895509999999,-0.4209594699999997,0.5465698199999997
301.0,-0.01597693346080444,-0.10837968483129774,0.06019499138853977,0.3099999999999999,-9.779999999999985,-0.5599999999999998,-0.014647673115415049,-0.011586486989712796,0.006467255862417153,254.4375,1.8125,93.25,0.4153442399999996,-0.592895509999999,-0.4209594699999997,0.5465698199999995
302.0,-0.015957791312630032,-0.10994741817322465,0.05825929804962063,0.3099999999999999,-9.779999999999985,-0.5599999999999998,-0.015954207083239344,0.010111774426290555,0.015243123811672199,254.4375,1.8125,93.25,0.4153442399999996,-0.592895509999999,-0.4209594699999997,0.5465698199999997
303.0,-0.01674426648620198,-0.11027336641852772,0.058496973456650864,0.3099999999999999,-9.779999999999985,-0.5599999999999998,-0.0399301639220994,0.009650396646364388,-0.0035365675990675985,254.4375,1.8125,93.25,0.4153442399999996,-0.592895509999999,-0.4209594699999997,0.5465698199999995
304.0,-0.016320744465385475,-0.10918735158355347,0.06045972502176976,0.30999999999999994,-9.779999999999985,-0.5599999999999998,-0.06037571191382325,-0.004741659116984299,0.0019823165366544657,254.4375,1.8125,93.25,0.4153442399999996,-0.592895509999999,-0.4209594699999997,0.5465698199999995
305.0,-0.018790870766417077,-0.10938595340663498,0.05707248225673043,0.30999999999999994,-9.779999999999985,-0.559354838709677,0.05441319487397791,0.01873743046105819,-0.01947560615005009,254.44455645161287,1.8125,93.25252016129032,0.41540379798387056,-0.5928704066129022,-0.4210165688709676,0.5465186308870966
306.0,-0.016426227172064847,-0.10915564776881113,0.0515511177168305,0.3099999999999999,-9.779999999999985,-0.5545161290322578,0.046898221337282206,0.03595068920413613,-0.002012172271017224,254.44102822580643,1.8125,93.21900201612902,0.4155945299596772,-0.5926624421774187,-0.42092167472385134,0.5466735745735585
307.0,-0.01688392306329352,-0.1079173248851969,0.04108277852047364,0.3099999999999999,-9.779999999999985,-0.5520967741935483,0.005306131336145641,0.027199934975851988,-0.0018694141157720758,254.4392641129032,1.8125,93.20224294354838,0.41568989594758055,-0.592558459959677,-0.4208775684909579,0.5467477050287151
308.0,-0.01717085987344833,-0.10788619011206159,0.040402510218131966,0.30999999999999994,-9.779999999999985,-0.5508870967741936,0.003599095444747758,0.020116815335419,-0.03285158050701755,254.4383820564516,1.8125,93.19386340725806,0.41573757894153224,-0.5925064688508062,-0.42085551537451116,0.5467847702562934
309.0,-0.01650654576158609,-0.10889490807131935,0.039765451058797835,0.30999999999999994,-9.779999999999985,-0.5502822580645161,-0.01036426401219748,0.010351071559488898,-0.014058214411036992,254.4379410282258,1.8125,93.1896736391129,0.41576142043850806,-0.5924804732963708,-0.42084448881628783,0.5468033028700825
310.0,-0.0174983045628207,-0.10888153781702167,0.042198113714242744,0.30999999999999994,-9.779999999999985,-0.55,-0.0032042554219973577,-0.0011026160219708599,0.0007693918984241566,254.4375,1.8125,93.1875,0.41577148,-0.5924682599999999,-0.4208371911974584,0.5468141688367554
311.0,-0.016667040844460204,-0.10905464965142386,0.04542945763913506,0.30999999999999994,-9.779999999999985,-0.55,-0.006734092520382843,0.014248911930363543,0.013749187640316672,254.4375,1.8125,93.1875,0.41577148,-0.5924682599999999,-0.4208373999999999,0.5468139600000007
312.0,-0.018774065540194583,-0.10822865217220057,0.04499689826302729,0.30999999999999994,-9.779999999999985,-0.55,-0.003783565225097483,0.01277577149552956,0.009371984422387649,254.4375,1.8125,93.1875,0.41577148,-0.5924682599999999,-0.4208373999999999,0.5468139600000007
313.0,-0.01901176230117438,-0.11114552705070396,0.04490748072889071,0.30999999999999994,-9.779999999999985,-0.5500000000000002,-0.0029323653388754842,0.0030581242559325292,0.015579592627426914,254.4375,1.8125,93.1875,0.41577148,-0.59246826,-0.4208373999999999,0.5468139600000007
314.0,-0.017965263650688894,-0.11116752413227546,0.048125179977185864,0.30999999999999994,-9.779999999999985,-0.5500000000000003,-0.017440890801073427,0.0015290621279662646,-0.0012776995167384803,254.4375,1.8125,93.1875,0.41577148,-0.59246826,-0.4208373999999999,0.5468139600000007
315.0,-0.019240277405570678,-0.11075808595013903,0.046720272807566056,0.3099999999999999,-9.779999999999985,-0.55,-0.035746175047234104,0.012181989054021767,0.0006034115645372441,254.4375,1.8125,93.1875,0.41577148,-0.5924682599999999,-0.4208373999999999,0.5468139600000007
316.0,-0.018720441122140184,-0.11127874055571468,0.04814088237152496,0.3099999999999999,-9.779999999999985,-0.55,-0.039404715547810595,0.023243842309268944,0.010965138241946042,254.4375,1.8125,93.1875,0.41577148,-0.5924682599999999,-0.4208373999999999,0.5468139600000007
317.0,-0.018541362000276056,-0.11003639261036356,0.04884215334457141,0.30999999999999994,-9.779999999999985,-0.55,-0.012110856533210507,-0.0016690217734052284,-0.0021554581743123387,254.4375,1.8125,93.1875,0.41577148,-0.5924682599999999,-0.4208373999999999,0.5468139600000007
318.0,-0.01872785701870843,-0.11043218814060961,0.04664836395316299,0.30999999999999994,-9.779999999999985,-0.55,-0.006022910056407545,-0.005699735412437025,-0.005356875409096456,254.4375,1.8125,93.1875,0.41577148,-0.5924682599999999,-0.4208373999999999,0.5468139600000007
319.0,-0.017478682607714874,-0.10922984340927888,0.04895347864501089,0.30999999999999994,-9.779999999999985,-0.55,0.004557291666666667,0.011767067777652455,-0.014494275885404917,254.4375,1.8125,93.1875,0.41577148,-0.5924682599999999,-0.4208373999999999,0.5468139600000007
320.0,-0.017716674124394913,-0.11121764913761542,0.049298662947972166,0.30999999999999994,-9.779999999999985,-0.5500000000000002,0.022685066598360656,0.006589880138205263,-0.021571118760932352,254.4375,1.8125,93.1875,0.41577148,-0.59246826,-0.4208373999999999,0.5468139600000007
321.0,-0.017856320933165203,-0.11018408046210798,0.048862847292844624,0.30999999999999994,-9.779999999999985,-0.5500000000000002,0.03733000034322499,0.0032399327024773216,-0.014109749051682057,254.4375,1.8125,93.1875,0.41577148,-0.5924682599999999,-0.4208373999999999,0.5468139600000007
322.0,-0.01744467721596226,-0.11050922385388276,0.04705937029654638,0.30999999999999994,-9.779999999999985,-0.5500000000000002,0.018925012966277507,-0.005414676173575235,-0.00830744315177155,254.4375,1.8125,93.1875,0.41577148,-0.5924682599999999,-0.4208373999999999,0.5468139600000007
323.0,-0.017907242153966885,-0.10990673711704785,0.043207984996188026,0.30999999999999994,-9.779999999999985,-0.5495005202913634,0.040679988272941045,-0.00879574759611284,0.0006529701714927576,254.4375,1.8125,93.18593912591051,0.41577859359001035,-0.5924591144432882,-0.4208318110718001,0.5468236142767957
324.0,-0.019014104947951187,-0.10903075689599293,0.04253420341620816,0.30999999999999994,-9.779999999999985,-0.5445889698231007,0.08165794156202884,-0.0018769855381308613,0.012118901338848116,254.4375,1.8125,93.15446149843912,0.4158695451821016,-0.5923376794797088,-0.4207401023100935,0.5469448000416242
325.0,-0.019300568318258236,-0.10914752261266311,0.04103433922996879,0.30999999999999994,-9.779999999999985,-0.5421331945889694,0.026818018090130475,0.002998679260385816,-0.002923637236852638,254.4375,1.8125,93.13872268470342,0.41591502097814725,-0.5922769619979189,-0.42069424792924015,0.5470053929240384
326.0,-0.018371738332196196,-0.10909461679492896,0.03898796405352077,0.30999999999999994,-9.779999999999985,-0.5409053069719036,-0.024760326100076363,0.017356846818345255,-0.00648909421021804,254.4375,1.8125,93.13085327783558,0.4159377588761701,-0.5922466032570242,-0.4206713207388135,0.5470356893652455
327.0,-0.019391824501085696,-0.10802621658605006,0.03686619046348495,0.30999999999999994,-9.779999999999985,-0.5402913631633708,-0.023810063794455053,0.008911053682125481,-0.02156030392893036,254.4375,1.8125,93.12691857440166,0.4159491278251815,-0.5922314238865767,-0.4206598571436002,0.5470508375858489
328.0,-0.02003473229279682,-0.10972732643700385,0.035547448966803806,0.3099999999999999,-9.779999999999985,-0.5399999999999994,0.007647281034377807,-0.008545844836167417,-0.024611723402045982,254.4375,1.8125,93.125,0.41595458999999935,-0.5922241200000001,-0.4206542999999998,0.5470581100000009
329.0,-0.019372204856075836,-0.11005473021602055,0.038545436642210835,0.3099999999999999,-9.779999999999985,-0.5399999999999994,-0.04547846866395253,0.017307412569509344,-0.009638367904496938,254.4375,1.8125,93.125,0.4159545899999994,-0.5922241200000001,-0.4206542999999998,0.5470581100000009
330.0,-0.019857397083203547,-0.10938188872059842,0.04206065798001282,0.30999999999999994,-9.779999999999985,-0.5399999999999994,-0.019248303220077416,0.004433374645068192,-0.014253141571689958,254.4375,1.8125,93.125,0.4159545899999994,-0.5922241200000002,-0.4206542999999998,0.5470581100000009
331.0,-0.020614822453532144,-0.10954501502082148,0.04252546467869049,0.30999999999999994,-9.779999999999985,-0.5399999999999994,-0.027609302659705886,0.017849687834566867,-0.0059584960290605445,254.4375,1.8125,93.13810483870968,0.4159339164516125,-0.5922502075806455,-0.4206754649193547,0.5470374364516134
332.0,-0.018714359117584935,-0.11037548517790452,0.04936198792247178,0.30999999999999994,-9.779999999999985,-0.5399999999999994,-0.04669857192538644,0.028775960542593605,-0.009849595409071215,254.4375,1.8125,93.16381048387096,0.4159127487096771,-0.5923001676612907,-0.4206963818145161,0.5470162687096777
333.0,-0.018944178581275367,-0.10919800651857106,0.048400446551656214,0.30999999999999994,-9.779999999999985,-0.5399999999999994,-0.03860771704773721,0.014800370300622315,-0.0039931017123557445,254.4375,1.8125,93.17666330645162,0.41590216483870945,-0.5923251477016133,-0.4207068402620968,0.5470056848387098
334.0,-0.018221779116940416,-0.10832349147268504,0.05005095218401668,0.30999999999999994,-9.779999999999985,-0.5399999999999994,0.003516686606404345,-0.008661723581078421,-0.0030836127358304776,254.4375,1.8125,93.18308971774192,0.41589687290322563,-0.5923376377217746,-0.42071206948588713,0.5470003929032259
335.0,-0.017412220843672464,-0.1080531947890819,0.051712624069478894,0.30999999999999994,-9.779999999999985,-0.5399999999999994,-0.021019114454094295,0.028055210918114144,-0.001237786910669975,254.4375,1.8125,93.18630292338709,0.4158942269354837,-0.5923438827318552,-0.42071468409778234,0.5469977469354839
336.0,-0.017437249859921566,-0.10786618506363566,0.05055600636356357,0.30999999999999994,-9.779999999999985,-0.5399999999999994,0.008299178790122468,0.017685904106299527,-0.010015640008404707,254.4375,1.8125,93.1875,0.41589354999999983,-0.5923390772424563,-0.42071533000000005,0.54699707
337.0,-0.018768252721524062,-0.10835120667573843,0.051801576382774335,0.30999999999999994,-9.779999999999985,-0.5446774193548385,-0.08100084484811494,0.011750830465060433,0.011353842526815016,254.4375,1.8125,93.1875,0.41583546838709673,-0.5923987466050991,-0.42077390395161296,0.5469099451612907
338.0,-0.0191621230616418,-0.11006606032711652,0.047351408303801634,0.3099999999999999,-9.779999999999985,-0.5474999999999999,-0.023914610932121987,0.003431622466156805,0.00517241170206831,254.4375,1.8125,93.1875,0.41580150532258064,-0.5924354721735172,-0.42080762084677414,0.5468589991935489
339.0,-0.019943344409232816,-0.1097501517516476,0.04663724261343928,0.3099999999999999,-9.779999999999985,-0.5489112903225807,-0.0035515982700312157,0.020341741754170212,0.01572206193043862,254.4375,1.8125,93.1875,0.4157845237903226,-0.5924538349577262,-0.4208244792943548,0.546833526209678
340.0,-0.019460079462680926,-0.1102329387790496,0.044719830984138995,0.30999999999999994,-9.779999999999985,-0.549616935483871,0.028670899453694068,-0.0150307420261407,-0.000707517421877463,254.4375,1.8125,93.1875,0.4157760330241936,-0.5924630163498308,-0.4208329085181451,0.5468207897177426
341.0,-0.020404297315587648,-0.1096764629859388,0.04570542897962254,0.30999999999999994,-9.779999999999985,-0.5494139267990077,0.07828251008064516,-0.030474227972967893,-0.013460598541243703,254.4375,1.8125,93.18551488833747,0.4157732419339329,-0.5924658908977203,-0.42083470010274493,0.546820237531328
342.0,-0.0168956970448906,-0.10921071133167909,0.05175392416723061,0.30999999999999994,-9.779999999999985,-0.5393995037220847,0.07207661290322581,-0.06877479039777427,-0.018827073464170237,254.4375,1.8125,93.1542493796526,0.41586523875930487,-0.5923112602245656,-0.42064717687344927,0.5470674119007448
343.0,-0.015342020658552925,-0.10867729627003822,0.050743600821221785,0.30999999999999994,-9.779999999999985,-0.5343771712158814,0.03553427419354839,-0.04967200977785655,-0.022711115049824725,254.4375,1.8125,93.13861662531016,0.4159128677667489,-0.5922322530155084,-0.4205532768238216,0.547192706595534
344.0,-0.015278795689077954,-0.10911051538067668,0.04551172751979203,0.30999999999999994,-9.779999999999985,-0.5318660049627796,0.006565504807692307,-0.022921651601087088,-0.016231584975284572,254.4375,1.8125,93.13080024813895,0.4159366822704709,-0.59219274941098,-0.4205063267990078,0.5472553539429286
345.0,-0.015036691579030296,-0.1089099413131671,0.03730595681200521,0.30999999999999994,-9.779999999999985,-0.5306104218362288,-0.00012794665012406947,-0.020630335726101855,-0.014795916169404072,254.4375,1.8125,93.12689205955334,0.41594858952233194,-0.5921729976087156,-0.42048285178660083,0.5472866776166259
346.0,-0.015298600437035795,-0.10853913450965275,0.03304406167492829,0.30999999999999994,-9.779999999999985,-0.5300000000000005,-0.013714158412317455,-0.012774692737964487,0.0030683702722926363,254.4375,1.8125,93.125,0.4159544977016123,-0.5921631822832658,-0.4204711900000004,0.5473021577016135
347.0,-0.01589778812174371,-0.10848327693224573,0.026559833256818988,0.30999999999999994,-9.779999999999985,-0.5300000000000005,-0.010322300980352276,-0.022358868546401595,0.00441661961195277,254.4375,1.8125,93.125,0.4159545899999994,-0.5921630899999997,-0.4204711900000004,0.5473022500000005
348.0,-0.015621937862947917,-0.1097390084796219,0.021396101518787933,0.3099999999999999,-9.779999999999985,-0.5344574780058651,0.059843737095356606,-0.016075747637256096,0.02412971277576645,254.4375,1.8125,93.125,0.4159269042130983,-0.5922170250146624,-0.42049839844574777,0.5472487920918874
349.0,-0.015707991263980165,-0.10979630324725514,0.026255122719691742,0.3099999999999999,-9.779999999999985,-0.5322287390029328,0.08419451122757905,-0.026764610791332764,0.017748789390364617,254.4375,1.8125,93.125,0.4159407471065488,-0.5921738129912024,-0.4204675680131963,0.5472917629007821
350.0,-0.014468139552585618,-0.10911155112734965,0.03402210230277391,0.30999999999999994,-9.779999999999985,-0.5311143695014666,0.02806189581230069,0.0015448037854750556,0.016147967896174863,254.4375,1.8125,93.125,0.41594766855327414,-0.5921369469794724,-0.42043787965175927,0.5473285058052295
351.0,-0.016032345007143404,-0.10950545623731109,0.034959592826528316,0.30999999999999994,-9.779999999999985,-0.5303189713512299,0.04863768833652907,-0.04428973454301075,-0.00018045001033912406,254.4375,1.8125,93.12251861042184,0.4159598531277535,-0.5921102751249723,-0.4204172195702964,0.5473560856346245
352.0,-0.014223649782117527,-0.10732017243509179,0.055478068302665086,0.30999999999999994,-9.779999999999985,-0.5301594856756148,-0.06623220109863254,-0.1567702332949309,0.013655904747134585,254.41957885304657,1.8125,93.09918173224624,0.41593572028379483,-0.5921156782409294,-0.4203076970944159,0.5474651752725096
353.0,-0.012187582466816341,-0.10719381055772184,0.07036366758241756,0.30999999999999994,-9.779999999999985,-0.5531662531017367,-0.1339378258670093,0.06795224894393243,0.03589381258862105,254.34991039426524,1.8125,93.2260021564457,0.41508020717757665,-0.5929980961512568,-0.42042009667037483,0.5470728210991088
354.0,-0.013773775886754346,-0.10990900656677619,0.08051062080372681,0.3099999999999999,-9.779999999999985,-0.5673895781637711,-0.03013717883685084,0.19247898880453723,0.05436488256718004,254.43655546193764,1.8125,93.30453333628736,0.41519438393303504,-0.593097826224702,-0.4211016140663724,0.5463529288871127
355.0,-0.013800170393453982,-0.10875082624805785,0.08661255726566268,0.3099999999999999,-9.779999999999985,-0.5745012406947883,-0.01821179058329997,0.10397523948995423,0.04437104135399453,254.50154386000105,1.8125,93.3437989262082,0.41535397083748543,-0.5930724697252545,-0.42154343800092786,0.54591304637904
356.0,-0.01644823597068422,-0.10986944597290049,0.08860873245141418,0.30999999999999994,-9.779999999999985,-0.5780645161290314,6.466085471261429e-05,0.06466363100969805,0.022945692404910928,254.53403805903278,1.8125,93.36350926459295,0.4154334916693632,-0.5930600489395508,-0.42176453171510386,0.545692817363217
357.0,-0.015803502758275276,-0.10977331450246111,0.08741390185137174,0.30999999999999994,-9.779999999999985,-0.5784888337468976,0.03264118662492218,0.008268244667084639,0.014514763962115158,254.55084519439094,1.8125,93.36958843827543,0.415490190506508,-0.5930358051699607,-0.42185588338789987,0.5456078333642663
358.0,-0.014348323959782801,-0.11162556854155314,0.08204364447407295,0.30999999999999994,-9.779999999999985,-0.5741637717121586,0.019911823151170766,-0.013538508714844775,0.03556194347299306,254.56114588348578,1.8125,93.34050868486352,0.41562343917210465,-0.5928875795179439,-0.421792590922781,0.5457087576347543
359.0,-0.014426208200401757,-0.11157831147347279,0.07862172594430658,0.30999999999999994,-9.779999999999985,-0.5719205955334987,0.03748209116152665,-0.033881676119579346,0.007060882665721373,254.56249999999997,1.8125,93.32549627791562,0.415673101052109,-0.5928242064416873,-0.42174144690818915,0.5457755178014889
360.0,-0.015201513540223224,-0.11028014861482602,0.07741122139509235,0.3099999999999999,-9.779999999999985,-0.5707990074441689,0.04084718764658281,-9.030508022443706e-05,-0.009232557317234737,254.58253910068424,1.8125,93.31799007444168,0.41577873391803843,-0.5927524055571091,-0.42179673907481763,0.5457488561099331
361.0,-0.014470956462891954,-0.10956019719527782,0.07719127377998343,0.3099999999999999,-9.779999999999985,-0.5702382133995039,0.08058744430972253,-0.017030239585683133,-0.0031201829084893597,254.60477761485825,1.8125,93.3142369727047,0.4158735530880512,-0.5926959811656509,-0.4218663895374085,0.5457035469259341
362.0,-0.01575830307685147,-0.10888636509100216,0.07841941884280591,0.30999999999999994,-9.779999999999985,-0.5700000000000002,-0.012352108716776056,-0.0035348625948424337,0.0029396426825862307,254.61589687194524,1.8125,93.3125,0.41592046286412454,-0.5926683142130982,-0.42190191148582556,0.5456800139393938
363.0,-0.017291266641065037,-0.10915565505283248,0.07652306474887119,0.3099999999999999,-9.779999999999985,-0.5700000000000002,-0.014989459325396828,-0.01895321300563236,-0.009218908191942467,254.62145650048873,1.8125,93.3125,0.41594146417399747,-0.592657873235581,-0.4219229136461383,0.5456642037438904
364.0,-0.017225154102170237,-0.11122011971003906,0.07523532269701624,0.3099999999999999,-9.779999999999985,-0.5707146401985113,-0.014347872109968884,0.02446705819941707,0.0021414279604803797,254.62622142642303,1.8125,93.31795905707196,0.4159490567991574,-0.592662830017294,-0.4219649163838631,0.5456209191920443
365.0,-0.017408087991757352,-0.107609796677337,0.07393941486381,0.3118263027295285,-9.779999999999985,-0.5638461538461534,-0.010342642348690735,0.04743095935762266,0.010385559081375614,254.6582506203474,1.8189516129032257,93.28843052109181,0.4162938433995033,-0.5923244747543424,-0.4220588963374689,0.5456438787990074
366.0,-0.0148922618600038,-0.10905714357327262,0.06676817089720313,0.31091315136476416,-9.779999999999985,-0.5566004962779154,-0.043718333637688477,0.10097035580906549,0.019808283114734725,254.6738833746898,1.8157258064516126,93.23937044138657,0.4165175149988718,-0.5919900913703285,-0.4221091556760662,0.5458027782362582
367.0,-0.013445146251597869,-0.10820685765847057,0.06076133543875478,0.31045657568238205,-9.779999999999985,-0.5529776674937965,-0.01776167381006091,0.053334837205804946,-0.003639371381306867,254.681699751861,1.8141129032258063,93.21141909166101,0.4166455802413712,-0.591816694556132,-0.42214860557996886,0.5458860462149031
368.0,-0.014614510937091587,-0.10968423691004336,0.05924244214566794,0.31022828784119094,-9.779999999999985,-0.551166253101737,0.014947597205661719,0.05691517264097909,-0.015339096387483485,254.68560794044663,1.813306451612903,93.19744341679825,0.41672111262708617,-0.5917184963845687,-0.42217983029638473,0.5459146804704825
369.0,-0.01394000981097756,-0.10955179587437654,0.05995124588672974,0.31011414392059544,-9.779999999999985,-0.5502382133995039,0.010141292399356915,-0.053971073729138244,0.004535786793851311,254.68749999999997,1.8129032258064517,93.19028498383337,0.4166897970381085,-0.5917086909044427,-0.4221252855700282,0.5459707302153897
370.0,-0.013080963758864583,-0.10956205400548205,0.05730457372296562,0.3099999999999999,-9.779999999999985,-0.55,0.003703798675512685,-0.012213861741425535,0.009692155461293641,254.68749999999997,1.8125,93.18771383186706,0.41665807028332197,-0.5917178733355957,-0.42209031960883503,0.5460012995791583
371.0,-0.012771852659190171,-0.1103295268899506,0.05745877607119782,0.3099999999999999,-9.779999999999985,-0.55,0.004982538859524897,0.010849936186960738,0.0073655340807483325,254.68749999999997,1.8125,93.1875,0.41664056344078093,-0.591727647273858,-0.42207269344078074,0.5460120086263334
372.0,-0.01278046727252313,-0.10965111580229542,0.06094526892889915,0.30999999999999994,-9.779999999999985,-0.55,-0.01942250228239636,-0.004097364412723106,0.021471228578835704,254.68749999999997,1.8125,93.1875,0.4166313028494224,-0.5917327281530576,-0.4220634328494222,0.5460172438292953
373.0,-0.01121730620526962,-0.10933842854305062,0.06401985785038262,0.3099999999999999,-9.779999999999985,-0.55,-0.004582195608916841,-0.009819361348008437,-0.005938907425426444,254.68749999999997,1.8125,93.1875,0.41662631318610366,-0.5917356279602969,-0.4220584431861034,0.5460202676724557
374.0,-0.011805284428298398,-0.10952025570321189,0.06668464130958111,0.30999999999999983,-9.779999999999985,-0.55,-0.005301192548424132,-0.0048100491227597636,-0.004334687940850675,254.68749999999997,1.8125,93.1875,0.4166259799999994,-0.5917358399999991,-0.42205810999999915,0.5460205099999991
375.0,-0.011186705767350934,-0.10864072486653131,0.06575806451612903,0.3099999999999999,-9.779999999999985,-0.55,0.0029388957816377176,-0.00038137265959846617,0.0016241822693435597,254.68749999999997,1.8125,93.1875,0.4166259799999994,-0.5917358399999991,-0.4220581099999992,0.5460205099999991
376.0,-0.012352282126475683,-0.1097722009173622,0.06494948868335965,0.30999999999999983,-9.779999999999985,-0.55,-0.0010363796150086471,0.002137026280171442,-0.00319102940070682,254.68749999999997,1.8125,93.1875,0.4166259799999994,-0.5917358399999991,-0.42205810999999915,0.5460205099999991
377.0,-0.013750638304080775,-0.10936423089829447,0.06494987489240016,0.30999999999999983,-9.779999999999985,-0.55,0.026644693048686188,-0.0020070673939685734,-0.01513783720692724,254.68749999999997,1.8125,93.1875,0.4166259799999994,-0.5917358399999991,-0.42205810999999915,0.5460205099999991
378.0,-0.013813246815774505,-0.11114839110897129,0.06349399902977779,0.30999999999999983,-9.779999999999985,-0.55,0.03733261045396186,0.004250620750718548,-0.011570629258400082,254.68749999999997,1.8125,93.1875,0.4166259799999994,-0.5917358399999991,-0.4220581099999992,0.5460205099999991
379.0,-0.01409084778566002,-0.11153193673803331,0.059218237953869254,0.3099999999999999,-9.779999999999985,-0.55,0.05548251321254376,-0.004249934003917363,-0.0087324347134169,254.68749999999997,1.8125,93.1875,0.4166259799999994,-0.5917358399999991,-0.4220581099999992,0.5460205099999991
380.0,-0.01336476651257586,-0.10868981367693453,0.06063085345885056,0.3099999999999999,-9.779999999999985,-0.55,0.027079236964287517,-0.010023858894676179,0.0038166699844450203,254.68749999999997,1.8125,93.1875,0.4166259799999994,-0.5917358399999991,-0.42205810999999915,0.5460205099999991
381.0,-0.014322372459830339,-0.109330244081869,0.06163850342804362,0.30999999999999983,-9.779999999999985,-0.55,0.03768916948081609,-0.007510889923549409,0.0015490609810467175,254.68749999999997,1.8125,93.1875,0.4166259799999994,-0.5917358399999991,-0.42205810999999915,0.5460205099999991
382.0,-0.013369659990146275,-0.10823036036544098,0.06509464892153266,0.3099999999999999,-9.779999999999985,-0.55,0.01751303683477492,-0.010202544143286498,-0.006883750684247946,254.68749999999997,1.8125,93.1875,0.4166259799999994,-0.5917358399999991,-0.4220581099999992,0.5460205099999991
383.0,-0.013242063986406795,-0.10760616778503151,0.0641297600650032,0.30999999999999983,-9.779999999999985,-0.55,0.010407788277763001,-0.0028514639048160956,0.0005515929264123774,254.68749999999997,1.8125,93.1875,0.4166259799999994,-0.5917358399999991,-0.42205810999999915,0.5460205099999991
384.0,-0.012333566770254305,-0.10799129353233831,0.06581478604047213,0.30999999999999983,-9.779999999999985,-0.55,0.01334266397119972,-0.0017128776024569236,-0.005496254066908858,254.68749999999997,1.8125,93.1875,0.4166259799999994,-0.5917358399999991,-0.42205810999999915,0.5460205099999991
385.0,-0.01309144474527239,-0.10889777868443012,0.06598633916369834,0.30999999999999983,-9.779999999999985,-0.55,0.025119785413892,0.0060443664866736,-0.028609418519745914,254.68749999999997,1.8125,93.1875,0.4166259799999994,-0.5917358399999991,-0.4220581099999992,0.5460205099999991
386.0,-0.013525982363006924,-0.10794020447869149,0.06668184777895296,0.3099999999999999,-9.779999999999985,-0.55,0.03016988863302281,0.005578801516734081,-0.02272638808658308,254.68749999999997,1.8125,93.1875,0.4166259799999994,-0.5917358399999991,-0.4220581099999992,0.5460205099999991
387.0,-0.014727001773703756,-0.10863029422297596,0.0694446040772473,0.3099999999999999,-9.779999999999985,-0.55,0.04976607808817727,-0.010968281972133679,-0.017370205357687303,254.68749999999997,1.8125,93.1875,0.4166259799999994,-0.5917358399999991,-0.42205810999999915,0.5460205099999991
388.0,-0.013821632067178534,-0.10832862809367383,0.0679273314819776,0.3099999999999999,-9.779999999999985,-0.55,0.029274311589549913,0.013795469028377067,-0.00036874402546044176,254.68749999999997,1.8125,93.1875,0.4166259799999994,-0.5917358399999991,-0.4220581099999992,0.5460205099999991
389.0,-0.013950894234957795,-0.10863292070899197,0.0647222566124829,0.30999999999999994,-9.779999999999985,-0.55,0.02179112413825943,0.015349732784735191,-0.00943036795227455,254.68749999999997,1.8125,93.1875,0.4166259799999994,-0.5917358399999991,-0.4220581099999992,0.5460205099999991
390.0,-0.014225028702640651,-0.10970675160179252,0.0641126624939817,0.3099999999999999,-9.779999999999985,-0.55,0.0334297803785045,0.0026522165845709426,-0.010174160216288286,254.68749999999997,1.8125,93.1875,0.4166259799999994,-0.5917358399999991,-0.42205810999999915,0.5460205099999991
391.0,-0.013318469686307921,-0.10831243287285656,0.06328958186733824,0.3099999999999999,-9.779999999999985,-0.55,0.007704344283545052,0.008196455686826414,0.0006356246064960552,254.68749999999997,1.8125,93.1875,0.4166259799999994,-0.5917358399999991,-0.4220581099999992,0.5460205099999991
392.0,-0.013097607496018671,-0.1082811562534721,0.06378850783304321,0.30999999999999994,-9.779999999999985,-0.55,-0.010335959779267434,0.0005022962112514358,-0.00553498018591904,254.68749999999997,1.8125,93.1875,0.4166259799999994,-0.5917358399999991,-0.4220581099999992,0.5460205099999991
393.0,-0.01435192215103145,-0.10955800711084773,0.06456574756490499,0.3099999999999999,-9.779999999999985,-0.55,0.006247569534461685,-0.001798081552535091,-0.008327237880078515,254.68749999999997,1.8125,93.1875,0.4166259799999994,-0.5917358399999991,-0.42205810999999915,0.5460205099999991
394.0,-0.013519069579914555,-0.10995277601951892,0.06569643871214646,0.30999999999999983,-9.779999999999985,-0.55,0.006312464367200765,-0.00849406671806768,-0.00044764405470953386,254.68749999999997,1.8125,93.1875,0.4166259799999994,-0.5917358399999991,-0.42205810999999915,0.5460205099999991
395.0,-0.012506567674688768,-0.11029205239138436,0.06786980879749897,0.3099999999999999,-9.779999999999985,-0.55,-0.011902880853365324,-0.011777067520026113,-0.007196686201109647,254.68749999999997,1.8125,93.1875,0.4166259799999994,-0.5917358399999991,-0.4220581099999992,0.5460205099999991
396.0,-0.01288107540061982,-0.11011624952075424,0.0672277083689728,0.3099999999999999,-9.779999999999985,-0.55,0.00920054468497987,-0.00015032036050933485,-0.003768938634053583,254.68749999999997,1.8125,93.1875,0.4166259799999994,-0.5917358399999991,-0.4220581099999992,0.5460205099999991
397.0,-0.013626645969448094,-0.10954660724713688,0.06716137615126541,0.3099999999999999,-9.779999999999985,-0.55,0.004528334902672891,0.012087439121623042,-0.01565790305559203,254.68749999999997,1.8125,93.1875,0.4166259799999994,-0.5917358399999991,-0.42205810999999915,0.5460205099999991
