time,linaccel_x,linaccel_y,linaccel_z,gravity_x,gravity_y,gravity_z,gyro_x,gyro_y,gyro_z,euler_x,euler_y,euler_z,quaternion_w,quaternion_y,quaternion_x,quaternion_z
0.0,-0.05025000000000002,-0.08699999999999998,-0.066,-3.3777500000000003,-2.514499999999999,8.848499999999994,0.359375,-0.3125,0.19375,146.7109375,-20.1421875,15.8578125,0.27919464200000005,0.17680206225,0.13165741025,-0.93458251975
1.0,-0.06666869918699186,-0.08200813008130081,-0.050292682926829285,-3.4608760162601637,-2.509386178861789,8.818117886178864,0.1411331300813008,0.13363821138211382,-0.026880081300813014,146.8172637195122,-20.673412093495934,15.887563516260162,0.27799544863414627,0.17786027879878052,0.13627715073373978,-0.9340692301605692
2.0,-0.07763153310104529,-0.09911846689895469,-0.0501254355400697,-3.48448693379791,-2.5097369337979103,8.807764808362373,0.07006750871080139,-0.035932055749128916,-0.0036803135888501797,146.85025587979095,-20.82344838850174,15.916098649825782,0.2776273030731707,0.17830723795209058,0.1375732562378048,-0.9339064144590596
3.0,-0.07662804878048779,-0.08412195121951219,-0.04179186991869921,-3.496893902439025,-2.5213439024390265,8.799490243902442,0.15353150406504065,-0.15843495934959348,-0.006717479674796751,146.86345274390243,-20.895942581300815,15.990012703252033,0.2774597974341463,0.1790173357109756,0.13807210824430888,-0.9337486122142278
4.0,-0.06998131392604248,-0.05992997639653816,-0.03157671125098349,-3.503658339889851,-2.5349728560188822,8.794075924468924,-0.12409765932336744,-0.13150078678206137,0.012072187254130605,146.8694126180173,-20.942391571597167,16.07903840479937,0.27741959114555464,0.1798263065698269,0.13823045482789137,-0.9335883512004322
5.0,-0.07211565696302126,-0.05320692368214006,-0.02956254917387885,-3.5052202989771835,-2.548091266719119,8.789546026750592,-0.18316778127458694,-0.17441974822974035,-0.0220889063729347,146.8732395751377,-20.934225019669547,16.15390932336743,0.27743529876632567,0.18047522311959086,0.1380523934421715,-0.9334892588300548
6.0,-0.08570771046420142,-0.053393391030684516,-0.03625255704169947,-3.4844433516915805,-2.5549032258064526,8.794725806451616,-0.08501917781274587,-0.13702301337529504,-0.0072580645161290334,146.8741935483871,-20.80680566483084,16.17530241935484,0.27754619628717536,0.18044882273603458,0.13687445691778127,-0.9336324831994496
7.0,-0.09157140047206924,-0.04503265145554683,-0.036580251770259656,-3.463736231313925,-2.554733280881196,8.801894767899295,-0.09785478953579858,-0.14927960267505902,-0.0565647128245476,146.87459677419355,-20.68885719905586,16.163403570023604,0.2774917240169158,0.1801011513404799,0.13589276946990558,-0.9338566820993315
8.0,-0.10014705259335471,-0.05114783937541611,-0.0391728802275616,-3.450775373721478,-2.557826317859953,8.806233674272228,-0.10055516048336663,-0.0835896048941879,-0.03392105575056991,146.87479838709675,-20.619277389850513,16.177593922108578,0.2774497337826516,0.17998962161782062,0.13532294717240112,-0.9339769608036979
9.0,-0.10556142952248382,-0.05852150033286934,-0.04400579495249049,-3.4438715578284804,-2.5591107395751385,8.808713611329662,0.0035026616938005697,-0.08362947986644878,-0.004536132713994634,146.87489919354834,-20.57841389653816,16.18295018686074,0.2774520436372935,0.17989103215165222,0.13495529279991025,-0.9340453942970101
10.0,-0.10873808803313131,-0.06363651821558983,-0.04550232143937889,-3.420155632984902,-2.554398111723054,8.82017324191675,0.22117697408806772,0.3065927581466527,0.2588818472374727,146.84120583717356,-20.42904349780825,16.133286969390433,0.27781156440313215,0.17933849462440526,0.13368763054876465,-0.9342242800843732
11.0,-0.08940032796995817,-0.06866757161013652,-0.044301496038710864,-3.2847917650144245,-2.5530208684575326,8.868212581019819,-0.3312610596196355,-2.906002635575806,-0.090270308631835,146.6461213517665,-19.571328584541604,16.04825830804391,0.2798003774627028,0.17722727308025182,0.1262866490844681,-0.93495912869042
12.0,-0.07250466737563512,-0.07659222497932175,-0.04760108708495807,-3.1626244239631336,-2.558955453149002,8.909294930875575,0.2853993117097956,0.9535987533971404,0.3589699279215408,146.48943932411674,-18.823891129032255,16.011040706605222,0.281379528907066,0.17570495607142858,0.11980602332777973,-0.9355873163333333
13.0,-0.06327112135176652,-0.08467741935483869,-0.042792626728110614,-3.345306067588326,-2.5416589861751167,8.847481566820274,0.08813124039938558,0.7613911290322579,0.12359831029185869,146.3312211981567,-19.957404473886328,16.017857142857142,0.28223183883909375,0.17810655120775729,0.12915025197465435,-0.9336503483740398
14.0,-0.051647559102319135,-0.0893784421715185,-0.03698718669214343,-3.439620283990859,-2.520742947060807,8.819794874676859,0.1944276628826196,0.3143931943351692,0.08185226293507175,146.30885410812635,-20.53156845940579,15.942961812970665,0.2822055558085122,0.1786675044114121,0.13421398143362928,-0.9328856139464614
15.0,-0.043298490127758424,-0.08890955752875501,-0.032347420478813095,-3.5114583567494666,-2.50566258289311,8.796821213143009,0.1864568112847027,0.13068426623206325,0.1602483046719868,146.15081160316214,-20.976931596792923,15.890599827657262,0.2832867968717919,0.17929004931606163,0.13787649198194146,-0.9319370725452399
16.0,-0.03805323891948598,-0.08714679105316399,-0.028768948334644648,-3.5216761829830276,-2.490381214641639,8.798400621932487,0.14009380502791202,0.05937535124199168,0.030536978756884332,146.0646915158668,-21.0396706755086,15.80142510584092,0.2840235384458807,0.17878964036386796,0.1384682394502641,-0.9317496399600241
17.0,-0.037117455322018676,-0.09825203252032522,-0.029431868420066704,-3.5210674759282146,-2.4893662657824733,8.7993639429021,0.011946208459780443,-0.06589346596230938,0.17184982765726275,146.04244103817769,-21.038188902626352,15.791685867895545,0.284203999483234,0.17873985964804612,0.13840627628267954,-0.931727687642239
18.0,-0.04125458019557156,-0.11290097785770484,-0.0345008804465925,-3.4800191450301594,-2.491691581431943,8.814893184968714,0.008493265520212798,-0.7998918174665618,0.12838363118654228,145.88750796148514,-20.783639382188753,15.777083333333334,0.2856164658207261,0.17831420812663445,0.1360296023464089,-0.9317185409217339
19.0,-0.042656401034056435,-0.10862515454647634,-0.03570677381889028,-3.446155127196433,-2.511947285601888,8.82266138398711,-0.23033735622494472,0.15055566483084182,0.2869396519426024,145.60335272189127,-20.57184526151137,15.884057008916864,0.2879766069056423,0.17911270561406467,0.13356066671293693,-0.9311928007307335
20.0,-0.048295155670450715,-0.11520950882319886,-0.03967872129182122,-3.4601192630474698,-2.5016896144767897,8.819906616462475,0.1713675138623506,-0.13272767505900868,0.524223169795062,145.3702247480424,-20.65851311069274,15.825707694072907,0.289823141839918,0.17907814366855868,0.13409682870265255,-0.9305465421316924
21.0,-0.043015473380540264,-0.11091888651605411,-0.03699700273500432,-3.4700248772994646,-2.5053858978681953,8.815303922670562,-0.20951233561874788,-0.25980901802105577,0.3122627945749504,144.8726171743284,-20.723554990446218,15.855921003334458,0.2938205503398899,0.18003168140455583,0.1337688268440298,-0.9291539221618521
22.0,-0.034257539994754796,-0.10922419542167773,-0.03159842268929603,-3.4890722340863967,-2.533810179461242,8.799516634820721,-0.10888677363156118,0.09496763890449963,0.19175787250384024,144.5923864785883,-20.83352710183208,16.05962356224945,0.296007973722266,0.182220538019351,0.13377075604593314,-0.9280390150502416
23.0,-0.03187531377617925,-0.11566970139747482,-0.027677859578134963,-3.5021866546776077,-2.547953476827396,8.788967226780557,-0.026241581900266004,0.029237851710314337,0.16154233870967744,144.4615638230115,-20.924084019426026,16.16254027574838,0.297009537063898,0.18338847758724852,0.13401204731559327,-0.9274657822363344
24.0,-0.03006668914615415,-0.1057058184406729,-0.02743973624068039,-3.490964295080738,-2.5556017384136966,8.791173129519315,0.10131973324341538,-0.15413107414484284,0.08991935483870968,144.35174965344123,-20.861512775842044,16.2032459443258,0.29785206074969106,0.1836776404347532,0.13323199890779666,-0.9272511686342962
25.0,-0.02991375369974899,-0.08729272039264173,-0.0255396950282867,-3.4803641302311634,-2.564196620583716,8.790169570267132,-0.06000103030984226,-0.07861451425574165,0.02325924468922109,144.31596137274738,-20.805510518526845,16.26662592259563,0.29824984114038444,0.18405676251792732,0.1325682068929227,-0.9271422140575103
26.0,-0.038737214791502765,-0.09419551534225021,-0.027833595594020467,-3.4699693154996063,-2.570419354838708,8.79362549173879,-0.0901627655389457,-0.060582218725413056,0.06818204169944926,144.26401947285603,-20.735075727773406,16.293297600314713,0.2986359363351691,0.18416958115066873,0.13182792954169942,-0.927104320820614
27.0,-0.048241935483870985,-0.08445967741935485,-0.029362903225806463,-3.446790322580645,-2.5657258064516126,8.80583870967742,-0.051360887096774194,-0.08004032258064517,0.10539314516129031,144.2228830645161,-20.581350806451614,16.23780241935484,0.2990453417741935,0.18347926087903224,0.13062689995967738,-0.9272755760161291
28.0,-0.04870622119815669,-0.06913671274961597,-0.0353041474654378,-3.313922811059907,-2.24667242703533,8.93165975422427,1.6086141513056835,-0.9788018433179723,0.9008352534562212,143.10923339093702,-19.758417338709677,14.125621639784946,0.30910066050153606,0.16614418609984638,0.12740491380606758,-0.9273466134827189
29.0,-0.04895852534562213,-0.05636866359447006,-0.026425115207373284,-3.310853302611367,-2.209874423963134,8.948376344086022,0.22184619815668205,-0.4447244623655913,0.3362423195084485,143.04708381336405,-19.73442780337942,13.872369431643625,0.30968100582565283,0.1642833286282642,0.12755591762250382,-0.927640651032258
30.0,-0.030911009328987306,-0.04819593683264023,-0.018360374283466343,-3.219726415271065,-2.14105827807126,9.00010870705481,0.6278671883781051,-0.3196711906635195,0.18887991270465698,142.9568147971226,-19.165896041736914,13.376463039976022,0.3108542535263197,0.15922006154013524,0.12379785606390732,-0.928695433234461
31.0,-0.029421968079127805,-0.027752079352590768,-0.014231229627964486,-3.298694737926642,-2.0903424749915698,8.984941253606081,0.07455884005844668,-0.076366624049305,0.30820372503840243,142.86748342137798,-19.65556062905099,13.087697983402645,0.3114443108552134,0.1581858661405436,0.12844852065715037,-0.9280961838090087
32.0,-0.03947308081375745,-0.013170394515005061,-0.013458356749466115,-3.3244078528342884,-2.096638979431268,8.974906110674006,-0.12461574126109924,-0.1860411749278783,0.223607910906298,142.66620138810833,-19.814977895170657,13.143294556217452,0.3130024680647035,0.15918410161462665,0.12932593274793003,-0.9273160525940205
33.0,-0.02558907496909071,0.0019363081188415567,-0.009882020156607097,-3.344554156831891,-2.1623479075343743,8.95213431493762,-0.7524240380652654,0.4709195047019595,0.5406874039938556,142.09234128545202,-19.939747012101456,13.572367324191674,0.3174272674463303,0.1635195163142258,0.12846715922726762,-0.9251498588430933
34.0,-0.019312464875800836,0.005348469521561575,-0.002261174178562062,-3.392183882207486,-2.2307590198943457,8.917046607470681,-0.5414350811134839,-0.13085520400134876,0.15115792776591358,141.83451163313475,-20.23836054287962,14.043565012551047,0.31925002759975285,0.16820004447525386,0.1293967186579746,-0.9235618406267281
35.0,-0.017697931887152976,0.006819002660072682,-0.0019897531002959793,-3.371523097673373,-2.2654471732044503,8.917173972500091,-0.26580507006106924,-0.13092720860964369,-0.108931264283841,141.91142379453748,-20.106041011014945,14.255043717919897,0.3186081166252108,0.16944102972779215,0.1278771748333146,-0.9237803509774081
36.0,-0.02116289198606272,0.017768273950020605,-0.0018540425611629392,-3.3285318084747666,-2.2923309823536018,8.926645208122583,-0.3156769252744371,-0.6890129748791728,0.2912169012963171,141.66420914353154,-19.837511064122737,14.40238417209921,0.3206573029034787,0.170248676138483,0.12489921451972576,-0.9233302283997975
37.0,-0.02242418792851523,0.02528736278146192,0.0018673335581282056,-3.305032033269642,-2.288919523434865,8.93570566857742,1.0923883518789104,-0.523715156794425,0.434494539357836,141.62857634595932,-19.692319040125884,14.361801965081863,0.3209664884557716,0.16965603630714468,0.12374768219534674,-0.9234736206031245
38.0,-0.03669114229776957,0.043493358095621465,-0.0019480357894351645,-3.34609092821986,-2.1945763087113237,8.939644621521232,-0.8719460734085962,1.740942228697418,-0.4751551836129764,142.7617616484914,-19.95443268210345,13.797717016906667,0.31186905635627504,0.1644576754387865,0.12900809091360949,-0.9266322454248072
39.0,-0.038762565641410354,0.05112568320651592,0.0006716679169792442,-3.423465643196514,-2.36606864216054,8.866126308362801,-0.5331628666095096,0.35960602873932757,-0.025600708212767442,144.4000352208588,-20.434392917425782,14.938585148519273,0.2980154951168059,0.1726658413822384,0.1328290118111939,-0.9291040971921907
40.0,-0.057769953159021455,0.05717702334991414,0.0016269433211961522,-3.505409355823276,-2.4498346751321973,8.812602394936714,-0.5260879734306398,0.149687086950309,-1.0353785405737324,145.800055105512,-20.942119624527212,15.537257636218724,0.28622163850854065,0.1767408379422994,0.1379305364387401,-0.9313333240144668
41.0,-0.04195549192176092,0.059868016002258426,0.0013492702443903665,-3.500577022522181,-2.4065888560554773,8.828135579844437,0.2503780235128468,-0.4124388621109982,0.5287327153543612,146.16993375358214,-20.912016735945745,15.243673689273798,0.2833854662020477,0.1739711954527587,0.13879166580129376,-0.9327008623234214
42.0,-0.04410846614092547,0.06086977319242705,0.0051551302459761274,-3.533063736317355,-2.3957435090479935,8.819526998474359,-0.02099909777095843,0.14461280825432835,-0.0448064433355726,145.96878509697112,-21.123255062458995,15.190317832071258,0.2849468627312751,0.17420993550882494,0.14032496860010296,-0.9320195484906679
43.0,-0.044036740892540206,0.05627692637445077,0.01085387200458651,-3.456304707710028,-2.430215541690301,8.8400571702159,0.006904001697288435,0.14452339130078684,-0.40718996713464084,146.1037198269515,-20.643987488596885,15.36089913157732,0.2840010569473074,0.17449583067950347,0.13605538088367908,-0.9329005444528248
44.0,-0.03341621990863569,0.04336237905630255,0.01013744055150748,-3.5217116708820733,-2.428759549174348,8.814940259455108,-0.03220689670541463,0.10595246724439082,-0.1579902187085233,146.31153253252336,-21.051865686872,15.392955473859084,0.28212152931998485,0.17527786540149104,0.13978958078628007,-0.9327860606504343
45.0,-0.030354844808763166,0.044733903926262995,-0.0006354496691715148,-3.3683263311137353,-2.3885536534227363,8.879551168279873,-0.1519954625147844,0.4190511746135408,-1.1766790196611066,146.79205167145443,-20.10913504642577,15.056283008369354,0.27865679322804904,0.17025049688642604,0.1332580463844854,-0.9355524125990173
46.0,-0.03960270555443739,0.03493899741351849,0.006748309966797514,-3.5997376079479526,-2.562096251079655,8.736518580864729,-0.6342419035809609,0.9620437473345823,-0.4998539738124023,147.79423018864472,-21.556374377365447,16.3525049883484,0.269489350657078,0.18174647935057398,0.14451179808986955,-0.9343101847033475
47.0,-0.03278764813154508,0.0361248332721079,0.011414152787727887,-3.684909515371338,-2.644743348125962,8.68039942912557,-0.5238393615758536,0.09887679471462618,0.22207820951485532,147.84945131099846,-22.084071586611472,16.94355026373854,0.26864434730784476,0.1873260147806792,0.14780587145998975,-0.9330548150262753
48.0,-0.11706427477949624,0.061095461482631466,0.004468269305332235,-3.172643023393211,-2.795918749856319,8.773466546079026,-3.1919347139451713,-8.754329726729457,-3.8309591343493876,148.21164938447157,-18.967927245480627,17.64560947677954,0.2663010192728576,0.18713980686525625,0.11992329490481034,-0.9362433074327734
49.0,-0.06193234719829782,0.11791100214077915,-0.0038313498235185922,-1.8325218586876684,-3.3356576339206745,8.890372140073346,-1.9920774509829549,-4.2478886272090675,-1.4214352804228934,150.97266182834906,-10.917034191039049,20.465920269265922,0.24431485366152514,0.19472069738923406,0.04960193242325389,-0.9451338409370287
50.0,-0.09140519798939281,0.12839767258887896,-0.02754510056085449,-1.2360941315468241,-3.6017336163309115,8.943596770272707,-0.8625070575135073,-2.4280945889782553,-0.46976563391719023,152.69414956090938,-7.319222248942026,21.86502150363375,0.23043433674500333,0.19926658526660757,0.01879238383475834,-0.9501110730113939
51.0,-0.06670428234236259,0.11790558615263573,-0.025575287550110522,-0.9580002247948747,-3.7335803829006027,8.97105204001349,-1.0909365516466225,-0.47467685736765197,0.20742478738151435,153.5250613502679,-5.640579689783072,22.55795446030497,0.22377557170836615,0.201735110987374,0.004441997365479,-0.9525405136576374
52.0,-0.08981756850362416,0.10034960569410646,0.015043673810438682,-1.3829810466553922,-3.635547441738483,8.95944181602892,1.6036320709097138,3.9528112428804065,1.9849792042958476,153.0735377333009,-8.149428913195198,22.04689539109516,0.22749983007719,0.2017434657529591,0.02652015274619439,-0.9514056311595048
53.0,-0.07111078117961546,0.07510183817731438,0.03225301970091827,-2.6138100317762367,-3.2810264090412846,8.71791215225409,2.151470413335041,9.24447877812223,2.0154590721940067,153.32673142425415,-15.67170466397087,20.514687134871696,0.22396166386347977,0.19930597032271613,0.09484729808200655,-0.945743156025221
54.0,-0.11445427036201561,0.09452855199862682,0.021104030362991445,-3.3592172185032325,-3.0778441400419796,8.578272325049905,-0.06469017080053985,3.0759398405241543,1.4361721759381483,152.0822135915621,-20.203456346447236,19.659137477368034,0.23327861021018584,0.2005023737584507,0.1334326492360128,-0.9396632310801238
55.0,-0.09526246544214452,0.07431803944017362,0.01996061733203336,-3.7407372574851037,-2.890757323477211,8.533855824583323,0.09111881628943821,1.5302210243327377,1.5150390929613935,150.44123280384557,-22.515452251564632,18.66599947025084,0.24647172134088408,0.19816382447964775,0.15242794791754558,-0.9349965032199774
56.0,-0.07959582752831064,0.07043518022362734,0.014213196156181905,-4.008529132283071,-2.7513503375843964,8.490248919372704,0.2626719179794949,0.613059961418926,0.7637400421533954,149.46852159468438,-24.16006680241489,17.929400207194654,0.2540695344226057,0.1961556630982031,0.16629495409016543,-0.931849955919194
57.0,-0.06574690101096703,0.06559268388525703,0.014991069195870399,-4.129857214303576,-2.673810952738185,8.471137212874652,0.1746592898224556,0.3252377826599506,-0.03070968635015897,149.29603405315612,-24.914874924088167,17.503123772014433,0.2553445167536884,0.19414925092644592,0.17322987324163183,-0.9310394714629728
58.0,-0.05284656878505341,0.056306326581645416,0.01753777730146823,-4.160800342942878,-2.657197335048048,8.463756010431178,-0.021109295180938098,-0.05514704568999394,-0.04038844532561712,149.2587361125996,-25.10694303040046,17.417340495838243,0.2556134543906691,0.1938319196490908,0.1749533869241953,-0.9308128110118243
59.0,-0.07581867984417708,0.04026005325373156,0.033292604510012515,-4.1373847355567115,-2.598761737472696,8.489634177708187,2.6792875510907344,-3.910141616959118,-1.8145549154056808,149.42332306454225,-24.94416090956537,17.004352195954038,0.25443909854756935,0.19007900752611145,0.1745337223856112,-0.9318823044102247
60.0,-0.014127821807368227,0.09311061933601869,0.02330116719075239,-3.48508337972995,-2.5252654365682012,8.762616159701945,-0.511704759541366,0.49392300029493463,1.1879945909277843,149.3718823229871,-20.89320379692048,16.094854809902387,0.2567175719391026,0.17624999356083398,0.14170308692338895,-0.9385809769332041
61.0,0.006490812598620029,0.09560081658045176,0.0319290014141166,-3.5524441476222712,-2.495221043936942,8.764247019943138,-0.27272905987820983,-0.9325951914807968,0.7285439064469952,149.11440338307574,-21.275362939166847,15.894656427608645,0.2588657296809569,0.17589751854040162,0.14495257802813072,-0.9380877191121474
62.0,-0.012723764564834594,0.08048143568993296,0.026259038627252637,-3.5090395638979435,-2.4670862837660623,8.800762991270467,-0.4247569405417556,-0.4379367108763253,0.3238544827844592,148.86150879509947,-20.982953055337003,15.652046804166197,0.2611810009212844,0.17398444198212878,0.1425540264675359,-0.9384473589425276
63.0,-0.016157506275523585,0.07183282754486534,0.02386946910943764,-3.5017384136975016,-2.4700535761117965,8.808173541643253,-0.43523800157356407,-0.20955097223783295,0.052468528717545274,148.8015412498595,-20.926459293394778,15.655810947510396,0.2617233074305946,0.1740589938308793,0.14198712148214754,-0.9385160713573866
64.0,-0.01982440061905051,0.06882962565889397,0.025191810549796394,-3.5304641149566414,-2.527071210981516,8.782898729908961,-0.5445540559623958,0.29432223624788534,0.05623348262018601,148.77316377891714,-21.09614664118991,16.043819149641337,0.2617588515614309,0.1774692421792134,0.14265762406734622,-0.9378344025533533
65.0,-0.017162397005040592,0.06483574123227942,0.028115181435401742,-3.550951963064473,-2.566914834444338,8.764879734742047,-0.45058151263894775,0.015571818359977299,-0.07355025318243258,148.73524927734212,-21.220009787943503,16.314592501649933,0.2619336231961364,0.17986872928394185,0.14310822058206019,-0.9373030076220739
66.0,-0.023105008026329827,0.06796318551629331,0.024971569212324532,-3.5839744454339266,-2.595984298942599,8.742466749091456,-0.07979344449151687,0.10698425787430509,-0.030246708772475893,148.7502091240781,-21.43558573114533,16.52543181150085,0.2616766453960713,0.18188453037161761,0.1445191314239026,-0.9367740188494393
67.0,-0.02600672079035573,0.07661150546280365,0.025247576970629695,-3.5829698573128943,-2.5925652265384755,8.744634520999588,0.14131311908652583,-0.005761809656380859,-0.041839405676935185,148.76544798304238,-21.42821550335319,16.502646383252205,0.2615814431613941,0.1816976680595303,0.1445246078527478,-0.9368379637573598
68.0,-0.01771524829746703,0.08239458417271164,0.02235440929382708,-3.5211985025202965,-2.5288100569768543,8.78576411524484,1.2059526331261186,-1.0584754872717106,0.395708327209114,148.44649197511114,-21.040430294855945,16.047036166036953,0.264498962737454,0.17777965602519433,0.1416533979590066,-0.9371493675495053
69.0,-0.0496102161428859,0.09680927200441225,0.014699816068999835,-3.384295559952706,-2.5013021373810354,8.84590156249864,-0.9527894277576363,-0.06450256945769539,0.30593226486064024,148.09225771164043,-20.191211021396462,15.783877644062583,0.26783008892417354,0.17463075495135105,0.1343944550228411,-0.9378305540341445
70.0,-0.04536859389063294,0.08596860887695792,0.014845880459661955,-3.3887531900396692,-2.5363606711782474,8.83608236118263,-0.39374981484918276,-0.19489271817083187,0.21858867373637836,147.7242811356149,-20.217404525347362,16.006817198637638,0.27077459755451494,0.1769162131749749,0.13358099433263365,-0.9367128989799063
71.0,-0.04399382075484028,0.07291518001451583,0.013206350368079824,-3.4196223707494813,-2.5591288762957287,8.818206311159667,-0.3842068966719032,0.2277984565827868,0.1604176087575901,147.461890951832,-20.409969543779674,16.16945122604693,0.2727823808241085,0.17890086321575166,0.13446796116785292,-0.9356470439177564
72.0,-0.039716179044761185,0.0597929839602758,0.017008180616582717,-3.437891437145,-2.6032838566784555,8.798124173900614,-0.2881177883756654,-0.2928834887293252,-0.2192132854642232,147.5317947790519,-20.51953836673454,16.466897974493623,0.2720762311611832,0.18140084687725502,0.13489446761476084,-0.9353245031148859
73.0,-0.03950559068338513,0.05969492373093273,0.011790090379737791,-3.402955024470403,-2.607532597435074,8.810282570642656,-0.49814685814310716,0.1971140106455185,-0.04299958918301004,147.42593684135318,-20.30532856428393,16.47778685742864,0.2730193312692459,0.18121132469510232,0.13289011483585184,-0.9353765354492194
74.0,-0.03659368239272362,0.051617538530974214,0.014331453072327317,-3.438139726569273,-2.646533575902687,8.785256283583085,-0.1750404391167478,-0.007502474486217381,-0.010690118087013046,147.4562476093762,-20.528106275262196,16.754422082219158,0.2726069123254724,0.18376401333331588,0.13424886203459835,-0.9348145607633266
75.0,-0.030749576632968217,0.05279151769984845,0.02306168541599351,-3.451259394183845,-2.6770455897946617,8.771330434122866,-0.08325533122090492,1.2180931146415657,0.05467355137832971,147.4847186882991,-20.616129824385204,16.961436123822565,0.27225863249411986,0.1855174315443609,0.13460886241012676,-0.9345120208956654
76.0,-0.03420725993613118,0.052867134969215385,0.019899019246905004,-3.5907735658117153,-2.6640983634410342,8.718099464560588,-0.1940584943542238,-0.017228451109025045,0.032809711322899074,147.58768232286897,-21.48271004070034,16.983434918716945,0.2710097194487009,0.1870365923511771,0.1421360327070678,-0.933422966118471
77.0,-0.01930474644927649,0.04618095424418958,0.025347209222568313,-3.600162550018367,-2.660646930025189,8.715862140957377,0.3377462857740702,-0.4458847474532799,0.04781935399422088,147.58094812164578,-21.54120386921308,16.964993212421305,0.2710855768452901,0.1869819368976484,0.14264472135952844,-0.9333571163137032
78.0,-0.017971312715608548,0.05660775888155904,0.02112126530694588,-3.513264540337711,-2.5663834251245734,8.778967701587685,0.4258861385139906,-0.9478328188989087,0.3550202747685045,147.34862388791382,-20.99071622384958,16.28309023785027,0.27342664031330066,0.18093800630676427,0.1390295590649398,-0.9343883247632594
79.0,-0.01990304424136053,0.06601985111662531,0.018293126752607483,-3.4303970223325067,-2.5084977707841594,8.828634912949628,-0.031392099901147885,-0.4049352922189272,0.17787402408763542,147.10906312413,-20.479086475418107,15.851468407674151,0.27569494762242525,0.17688181761758354,0.13517115177086486,-0.9350698335027942
80.0,-0.022508261211644384,0.07253815892997639,0.01934225019669552,-3.427159716758457,-2.5196003147128243,8.827181746656178,-0.28498229740361924,0.016001180173092017,0.033497246262785205,147.01798780487803,-20.447128245476,15.918371361132964,0.27640341388827705,0.17751405328245473,0.1346979141148702,-0.9348267090479939
81.0,-0.027890637293469717,0.0753170731707317,0.018215578284815112,-3.438351691581431,-2.551330448465775,8.814444531864671,-0.26422108575924474,0.21057238394964595,-0.09912962234461055,147.00751868607398,-20.516197875688434,16.130556648308417,0.27635814467427233,0.17931595915892995,0.1348227696577498,-0.934488321919748
82.0,-0.03488158929976398,0.08283949645948073,0.02107867820613691,-3.465721872541306,-2.563670731707316,8.799142014162076,-0.11571105428796225,0.3514506294256491,0.08271292289535798,147.06920977576715,-20.696189024390243,16.232641620771048,0.2757935882261999,0.18039151791542096,0.13619325134343035,-0.9342540105664832
83.0,-0.0476130999213218,0.0833095987411487,0.016336349331235255,-3.5045926435877277,-2.5780234067663264,8.778644177812742,-0.07122098741148702,0.14565548780487803,0.01802837332808812,147.097129474823,-20.935515833988987,16.345707120377657,0.27537440010995295,0.18169918551081823,0.13801885667250197,-0.9338676163304487
84.0,-0.05328245476003149,0.07834461054287961,0.01081353265145555,-3.523704169944926,-2.5667584579071594,8.776031471282451,-0.09723642800944139,0.1777635719905586,0.016070023603461842,147.11565696302125,-21.058782454760028,16.284490558615264,0.27527556468607406,0.18142671879779698,0.1391965561258851,-0.933774174624705
85.0,-0.051010228166797816,0.06668371361132967,0.009201416207710464,-3.5338339889850507,-2.55344217151849,8.77666640440598,-0.06359657749803305,-0.37639162077104643,0.1330940204563336,147.09903619197482,-21.11529799370574,16.216901062155785,0.27544969012588516,0.1809626061880409,0.1398167757324941,-0.9337122662360346
86.0,-0.04647154471544717,0.05605794087894797,0.009609512569780076,-3.529636637817991,-2.5617229590498676,8.77522353976996,-0.0739227408115095,-0.4973039835525084,0.08936251920122887,146.98701107114755,-21.090357821924993,16.26619330954254,0.27634382248754263,0.1814481774745232,0.13930169717893676,-0.9334289031024692
87.0,-0.05845607133490689,0.07141213330336069,-0.0047743153122775436,-3.483653881458169,-2.542812699037129,8.797977623543515,-0.00563760958750141,0.5670688972874751,0.051541015698175416,146.74490699112062,-20.808431271308677,16.11559075390581,0.27850345288421186,0.18001549704568015,0.13686136032038893,-0.9334072164214156
88.0,-0.04929024764902028,0.04898698063017498,0.0007412985650593847,-3.5507864261361513,-2.5376707504402236,8.772217882432281,-0.1984949280656401,0.27672401277584197,-0.016068969877486794,146.77827146791054,-21.226655871829454,16.129923593158743,0.27801725236798913,0.1808325223168109,0.14045167738408076,-0.9328697795271441
89.0,-0.036745045146304,0.033115834925630375,0.0038930725712787093,-3.575766934547227,-2.5400541006331734,8.762357564347532,-0.061599942396313355,0.10114721488516726,-0.031642864167696974,146.78306275991906,-21.388411531508748,16.159321552676932,0.2779126031210519,0.18138623325675315,0.1417297866377524,-0.9326095373701808
90.0,-0.033208085122325884,0.021071784496646814,0.006601138960698365,-3.6150312839533925,-2.5436777190813378,8.746525458019558,-0.16303529279532425,0.2049101288823948,-0.04170717657637406,146.793497105766,-21.625328528342884,16.202415374096137,0.27760300063133636,0.18218060806268033,0.14370908564804613,-0.932245102477577
91.0,-0.032171181297066434,0.009535274062418046,0.002506013262897607,-3.6416082199992497,-2.546508598403955,8.733642164025332,-0.09502641339777454,0.19061387733693003,-0.006504767524633772,146.80191848375858,-21.78704057547488,16.25030464388745,0.27737806928432807,0.18284663676718743,0.14501130365576415,-0.9319772751939611
92.0,-0.029315331010452972,0.013186205087857335,0.003931999550410251,-3.6634240942639846,-2.557711419579632,8.720558296804167,-0.20823802967292343,0.1883930913041849,-0.0807012429283279,146.83784456839385,-21.92103307294594,16.341886192911467,0.27709734346592485,0.18373743177855834,0.14601373370042336,-0.9317313231123227
93.0,-0.024839693154996074,0.02949095200629427,0.011539732494099137,-3.6772688827694724,-2.584689811172305,8.706167781274587,-0.28025668764752165,0.11946056254917387,-0.09467569826907947,146.85567343627065,-22.019718725413057,16.528148357592446,0.27692741817151856,0.18536363400295044,0.1464678352895358,-0.9313899011007084
94.0,-0.01665774980330449,0.05830999213217938,0.020495672698662475,-3.6378804091266717,-2.620236034618411,8.71190243902439,-0.2751081825334383,0.10353068450039339,-0.11354248623131394,146.7915715971676,-21.7705448465775,16.738444138473643,0.2774459770857593,0.1866243979087333,0.14382289730605824,-0.9313849966955153
95.0,0.008398111723052713,0.07468214004720693,0.04232494099134541,-3.6918906372934694,-2.626203776553895,8.687808025177027,0.4653422501966955,1.3849183713611328,-0.08362018095987411,146.86891227380016,-22.11523406766326,16.816138867033832,0.2766504366860739,0.18773039257356414,0.14670513443194336,-0.930948679787569
96.0,0.012748540793735011,0.09784406162516238,0.03186481071487385,-4.046418943150422,-2.5178843338883503,8.546985453680492,-0.19296824968437232,0.798777686037363,-0.26583313130111796,147.73342931769525,-24.38822788776462,16.391997580187727,0.2686110826007172,0.18686858657386607,0.16825569698140083,-0.9294078104801199
97.0,0.018048542623460746,0.09532486322800211,0.05947056428741333,-4.046345584871827,-2.535336344756921,8.549767313779665,-0.3471381374306991,-0.05029152676888732,0.058202631831738405,148.279411354363,-24.377861976927157,16.505366414012038,0.2641839787716411,0.18703042283453336,0.16882661252217168,-0.9307517820504456
98.0,0.03705770954933856,0.11377759683823396,0.04642735531443837,-4.035368406125922,-2.571295532724645,8.54744325563098,-0.28903794165004665,0.656999815883849,-0.1627081598905824,148.5512922723821,-24.30921890152416,16.7308217298227,0.2619547110640267,0.18831721732373796,0.16825230533651855,-0.9313195711271112
99.0,0.029877792618886432,0.11317322013430187,0.05497656121347411,-4.076905878908754,-2.5777554571569734,8.527746509798183,-0.33467067224123104,0.20914691325270343,-0.1949193090955666,148.91533252977877,-24.573021380345086,16.808398669789398,0.2588541230289645,0.1888304927237297,0.17094897558318844,-0.9316620461528553
100.0,0.024250462005745342,0.11243633469342947,0.05845602254222093,-4.0780988875267585,-2.59079354289792,8.523534938612702,-0.3858886406052733,0.18000618676010469,-0.12649683000018297,149.07268396748577,-24.583889722430605,16.90230614055953,0.25748225339489134,0.18932685918641246,0.17114193987263282,-0.9319423459285125
101.0,0.030454563335955937,0.13394059795436664,0.06411998426435878,-3.9735993312352464,-2.623687844217152,8.56279897718332,-0.4046284913453973,-0.27146071007081035,0.07035060975609757,148.9034040617624,-23.910282258064516,17.02731117230527,0.2591404762128245,0.18953034082651454,0.1648983670743509,-0.9325520993686076
102.0,0.031619197482297405,0.13436978756884344,0.06984736428009442,-4.00147128245476,-2.627704169944925,8.549480723839492,-0.3335857592446892,0.16931549960660897,-0.19338119590873326,149.02081038552322,-24.08494295830055,17.077340676632573,0.2581214506011015,0.1900174815295043,0.16649652019669553,-0.932473470214005
103.0,0.02577025963808026,0.12262549173878834,0.06586388670338317,-4.015114083398899,-2.620028324154208,8.545841856805662,-0.3022669158143194,0.06882376081825334,-0.20000491738788356,149.10472069236823,-24.176568646734854,17.033998819826905,0.2574227254933124,0.18970737915971675,0.16744837202596385,-0.9325690277151847
104.0,0.01996223446105429,0.1101168371361133,0.05861250983477577,-4.019881982690794,-2.6220676632572766,8.542826514555461,-0.414926730920535,0.12228560188827695,-0.16641178206136897,149.0412716365067,-24.209424173878837,17.055797600314712,0.2579170031715186,0.19001465269551532,0.1675426700570417,-0.9323604927285605
105.0,0.0293123524783635,0.10047541306058222,0.062296026750590094,-4.0236860739575135,-2.641423288749015,8.535630409126668,-0.5749397619984264,-0.9086890243902439,0.053841709284028316,148.97637932730134,-24.222090135719903,17.183804583005507,0.2584292911097561,0.19115608930605818,0.16731290476888278,-0.9320258185554682
106.0,0.03132179386309993,0.13586939417781274,0.06479150275373721,-3.987513768686075,-2.6539103068450034,8.547734067663253,-0.031028717545239948,0.7181353265145554,-0.36491935483870963,148.94300747442958,-23.990312745869396,17.23559205350118,0.2587671655310779,0.19126165756097557,0.1652228398819827,-0.9322738358457907
107.0,0.034553969502828685,0.1274725562923832,0.0661953467460942,-4.010362294406356,-2.6612603499306884,8.53568468772245,-0.312237739312877,0.5243176538908245,-0.17626962271926863,148.97483936532913,-24.134577198306545,17.303405174028697,0.2584046842100333,0.19197274886291255,0.1663699515694429,-0.9320277313648793
108.0,0.030660147615301052,0.1185867895545315,0.062200741823086436,-4.022978157431345,-2.655484620283991,8.531005207747924,-0.15963480199318125,0.32256893709490086,-0.12484311191038175,148.9672829792814,-24.224300794275223,17.27933338953205,0.25843016727024093,0.19186782613877337,0.16716769388070885,-0.9319010495376722
109.0,0.02219474729309506,0.10997002735004308,0.0591696077329437,-4.030923382413548,-2.6480176838634746,8.530357049192606,-0.13912601626016263,0.17720205312652204,-0.10378170544378254,148.95162929451877,-24.26928552695665,17.235285302161778,0.2584749392881497,0.19157471487662514,0.16763563420471328,-0.9318721440678135
110.0,0.008806264283840999,0.09815495860027726,0.04994200292233339,-4.034997489790568,-2.6437019969278035,8.530206061968448,-0.06352937319695778,0.08008411074894159,-0.03517665130568355,148.94485969053238,-24.287966917687612,17.209548630624553,0.2584888982199994,0.1913978296475966,0.16789894592297033,-0.9318577099843398
111.0,-0.009555168408826949,0.09342051627889553,0.03846588737776781,-4.028768611142333,-2.6334340039713773,8.536700198568804,0.09915093102543927,-0.10350633172230339,0.04614593870593084,148.9417207579334,-24.252121735791093,17.13006444119741,0.25857002144516883,0.1907806004909895,0.16771830320538758,-0.9319961806538533
112.0,-0.029384343036978774,0.08362116443745082,0.02742879622344612,-4.006366640440597,-2.6282753737214786,8.548026750590086,0.0412421321793863,-0.203169256490952,-0.0019030291109362711,148.9247246262785,-24.11592741935484,17.07449842643588,0.25882746905822196,0.19017616390755313,0.16658098032926832,-0.9322521272147914
113.0,-0.050346774193548396,0.07062096774193549,0.016000000000000007,-3.9770645161290323,-2.6270322580645162,8.562161290322578,0.11844758064516128,-0.25025201612903225,0.02530241935483871,148.89193548387098,-23.927116935483873,17.039717741935483,0.2591979967903226,0.18966596042741934,0.1649987009758065,-0.9325320821290322
114.0,-0.07455645161290325,0.0687741935483871,0.0056774193548387135,-3.947395161290322,-2.6150645161290322,8.579758064516122,0.10327620967741935,-0.24344758064516128,0.038205645161290325,148.8429435483871,-23.737550403225804,16.936189516129033,0.2597855105725807,0.18865085646774188,0.16340238442741944,-0.9328626075806452
115.0,-0.09349645948072387,0.06156785995279308,-0.004250786782061371,-3.924480920535012,-2.612048387096774,8.591008064516128,0.04079956726986625,-0.25898775570417,0.03497000393391031,148.79344758064514,-23.591634293863102,16.90055443548387,0.26018452991404406,0.18825617002950418,0.16218697877163657,-0.933042112968135
116.0,-0.10632887490165226,0.056021833202203,-0.02129071597167585,-3.8789461054287964,-2.6051129032258062,8.612540322580644,0.1604199449252557,-0.03823883752950434,0.07635596970889064,148.62515120967743,-23.302243558221875,16.816280241935484,0.2617419468965382,0.18738879532926822,0.15965693326081826,-0.9332058035405191
117.0,-0.09370476003147128,0.036474626278520855,-0.017645357985837926,-3.9239649881982688,-2.5815161290322584,8.59933064516129,-0.027300108182533436,0.0725388473642801,-0.019105281274586945,148.62046370967744,-23.59645948072384,16.695564516129032,0.26170170081117233,0.18689360493882762,0.1623522307352478,-0.93284903284284
118.0,-0.08588060582218726,0.01573328088119591,-0.01885896931549961,-3.950393784421715,-2.569685483870969,8.591040322580644,0.046203776553894564,0.006178697875688435,-0.016785503540519275,148.6189012096774,-23.77393538552321,16.641129032258064,0.2616958762765539,0.18670180279602677,0.16395735883536577,-0.9326115568286779
119.0,-0.0966675845790716,-0.0022938630999213196,-0.02461723052714399,-3.9564472856018873,-2.549778127458694,8.59421203776554,0.23422256097560973,-0.19622098741148702,-0.06343676239181746,148.63252852084972,-23.800245869394182,16.511518981117227,0.2616523519217152,0.18571694774468916,0.16444192370102279,-0.932736375890637
120.0,-0.1627673092053501,0.008030881195908734,-0.009716168371361132,-3.736783831628639,-2.460927616050354,8.706626081825334,0.7051816974822973,0.32635842840283236,0.22110911683713613,148.2947261014949,-22.417678009441385,15.776658389063728,0.26520546929287964,0.17796169836487014,0.15371531545397327,-0.9347837430751375
121.0,-0.12183123524783634,-0.023916011014948873,-0.019628245476003156,-3.7615653029110936,-2.462350904799371,8.701325137686862,0.06098298583792283,-0.7927935680566484,-0.14698072383949642,148.68813926042486,-22.564484166011013,15.791681009047995,0.26189613951337526,0.177906857025177,0.15545713181569631,-0.9355735557633751
122.0,-0.12256785995279308,-0.02547836349331236,-0.028361329661683726,-3.6439811172305276,-2.4965727773406763,8.736376475216364,-0.8976814516129032,-5.2527770948072385,-0.4351691581431943,148.95790715971674,-21.82447506884343,15.932759638080253,0.2599333931972856,0.17748329828835563,0.1492297058762785,-0.9370862394885917
123.0,-0.11299456745719533,-0.03800569480349182,-0.045698137949121434,-3.011809299014649,-2.668378554568956,8.905398299052116,0.14212749615975417,-0.7696981192162149,0.022248370237158616,148.84905726649433,-17.939233262148292,16.645642491851184,0.2620104476794799,0.17657036336499193,0.11448972276014388,-0.9410635767796263
124.0,-0.10575377468060397,-0.04830261136712749,-0.04138172043010753,-3.094256341088756,-2.6127494661121715,8.908336442995765,0.2807903413135513,0.23675794275223871,-0.13666790772170392,148.93409295268066,-18.421008251845187,16.32429646229066,0.2613483931945787,0.17489046688705928,0.11944350317786893,-0.9413303319067288
125.0,-0.09745989284777642,-0.07154705706043235,-0.05223688696564384,-3.2680801768386347,-2.570528942340114,8.86379056610843,0.31164320370162224,0.8951787353415008,-0.06916990980105653,149.10699533550635,-19.484476391854933,16.156222778745644,0.2596546873053932,0.17521628519805366,0.12915329994455993,-0.940600285394749
126.0,-0.0827810872578772,-0.07030047581581805,-0.04502491476527669,-3.3854374133603096,-2.5501315050016853,8.82995429170882,0.33473830130006366,0.3703753137761792,-0.021875351241991678,149.2035517590199,-20.204237851710314,16.099640328200515,0.25863351554756286,0.1758935173684013,0.13557675109924694,-0.9399574373684012
127.0,-0.08436457982091342,-0.05903300738076505,-0.046473905061631265,-3.4212985650593843,-2.547717208047656,8.819308381102246,0.12409613727473678,-0.12655014798995912,-0.01846127908283691,149.18967418792852,-20.419167509647444,16.10108393278633,0.25863661474073657,0.1763206464261361,0.13738218817354161,-0.9396791092113446
128.0,-0.07825371848188528,-0.06497733318347008,-0.037726199842643596,-3.475580158105729,-2.553658911243489,8.798102731257728,0.1525818628001948,0.27812277546738606,-0.04436888838934472,149.2718964257615,-20.758258870031096,16.17878217376644,0.25782832091491514,0.17739001829755344,0.14026025232025774,-0.9393428601356262
129.0,-0.08436289385935333,-0.073987486418643,-0.03841070023603462,-3.532640590461205,-2.5474470795399187,8.777399123299984,0.6423068637368402,-0.923438612266307,0.15164521748904125,149.31285124199167,-21.115827900790528,16.17490446217826,0.2573487211104866,0.17790975119441008,0.14335550671087627,-0.938900659540669
130.0,-0.08844670226790147,-0.07573251326768973,-0.0493096444842918,-3.474722670214592,-2.5038970892548917,8.81155850809392,0.19144703423242576,0.8834378673065479,-0.029424930274380437,149.08429840474054,-20.758094521452662,15.850282039150901,0.25946448915239256,0.17499021791976738,0.1406082378400959,-0.9392406192159276
131.0,-0.09176308362804989,-0.0740511504182666,-0.04404900005489178,-3.603301539670632,-2.495177498207304,8.761377208413599,0.18879983497616565,0.4523208219302213,-0.018085793225309815,149.1987188325827,-21.56565721351941,15.884228352384262,0.25807097308288407,0.17646061141857755,0.147559744241055,-0.9382850847904967
132.0,-0.09338036164093289,-0.08091149181023478,-0.044870290743417585,-3.6693321231004616,-2.4929939418652567,8.734377038510498,0.08053288365645418,0.18338405376605477,-0.09796893909888621,149.28360410551244,-21.978781596531533,15.91546685125114,0.25726713321492756,0.17731707577537847,0.15114217225192011,-0.9377978047296306
133.0,-0.09408029071057633,-0.08603916785950708,-0.04762538523936803,-3.6973610278742286,-2.492619504313226,8.72414349975862,0.21634540318944653,0.0643228906429234,-0.254075749237497,149.35062834071556,-22.156227321957132,15.93320200946109,0.2566969060184291,0.1776493576150318,0.1527087778593879,-0.9376532621524203
134.0,-0.09844848524513866,-0.0941879552908865,-0.052388617088606135,-3.7109779175563116,-2.4775095948002,8.721406919037456,0.07847167877804348,0.07027120141902267,-0.1755970799688665,149.4278466251178,-22.249115824629232,15.839609462637705,0.255918773032818,0.17698006914583214,0.15384116137658618,-0.9378109752579569
135.0,-0.09644891464423327,-0.09178548588835765,-0.051281037543626076,-3.7353455082813865,-2.477025706590813,8.712772604853843,-0.026919609534184666,0.02065217802457181,-0.09081072595775586,149.42534068671952,-22.396538064364822,15.853278762936512,0.2558814420930471,0.17731013256890896,0.15507882604234507,-0.9375672815049778
136.0,-0.09147848958018115,-0.08588871068611431,-0.043854228449232396,-3.758559850914887,-2.4958072081341167,8.695841947588214,0.05443334039419799,0.00284120998002784,-0.11869165330145856,149.42214614981137,-22.542145040246925,16.00370591372632,0.255874840348943,0.1787097337642932,0.15601748227117246,-0.9371463879742634
137.0,-0.08717876091912283,-0.08554919405273459,-0.044156952934293635,-3.7662678286832496,-2.499185862131574,8.692848393148944,0.15030134761645383,-0.04920943533256672,-0.27832264116685834,149.50038759103472,-22.580145100768625,16.031666464927675,0.2552632530252779,0.17886383485392077,0.15645356080897335,-0.9372133797330993
138.0,-0.0857537372147915,-0.09254996066089696,-0.04380959874114873,-3.7590243902439022,-2.4907419354838707,8.69931077891424,0.09550550747442958,-0.009977380015735638,-0.23422010228166798,149.6022718332022,-22.54269767899292,15.966099527930762,0.25446462789535795,0.17817735785444527,0.15635869660110152,-0.9375762205468136
139.0,-0.07332533438237607,-0.08781313926042486,-0.03572069236821402,-3.770228166797797,-2.500721085759244,8.692157356412274,0.13938827694728562,-0.15071547993705742,-0.03157208890637293,149.73839004720693,-22.613279405979544,16.04200924468922,0.25330405459284033,0.1786701117163651,0.15701953048780487,-0.9376877700334385
140.0,-0.06314024390243902,-0.06930940204563336,-0.029820220298977195,-3.787355625491738,-2.517391227380016,8.680070023603463,-0.020859559402045633,0.04956358182533438,-0.06397644571203777,149.74813876868606,-22.71749237804878,16.16525127852085,0.2531158528298584,0.17979736861742718,0.15771168283162862,-0.9374057896398507
141.0,-0.0709451219512195,-0.04962647521636507,-0.033160110149488595,-3.7943874901652235,-2.535054484657749,8.671905979543666,-0.26829268292682923,-0.9911204268292683,0.35578899488591653,149.70284962627852,-22.761543568056645,16.285901848937844,0.2534238550318647,0.180871609643391,0.15778835177065303,-0.9370956913239573
142.0,-0.07664902026900453,-0.047770034843205585,-0.023972912217601443,-3.768021318047282,-2.561484807613052,8.673817429095951,-0.027377908283691132,0.7172914090892062,-0.11778642613615076,149.60256968641113,-22.59828570491926,16.442350886066464,0.2542626211737665,0.18197690977580455,0.15592712424438948,-0.9369323175054887
143.0,-0.0693465400322206,-0.04073552882994269,-0.017346802292907724,-3.8364182121314294,-2.5734733243415375,8.641649076467726,0.03549967685736766,0.14368701060282493,-0.09362472368963322,149.6771699730246,-23.029006149076466,16.57274900715597,0.25341054722181633,0.18355371487924765,0.15949806488616014,-0.9362657836551836
144.0,-0.06734754224270353,-0.03359907834101383,-0.021632488479262676,-3.7950556835637475,-2.6003291090629808,8.651693932411673,-0.016553859447004604,-0.09457565284178183,-0.16960445468509985,149.60692684331798,-22.76817636328725,16.718524385560677,0.25408142825921654,0.1844113157173579,0.1568404683982335,-0.936370787020353
145.0,-0.06192319508448542,-0.03365668202764978,-0.019633640552995393,-3.793673963133641,-2.5957273425499237,8.653362903225807,0.42165658602150535,-0.15874615975422426,-0.48574788786482337,149.81829877112136,-22.76117751536098,16.68662394393241,0.2523782102534562,0.18385456240591397,0.1571628791048387,-0.936895571891705
146.0,-0.061300307219662065,-0.04561059907834103,-0.02458294930875577,-3.780566820276498,-2.584452380952381,8.662935483870967,0.0639784946236559,-0.028264208909370193,-0.3299203149001536,150.14705261136712,-22.684595814132102,16.60140168970814,0.24973307211059897,0.1826105353279569,0.15715972343548384,-0.9378511824216589
147.0,-0.06557634595931212,-0.05804807800382152,-0.029536051478026314,-3.7759768086620964,-2.570560273125773,8.67001856431007,0.0544968341388483,-0.050408962758982434,-0.2090047324004346,150.33643620508786,-22.657774097542244,16.508468093177477,0.24827081983522536,0.18156731958915923,0.157403322183723,-0.938403986245485
148.0,-0.07784059233449478,-0.06728613577610432,-0.036126896706755104,-3.772440017234275,-2.564921265595145,8.671452830542131,0.07004075577910157,-0.039468594282717026,-0.13718885813570117,150.43031487673747,-22.628408218125962,16.46910299820164,0.24743417894180625,0.181073482879257,0.157459654958797,-0.9387115364816132
149.0,-0.08721484770147239,-0.0694423401146454,-0.03866691019444758,-3.7747430219924323,-2.5694930875576034,8.669210876325355,0.02184116368813458,-0.13476921059533176,-0.05146409370199693,150.42938958825073,-22.63796000992844,16.49872709902214,0.24744923948004954,0.18135697549657187,0.1575088089997565,-0.9386517734793003
150.0,-0.0960306189352216,-0.0895906017009479,-0.03256310179461243,-3.5340957813495186,-2.621908602150537,8.740868879022893,-0.47784669926192347,-5.476466786557267,-0.9624639976958524,150.3464632273051,-21.135512263028737,16.676014855194634,0.2486165423782736,0.1805080098604211,0.1441502459207692,-0.9403027088364243
151.0,-0.0769880671387359,-0.05495786969390432,-0.050168352628226734,-3.213362406803792,-2.6716968266456846,8.844375332509085,0.09872417200554492,0.7009729403169609,0.2567529785320895,150.2422914090892,-19.156593046345208,16.789222022404555,0.2501570793997977,0.1784008049886291,0.1268859612832603,-0.9426638431389045
152.0,-0.06742558353002885,-0.062095771983065456,-0.042085749878236114,-3.2458668839683797,-2.6836296879097814,8.83900906672661,-0.08290089590124011,0.11414697369899976,0.036500014049679674,150.173663407141,-19.34724813607583,16.877341144955228,0.2506747627911655,0.17956890571146641,0.12822185917821552,-0.9423583798566277
153.0,-0.07494833464463677,-0.06759971525982542,-0.03736398036791428,-3.2984121988685335,-2.6759454497770783,8.826368813457723,0.07282042636094564,0.4755100033719231,0.19397409239069352,150.02290566108428,-19.665116986999365,16.856476434003973,0.25186445237315935,0.18011259818785355,0.13075146399085835,-0.9417012222098835
154.0,-0.08011775504851823,-0.06438994417593946,-0.024696939043123152,-3.3549692780337947,-2.6775163912929454,8.80664624779888,0.158017215540819,0.5460014611666855,-0.01043329212093963,149.97194161889774,-20.01101049979394,16.902643213068075,0.25214351714251987,0.1811284360530141,0.1335496963856731,-0.9410961405423925
155.0,-0.07194059795436665,-0.0642694728560189,-0.028442171518489386,-3.4522419354838716,-2.670376475216364,8.771716365066874,0.19951071990558614,0.4663331038552321,-0.08926042486231313,150.09877802911095,-20.611462431156568,16.923955055074742,0.25085345696066086,0.18210144014555468,0.13885956132494098,-0.940509084438631
156.0,-0.0684533831628639,-0.05927242328874903,-0.03766325727773408,-3.476701612903226,-2.6636264752163648,8.765160306845003,0.15145185877262,0.16115632376081826,-0.0313286782061369,150.1010363394965,-20.767060877262,16.89761875491739,0.25080321586664045,0.1821295455550747,0.14022151441384734,-0.9403448809911485
157.0,-0.05986782061369002,-0.06929346970889064,-0.03260582218725414,-3.5252258064516138,-2.6601479150275367,8.745729346970888,0.22338217938631,0.44038158929976395,-0.3320957907159717,150.17201514555467,-21.07813729346971,16.91093135326515,0.2501308622478363,0.1826384506081825,0.1429471600133753,-0.9400185394350903
158.0,-0.080213217938631,-0.04821310554119367,-0.037768761005582414,-3.597507624292834,-2.6483209321494128,8.72011917874939,0.283192016972013,0.9890091697575961,-0.2191252435277809,150.54320639447752,-21.531098965943578,16.885353091866172,0.24689838058609648,0.18263841601950098,0.14745833730203065,-0.9401627743698624
159.0,-0.06711290322580644,-0.05654070660522273,-0.028506912442396316,-3.726955453149002,-2.617898617511521,8.67381797235023,0.20923819124423962,-0.14481086789554537,-0.17380712365591397,151.00074644777266,-22.344662058371735,16.783186923963132,0.2428418960088326,0.18236636182526883,0.15532523267933948,-0.9399549592288785
160.0,-0.05969925255704171,-0.05667102206736354,-0.024941103742834668,-3.7335241467161215,-2.6310879790940778,8.666641873665284,0.15875277481173428,0.0897024043685137,-0.35872385588775246,151.27563323077067,-22.385631334063916,16.874429934247498,0.24055696253716619,0.18285102584546284,0.1559350024627027,-0.9403847284655404
161.0,-0.055773013375295055,-0.06837986587239145,-0.023833455097223795,-3.731874976583866,-2.642596408901877,8.664091098122965,0.037113282567157464,0.05261329895845041,-0.32727019407290847,151.47241842990147,-22.36925215896744,16.944926660672138,0.23899938994600245,0.18318857174127984,0.1559923840861901,-0.9407223252690606
162.0,-0.0629268292682927,-0.09085122325877637,-0.03366269529054739,-3.732695552808063,-2.6362377205799716,8.666602000674384,0.13665139934809487,-0.12341613277883931,-0.2746230002622607,151.61057917462813,-22.3719748698063,16.90270526581994,0.23782052965445288,0.18259706363676892,0.15634515206728858,-0.9410852808200141
163.0,-0.0674541980442846,-0.10309074219774453,-0.03642044134727063,-3.7023654415346003,-2.626978307294594,8.683700385897865,0.48220818815331007,-0.042362828294181566,-0.31861910381776626,151.72346835075496,-22.175690775916976,16.816920029223333,0.23698959531493768,0.18148270971776997,0.15502706468187777,-0.9417304371419579
164.0,-0.05990530515904239,-0.10765267318571803,-0.03514926379678544,-3.728587463939156,-2.601058090742198,8.680981735416431,0.1664880015735641,0.17316546307744185,-0.33579694466299503,151.99161643906183,-22.349061130156233,16.668000332509084,0.23478300529356344,0.1801313616416957,0.15714328909152891,-0.9421909923332024
165.0,-0.05594163763066204,-0.11638967254879923,-0.03683741710688998,-3.7467791765014438,-2.59180520587464,8.675620686748342,0.12177173485444531,0.0597190415308531,-0.21090594676108051,152.16501553660407,-22.461833869562774,16.62408179489341,0.23338189063025933,0.1797342144455528,0.15851756632153155,-0.9423897974986233
166.0,-0.05381572440148367,-0.12237687797384886,-0.03843306732606498,-3.750343758195647,-2.58319440073433,8.676293919298644,0.15105232100708102,-0.036507390131504995,-0.0426444072908471,152.22946574922258,-22.489574610823873,16.564814918886512,0.2327680932029149,0.1792094636933704,0.15890380731792553,-0.9425778152974038
167.0,-0.05121569068225246,-0.10822138548574425,-0.043070585590648545,-3.726856281143456,-2.599535536323105,8.68118747892548,0.11339496459480723,-0.28063813645048885,0.12722593758195647,152.15573835749876,-22.33997625604136,16.65795328949833,0.23343399541223636,0.17984082798014311,0.15735649877629165,-0.9425384960322584
168.0,-0.04923210070810388,-0.10000472069236821,-0.03374193548387098,-3.7651203776553883,-2.606647521636507,8.662635719905584,0.07506392604248624,0.19977625885129824,0.09450236034618412,152.1085267505901,-22.580261605035403,16.73568794256491,0.2336727994523997,0.1808523350877262,0.15923954535719897,-0.9419731375656965
169.0,-0.042080551496759225,-0.0869260424862313,-0.031201453673522922,-3.7215549810797652,-2.6018738338765877,8.682551796485706,0.1734345144430707,-0.8379818454722565,0.23562811434565958,151.992129837773,-22.306772648083623,16.668909873646548,0.2347351108707804,0.18009537081500315,0.15679535463450223,-0.942256098920535
170.0,-0.0436854370387022,-0.08431785995279308,-0.02505233973998727,-3.714261361507625,-2.6087998201641005,8.684275898242854,0.13142491851185792,0.23007661758645243,0.07587857330186205,151.90715362856395,-22.25792261436439,16.70796804166198,0.23540150014506758,0.18047077695185643,0.15620435880918657,-0.9421248821699448
171.0,-0.04965389082462253,-0.08050039339103068,-0.025308231238994422,-3.7017608931849693,-2.607866471844442,8.689676894833465,0.14761155445655838,0.18484554718819082,0.09337791765014423,151.83949833277134,-22.177982746993365,16.693962384324305,0.2360151000945637,0.18034885053493688,0.1554271247562849,-0.9421256835594023
172.0,-0.047129069723876975,-0.06994964594807239,-0.01937087407740437,-3.7613296991495258,-2.6132180510284364,8.661393128769996,0.25959944363268517,0.4168867783147878,0.07684238132703908,151.86942461878533,-22.558424890412496,16.774326786182606,0.23553350028252967,0.1814664228284441,0.15861128258427937,-0.9414984536341464
173.0,-0.0535115207373272,-0.0649431643625192,-0.022064516129032263,-3.8116443932411688,-2.6115460829493085,8.640279569892474,0.12420794930875577,0.23771121351766517,0.05683563748079876,151.93385176651304,-22.879305875576037,16.793437980030724,0.2350189728809524,0.1820269221996928,0.16133707784715823,-0.9410520952526883
174.0,-0.05560291858678956,-0.07281029185867896,-0.026438556067588336,-3.8393629032258083,-2.60350806451613,8.628822580645163,0.17163738479262672,0.09476766513056839,0.041253840245775726,151.96875,-23.05498991935484,16.76688508064516,0.2346393364896314,0.18201368105913973,0.16300038461405533,-0.9408667304650538
175.0,-0.05339016897081415,-0.06719546850998463,-0.026840245775729653,-3.8472177419354843,-2.5891290322580645,8.630193548387094,0.15212413594470048,-0.04626536098310291,0.04134264592933948,151.99183467741938,-23.105393145161287,16.67872983870968,0.2344085756036867,0.18134371993279566,0.16365774560944701,-0.9409440320188169
176.0,-0.05714532052002549,-0.05914917013225431,-0.026470476939792445,-3.837699645948072,-2.596733674272226,8.633588316286383,-0.004475525458019547,-0.2424014649132666,-0.06215654387246638,151.96787347560974,-23.040285700236034,16.723442417387883,0.2346042416234405,0.18157022780245208,0.16299083783589974,-0.9409711434420402
177.0,-0.052428459031134106,-0.037446704881795356,-0.024429938930725717,-3.7903073882582143,-2.63223127646023,8.643760555992657,-0.5080845369225582,-0.5980536510434229,0.22052623075193883,151.86335422052377,-22.73502140234536,16.924791245176277,0.23554570390676632,0.18289258333574987,0.15984750525665953,-0.9410030108842304
178.0,-0.06025023416132779,-0.025671012700910417,-0.003129509947173207,-3.7936824116743466,-2.6421384549098947,8.63930750065565,0.15522841266719117,-0.08390983852234837,-0.08467209218463152,151.73970228728786,-22.758270929339474,16.992957188284443,0.2365151843496965,0.1836477979136132,0.15974146675472067,-0.9406347203057395
179.0,-0.021592859016147763,-0.004440345060132627,-0.004552658199393057,-3.7838533026113668,-2.65404503390656,8.639976330972985,0.02244787568843431,0.5984180646097935,0.03289076842381327,151.644044692031,-22.696978206605223,17.06444734414222,0.23731114387242885,0.18426211019470984,0.15893700367977967,-0.9404397898222243
180.0,-0.027220111648121093,0.013260649657187816,0.00457929639204226,-3.788846202839909,-2.674868307669252,8.63103330710726,-0.4967938630999213,-0.6969240567981716,0.1928665093102544,151.60471928740026,-22.730790809636204,17.213416507436964,0.23759718027177698,0.18551471854542734,0.15888072028166794,-0.9401350324858564
181.0,-0.03126151137087408,0.022196807912779594,0.02159334607170957,-3.8184592933947767,-2.7052154284215644,8.607715709415158,-0.0705104248623131,0.5835796710501667,0.10053927353789667,151.387922192874,-22.92209288711551,17.448024146716122,0.23919466139473977,0.18790250002409056,0.1597877411085759,-0.9391024278440296
182.0,-0.023120771046420144,0.026858772619984275,0.02070220298977184,-3.87759677419355,-2.7111530291109354,8.579255704169947,-0.08979150275373719,0.18864083398898507,-0.02617525570416994,151.3429386309992,-23.294192564909523,17.53098691974823,0.23931340098308407,0.1891655919897718,0.16273122518332012,-0.9383230130149487
183.0,-0.017692564909520064,0.023741738788355636,0.01936998426435878,-3.9043625098347774,-2.7204356805664833,8.56533123524784,-0.21493902439024387,0.010139653815893004,-0.018304976396538157,151.32262981904012,-23.46331874508261,17.610600658929975,0.23941573523347745,0.19002256765420927,0.16395121649331232,-0.9379163198638865
184.0,-0.015277734067663262,0.015520062942564914,0.014955153422501971,-3.9093304484657745,-2.7262863886703386,8.561375295043275,-0.13892112509834775,-0.04150275373721478,-0.03490853658536585,151.31353265145555,-23.495318646734855,17.65814811172305,0.23954547300786783,0.19038491830291107,0.16417182526278518,-0.9377581471093631
185.0,-0.01951159566895208,0.027461241617024474,0.013175564797122626,-3.6861338840807765,-2.7550548874152336,8.641155220860966,-0.9130981651118355,-4.666201856431006,-0.7672259609980893,151.28336798920986,-22.087679133415758,17.676918366677906,0.24032871119278032,0.18860482338378104,0.15190797763926042,-0.9397345100402009
186.0,-0.02704926754336668,0.050154696339590125,0.006753006631448803,-3.2485822842905847,-2.8727949496084824,8.769346296504441,0.14457699926941664,-0.5107169785695553,0.08525995419804427,151.13853686635946,-19.376082879060355,18.119414140065942,0.24233623311802666,0.1884058733952737,0.12759177199429583,-0.9426680254725002
187.0,-0.041113530995989425,0.04571875852238322,0.008239406541530853,-3.285363066376351,-2.846402538570181,8.77363713924997,0.0069641607374839876,0.7768280729807889,0.02976836325806189,151.091234862287,-19.58976335438389,17.960407440438072,0.24273712199909206,0.187604095101144,0.1297058490356888,-0.9426669147960776
188.0,-0.05116966872380117,0.038415830874094836,0.0017648645610880069,-3.347600888026885,-2.829406914446381,8.759560505108858,0.09307381423970974,0.6964785526194266,-0.12669847966129164,151.16880291501445,-19.96816796751453,17.887940615380327,0.24202130758825569,0.18754966040137847,0.13323572875171535,-0.9424847231157809
189.0,-0.07093967307157802,0.03353856059833774,-0.0009562773968753515,-3.515510121432797,-2.7777679733522227,8.710489929973782,0.46369920550695165,0.6813289940516488,-0.05616678015322646,151.45113532847498,-21.017148499886293,17.6715912754321,0.23935075846751486,0.18696119028536665,0.14309934540005123,-0.9418354259772452
190.0,-0.05686009917113426,0.04861784348526156,0.007897718332022028,-3.6606320604541374,-2.728892229154849,8.665554900920352,-0.08196931092529225,1.3168649250727316,0.11712531791484455,151.248856764496,-21.93242674235632,17.467162484218616,0.24072438968100554,0.1869104561567892,0.15099614498366054,-0.9402714869924067
191.0,-0.060601568074945586,0.05022158893381883,0.003799370574350904,-3.6661854244048815,-2.7263815984483912,8.666026860373629,-0.08118430141071852,-1.1586652951347594,-0.31958446928805373,151.403736014034,-21.956968681957072,17.45353600214078,0.23944687497818967,0.18664124103276122,0.15147889434470205,-0.9406182103372733
192.0,-0.06784016888368435,0.04857666093352607,0.005819415219658573,-3.631386035533273,-2.742395600424495,8.67670810385523,-0.10824969009020546,0.2985039990942856,-0.2973578760543794,151.6458852613306,-21.739666824099316,17.529773439930104,0.23755320277041514,0.1866413139447377,0.1499133250230637,-0.9413746637770388
193.0,-0.07502089089345507,0.054889136918375936,0.0045226108356357375,-3.68108011454083,-2.7435566711799897,8.655975019669548,-0.07290004665800595,0.12034574954714283,-0.21037248641428646,151.87861299356848,-22.052923129791594,17.582452244158603,0.2355177580464979,0.18715182347640114,0.15287529926153187,-0.9413240309772292
194.0,-0.08976447770479204,0.07021876200757507,-0.0009120816789563247,-3.7073384443671897,-2.7567097872028983,8.640983477576711,0.03199755731615831,0.2562414231606682,-0.16183946901359486,152.0591401661391,-22.213381927799023,17.684572896272847,0.23389413767244255,0.1879602100406199,0.15439184921947563,-0.9413247785289371
195.0,-0.09782873767222293,0.08709207179843742,0.001164730206941979,-3.6882836989735246,-2.760475271256839,8.647678992918959,-0.059114321263242633,-0.20545029550070443,-0.21533653230380767,152.1738708305125,-22.094077863978193,17.695035267963334,0.23300402562221656,0.18770895175123048,0.1535289594641831,-0.941744859244799
196.0,-0.09852135246355143,0.08988918527541293,0.0024296169861280654,-3.6929260838728846,-2.773347485390512,8.641580120639912,-0.12950775259145797,-0.17447686181127162,-0.10859788662322375,152.19571857250025,-22.12211222448469,17.784571556652228,0.2327889571811206,0.1884490182833557,0.15366969657166293,-0.9416337067487719
197.0,-0.09128618260836986,0.08870678318534339,0.003925986287512644,-3.62264683788543,-2.764863540144619,8.674306189352215,0.009200549810797654,-0.29148167921771384,0.1500146350829868,152.05976382488478,-21.67843701996928,17.667093542767226,0.2340978106745813,0.1871069535602825,0.14982166768493127,-0.9421846019797874
198.0,-0.08213502678805587,0.0793816173991233,0.008366218950207935,-3.7054968060394886,-2.7236777378142447,8.652015997901916,-0.014250531546214074,0.38873496684275605,-0.1358293760068937,151.92932747695852,-22.20040802611367,17.46353669073845,0.2350478280268068,0.18636213251401224,0.15444168501988498,-0.9413450698527968
199.0,-0.07736244426960398,0.06549822037390882,0.004529691656363568,-3.7651468285189758,-2.699797010228167,8.63368311415833,-0.15483191899891346,-0.38658489753100295,-0.10992937694353902,151.9679723502304,-22.57817780337942,17.355187844217156,0.23458557838859542,0.1859306839179124,0.15791407370368288,-0.9409713110177961
200.0,-0.0874853134015211,0.07213148626877974,-0.0014448315911730516,-3.6662870255891495,-2.7297450826121166,8.666082312389946,-0.2517619469109438,-0.3961101120227792,-0.0367211794237758,151.6896313364055,-21.961787564160204,17.472489673485445,0.23711719037053683,0.18640207481104118,0.15191611446789177,-0.9412005213546886
201.0,-0.07983789479599865,0.05975237907909034,0.0005103030984226907,-3.682563635682439,-2.7251221572814806,8.661094919635836,-0.24612386900078678,-0.22393351223258776,-0.11152495223108912,151.63600230414747,-22.061702153815894,17.44896085056761,0.23754027959079838,0.18650857025959128,0.15271121007879995,-0.9409701625237343
202.0,-0.08577506462852645,0.05403974186055226,-0.011414990071559702,-3.6634322899104568,-2.7361973886328728,8.665839946049235,-0.25827104642014165,-0.14030443314225768,0.006437563223558512,151.49274667725075,-21.94000540912667,17.50512005451276,0.23871677618662662,0.18694961147470124,0.1513676534405605,-0.9408082494131259
203.0,-0.08689884230639541,0.04918361994679857,-0.0085526956652055,-3.658546888464276,-2.739245625866397,8.667054512757112,-0.28431353265145554,-0.3661433160990596,-0.14197693042598625,151.4473488254468,-21.91292781274587,17.52354866809037,0.23907943727181444,0.18707511823056464,0.15103623818526846,-0.9407587188431679
204.0,-0.09349803304484658,0.04136703383162865,0.00012195121951219436,-3.615623524783634,-2.7587372147915037,8.678592446892212,-0.1328997836349331,-1.0903742132179386,-0.15301927616050354,151.45044502360344,-21.628990460267506,17.62731363099921,0.23915318591935486,0.18749263104720693,0.14847972485169159,-0.9410628940275372
205.0,-0.06974909145404819,0.06192026338466149,-0.016169027012850775,-3.5261947379266414,-2.7993110973736464,8.702000880446594,-0.3742818857480049,-0.42257321053913305,-0.006291680716346323,151.187444093983,-21.06819497911281,17.823293724944737,0.2414634787569499,0.18859895542469374,0.14289064837841403,-0.9410883667754859
206.0,-0.07272151661608783,0.07171593421003333,-0.004851822711775505,-3.546020756060095,-2.814752912966917,8.689759094825973,-0.12821035180397888,0.3230840920160353,0.005285021168184036,151.11470392641715,-21.197906129406917,17.94351092128433,0.2419784584395489,0.18980586432505336,0.14364676463639425,-0.940612262587389
207.0,-0.11897680866209585,0.10454797497283727,-0.024471544715447154,-3.556983627439961,-2.8194260237533246,8.684006219324868,-0.4698634371136338,-0.7130891499007156,0.12245466636694015,151.0309701772133,-21.263857667378517,17.978049717133118,0.24264240384998692,0.19032126674159827,0.14402778033157243,-0.9402820929616724
208.0,-0.10607613053089057,0.08406234311191038,-0.0053144505638604775,-3.4962691543966127,-2.853253531152824,8.697437413360307,-0.2921602787456446,-0.14539685661833576,-0.22193061331534975,151.03621679592374,-20.88335487617549,18.1473549136413,0.24267915602412804,0.19114105779880858,0.14047351456153756,-0.9406444402715521
209.0,-0.0950498669963658,0.07373848862912594,-0.0035691056910569104,-3.4519331609905954,-2.881737701847065,8.706012176389045,-0.22525991907384513,-0.23007451013450225,-0.2244881233374546,151.11776909819787,-20.60789006593983,18.301637724326554,0.24207178925596648,0.1918832798899629,0.13793750990547374,-0.9410302907628414
210.0,-0.08856333595594018,0.06844374508261211,-0.00037057435090480004,-3.448789929189614,-2.8970401258851295,8.702610542879622,-0.16412765538945712,0.020048190401258853,-0.1725167191188041,151.12758654602675,-20.596134933123523,18.398303501180173,0.24194480437529509,0.19259583926986623,0.13765922511172304,-0.9409629257938632
211.0,-0.09140204563335955,0.06905271439811173,-0.002301730920535012,-3.406169158143194,-2.913673485444532,8.713889850511407,-0.0342176435877262,-0.4488173682140047,-0.35157602281667977,151.2296321793863,-20.33052222659323,18.47381245082612,0.24118075793115662,0.19272412654681348,0.13538009444807236,-0.9414613830188829
212.0,-0.10204091266719116,0.08745161290322581,-0.00032159716758457845,-3.4462741935483865,-2.9114543666404407,8.698266719118804,0.06102355428796223,0.7965049665617624,0.03169133556254916,151.23158438237607,-20.58228511014949,18.49418887686861,0.24108351141876483,0.19323383623328083,0.13752528683143195,-0.9410623281892212
213.0,-0.10100432730133752,0.08103225806451614,-0.0025680566483084182,-3.570451612903225,-2.88471911880409,8.656141424075535,0.01471036585365854,0.5370881687647522,-0.07435090479937058,151.29799985247837,-21.35570908733281,18.420607543273015,0.24026701311664045,0.19364054482631787,0.14443671313749018,-0.9401296506591263
214.0,-0.10490637293469707,0.07702183320220299,-0.004155192761605035,-3.670193154996066,-2.8624280094413845,8.62258536585366,0.11368017309205351,0.5780635326514555,-0.1476298190401259,151.37381490952006,-21.986670190794648,18.354385080645162,0.23943759931412278,0.1938615008709677,0.15005863680881196,-0.9394147766559793
215.0,-0.11094217151848938,0.08380841856805665,-0.003238788355625491,-3.7550393391030688,-2.8407694728560173,8.593314712824547,0.024923780487804886,0.4570023603461841,-0.13966365066876474,151.4554435483871,-22.51973347757671,18.28825973642801,0.2385978546121165,0.19391968980094418,0.15491610419276164,-0.938836619649882
216.0,-0.1050698269079465,0.0702322974036192,-0.0016823367427222654,-3.8073662470495666,-2.824377655389457,8.575276553894568,-0.029212972069236814,-0.04092250196695521,-0.23227773406766328,151.46719856412273,-22.84589643981117,18.2315118509048,0.23831270379701025,0.19386768222541306,0.15788142662037766,-0.9384391987981902
217.0,-0.0941760424862313,0.06849114870180961,0.0010902832415420932,-3.79863473642801,-2.8207936664044047,8.581275373721478,0.0365779897718332,0.021071007081038526,-0.2670965283241542,151.52755089496458,-22.78907725216365,18.189168223839495,0.23785058373721482,0.19339542633851295,0.15758266567309204,-0.938711988286192
218.0,-0.09451140833988986,0.0766731857180323,0.004546101682214979,-3.8152760855719157,-2.8195260574725554,8.574019407290844,-0.05719343598965944,-0.037011539470233425,-0.24565583904686972,151.66281658611518,-22.897861638754637,18.19577338803342,0.23673513093619566,0.19342743676123036,0.15873730663032481,-0.9387992614942866
219.0,-0.09183556254917387,0.07251912629725377,0.0055893372297778285,-3.832173841369749,-2.821211494511256,8.56596249672174,-0.14393896819152524,-0.07638342512457383,-0.20232732943688886,151.75895549998125,-23.0070395919973,18.227036969390433,0.23588861236345576,0.19364244528856167,0.15975582973923794,-0.9387943887731073
220.0,-0.09385562549173879,0.06629575512344987,0.004378460904424713,-3.841448840433103,-2.820574275973172,8.562847495410438,-0.10236385860402382,-0.045189155520587464,-0.12969434921883782,151.79037468154058,-23.068429316061597,18.238838114907647,0.23555950887252253,0.19375200985513846,0.1603412810324828,-0.9387526422677495
221.0,-0.1055037372147915,0.0698669963658162,-0.006870564984451691,-3.778088700310966,-2.8366600726836753,8.584799042748493,-0.4260098207260874,-1.1451358838185155,0.044343423344947744,151.6102001259788,-22.66949199870743,18.28400402991645,0.2371790943339796,0.19384235653260465,0.15648578727469936,-0.9389339204257708
222.0,-0.15147167584579072,0.09539455247087036,-0.019483177850211683,-3.6528993855606746,-2.875159304634521,8.62440571728298,-0.2839050382151287,-0.7542223970626802,-0.242396664606047,151.58612324847326,-21.876205111273464,18.428205668577423,0.23765743795288669,0.1940147567982653,0.1493827060527706,-0.9399178727977595
223.0,-0.1306091098122963,0.09106517178075008,-0.013796888464276348,-3.762259984639017,-2.85852435277809,8.581254317934887,0.37962486184481653,1.4191637630662022,-0.13295908499119555,151.63985981932112,-22.57363922998389,18.415067696039863,0.23695572454863997,0.1947375077155689,0.15551031388660036,-0.938932403468772
224.0,-0.10834238132703908,0.07994234011464539,-0.006261923494810985,-3.8538709677419356,-2.809712637218539,8.556756959274662,0.013591952811809194,-0.18598743490315073,-0.2958346212206362,151.81556283016747,-23.150823311228503,18.1649479225207,0.23534824238549512,0.19328127112256943,0.1611759085110805,-0.9386881870754
225.0,-0.09831104117492787,0.0641643250533888,-0.002675808324903526,-3.851054287962233,-2.810827994455061,8.55863024989697,-0.12518732906223073,-0.128348506987374,-0.28622007418230866,151.90844526244803,-23.129257052939195,18.157119909332735,0.2346228978464651,0.19312316425424303,0.16115477642538678,-0.9389414381327037
226.0,-0.09179124049305007,0.058131729796560665,-0.001699823910681503,-3.8447726199842647,-2.8160678131205272,8.559615675695929,-0.16777659136038364,-0.17075371848188525,-0.18103293244914015,151.96178065640103,-23.088890918287063,18.204774549473605,0.2342326365660335,0.19331006449612223,0.16085273227956987,-0.9390764155604507
227.0,-0.08444558090742196,0.05101315050016862,-0.0018986924431456296,-3.8368442171518478,-2.8320543628938584,8.55816739725001,-0.2978536772694916,-0.22573877898917238,-0.08775289423401146,151.9556887152973,-23.038274137349667,18.29658967442209,0.23427025685107342,0.19401267536765202,0.16019959862680305,-0.9390423053349068
228.0,-0.08833108538458656,0.04333453223933163,-0.002890974485781724,-3.8189666554269226,-2.846330560863212,8.561873253156495,-0.20466800606946162,-0.16896097935633736,-0.12646093252407178,151.92306325165788,-22.915719249934433,18.3677168802218,0.2344737178172417,0.19456669808628374,0.15902570025656593,-0.9390817290745194
229.0,-0.09451416207710467,0.043468528717545266,-0.005748623131392605,-3.8045432730133752,-2.856242722265932,8.566280094413845,-0.22732346577498036,-0.19806746656176238,-0.14174124704956725,151.89723151062157,-22.833138276947285,18.427387391817465,0.23467590313926043,0.19495640320062937,0.15814630863414642,-0.9391052729496459
230.0,-0.10118391030684501,0.04352812745869397,-0.006890047206923683,-3.798524980330448,-2.8743762785208498,8.563132179386308,-0.1772484756097561,-0.08179828874901653,-0.15845421911880408,151.87852822580646,-22.785791207710464,18.557202743902437,0.23491203919826906,0.1958586025814319,0.15749911868764754,-0.9389622956762393
231.0,-0.10726534225019671,0.0433648701809599,-0.011037765538945712,-3.793540715971676,-2.8812163650668756,8.562695121951219,-0.036582907159716765,-0.08001204760031472,-0.06927247246262785,151.8594758064516,-22.756202055468137,18.61159028324154,0.2350441863491346,0.19618637812942563,0.15705557424704958,-0.9389273653784422
232.0,-0.11387863886703385,0.044033241542092864,-0.01463178599527931,-3.786645357985839,-2.8810920535011793,8.566508851298186,0.016688385129819034,-0.024960660896931552,-0.009459824940991346,151.86622983870967,-22.71794477773407,18.589766915814316,0.23508284218666414,0.1959168695485837,0.15682230822029897,-0.9390208716327695
233.0,-0.12140715971675844,0.038662077104642034,-0.01719630212431157,-3.7819405979543674,-2.883386309992132,8.568087332808808,-0.03841463414634146,-0.08643784421715184,-0.03203186467348545,151.8641694531865,-22.68819335169158,18.595458792289534,0.23509821064280093,0.1959203651585365,0.1565545430877262,-0.9390654420487803
234.0,-0.10893725413060582,0.025286978756884352,-0.016395161290322584,-3.7599592840283242,-2.8849897718332014,8.576478756884342,0.17055468135326513,-0.39599232887490166,-0.02828481510621558,151.8373266620771,-22.545512883556256,18.57497172501967,0.23534755624980333,0.19571444422364276,0.15533158694905586,-0.9392448767678989
235.0,-0.09002911093627064,0.025615263571990565,-0.017104838709677418,-3.708588512981904,-2.8507206923682133,8.609916797797009,0.03658782454760031,0.0006933516915814397,0.08550476986624704,151.613597806845,-22.221949990165225,18.30651308025177,0.23739005354425646,0.19346328147875688,0.15262951680114084,-0.9396236593355622
236.0,-0.07674842643587726,0.0035898898505114085,-0.014895161290322582,-3.7705845790715977,-2.8508119590873324,8.582986624704958,0.003072138080251771,-0.18458275963808027,0.019894522029897718,151.5794551534225,-22.61362116443745,18.35643194335169,0.2375342908648701,0.19447476771518485,0.1558086928078285,-0.9388597451597163
237.0,-0.06351612903225809,-0.0102564909520063,-0.010560188827694729,-3.779808025177025,-2.8355712037765546,8.58429819040126,0.1170977576711251,0.14262883556254918,0.161801730920535,151.46601593233675,-22.67180369787569,18.259623328088118,0.23846234823288745,0.19394365189850504,0.1562700576428009,-0.9386571231652239
238.0,-0.061696695515342265,-0.022570416994492536,-0.011678992918961448,-3.80858064516129,-2.824158536585365,8.575737608182532,-0.011725511408339898,0.03169010621557828,0.10280291109362706,151.39893046813532,-22.849400078678208,18.216165912667194,0.2389066416994492,0.19390982011605035,0.15782108765224234,-0.9382967469547601
239.0,-0.06503245476003147,-0.03936467348544455,-0.018752950432730134,-3.819584579071596,-2.8159848544453188,8.573281864673483,-0.004407208890637293,-0.013315057041699451,0.0744492525570417,151.3395862018096,-22.922044649881983,18.17256958103855,0.2394149330519276,0.19374104167958295,0.15839694023210069,-0.9381076994931157
240.0,-0.07767663257277735,-0.05309166011014951,-0.02822875688434305,-3.8199569236821382,-2.811466561762392,8.57503166797797,0.035576071990558615,-0.09077375098347756,0.0963562155782848,151.2482383457907,-22.924073072383948,18.13964029307632,0.24015324900983478,0.1936159111522423,0.15833775222069235,-0.937956165178993
241.0,-0.08172706732030101,-0.0641291633884081,-0.034950916903709994,-3.8106654965805236,-2.795366035223628,8.58398657427021,0.07942407300934051,-0.13799375617825654,0.08114181746656175,151.17141743075308,-22.866139875728784,18.023439485868185,0.24083646829420602,0.19274043814952896,0.1579196675642337,-0.9380330866145172
242.0,-0.07702797111097662,-0.06758779176501443,-0.03864382981298796,-3.7657340071415604,-2.8118018217030807,8.597646316246044,0.012469707629768605,-0.8245781133369645,-0.5078653619197483,151.28746914023884,-22.582607703403337,18.097798617835743,0.23995188997715808,0.19278516448782507,0.15552812511571246,-0.9386382511986828
243.0,-0.05656160460310736,-0.06865737514518003,-0.026977060835833462,-3.706964161788905,-2.817701986120357,8.620856760273561,0.14135030120351716,0.08902142720248546,0.027286117043198,151.4123081588291,-22.213478870902897,18.08660692220512,0.23907145690543768,0.19202335089329808,0.1526210286732556,-0.9394880872867452
244.0,-0.0475572578483672,-0.06530665767487169,-0.025539867947421052,-3.7318857984396923,-2.8227848050192654,8.608752042607275,0.11214778533818659,-0.0006493473743670319,-0.21916329474354654,151.51765216163326,-22.36636214886608,18.1417182181836,0.23813727322396194,0.1925225321589818,0.15401673995100623,-0.9394039368673104
245.0,-0.03463864223895695,-0.0733099892501938,-0.022362219474729307,-3.698862970231971,-2.825831870725655,8.622716617240615,0.14179152869160738,-0.4073198470818455,0.029088060510169073,151.60025671286488,-22.157168722963373,18.130370219866677,0.237567809841923,0.19205622524913324,0.15234711101304674,-0.9399192907190554
246.0,-0.04464809515163567,-0.06807644754930357,-0.025377986817797987,-3.700550833902526,-2.8203891545118926,8.623575621860438,-0.37633562018888533,0.28879440779519455,-0.14146010035073764,151.82394112247573,-22.171669253248716,18.10183099748403,0.23572137971105206,0.1915268403251456,0.15290923809342244,-0.9403970682489344
247.0,-0.037388676102287424,-0.06597389497468176,-0.020626313104676598,-3.741073064098242,-2.9079295815645145,8.576104059853076,-0.41400470267995837,0.19850134948974443,1.0269046862526405,151.78335979356336,-22.43256081710055,18.717876037875055,0.23575021183390826,0.19682634887918138,0.15401898581453558,-0.9390768118605956
248.0,-0.0466090845949225,-0.056335641803777134,-0.020021297873382846,-3.7295111864270014,-2.9087650980019193,8.580866930080147,0.5376933091822943,0.00528466091998743,-0.06908893951576878,151.27558446667416,-22.357985477674696,18.709432450581154,0.239942605805587,0.1973297393051821,0.1525176693089575,-0.9381553184149367
249.0,-0.04167590343042743,-0.05272722294752194,-0.015915448307265774,-3.817281163630496,-2.8618727142251927,8.55764432263252,0.3312728937728938,0.12840452558194493,-0.10282240052106298,151.34820726087446,-22.91389635803483,18.480601355109616,0.23923327769429625,0.19614262416478614,0.1578109034546361,-0.9377167776614417
250.0,-0.04009141658236859,-0.054895657712337495,-0.012800569480349182,-3.8664961972200373,-2.8533925293169977,8.538731782248696,0.10784768273950023,-0.335276872353977,-0.4185118579296392,151.39230452212354,-23.222848994042934,18.46183404518377,0.23873913845153794,0.19635832523285002,0.16058953341425947,-0.9373410645292419
251.0,-0.03659885354613915,-0.060960436102056884,-0.013186467348544454,-3.8050355925218247,-2.9086840133378287,8.54735997152598,-0.0896100277247012,-0.29660278745644597,-0.2927379547412986,151.62442864636017,-22.830839515192388,18.776661608781986,0.23690036517084412,0.1980226511494511,0.15709444212112694,-0.9380530366250794
252.0,-0.04335319021392978,-0.06201247611554458,-0.017138548574425837,-3.7461929114682846,-2.8778174290959493,8.583514855194634,0.32249049305009175,-0.9672338054025701,0.6624107845341126,151.48012906972386,-22.457422445768238,18.517939099321868,0.23828729757390127,0.1956532999756472,0.15409458783859725,-0.9386889515076241
253.0,-0.03324828593908059,-0.053656663294743556,-0.017699599115806826,-3.7526739350342813,-2.818805215241092,8.600647034580946,0.08906326102431529,0.26627421228129333,0.256294256490952,150.78473080813757,-22.50522413922296,18.137040575474877,0.24407295846577493,0.19362761782510957,0.15398407100483308,-0.9376331629050991
254.0,-0.023034730808137574,-0.05552283541268592,-0.009021767637031209,-3.7945011427072797,-2.82771083885954,8.579844891536471,0.05713302236709002,-0.05891967329811543,0.2979421902513956,150.70114926379676,-22.762403525532953,18.226546401408715,0.24462928598928477,0.19481205318122213,0.15588036380727588,-0.9369391101727176
255.0,-0.023026706153890387,-0.06007739304164021,-0.008670673766002474,-3.771141757564826,-2.845067429749423,8.584796103206983,0.022035533927035764,-0.08484334716083201,-0.06325021477494808,150.77890370349556,-22.617593749482666,18.326845648694402,0.2440263987150969,0.19527664849992982,0.1545962061351531,-0.9372206097117224
256.0,-0.019610198716926618,-0.05932717935581458,-0.016471853154926358,-3.6679105708482878,-2.6195144779226167,8.69557956126662,0.7241151261247367,-1.0028604439873035,0.7468289927447018,149.8515489608465,-21.9642520331738,16.76298789418609,0.2523843213923428,0.18308325638496295,0.15048414165713467,-0.9379960280136148
257.0,-0.017648488777246576,-0.06225432664786407,-0.011258825159251482,-3.622417311644984,-2.6435113917852284,8.70993272708421,0.15425170534793972,-0.5838955928006392,0.019252853283007132,149.75249120424706,-21.677394141653878,16.87941530243188,0.2532917637335379,0.18376105246471022,0.14757565465068362,-0.9381567136972657
258.0,-0.015106699148654756,-0.05947492099505714,-0.011376855537926292,-3.579709835995584,-2.6500719822812844,8.726701217987426,0.11090830743400133,-0.3751008255112559,0.0589478271135728,149.8248834856798,-21.408204348561007,16.884559146101857,0.2527975068470994,0.18332775753447939,0.1453471775574425,-0.9387625639808121
259.0,-0.015721552339304338,-0.06984805957586959,-0.017418842515506933,-3.55207534810532,-2.647036759189797,8.740151684262528,0.08322393098274568,-0.24215390737928386,0.045209320622838625,149.81416985343895,-21.239864463066986,16.848505571514828,0.252944626302966,0.18276510728183262,0.14390868598686257,-0.9390818546248143
260.0,-0.01906336340182607,-0.08449084222275083,-0.0234288328179606,-3.542731451155473,-2.657941558560372,8.74089619965967,-0.28936540537573413,0.22251980678096356,-0.2827616965216914,149.76079263718367,-21.1814275977531,16.90909922602602,0.25339814161158586,0.1832728242561616,0.1431921815717344,-0.9389757029932481
261.0,-0.02461960002195672,-0.1102814850053977,-0.02379069767441861,-3.5381086308162413,-2.7397667099701755,8.717724736062062,-0.12904769637531333,-1.0482298547197773,-0.29544032349550803,150.1747883236053,-21.14886362596747,17.442704426106527,0.24984841575812858,0.18695380386540533,0.14259596192578633,-0.9392860795423854
262.0,-0.06818450039339105,-0.08896066089693157,-0.053835955940204565,-3.097048387096774,-2.8371361132966166,8.818170731707315,0.30747197088906375,0.3982223642800945,0.07810287175452399,150.38245230133754,-18.43441433910307,17.81085267505901,0.248826598167978,0.18534160758536583,0.11896733024783634,-0.9422833165814317
263.0,-0.044080448465774996,-0.10135287175452401,-0.03944354838709678,-3.262316483084186,-2.8011880409126673,8.784883949645948,-0.07701244099134538,-0.423725167191188,-0.021407848151062156,150.24863665420926,-19.444390489771834,17.666392112509833,0.24969556834441387,0.18598964335601886,0.12771292617820615,-0.9411721724685287
264.0,-0.03687490165224233,-0.09029740361919748,-0.022580645161290325,-3.334670338316286,-2.818884343036979,8.761417781274588,-0.2893882769472856,-0.31723052714398114,0.3910601888276947,149.85448465774982,-19.88860149488592,17.822560975609758,0.25277107295043266,0.18839685629897718,0.1305543529520063,-0.9397086466939417
265.0,-0.03188198269079466,-0.08485759244689221,-0.018051927616050355,-3.4775892997639657,-2.8208796223446093,8.708824547600313,0.02210857592446891,0.4307140047206923,0.06980723839496458,149.80234067663258,-20.773072383949646,17.937647521636507,0.25288258825177024,0.19076746982533438,0.13786409799370572,-0.9382584584752164
266.0,-0.02628717545239969,-0.08873878835562549,-0.018833202202989778,-3.5669142407553105,-2.8353493312352462,8.671339889850508,-0.0011408339889850665,0.1998180566483084,0.030305861526357194,149.78861132966168,-21.333010424862312,18.0948564122738,0.2527826278355626,0.1928506368009441,0.14231570813926042,-0.9372688052840286
267.0,-0.029122727914624065,-0.0847023643809639,-0.03417380822691602,-3.597555447961427,-2.846736982791663,8.658025146765112,0.0020578637858338824,0.17706410508583992,0.1391026271459985,149.58581207508723,-21.52423194183865,18.189864759224513,0.25430575950181566,0.19418307754025704,0.14343346938515,-0.9364918167176461
268.0,-0.03114594302890921,-0.08338422703705947,-0.02804441788214409,-3.6454999899130502,-2.8481112136617632,8.63792838770199,0.04691799562226391,0.00724763082773508,0.1238146888680425,149.56535391323206,-21.82216219436543,18.242463850894712,0.25425200088623434,0.19505247581890903,0.14590307992939644,-0.9359500805932843
269.0,-0.04455831769856161,-0.0705004337388287,-0.02348867235570619,-3.536797595271238,-2.865479387318687,8.674641514858076,-0.016722207932377088,-1.795542072666384,-0.29921271359115575,149.53313058564828,-21.142131328299946,18.272414557233354,0.254808467762649,0.19431579964588253,0.13987141578363999,-0.9368016170244156
270.0,-0.05042363170529969,-0.060269886420948576,-0.02524000887651557,-3.376133652080938,-2.88267350561843,8.732297645705986,0.012713591155762677,-0.20448327079424633,0.15989895398333634,149.4928634832254,-20.14489348181323,18.262551569529343,0.2555450639799673,0.19271698999947545,0.1312863082880631,-0.9381705495008981
271.0,-0.034292854404970846,-0.06616877483911314,-0.028043293187274304,-3.075995228872884,-2.958231324012992,8.806086667070144,-0.5868473743670439,-3.398174955617422,-0.7471994215134459,149.50451592729326,-18.289883798341705,18.554810403175374,0.25597697391681296,0.19202608868030424,0.11475650114481832,-0.9400710491068613
272.0,-0.0347857985837923,-0.06366089693154996,-0.02469079464988199,-2.8931150668764753,-2.9627889457120373,8.870058221872542,0.36823367427222653,0.31776529307631796,0.42554214201416196,149.44064712824547,-17.173431353265144,18.455139899685285,0.2569417070973643,0.18947036322187255,0.10533305768076318,-0.94152901677262
273.0,-0.03428402832415422,-0.05462077104642013,-0.01650668764752164,-2.966214791502754,-2.940382376081826,8.859190401258852,0.3111329661683713,0.8846134933123524,0.32806845003933904,149.22979937057434,-17.61302616050354,18.349016522423284,0.25859726498819824,0.1895795071754524,0.10896520880409127,-0.9407744906443745
274.0,-0.03170535011801731,-0.04998308418568057,-0.02163178599527931,-3.0749209284028325,-2.9043650668764753,8.836172698662471,0.30142112509834773,0.5994418764752163,0.16363591660110147,149.21006097560974,-18.27491886309992,18.178683123524785,0.2585694226868607,0.18936781425019672,0.11494210435011804,-0.9401677263851298
275.0,-0.03195416994492526,-0.052997049567269874,-0.0186955153422502,-3.1563943745082614,-2.889007867820613,8.813782651455545,0.08066237214791502,0.4395468627065303,0.048674763965381576,149.22503933910306,-18.778588463808028,18.13652389850511,0.25831257582415423,0.18981531365538945,0.11936065272187257,-0.9396282799824942
276.0,-0.04226337529504328,-0.06119610542879624,-0.023049370574350907,-3.226789929189616,-2.876052321007081,8.793080841856803,0.2758150570416994,0.5865325039339103,-0.0393218922108576,149.32824547600313,-19.210186369000787,18.11055025570417,0.2573185002104642,0.19015419943253342,0.12331545718351694,-0.9393485396726986
277.0,-0.037305861526357204,-0.054653225806451634,-0.02048131392604249,-3.3016648308418572,-2.861942761605035,8.770098544453186,0.3257142505900865,0.36703629032258067,0.010312991738788357,149.43575801534223,-19.6730109166011,18.0763301534225,0.2562874029840677,0.1905219742065303,0.12754206962745873,-0.939006977169355
278.0,-0.03724311565696303,-0.05602970102281671,-0.020422108575924476,-3.349400668764753,-2.845091856805664,8.757570416994493,0.0943339398111723,0.12474552517702597,0.010943646734854446,149.4824449252557,-19.966598642800946,18.00040199645948,0.2557605329911487,0.19034111003520854,0.13030185383123524,-0.9388074867509835
279.0,-0.04010625592608285,-0.06896429219875327,-0.029105388448425442,-3.3553046561358912,-2.8431409449454286,8.756523008331818,0.08070385472775324,-0.05409422976053581,0.07364929441788215,149.47124727652363,-20.00960592810022,17.983381183300047,0.2559080281906736,0.19032540748689708,0.13062457949274747,-0.9387272618426135
280.0,-0.04344022473723499,-0.07134681958482117,-0.02851807581351249,-3.3722156640238863,-2.827546082228812,8.755617916439707,0.16682714372894347,0.27473297953357945,0.05015076837337852,149.48341081371422,-20.112395410942327,17.900399285591803,0.25579082847377893,0.18979507191418027,0.131704613200347,-0.9387170917788992
281.0,-0.05097601323407777,-0.08075228469406283,-0.030935867175048936,-3.4368585204462474,-2.815945248038088,8.733011357905141,0.16632749298957006,0.6531224152191893,0.047542314753172346,149.54783861889484,-20.51826620468438,17.867422179184572,0.25511228227258975,0.1901139522096471,0.13534990534446933,-0.9383146751885252
282.0,-0.06148092557848657,-0.07043200387338862,-0.0484671468054631,-3.4259682059351615,-2.823400633460429,8.73384950271339,-0.14673888922512054,-1.390620145655551,0.023662974843147933,149.45959495854262,-20.450040852145495,17.90626223042627,0.2558140016783877,0.19034975392229012,0.13449496897593255,-0.9381463645730197
283.0,-0.05814250842260285,-0.07816643466682806,-0.03913679920918317,-3.3713940164215543,-2.820103935927696,8.756536867800438,0.20606603925840744,0.38485318444995875,-0.015882910690149084,149.4328020032682,-20.11380878169824,17.842898031027456,0.2561877199076439,0.18938929649300973,0.13172052349976798,-0.9386520744470133
284.0,-0.05406215578284816,-0.07610306845003936,-0.03354523996852873,-3.4701502753737214,-2.789502753737214,8.72695908733281,0.7300698269079465,0.9903225806451612,0.24639063729346972,149.49540224232888,-20.73159421715185,17.708256294256493,0.25548443411014954,0.18924567272541304,0.13738980965145553,-0.9380563179803305
285.0,-0.052735247836349336,-0.07841974822974036,-0.027811959087332815,-3.6452623918174663,-2.7140110149488583,8.678127065302911,0.3442146931549961,1.0049272226593233,0.21796321793863102,149.40112362313138,-21.831345889063726,17.34967299370574,0.25591865723131396,0.1882461992234461,0.1473320811876475,-0.9366031575849725
286.0,-0.04821262785208498,-0.0761610936270653,-0.027092446892210863,-3.754999409913454,-2.669413060582218,8.64656549960661,0.23382056451612904,0.45933811959087334,0.18704514162077104,149.25214521046422,-22.523019522029898,17.139210021636508,0.2569052924433517,0.18785264236546023,0.1533864782492132,-0.9354569095674667
287.0,-0.04260326514555468,-0.08130251770259636,-0.022954366640440604,-3.7750515342250193,-2.6628215971675853,8.641368804091265,0.06252212824547601,0.10538453973249418,0.05570662863886704,149.23644276160502,-22.649714791502753,17.11410306845004,0.25701698035955944,0.18787924365676628,0.1544813681477183,-0.9352709516243116
288.0,-0.03771695515342251,-0.0777319040125885,-0.021452989771833207,-3.7978644767899294,-2.661197088906374,8.632261014948856,0.12581751573564123,-0.026188778520849713,0.0698392014162077,149.21403791306057,-22.789524734461054,17.123432582612118,0.25713151659107003,0.18818961805015733,0.155638126634343,-0.9350020443605428
289.0,-0.034701219512195125,-0.08799095200629425,-0.01969020456333596,-3.816831431943352,-2.6625743509048005,8.623820023603464,-0.054303943745082614,0.07659815106215578,0.07287322974036192,149.13436270653028,-22.905926681746656,17.14742697678993,0.257742310170535,0.18866735635169155,0.15646155823249405,-0.9346105795714005
290.0,-0.031630212431156574,-0.09632415420928402,-0.022326514555468142,-3.8096915814319434,-2.662804091266721,8.626605822187255,0.028452006294256486,0.007907159716758453,0.0027783241542092864,149.110134736428,-22.86340479937057,17.141099527930763,0.257975666826908,0.18859921408811958,0.1560390279032258,-0.9346292396577498
291.0,-0.041683713611329665,-0.09960739575137686,-0.02402478363493313,-3.8106978756884344,-2.65903933910307,8.62733438237608,0.1251130999213218,-0.08956530291109362,0.08844659716758457,149.0805689417781,-22.870544846577495,17.114786585365856,0.2582040229555468,0.1884685313194335,0.15607913753933908,-0.9345863784071599
292.0,-0.04655074744295831,-0.10958418568056648,-0.031040715971675854,-3.8120719905586147,-2.657814712824548,8.626969315499604,-0.06133212037765538,-0.1343872934697089,0.2236292781274587,148.99390366837133,-22.877994689221083,17.111169846577496,0.258908762793273,0.18854340240952006,0.1560416288640834,-0.9343787741343432
293.0,-0.06264063729346972,-0.10545515342250196,-0.03659421715184895,-3.7488035011801735,-2.677969315499608,8.647147915027539,0.0636691089693155,0.15845053107789142,0.001953432336742736,148.78132007277733,-22.48302517702596,17.19709628245476,0.2607927136549961,0.1888545981791896,0.15216561822108576,-0.9344013132673095
294.0,-0.05341152448390844,-0.09416574875426173,-0.029185549436139532,-3.748647334307444,-2.682266531789743,8.646017889925442,0.0056980817504027614,-1.3037696461354014,0.0033804700086171383,148.79889616350079,-22.474735514780264,17.22153441234873,0.26063225210591584,0.18902082378026297,0.15206234440316957,-0.9344298205893
295.0,-0.05443196208459782,-0.08241725675321267,-0.020863427747180703,-3.631274886665916,-2.684185980292983,8.695294546850999,0.294597664006594,0.0338449172942189,0.04434857489415908,148.6335895058259,-21.738670865179273,17.140910793900566,0.2623187213755386,0.18740844069422274,0.14567884034477913,-0.9352868253103855
296.0,-0.04753403769060733,-0.09507880933648044,-0.012785864148964073,-3.6843341388483006,-2.680490118391969,8.674642651080887,0.3758713143007006,-0.8479495663332209,-0.0073736816717245475,148.69870737093026,-22.07298474907272,17.159574446910945,0.2616548579849763,0.18799661363822073,0.14859100643615827,-0.9349121574799371
297.0,-0.037076542654827474,-0.04525945075118955,-0.018568431306432882,-3.535513843617699,-2.6947521636506684,8.731017946124162,-0.030867146229066,-0.647575493612079,0.1136314675358735,148.4274942864636,-21.135207092278293,17.142564441197408,0.2642774359686786,0.18668276917874937,0.1402292507545615,-0.9356982270372036
298.0,-0.03342025401820839,-0.054557341425948834,-0.017260612191375372,-3.540510659023641,-2.691358772619985,8.730249334981826,0.11377571091379113,0.6063017496534413,0.04488615076242928,148.40586948784235,-21.173066764077777,17.128879584878796,0.26444157247765165,0.1866695023517665,0.1405256797557229,-0.9356372886326854
299.0,-0.03601925742759733,-0.06911318421939983,-0.020114045933086064,-3.6074744295830055,-2.67375017796261,8.707718706680154,0.17581722303398145,0.5453134951856431,-0.020949945674571955,148.4744529991383,-21.588198269079463,17.07151848937844,0.263709154769323,0.186787105047694,0.1443132322123562,-0.9352531962852647
300.0,-0.041128432805065396,-0.09159357086658428,-0.028429170881570577,-3.6540125885129813,-2.66865951069649,8.691456520924657,-0.05997199430519651,0.3383382975534825,0.043060629050990964,148.5196812596006,-21.880237018095986,17.053299567269868,0.26320689600936636,0.18712872324768642,0.14690205578989174,-0.9349312226351577
301.0,-0.0587420291484021,-0.10677160840732834,-0.039805458768873425,-3.673268292682927,-2.668715278558316,8.68383840995092,0.05630924281593045,0.15515951069648948,0.023979173691506497,148.53850408377355,-21.996211152635716,17.05366099527931,0.26302084557982086,0.18736079545547185,0.14792510904522124,-0.9347922494835899
302.0,-0.06682081038552322,-0.1075279307631786,-0.04883457907159719,-3.646783634933123,-2.6720277340676644,8.693611723052712,0.09727084972462627,-0.2827670141620771,-0.07131564712824548,148.64715037372147,-21.831492181353262,17.064940253737213,0.2622438404665618,0.18700444204838707,0.14664694628678207,-0.935283137461251
303.0,-0.07432572777340678,-0.09968332022029898,-0.04453422501966957,-3.6392950432730125,-2.698977576711252,8.68771715184894,0.07111526357199055,-0.21179681353265145,-0.022275767112509837,148.7027586546027,-21.79011605035405,17.239400570416997,0.26182080621715187,0.1882474381774193,0.1459978619256491,-0.9352505060975608
304.0,-0.0827309205350118,-0.09584716758457906,-0.0461553894571204,-3.603698662470494,-2.706632769472856,8.700053697875687,-0.006033634933123526,-0.3145382572777341,-0.15575334382376083,148.7440917584579,-21.562504917387884,17.266130261605035,0.26151924490322587,0.18804361860877256,0.14409057742702597,-0.935668935667191
305.0,-0.08052104642014161,-0.09406726986624706,-0.04314221085759247,-3.592260424862313,-2.7422879622344616,8.693721872541307,-0.015991345397324944,-0.28351568646734854,-0.06464152242328874,148.7500700727773,-21.48163109756097,17.493618459874114,0.26143349708497254,0.1896854926703383,0.1430133689636113,-0.9355277719317463
306.0,-0.07259520062942565,-0.09488040912667191,-0.04270416994492528,-3.585581825334383,-2.7599665617623916,8.691320613690007,0.058435778914240746,-0.16869836742722266,0.023273996852871758,148.7441630605822,-21.448527242328872,17.59829612509835,0.2613787434779702,0.19045803485129822,0.1424679779697089,-0.9354714633166794
307.0,-0.06840381589299763,-0.09116797797010226,-0.04495161290322583,-3.5747680959874106,-2.7586229346970885,8.696727183320219,0.132114230920535,-0.26641547010228167,0.0012170535011801747,148.7384072580645,-21.385175304878047,17.582571547993705,0.261540736674469,0.19022744315499604,0.1419292425796617,-0.9355508627362314
308.0,-0.07243548387096774,-0.09144905586152635,-0.04688985051140837,-3.5436077891424067,-2.7859382376081827,8.700899685287176,-0.5728547895357986,-0.08786265735641227,0.27557902242328874,148.5758826711251,-21.185488788355624,17.738731805664834,0.26285038997383947,0.19134164322344607,0.1396740911266719,-0.9352943123691976
309.0,-0.06598771121351765,-0.08614945112584765,-0.04013693754449067,-3.6010193323592206,-2.8661469221835074,8.650126109924695,-0.1631231032932449,0.3149288383724851,0.28367204769397925,148.42132027181447,-21.54782791952343,18.31869625997527,0.26377615082812556,0.19670324254490273,0.14137919681448802,-0.9336461335469259
310.0,-0.05893799408040162,-0.07543900565733769,-0.028487036828893638,-3.655773238170169,-2.8193873871342396,8.640527256378558,0.45241759862875114,1.029931964426211,-0.10568069527181445,148.20721796438875,-21.902798696189723,18.063483653197707,0.26540120761705255,0.19547173648881644,0.14458542818694503,-0.9328898969308193
311.0,-0.03672902851148326,-0.06461309055486869,-0.014565115582031399,-3.7676496009890963,-2.8245858060769544,8.59101559514443,0.12884083117904904,0.15078116218950205,-0.1395517215540819,148.4938350591023,-22.602486090817127,18.195787730414747,0.2627250488701903,0.19723541182465998,0.15081194792323255,-0.9323038835114363
312.0,-0.030161247092797046,-0.05788470904914651,-0.010751333638823805,-3.812090102396947,-2.8303593836009258,8.570698967960968,0.10829060789721684,-0.1088008994676973,0.03153720787473738,148.60482502024593,-22.8835760685682,18.26393566111308,0.26165354259442103,0.1980940093746956,0.15324057453192233,-0.9320629101877902
313.0,-0.02739376280682339,-0.054172881668554385,-0.008334754152220713,-3.8295918647311256,-2.83333311430243,8.561988351014318,0.09585950536481613,-0.09690635059930891,0.057163175141145245,148.59557734096484,-22.99083406103469,18.303265037480223,0.2617213558298619,0.19858270903510544,0.1540346566577786,-0.93183232035432
314.0,-0.03223365409832759,-0.04919155117109486,-0.010042203796727794,-3.8212773305896834,-2.832803082571769,8.56596776210938,0.034672123706348715,-0.23885619036091102,0.061144061812826556,148.55994749742783,-22.935382749298952,18.292947709253767,0.2619909924463273,0.19847783696669286,0.15353944561730112,-0.9318700431025844
315.0,-0.042492908874498185,-0.048569811777522266,-0.01338302164659364,-3.808016320684299,-2.8447131069821863,8.568521253202604,-0.04933388307208134,-0.020765624684782824,0.09796974923843531,148.54018716334804,-22.853470288890232,18.356072595775586,0.26215406844897016,0.198837192091529,0.15273276220676232,-0.9318851518542033
316.0,-0.046406171195707016,-0.037202293772317395,-0.011305200831164642,-3.7992622909479725,-2.85287189574129,8.56964614981137,0.05653388458512376,-0.02478092406544413,0.0879305866569832,148.51559417176057,-22.80263994381569,18.398876187738303,0.26240055497192805,0.1990559629041437,0.15215108291376672,-0.9318684749160868
317.0,-0.039447088906372954,-0.028209087332808823,-0.004488001573564124,-3.8015757277734075,-2.8611199842643593,8.566062942564908,-0.11433541502753736,0.10000614673485445,0.07710218332022029,148.504307631786,-22.81974945908733,18.44770112116444,0.2625105765438631,0.199539992656373,0.15213870390932338,-0.9317245007657357
318.0,-0.029748623131392614,-0.024095987411487028,-0.0014976396538158936,-3.797929189614478,-2.866116443745084,8.56570731707317,-0.049980330448465775,-0.03368410700236035,-0.015725806451612902,148.48432090873328,-22.796048878835563,18.492358379228953,0.26265712887490167,0.19985766118174658,0.15180488235365852,-0.9316730041113295
319.0,-0.017232297403619205,-0.01647757671125099,0.005129228953579859,-3.808125098347759,-2.874290322580645,8.55841856805665,-0.12953383162863885,0.24198957513768687,0.08533634933123524,148.4822125786782,-22.844006933516916,18.5485936270653,0.26266079089221084,0.2004645576546026,0.15216649338296612,-0.9314893736001179
320.0,-0.011507277734067668,-0.00010169158143194697,0.004899291896144767,-3.631675452399686,-2.89691935483871,8.617838316286388,-0.37368828678206134,-4.182130212431156,-0.547906422108576,148.4426435877262,-21.744508507081036,18.568651652242327,0.26330875606707316,0.19876561478697868,0.14256849834874114,-0.9329341304653815
321.0,0.005603356631840891,-0.015703415183064062,0.010996907763526248,-3.5564307494556573,-2.8562541260315077,8.661376022359246,0.5233894696997421,2.239823866027483,0.6228872099884728,148.26727078110991,-21.289737725971126,18.23450868433572,0.26506931525549826,0.19567357425029727,0.13910853316846283,-0.9335777618268393
322.0,0.024827215950329058,-0.016250133090763983,0.02156450610910568,-3.769805044466691,-2.790774336441253,8.594307634835534,0.28223404936600005,1.3132059038278734,0.18742166759024254,148.4297183398637,-22.625090397163753,17.976468531876,0.2632582386337015,0.19559773889050963,0.15132644407655094,-0.9322664590318912
323.0,0.043972546021120676,-0.015065493021607052,0.0347162642308929,-3.8696714302201918,-2.744895025954291,8.569527780983705,0.5412020072325774,0.8288199625455814,-0.07585772215718764,148.54560709202025,-23.250328894036695,17.748081650391995,0.2621378728583787,0.19464310961774167,0.15728305985828395,-0.9318883784909096
324.0,0.07433707946217324,-0.027758552962416437,0.05021297082512388,-3.930416360271386,-2.6902378355577907,8.561671148556371,-0.055155044770808015,0.41214183611150035,0.014767711502051362,148.76504144923592,-23.632573721211898,17.441051913905675,0.2602940223525765,0.19252830189354825,0.1614911186186581,-0.9321799106648092
325.0,0.05651128166657049,-0.0019800829328211235,0.03265487250933613,-3.7315025349744033,-2.7358689177788946,8.633577509762056,-0.3122297401273395,-1.3442567029119916,-0.0935738055392969,148.46306507945667,-22.36691690092853,17.57564188437219,0.2632573034464496,0.19200965595080635,0.14991588976497422,-0.933336128417082
326.0,0.0695845444877703,-0.013390641616448071,0.0367100319035803,-3.637648706132577,-2.6970001181614083,8.686808224034028,0.7617061030367481,0.2924029599432826,-0.6501174228996809,149.09159576982157,-21.776544221907123,17.240002067824648,0.25850073760415926,0.18764437267836465,0.14653443247867187,-0.9361029300321398
327.0,0.07893533544871074,-0.0138498860174706,0.0398818414735016,-3.6265810875460756,-2.669821759279272,8.701082449284257,0.2119776581273434,-0.5885031020972209,-0.3652782611107749,149.6094640083232,-21.703791621275393,17.046655266612483,0.25438480779312533,0.1853529679646366,0.14710049200213987,-0.9376366311613062
328.0,0.09449165449027763,-0.0023103855232100724,0.025127852084972476,-3.486643728222996,-2.6890986381177173,8.75219631149076,-0.36619892941440935,0.03512706764452439,0.5565823334644637,149.35545057322693,-20.830261195253083,17.07169405183395,0.25682023712071483,0.1844734650220205,0.13919755429883668,-0.9383523974681637
329.0,0.08123825446779814,-0.003791109362706531,0.0334356805664831,-3.4867460379903337,-2.7153544921509116,8.74519974897905,0.01365014190176464,0.29590797225656584,-0.03658700498295303,149.2215023322468,-20.829305582874376,17.239085740511783,0.25788790443565246,0.18599664521390163,0.13864295893905249,-0.9378749592143139
330.0,0.1235021917500281,-0.024855232100708103,0.007318646734854455,-3.4655262448016186,-2.7231974073657783,8.750527293844362,-0.19204085646847252,-0.3719804896781686,-0.039563663781799076,149.10077132741372,-20.702732428533963,17.273776741223635,0.25889314060492297,0.18622039307066046,0.13726647986871976,-0.9377612876353827
331.0,0.11357277734067663,-0.016178599527930763,0.024162863886703394,-3.42895987411487,-2.75247718332022,8.756108969315497,-0.3449105035405193,-0.12752016129032256,0.008423485444531878,149.11118214004722,-20.46692073170732,17.437684402045633,0.25886215820849723,0.1871601303988985,0.1349991719417781,-0.937925952608576
332.0,0.11883202202989773,-0.004080645161290322,0.031282848151062165,-3.4089331235247844,-2.77218666404406,8.757987608182532,0.10267260031471281,0.16986501770259638,-0.014080940204563332,149.14911978756885,-20.340536487018095,17.551208448072384,0.25855246462352477,0.1878286469343037,0.1337813650267506,-0.9380620440383556
333.0,0.11250472069236822,-0.0061774193548387105,0.04023013375295045,-3.435466561762392,-2.7649925255704177,8.750812352478365,-0.11171813532651458,0.3285060975609756,-0.06949006687647521,149.24411634539734,-20.504492033831628,17.53026652242329,0.2577267118036979,0.1877882886526357,0.1353775424327301,-0.9380706192490165
334.0,0.13533757489560008,-0.030513309729871492,0.046825107426012244,-3.437652585285157,-2.7707828935423358,8.747380898343723,0.048322098993322425,-0.022283647541810392,-0.09112982030099456,149.3043287198148,-20.51769418008231,17.56638379077649,0.2572029005448718,0.18800729987756964,0.135539008193508,-0.9381440635750617
335.0,0.11730224535495976,-0.018956989247311828,0.044092235066271274,-3.4372027678589436,-2.739772741027658,8.757307974742279,0.0007653472936714409,0.3529354283927455,0.06693939256390083,149.36375279912846,-20.512867669309447,17.362186043696667,0.2568085960241078,0.18632586953329705,0.13599740625489717,-0.9385196672801548
336.0,0.12808778672153964,-0.01657448203514294,0.03377231737577924,-3.4416163327886373,-2.7396597772801545,8.755541477536365,-0.37017692509431294,-0.5836916091710546,-0.17572090167241622,149.4256067300127,-20.52964882285299,17.364467333414026,0.2562947125950594,0.1862881005314007,0.1362668181298089,-0.9386339670405496
337.0,0.11289991224353929,-0.029566548649357472,0.03639363311747264,-3.4287381427908556,-2.7542925164921623,8.755862792269365,0.1935749914260929,0.6515648956505073,-0.013052228963666812,149.53514305816134,-20.45658778672154,17.456584571506383,0.25539035318344633,0.1867694632114124,0.13564626340636787,-0.9388712638845549
338.0,0.11344592386370513,-0.0271744033569368,0.04000326817163956,-3.428127135911558,-2.7570777098589843,8.756620912263713,0.01120281829369163,0.3275213591155763,-0.10932349351409147,149.6702933032742,-20.45571324819948,17.463020108333836,0.2542814010151103,0.18671841280731916,0.1358169110620549,-0.9391595615793744
339.0,0.11847482297403619,-0.035823760818253364,0.038371361132966186,-3.4269378442171528,-2.768484264358773,8.753671911880406,0.012647521636506691,0.1427050550747443,-0.19049714791502753,149.81327940597953,-20.44893292682927,17.538830153422502,0.2530469839897719,0.1871017353383163,0.13584238118528716,-0.9394133948914243
340.0,0.12545692368214004,-0.03703461841070026,0.03768292682926831,-3.3306679779701023,-2.7820509441384735,8.785175845790718,-0.04388276947285601,-0.1227859461054288,-0.0948060090479937,149.99800476986624,-19.853523308418566,17.561827547206924,0.25176470337962237,0.18613426101298192,0.13096351941247047,-0.9406292561160505
341.0,0.10846892210857592,-0.021564516129032266,0.03154642014162078,-3.315269276160503,-2.8062061369000775,8.783636703383163,-0.0833177616050354,0.5555050157356413,0.12513522816679779,149.96889260424865,-19.76230945121951,17.702900029504328,0.2520116169376475,0.18715221360955936,0.12984046955015735,-0.9405223378251378
342.0,0.10632317073170731,-0.020572580645161292,0.04133772619984266,-3.3264209284028317,-2.8199821007081027,8.77536270653029,-0.039239525963808024,0.26338758851298194,0.14008777537372147,149.9186196892211,-19.833095249803304,17.810295780881194,0.25236817227124314,0.18814547902655387,0.13016479881943355,-0.9401874743117625
343.0,0.10797521636506688,-0.012916404405979545,0.045392014162077124,-3.3661496852871755,-2.8272570810385513,8.757155389457122,-0.2968663945712038,0.5837910601888276,0.11342078088119592,149.9414437450826,-20.078271292289536,17.886153865066873,0.25206146277222663,0.189135719868214,0.1321600251713218,-0.9397941708090085
344.0,0.11550311686739698,-0.024793499969739147,0.051474853234884724,-3.454115475397931,-2.823086667070145,8.723792955274465,0.17960973592366197,0.7807338003590953,0.17185526740503138,149.91383084690028,-20.625832425507877,17.92283357542012,0.252062806720067,0.19029347879701025,0.1367697552129355,-0.9388891252400087
345.0,0.10337311626217999,-0.009859377836954545,0.0585588270895116,-3.5080781940325614,-2.8061090298371965,8.708362252617562,0.008338502894954497,0.436418237709052,0.10919179577962032,149.96968096239584,-20.961347566019086,17.850583782202587,0.25150176744343233,0.1901576695236035,0.13988827848294294,-0.9386111190755513
346.0,0.10115548023966592,0.00046291533014586154,0.04009609332445682,-3.512097318888823,-2.827513208860376,8.700419521273375,0.01210099810365349,0.20208992137222861,0.009891924640400243,149.9360452412294,-20.98231619056265,17.999819821864474,0.25171991174925357,0.1913895308987018,0.1397525543114951,-0.9383251952466662
347.0,0.09741644979725231,-0.0025387036252496496,0.04451982085577681,-3.536242207831509,-2.832599346365673,8.689197663862497,0.011242031309891262,0.4142758074603078,-0.042710287679799876,149.96945911255017,-21.13359761141036,18.045776846416107,0.25133957362865905,0.1919488803808025,0.14102650929284438,-0.9381286335588173
348.0,0.1053895781637717,0.00011538461538461637,0.05101364764267992,-3.5816923076923075,-2.83229652605459,8.66944540942928,0.0877610628618693,0.38654880066170383,-0.07260907775020678,150.0192643713813,-21.426835194375517,18.07778122415219,0.2508360236695616,0.19263240119354835,0.14352020879197688,-0.937745852034326
349.0,0.11909677419354839,0.00878225806451613,0.05839516129032259,-3.5628064516129037,-2.833669354838709,8.676846774193551,0.33442540322580644,-0.0655241935483871,-0.8921875,150.55821572580643,-21.306149193548386,18.067137096774196,0.24647615521774188,0.1917299813709677,0.1433941751370968,-0.9390822875564516
350.0,0.10773387096774194,0.008588709677419355,0.060411290322580656,-3.577016129032259,-2.826943548387097,8.673120967741937,0.2891633064516129,0.7095262096774193,-0.44440524193548386,151.23749999999998,-21.390423387096774,18.036441532258067,0.24087677026612903,0.19073998202419357,0.1453329268951613,-0.9404322964677421
351.0,0.10778953579858377,0.012311565696302127,0.06044492525570418,-3.5889606608969324,-2.8128194335169154,8.673545043273014,0.1805972167584579,0.2964656274586939,-0.33426435877261995,151.716299911487,-21.466469561369,17.952248475609757,0.2369251819665617,0.18953677810149486,0.14693220144020458,-0.9414403286986626
352.0,0.09379184931250231,0.01669802555168409,0.05106040425611631,-3.612803295118206,-2.7995375969427894,8.666929395676448,0.6669271126034992,1.6983372204113745,0.14073072383949647,152.03329036472968,-21.620265550653777,17.883340299632835,0.2342678626541718,0.18878136043093174,0.1489110398829287,-0.9419298969798995
353.0,0.10094027949496084,0.0013409482597130156,0.05892939567644524,-3.7135589056236187,-2.750994604923007,8.639327601064032,-0.5438297904724438,0.5705395779476228,0.07031495869394178,152.0470383275261,-22.257284993068822,17.652078415945446,0.2339900693190214,0.18776895609449817,0.15477635845356116,-0.9412518531915626
354.0,0.09530078490877075,0.0039003128395339263,0.05937598816080327,-3.813686710876325,-2.786682786332471,8.584107348919112,-0.16841187104267352,0.5178806760705855,-0.12046248033044846,152.17820666376304,-22.89018483524409,17.972762998295305,0.23256419236112358,0.19095442088192646,0.15987950605742574,-0.940117601966749
355.0,0.08132377955115958,-0.001279682289910455,0.05538960698362745,-3.8614562586639702,-2.811224457682365,8.555307706717617,-0.17664545165036905,0.4010270315836799,-0.10224232887490164,152.42849345284927,-23.191589393428494,18.171890571728298,0.2303512900878199,0.1925749643199955,0.16254980361339028,-0.9398888777495036
356.0,0.08563671274961597,-0.002185867895545314,0.06144854070660523,-3.8970821812596013,-2.8227695852534556,8.534256528417817,-0.09348598310291859,0.3224942396313364,-0.07096774193548386,152.55902937788017,-23.418788402457757,18.294388440860214,0.22917085239324114,0.19362892840783413,0.1645552014738863,-0.9396217272964669
357.0,0.11171774193548388,-0.004387096774193548,0.06785483870967743,-3.917153225806452,-2.820612903225806,8.526274193548385,0.21345766129032256,-0.04717741935483871,-0.2410282258064516,152.6774697580645,-23.54395161290323,18.294405241935486,0.2281487732419355,0.1935858455725807,0.1658000822016129,-0.9396674369677418
358.0,0.1097541306058222,-0.00839594807238395,0.06596262785208498,-3.9085458300550764,-2.805772029897719,8.537624508261214,0.01605527143981117,0.3075100806451613,-0.09528668371361132,152.91153742132178,-23.489085857592446,18.18058984067663,0.22624690337431164,0.19227812287981907,0.16587377502478365,-0.940382820126672
359.0,0.10669964594807241,-0.01746813532651456,0.0605297010228167,-3.9114624311565693,-2.79709972462628,8.537106608969314,-0.0003392997639653792,0.2886592741935484,-0.06372197088906373,153.05786044453185,-23.50905905782848,18.132457218725413,0.22509899128796218,0.19170761240361917,0.16641415463335954,-0.9406840607972069
360.0,0.11908772619984263,-0.02566955153422503,0.06091404405979544,-3.9114207317073175,-2.7888200236034635,8.540633949645947,0.05260252753737215,-0.2640625,-0.10151824350904799,153.13855723839495,-23.507276504720693,18.067690302911096,0.22445004632946494,0.1910959921695515,0.16666133167958297,-0.9409203038381195
361.0,0.12115263571990559,-0.024627655389457125,0.061095397324940987,-3.8620470102281663,-2.7875794649882,8.563452989771834,-0.03966242132179386,0.5731043469708891,-0.010689171911880409,153.2279934598741,-23.193934402045635,18.01795215381589,0.2238261918027144,0.19019026876534223,0.16421368774055858,-0.941671249852675
362.0,0.11347954366640442,-0.026930763178599534,0.056592053501180184,-3.9021243115656956,-2.7945397324940995,8.543101494885917,-0.2333644767899292,0.45605822187254125,0.11045682533438236,153.2893243509048,-23.450041797797013,18.10930369787569,0.22322010420377653,0.1911287840157356,0.16634279244689218,-0.9412521057852086
363.0,0.09977517702596381,-0.022167977970102285,0.056035601888276956,-3.9278190401258843,-2.8129425649095197,8.525631785995277,-0.056542584579071596,0.3711742722265932,0.04315130802517702,153.2396661093627,-23.614276406372934,18.247438040912666,0.22346275243469704,0.1924933353878835,0.16742991091974824,-0.940724896268686
364.0,0.09455099097073918,-0.01927484920010491,0.05440777790266384,-3.9371552957925884,-2.8285146772320253,8.516528258589036,-0.13257476771196283,0.288678533962759,-0.01845050766175865,153.2460427321007,-23.672685198194145,18.358816466692893,0.22339033917088158,0.19342876696467903,0.16777477895104156,-0.9404898135264319
365.0,0.08634807613053089,-0.012072908471020195,0.056026469596493225,-3.942400228541455,-2.8438339515192372,8.508590742197743,-0.00010794837211043629,0.2924239444007344,-0.052168802217976096,153.25444777734066,-23.704034131355137,18.459020128507735,0.22327029069834398,0.19426635601056533,0.1678884268908434,-0.9403266789728932
366.0,0.08688056835637481,-0.003086021505376345,0.06031221198156683,-3.942295314900154,-2.853081413210446,8.505002688172041,-0.04314996159754224,0.20631720430107525,-0.05795890937019969,153.24581653225806,-23.7027841781874,18.52496639784946,0.22333392311943165,0.1947879486866359,0.1677784260764209,-0.9402254755234252
367.0,0.10417012288786484,0.0013682795698924724,0.06401497695852536,-3.9422807219662053,-2.86173425499232,8.502134408602153,0.030793970814132106,0.22301747311827957,-0.13321332565284177,153.29657258064518,-23.70456749231951,18.584206989247313,0.22290914554761906,0.1951633363836405,0.16778297033256528,-0.9402483592576805
368.0,0.11971812596006146,0.002768817204301074,0.07588248847926268,-3.9801766513056838,-2.8533509984639007,8.486849462365594,0.2007296466973886,0.35913978494623655,-0.17431835637480797,153.4017137096774,-23.9487807219662,18.574764784946236,0.22193836997542243,0.19518335595391703,0.1700877202066052,-0.9400564411167436
369.0,0.1147983870967742,-0.001701612903225807,0.07141129032258065,-3.9783225806451608,-2.8303790322580635,8.49483870967742,0.041532258064516124,0.2431451612903226,-0.11975806451612903,153.54037298387095,-23.932862903225804,18.418699596774193,0.22088987280645156,0.19373695617741934,0.1704558343145161,-0.9405361546290323
370.0,0.1158548387096774,-0.012370967741935485,0.06458064516129032,-3.8884758064516127,-2.8297580645161293,8.536354838709679,-0.020060483870967743,-0.008467741935483858,-0.1439516129032258,153.5554939516129,-23.36033266129032,18.325604838709676,0.22098423082258062,0.19234097408870968,0.1656833278064516,-0.9416349845403226
371.0,0.10837096774193547,-0.010266129032258063,0.0655725806451613,-3.895040322580645,-2.825266129032258,8.534758064516131,0.1518649193548387,0.14803427419354837,-0.04359879032258064,153.6835685483871,-23.40070564516129,18.30761088709677,0.21993629791129032,0.19208452784677416,0.16626360488709677,-0.9418426027096775
