time,linaccel_x,linaccel_y,linaccel_z,gravity_x,gravity_y,gravity_z,gyro_x,gyro_y,gyro_z,euler_x,euler_y,euler_z,quaternion_w,quaternion_y,quaternion_x,quaternion_z
0.0,0.07487804878048782,-0.03463414634146343,0.015365853658536589,-0.1546341463414635,4.939024390243903,8.461707317073177,-0.2073170731707317,0.3490853658536585,-0.07926829268292683,37.80792682926829,-0.899390243902439,-30.24390243902439,0.9131454836585369,-0.07663336024390244,0.24973799390243903,-0.31292873560975626
1.0,0.09712601626016262,-0.03621138211382115,0.016455284552845527,-0.12754471544715446,4.944508130081302,8.460402439024392,0.7079776422764227,-2.0211382113821137,-0.44933943089430894,37.89430894308943,-0.745630081300813,-30.28338414634146,0.9127995925528456,-0.07841819224796748,0.24953424663414636,-0.3136031965365853
2.0,0.0977051697593388,-0.041034113929179175,0.006122032250222833,0.3017499392269669,5.106051657078032,8.348278786159955,0.7959439064905599,-1.8886273397617694,-0.4874245401507171,39.29440482943035,1.7635007292763956,-31.429589883315774,0.9060607704960699,-0.10636251388700266,0.24935996443788994,-0.32371985286783883
3.0,0.09080209509404064,-0.03527623729393442,0.01276171028819923,0.22792774941702898,5.068411408223717,8.378784068461947,-0.207130938875834,0.525783431920698,-0.29492510286398543,39.321515904527814,1.3301098641385085,-31.155237183642598,0.9067701071203884,-0.10201291727425202,0.2487092537535551,-0.3242130208621344
4.0,0.1008397234326003,-0.037972372884161824,0.01340082755880608,0.16151342713727207,5.043553907205023,8.397734226675137,-0.08167626074637124,0.3592500477035635,-0.20399601751483165,39.2789593086425,0.938762837486375,-30.9565663791819,0.9074049843485749,-0.09810179571334773,0.24854300549365566,-0.3240545293203877
5.0,0.11308311899403423,-0.03765337763012183,0.017549351623620195,0.1231217804451113,5.031276560211483,8.405742801771874,0.059279886936019724,0.14334945343478728,-0.13459045564962668,39.278867931268536,0.7314683581609688,-30.868704117993783,0.9076463713410848,-0.09607990223983676,0.24857559613549812,-0.32412499924713334
6.0,0.11894305719286963,-0.042438823991712234,0.022263923123638056,0.08195566748830066,5.017840853070412,8.414810917014968,-0.07825416175472438,0.7577970385453506,-0.0002277355053048949,39.10587981816883,0.4878875968992248,-30.778157262529916,0.9083581828541059,-0.09330797688547138,0.24875841890261852,-0.3228690602326296
7.0,0.11340397512270053,-0.04617979843392906,0.02651620396388297,0.009517346671162562,4.9931707879060365,8.43200355925218,-0.03965369881233374,0.511612528567682,-0.021689192986399913,38.792073053651045,0.05611559139784944,-30.6117934181934,0.9096283785348054,-0.0882591488834251,0.2490320569082649,-0.32053599748462025
8.0,0.12205397886928178,-0.05268873403019746,0.033981379491214284,-0.023556301749653452,4.985312961297816,8.437188040912663,-0.08966253840245776,0.38870394046682405,-0.07646772320257764,38.652073205855906,-0.13362064928252967,-30.551560626709374,0.9101290046555484,-0.08605909469751039,0.24930323382073538,-0.31951073824776133
9.0,0.12197829216416942,-0.05652654236662893,0.03423386592426721,-0.03852370505183253,4.975787270557922,8.443224086626717,-0.01811562093820159,0.2919856034013194,-0.09339049931841041,38.58065883721248,-0.22491748965367178,-30.48998949966569,0.9104714221423937,-0.084897600131737,0.24915744379115756,-0.31897241238421975
10.0,0.10686414608208472,-0.05927536795750801,0.038705642639552965,-0.047217497687206594,4.963240409472508,8.450785430410132,-0.02579168143684273,0.324369817829692,-0.12789484643339874,38.50109050731592,-0.26777628514941654,-30.40444535467155,0.9108943343252293,-0.08404551450941689,0.2487106698109013,-0.31835456451872285
11.0,0.10458875506869211,-0.06849405878674172,0.04589045572837865,-0.05876927111702879,4.959384413645624,8.45208626359216,0.026985111662531015,0.18832738203312555,-0.16169127882345818,38.461806774395285,-0.3317232040186407,-30.38245501220521,0.9110899427148418,-0.08325968911876377,0.2487287355905505,-0.3179634109444611
12.0,0.10346274889547902,-0.07163806007787124,0.05033625854868973,-0.056715870806350765,4.956198894470332,8.453213863503395,0.0025907068934212883,0.06833756985212532,-0.23233069055256308,38.48999072000646,-0.3279583762028687,-30.362952525772155,0.9110256356847223,-0.08337838191500739,0.24851560027757263,-0.3182833187696341
13.0,0.09572935129386739,-0.08427974713458583,0.04527921540824768,0.04666885265272362,4.975607408720311,8.440319981094174,0.8819046880538817,-2.2416674051754697,-0.4627451849226043,38.82156962660994,0.2768459027531608,-30.49745472941037,0.9097418862691717,-0.08985581385117572,0.24740826888237033,-0.3208386198879829
14.0,0.08731473046833135,-0.0744245793591255,0.033856642732111614,0.3053505072696747,5.057097854820849,8.383013396206195,0.2773086686850284,-0.7563952372021576,-0.30010672310934877,39.67752217072125,1.788987034705105,-31.078854367609758,0.9058761198445326,-0.10636863746610759,0.24638777548702354,-0.32709397918322436
15.0,0.08566370163969564,-0.06989566141535383,0.03393869002965028,0.2748002536348374,5.024764173186155,8.405702550637656,-0.3086898956882078,0.7698678575893972,-0.11368863421212447,39.74706801700425,1.6049425860929518,-30.845887197245737,0.9062642438550621,-0.10435639886688636,0.24514575081321227,-0.32786172029053684
16.0,0.09416820015108308,-0.07072015564866826,0.03488348742237826,0.19475142500781992,4.979716075578129,8.435238175397512,-0.2664404926906814,0.6974234793454461,-0.1065597232823014,39.65955387474918,1.1342726551629196,-30.530267433201942,0.9072680093397065,-0.09935488884542194,0.24424762172948178,-0.3274424826545131
17.0,0.09794700330134799,-0.08074717459852766,0.04018367919506011,0.1361861963748777,4.953829811982615,8.452877152214889,-0.0804732705388891,0.4381270622533683,-0.1009361116411507,39.57463580834233,0.8053923759685565,-30.345804079504195,0.9079306825488855,-0.09583993309609809,0.24393117903812803,-0.3269725646377404
18.0,0.10377823992315419,-0.08475205829063806,0.04180842945928122,0.10269666666197506,4.943388674158625,8.45973616561471,0.020005374065306725,0.3718979279126938,-0.11070452633930394,39.52088977584788,0.5925372608898674,-30.275263052395367,0.9082572214685232,-0.0937803756364338,0.24407051228492715,-0.3265992081876519
19.0,0.10623627382321324,-0.08413796353135455,0.046720729834026475,0.07617121588089332,4.934045443148511,8.465748912770948,0.02610484519414495,0.2743830389385071,-0.1381210498785243,39.48062264577803,0.439955847981025,-30.209816493171136,0.9085415686175433,-0.0921984859708343,0.24405783306129694,-0.3263117838109504
20.0,0.0956296576489338,-0.07766191571344994,0.04293640178337269,0.0791985111662531,4.922390617119568,8.473692428735704,0.11252918911012931,0.15759282515281728,-0.15237465704371683,39.4286369757308,0.4535656736064879,-30.12661523583288,0.9088360873302768,-0.09201740295162297,0.24342591691544108,-0.3260264468302065
21.0,0.09311380600778713,-0.06662796808489177,0.038380081300813024,0.07636164740059309,4.921828668119186,8.472692005083827,0.16673371335915593,0.09573681383525993,-0.17839523568157517,39.414947913514496,0.4424102954971857,-30.126643573856644,0.908899648232408,-0.09185409841522926,0.24344678488573002,-0.3258773015897688
22.0,0.09743190300389357,-0.06411640339728461,0.037936008392342006,0.07157598499061915,4.92438610825314,8.471346002541917,0.0228577840989328,0.18864461659504933,-0.1867530613891747,39.39845177933789,0.42117994613568965,-30.134818762734774,0.908917991087978,-0.09162372489309853,0.24361709558399408,-0.32576176720214245
23.0,0.10463571990558614,-0.06920377655389458,0.03930133752950435,0.06418253343823761,4.9228564122737986,8.470747442958306,0.02481805664830842,0.1296666011014949,-0.17421813532651456,39.385407651455544,0.375199154209284,-30.13163601494886,0.908963188053501,-0.09117464417938634,0.24377189409638084,-0.3256421938516916
24.0,0.11238552321007078,-0.08023210070810388,0.04554209284028326,0.0525892997639654,4.921247246262784,8.471449252557047,-0.07503196302124313,0.2076785011801731,-0.16187303304484657,39.3713721970889,0.3040826612903226,-30.12403496262785,0.9090237382730131,-0.09056377415499607,0.24394290043135328,-0.32551690359775765
25.0,0.10733792289535796,-0.07368056648308419,0.041238788355625514,0.05805271439811174,4.907313139260422,8.480498819826913,0.16545780881195907,0.035139653815893,-0.16223691974822974,39.35199154209283,0.3376008064516129,-30.03119590873328,0.9092793051203776,-0.09054701083556256,0.24308550406648305,-0.325455486770653
26.0,0.09981451612903225,-0.05270967741935485,0.03323387096774195,0.0662741935483871,4.890274193548388,8.491483870967741,0.02938508064516128,0.02560483870967742,-0.09400201612903226,39.32590725806452,0.3891633064516129,-29.912701612903227,0.909628639516129,-0.0905456052580645,0.24202516665322577,-0.3252674710887097
27.0,0.11083103855232103,-0.02987863886703384,0.01739280094413848,0.07108084185680566,4.876574154209287,8.498995279307628,0.008664437450826115,0.021691827301337528,-0.06042363296616837,39.318044354838705,0.41391129032258067,-29.810837922895356,0.9098523239291899,-0.090488984534225,0.24118926568351698,-0.3252660697411486
28.0,0.12218452849275035,-0.007466393166235814,0.005581385111086136,0.07455558989921696,4.864710464201416,8.50637167959237,-0.061455991720055454,0.07264146856618335,-0.029920197819489718,39.30197532642089,0.434331797235023,-29.73663535929714,0.9100612681888655,-0.09041109327133676,0.24049832921906256,-0.32521535371312427
29.0,0.10850778352253566,0.00843478138698438,-0.004464126484582818,0.09098678393465964,4.8558485444531865,8.51131644561837,-0.14917065911730545,0.17338001339402795,-0.07076261661234123,39.257675925405564,0.5264745138810835,-29.687802829137162,0.9102907087110734,-0.09096079315071558,0.23981589409812287,-0.32493205290298216
30.0,0.10336545090105277,0.011815124948484508,-0.005163706867483421,0.09090871454797494,4.84742196807913,8.51615419055112,-0.21311619553407513,0.13486468987673747,-0.031992291409089206,39.22021901108988,0.5152533859727998,-29.6274759633397,0.9105097611813817,-0.09064915069651755,0.23941513562893846,-0.3246964893170825
31.0,0.11238207635532574,0.02581806601476154,-0.009665055636731482,0.09020081675471131,4.83899629088457,8.519256678281065,-0.16715138061518864,0.09311893522161029,-0.06269903712862013,39.201994586190104,0.5085843542767224,-29.5745593083811,0.9106752407609306,-0.09044736973624071,0.2389780603195833,-0.3246108942740997
32.0,0.10521936233187215,0.0409971525982541,-0.016709003034730815,0.07912873253156494,4.818325840170848,8.531949346221577,-0.2690103873965007,0.32780946761080515,-0.10636427072796073,39.160473099546664,0.4525858435427672,-29.435342203364428,0.9110922223356184,-0.08945558837716835,0.2381235099355588,-0.32434934521336767
33.0,0.10530553370049828,0.06030272376456486,-0.025438986924431466,0.0683808025177026,4.79795324266607,8.544162077104644,-0.33085215990408756,0.25387209171630887,-0.07811013075568543,39.09735444531864,0.38998819826907943,-29.292234273725228,0.9115696765257202,-0.08838620327690982,0.2372471603825259,-0.32394806827642264
34.0,0.1030922408302424,0.07319639578884268,-0.033655576786182625,0.059034730808137585,4.79953373796411,8.543346446367687,-0.24074875426173617,0.13710333071072647,-0.05106051665355363,38.99907834101382,0.3403544265857405,-29.306844301449924,0.9118111354070284,-0.0877335162489978,0.23758518940223294,-0.32320003018125953
35.0,0.10383893447229404,0.07491551459293394,-0.03689644449439888,0.0873576486456109,4.8118245850661285,8.535827432467869,-0.1870564984451688,0.12454666366940167,-0.08456291446555018,38.964256912442394,0.5027893297366153,-29.391921902513957,0.9117449458179534,-0.08931147036270655,0.23780681868494996,-0.32278914469068215
36.0,0.08979178374733057,0.06253549885729275,-0.03089717507774157,0.11486967517140612,4.828008317410363,8.527886178861786,-0.1868239762466749,0.1467154190551122,-0.14065263103667902,38.92073252688172,0.6665252332246825,-29.500000702483984,0.91161205208323,-0.09092479613748083,0.23816759308062643,-0.32243589417685736
37.0,0.09101312240080926,0.04940307594320185,-0.026534346783560016,0.12720667078790604,4.839436888838933,8.519914765276681,-0.013651956652055014,0.10468147034580944,-0.10179759797309955,38.89383400537634,0.7375456614589186,-29.588046181297067,0.9114861952666344,-0.0917593415777884,0.23862331091482147,-0.3222231898146286
38.0,0.09837349668427559,0.042290247649020285,-0.02292443145629614,0.13182510958750135,4.8493313476452755,8.514231576186724,0.10018007006106926,0.040596783560001494,-0.1388272264059046,38.88172043010752,0.7642365404068787,-29.659900106777563,0.9113665517502526,-0.09216228585744263,0.23911842543321718,-0.3220874619194111
39.0,0.10188490502416545,0.032047581581806615,-0.0150597579708516,0.13269596493199948,4.8555911730545915,8.511605035405186,0.02514283840995091,0.06903591098122962,-0.10043319845640852,38.8777841781874,0.7796893147502904,-29.711694485032407,0.9112671454066161,-0.09240232291259226,0.23944600824195428,-0.3220464078606272
40.0,0.09403293244914016,0.015852272301524865,-0.006513356562137051,0.13972091716308868,4.8667531002959805,8.503285601888276,0.12930037278483383,-0.06324463302236709,-0.013695159417031963,38.900384024577576,0.8195210932524072,-29.78036042111573,0.9110798404129857,-0.0929989298654228,0.23990121316739724,-0.32208697962661575
41.0,0.08228835562549174,0.0033815892997639675,-0.0016998426435877263,0.1486231313926043,4.877573170731704,8.4961589299764,0.14665863493312353,-0.07299616443745083,0.0059500393391030675,38.91975806451613,0.8699227970102281,-29.853798682140045,0.9108955268339891,-0.0935865375609756,0.24028033888630992,-0.3221465114492526
42.0,0.07701113671274962,-0.01487864823348695,0.0071271121351766525,0.15492319508448546,4.8898506144393235,8.491112135176655,0.19160186251920122,-0.11455693164362518,0.03168202764976958,38.9296370967742,0.9067660330261136,-29.926932123655913,0.9106999295975424,-0.09414199503072196,0.24076588452726572,-0.3221783657849463
43.0,0.06727611367127496,-0.03383448540706607,0.01862864823348695,0.16169047619047622,4.903856374807987,8.484211981566823,0.13412538402457758,-0.0385680683563748,0.01938124039938556,38.93457661290323,0.9431619623655914,-30.011088709677416,0.9104791294062982,-0.09470575043702,0.24136302436674345,-0.3221864754032258
44.0,0.05890821812596006,-0.05200998463901691,0.030737711213517677,0.16608717357910904,4.920895929339476,8.473364055299541,0.15824212749615973,-0.06759552611367126,0.02196380568356375,38.93704637096775,0.9719086021505376,-30.123286290322575,0.9102300738321811,-0.09533844447657451,0.242161630171275,-0.32209846621774196
45.0,0.053861367127496174,-0.07145660522273425,0.0409051459293395,0.17462826420890942,4.939863287250383,8.463262672811059,0.269090821812596,-0.13805683563748078,0.05747887864823349,38.9375,1.0068716397849462,-30.250554435483867,0.9099312515572195,-0.09608065902457759,0.24303139620660524,-0.32205101529032265
46.0,0.04746697388632874,-0.090321044546851,0.051642089093702014,0.18336251920122898,4.9606574500768055,8.450824884792628,0.25304339477726573,-0.10894777265745006,0.07924347158218126,38.947177419354844,1.065255376344086,-30.394354838709674,0.909592606798771,-0.09693729120583719,0.24401889274039937,-0.32201203129032263
47.0,0.03585637480798773,-0.11756451612903226,0.07190552995391707,0.18909293394777277,4.982966205837176,8.436397849462368,0.1993663594470046,-0.0859447004608295,0.031499615975422425,38.97056451612903,1.109418202764977,-30.550571236559136,0.90923834122043,-0.09770395321889405,0.2451064058479263,-0.32195707752688163
48.0,0.027046616837136123,-0.1390458300550748,0.08307651455546815,0.19532435090479944,5.005678992918962,8.423481510621563,0.17863886703383164,-0.06164437450826121,0.025167191188040915,38.942230527143984,1.1393268095987412,-30.705884883949643,0.9089444701689616,-0.09841231650885134,0.24622579652517712,-0.3217076771675846
49.0,0.012932336742722272,-0.15605428796223447,0.09311526357199057,0.20331943351691584,5.019363690007868,8.415869787568848,0.13842446892210858,-0.06397890440597954,0.0185250295043273,38.90760719905586,1.1791269177812747,-30.80100191778127,0.9087965286449646,-0.09898292964437455,0.2469172854821007,-0.32143601816620776
50.0,0.001973080813757449,-0.15206093814394364,0.09282529691656362,0.20711132966168377,5.008298396463227,8.42180240530516,0.028601635382713285,-0.04399862078977933,0.03465734002098086,38.90104822318384,1.2072633916863362,-30.72186832640216,0.9089959098445636,-0.09892873904645763,0.24624493625583532,-0.3214162030053388
51.0,0.0003091210520400154,-0.12458192836536658,0.07296372372709903,0.21230297665879885,4.981761717432843,8.437045595893743,0.05199523013375296,-0.06065258420441347,-0.001156113015623246,38.91897169223708,1.2284696854745045,-30.537667074107375,0.9093926225369129,-0.0986581496937357,0.24468300888098973,-0.3215837483052808
52.0,-0.003228503990109025,-0.11730306095687686,0.06755041025064629,0.2165748754261736,4.969300213555131,8.443942152785578,0.07279701022816679,-0.08007427597317447,-0.044706080701360014,38.936224757408866,1.2481562137049942,-30.451343617698846,0.9095342330144245,-0.0986547586291259,0.2439464976582368,-0.32174768361635003
53.0,-0.015864448690569855,-0.11586002772470122,0.06544947735191638,0.2161505376344086,4.962829493087557,8.448089093701991,0.061309992132179386,-0.05882647708965569,-0.11619647072046757,38.97432795698924,1.2440279494960849,-30.40168970814132,0.9095623413333335,-0.09853709614619158,0.24352524834446063,-0.32203584523539763
54.0,-0.024069124423963136,-0.12035330261136712,0.06838248847926268,0.21681720430107526,4.960285714285714,8.449689708141314,0.0967741935483871,-0.12671850998463902,0.029608294930875585,39.021438172043005,1.2581125192012288,-30.389957757296468,0.9094348059892471,-0.09871293580952378,0.24335175339016893,-0.322458677674347
55.0,-0.031305664830841864,-0.12302723764564831,0.07363309729871492,0.22914424337791767,4.96371718931475,8.447169233074813,0.6120163397774531,-1.3893937797384888,-0.1252963311603162,39.07534175845791,1.350379692593009,-30.434950919785692,0.9091438657425537,-0.09964431856125658,0.2433767019993069,-0.3229421321624517
56.0,-0.025723642800944142,-0.11470298977183316,0.07409952793076319,0.4509673485444532,5.06426848937844,8.373526357199053,0.5761518981117231,-1.30163134343037,-0.23599896734854447,39.83096847954366,2.6425120476003148,-31.15268243509048,0.9051875459950824,-0.11429073775904797,0.24409693032985835,-0.32823632149016524
57.0,-0.028990277621670228,-0.09291908321156941,0.057907674871679596,0.5180950413997228,5.082454329174628,8.360518938968193,0.3226369609606234,-0.6599806582743247,-0.190346113858604,40.205001568880895,3.032818763815518,-31.278434151493013,0.9038000213429713,-0.11875491357134427,0.24347607080644218,-0.33108905573817016
58.0,-0.04538748689785686,-0.07399995795987324,0.04892279842608736,0.5632126557336199,5.091829002546804,8.353030287188524,0.10344737207821117,-0.38264880625644215,-0.11100435850469587,40.52282969479303,3.294649254375876,-31.34597286625663,0.90270929521359,-0.121845808358159,0.2428332669867732,-0.3335054345915157
59.0,-0.05548003377150908,-0.07173788220574306,0.04355414114852756,0.5849410052861648,5.076108049660501,8.361902240368455,-0.03103841073508795,-0.19550787087015659,-0.033249155058799544,40.69589065384813,3.4268357158976155,-31.245667884741216,0.9024263310745371,-0.12301212327182143,0.24142826469499956,-0.3349210865255966
60.0,-0.07165032373075847,-0.07060536911231292,0.04114371101486175,0.5781400541773075,5.0559887219191575,8.374303598547716,-0.027453705760935004,0.008215773455559003,-0.014692044091162159,40.78065579112548,3.384611799726935,-31.103724973055108,0.902530315561659,-0.12239421486801141,0.24038696838369172,-0.3356494375334513
61.0,-0.08557496516986389,-0.06804304647590469,0.04079923552316653,0.5557387918408174,5.035118672525274,8.388689958203834,-0.010112572786053656,0.036823268317079265,0.025507046404458254,40.80105271853677,3.24471541992641,-30.95632747472582,0.902807430853213,-0.1208728983010395,0.2396941737614761,-0.33595793305862176
62.0,-0.08722156148793295,-0.06256297915942402,0.03985767478454982,0.533980257259437,5.016385532358701,8.401560051598263,-0.006184358589647412,-0.05914376841161509,0.07642667145444897,40.829456640074646,3.109540304283388,-30.82660867198507,0.9030310690982561,-0.11942167485244175,0.2390781413335499,-0.3363140509459682
63.0,-0.08455153422501968,-0.06460326514555467,0.03777753737214794,0.5154409913453972,4.999708693941776,8.412683123524783,-0.009965086546026751,-0.11602699645948072,0.05217471479150275,40.85370525177026,3.000543371361133,-30.713613788355623,0.9032467714787569,-0.1182090915552714,0.23851623471184108,-0.3365746918725413
64.0,-0.08019089768086621,-0.057696217826233576,0.03300224794874679,0.5002976846127909,4.990205921471654,8.418938911992806,0.09815205734142596,-0.15225672979656063,-0.04535441487767414,40.89301045998651,2.918676063560751,-30.64132350324079,0.9032891734909145,-0.11735301037997826,0.23817622445826303,-0.3369997618183751
65.0,-0.07434180060694617,-0.04711519800681879,0.02863630062567908,0.48798217563972895,4.976494089768086,8.427965231726049,-0.03865798630624555,-0.0159325123637181,0.18016337435839794,40.87658995541568,2.849553805589899,-30.54502091060657,0.9035579326433065,-0.11639390538161737,0.23770770885969997,-0.33695487140515534
66.0,-0.06747735191637631,-0.04661001835824812,0.028358472893484706,0.48319673298115495,4.967299464238883,8.434627777153347,-0.026158630249896966,-0.03097532876250421,0.19809580008242478,40.81228691319171,2.8267426286014015,-30.484758439174254,0.9038564007006855,-0.11583789108193773,0.23739323482904362,-0.3365739676541905
67.0,-0.07009980892435651,-0.04113349068974563,0.029033681765389098,0.5039587126746842,4.969538795848786,8.431338278820576,0.04042186504814357,-0.17355709789816792,0.08454160578472143,40.82756359821663,2.9489977895170654,-30.497517889925444,0.9037695170891313,-0.11699415787771161,0.23708450805574924,-0.33661735877988835
68.0,-0.07903023491064401,-0.04027091528979808,0.026970814132104462,0.5224954853695999,4.974663182346108,8.42603263272264,-0.044034740174590685,-0.05257319883106665,0.08056250234161327,40.847249541043794,3.04046565321644,-30.529000880446592,0.9036670701291447,-0.1179692309191863,0.23693152867854345,-0.3366692129304635
69.0,-0.08676353452474617,-0.049392510584092025,0.032914428084373025,0.5320772357723573,4.977281667977968,8.428120002997268,-0.08102309767337304,-0.01546658986175115,0.05114399516691019,40.828002650706225,3.087053103105916,-30.545366415645724,0.9036253812845529,-0.1184834531685587,0.2367987408070885,-0.3366581516687649
70.0,-0.09073387096774191,-0.0509030291109363,0.03519236821400474,0.5399285995279307,4.9817781274586945,8.422425649095203,0.127448859166011,-0.07970102281667978,-0.0075149980330448465,40.84232395751377,3.1506699940991343,-30.590135719905586,0.9034843901361138,-0.11909484053973249,0.2369894079118804,-0.3366783103898507
71.0,-0.1000121951219512,-0.0550357985837923,0.035767505900865484,0.5421868607395748,4.979701022816679,8.423030291109367,0.06235247836349332,-0.03521095594020456,0.047128245476003146,40.85753097954367,3.163306451612903,-30.573613296616838,0.9034801187690797,-0.11917931968646736,0.2368315386404406,-0.33677325222659327
72.0,-0.09439634146341462,-0.0550041306058222,0.03313552321007082,0.5353027143981114,4.976695515342249,8.424792092840288,0.06726986624704956,-0.08182656372934698,0.04047993705743509,40.88566458497246,3.125393391030684,-30.549911487018097,0.9034291728424471,-0.11884634438296618,0.23680911046498815,-0.3370544706608969
73.0,-0.09029897718332022,-0.05485287175452401,0.03357985837922897,0.5355908733280879,4.978734854445317,8.422512981904015,0.07516719118804091,-0.0201219512195122,0.02144964594807238,40.896587332808814,3.125196695515342,-30.56185090479937,0.9033630034413852,-0.11891167740519278,0.23687807618410706,-0.3371590279433518
74.0,-0.09202202989771834,-0.051776553894571226,0.03410385523210073,0.5371502753737212,4.98452871754524,8.421095200629427,0.04820023603461841,-0.0014358772619984268,0.037873721479150274,40.91905979543667,3.125098347757671,-30.594433516915814,0.903244622632573,-0.11908395003619199,0.23715224945082616,-0.3372562719071597
75.0,-0.085786782061369,-0.05176003147128247,0.03374429583005509,0.5272588512981904,4.980238394964596,8.42368764752164,-0.030256687647521627,0.04340578284815107,0.01574055861526357,40.94248623131392,3.0705940204563333,-30.56770751376869,0.9032440647427225,-0.11857284440519278,0.2370933799291896,-0.33746657618017306
76.0,-0.07650944138473642,-0.0546093627065303,0.03370928402832417,0.5160416994492525,4.972940597954368,8.426938237608185,-0.06427271833202203,0.058676730920535006,-0.03737460660896932,40.96368017309206,3.001996459480724,-30.520089988198265,0.903306918481511,-0.11788957469512193,0.2369199443202203,-0.3376544787808812
77.0,-0.0679274193548387,-0.05494354838709678,0.03391129032258066,0.5065322580645161,4.970120967741936,8.428911290322585,-0.017187499999999994,0.03150201612903226,-0.10952620967741936,40.95100806451613,2.9463709677419354,-30.49430443548387,0.903371600419355,-0.11736691231451613,0.2368804452741934,-0.3376928506209679
78.0,-0.06693922108575925,-0.05769040125885131,0.03340578284815107,0.5023078284815106,4.969887096774194,8.429612903225811,-0.11997811762391816,0.0748660011801731,-0.08237608182533437,40.97229543666404,2.9160946105428796,-30.493607395751376,0.9033746316754525,-0.11712621900806451,0.23691476628186459,-0.33774756964083397
79.0,-0.06451334503419477,-0.06127241320179952,0.039434384393471744,0.49510294236317043,4.966709470636888,8.433673283705545,-0.022218303022050065,0.03632865298876314,-0.10573389492424701,40.967304666222844,2.88903365762876,-30.473282192499344,0.9033972253337976,-0.11678279129942101,0.23687307468797525,-0.33782891147612415
80.0,-0.051740543484839335,-0.061672496923480424,0.03814461155157459,0.4864184066654563,4.96257650951199,8.436159222497933,-0.101507336994896,0.03540222972018802,-0.04870868133309125,41.01974104278884,2.8369059417176055,-30.448032225281928,0.903287495666899,-0.11639851947229113,0.23678838183995538,-0.3383063097541912
81.0,-0.04412027174241967,-0.0634572162036757,0.037624725130626015,0.47595113881659934,4.956030190239865,8.439015095119933,-0.10244217656196412,0.12460635679557788,-0.1504128084084811,41.05614068268474,2.7742493418265446,-30.409903209415155,0.9032951675108691,-0.1157962660990488,0.23664919136755833,-0.33858566613516017
82.0,-0.04328191006475823,-0.0694181242308701,0.0389091367588614,0.46736266618249345,4.9527328370554144,8.439656741108353,-0.12349931408743367,0.08972253323649862,-0.10060963001069216,41.06133647037463,2.7274976547842398,-30.390914306320482,0.9033090433723702,-0.11528611785194376,0.23666863878861782,-0.33869928093451557
83.0,-0.029449218073749214,-0.06902620847519572,0.043529642025891116,0.4594470733067886,4.953684498047588,8.439749600861752,0.049719521226460464,-0.051530971685228986,-0.011934894781387657,41.05932288360552,2.6816739641641183,-30.387766472868215,0.9033196499015623,-0.11492559951111814,0.23681657628569633,-0.3386915312387616
84.0,-0.02046607187511164,-0.06051038652520273,0.038241247811953004,0.4287717465080557,4.945834923016468,8.446679125138424,-0.550061957453649,0.8859347091237095,-0.06772524604365376,40.99571957721574,2.5026848788089877,-30.332420102793556,0.9036642892678082,-0.1131247641547083,0.2370139742718804,-0.33820554802987357
85.0,-0.0028250098238845438,-0.05801498588932947,0.03769838888293504,0.32709017432929677,4.881289965348477,8.489819401278886,-0.2959675186653806,0.481558224377523,-0.08544792448112029,40.87770329859251,1.9113762815703925,-29.89588915085914,0.905050165150993,-0.10655594763207768,0.23557950397292174,-0.3375932273138999
86.0,0.014799092630300437,-0.043934528274925874,0.02771478583931698,0.39196156181902625,4.917611188511412,8.465991497874468,0.14861042269495947,-0.4699711758296716,0.0011964486657378565,40.92282222341299,2.2935577644411103,-30.140052870360446,0.9043347447112493,-0.1106202495735273,0.23625228258937947,-0.3377132406054907
87.0,0.021185148203427172,-0.05084816500292321,0.02189830558684968,0.3992931333878767,4.8826962315491755,8.485725882690181,-0.09497033448257533,-0.19965046793057142,-0.1503686570597353,40.97141799604954,2.337893162314969,-29.89560668695048,0.904706414018095,-0.11037890014779825,0.23416907586923735,-0.3382977876093937
88.0,0.03332175639728749,-0.04870840358173169,0.021147952493349824,0.39453328837435864,4.864652691918622,8.49899947547862,-0.03069972087969727,-0.11219395114458053,-0.04490488366865235,41.01707621482896,2.3198514948859166,-29.77783428871155,0.9048086059287774,-0.10990859428545205,0.23321827855052268,-0.3388442154123487
89.0,0.04733629313251658,-0.04767929264546104,0.01884830092540557,0.39246764827095293,4.851362069611479,8.505417556479706,-0.061936842006668914,-0.09796209396425759,-0.05507872503840246,41.041876241055036,2.3062783335206625,-29.693955593645796,0.9049218811531978,-0.10961696008407332,0.23252326355404437,-0.33915840977906425
90.0,0.057865535199130805,-0.05231122850399013,0.017058559064853325,0.39376070585590667,4.836276272900975,8.512424600052448,-0.11240563298490126,-0.04790097785770484,-0.10657642089093702,41.08149399610356,2.296236324978457,-29.590233365179273,0.9050272963062453,-0.10938951958888768,0.23174593639683785,-0.3394953599087333
91.0,0.06205638604773146,-0.055617043198081764,0.020192667940504297,0.38223721479150263,4.82434341163688,8.522377580457828,-0.1771424590685999,0.16259237664381251,-0.05060238001573564,41.105719156269906,2.2339716571128845,-29.489160320894683,0.9052056332213101,-0.10856871399052115,0.2312131723879397,-0.3396530731359635
92.0,0.06132874377130869,-0.06390057510022107,0.024405539320370172,0.37550098347757643,4.816510808886891,8.526617586452357,-0.1477274057734817,0.13903615685062382,-0.06087849134539732,41.117031490015364,2.1751831141583304,-29.427261120321454,0.9053341362290659,-0.10794912080643292,0.2309054884504608,-0.3396954533484697
93.0,0.060414371885654364,-0.06873657787269116,0.027989059982765734,0.37652871754523987,4.82164250121764,8.52321201903263,0.2626030309842268,-0.05580954254243002,-0.13384146341463415,41.13895929339478,2.177712524821101,-29.468746487580084,0.9051867858887263,-0.1081764370725713,0.2312054514470046,-0.3398245328032672
94.0,0.06602937319695779,-0.06587104267356038,0.025203027237645656,0.3746073957513767,4.840995129444382,8.51196084822599,-0.11184364579820916,0.05960998089243566,-0.014226003147128248,41.16605222734255,2.171207757296467,-29.608065218613014,0.9048036923165109,-0.10857460499733991,0.23226392189187373,-0.3399851313331834
95.0,0.07761683713611328,-0.07395318646734855,0.029505507474429593,0.3646262785208495,4.835381589299763,8.514564909520061,-0.19851494885916598,0.1305394374508261,-0.01991542092840283,41.17802419354839,2.1225806451612903,-29.570377655389457,0.9048693318886701,-0.10807613699252558,0.23214260743902437,-0.34004913119040114
96.0,0.08033870967741935,-0.08068548387096774,0.0333467741935484,0.3544838709677418,4.831483870967743,8.517129032258064,-0.13125,0.16255040322580644,-0.03911290322580645,41.16360887096774,2.07116935483871,-29.53649193548387,0.9049626019758064,-0.10752523908870967,0.2320843119193548,-0.3400180465645162
97.0,0.08276593233674272,-0.08525944138473643,0.03572993705743511,0.3433591660110149,4.826532651455546,8.51840322580645,-0.14464742328874902,0.16991542092840284,-0.0009871656176239155,41.144304435483875,2.00760474036192,-29.52026209677419,0.9050567959677418,-0.10690959503501181,0.23211572924626284,-0.3399368814577105
98.0,0.08884917200554494,-0.09331501255104718,0.037145882507212194,0.3356596137274737,4.82068760068937,8.523510752688168,-0.2403080626428384,0.22022556760705853,0.01192361189164887,41.13412298387097,1.9539775813944775,-29.468404377880184,0.9052012319135945,-0.10627773877557042,0.2319373527602281,-0.3398595866146079
99.0,0.0861261051325549,-0.0767372137023803,0.035258331351130476,0.27055683237011346,4.810220300719779,8.532144348587146,-0.03597361121639295,0.5289964109603185,-0.0016525976550757892,40.985242404351084,1.5759174291068412,-29.39024823170078,0.9058266244790215,-0.10253810894808155,0.23268810489896252,-0.33880686535381555
100.0,0.0867025096866551,-0.06248691920366853,0.027541341127964927,0.2681400408900135,4.793934107873659,8.542103940619302,-0.28331676233518305,0.3872331336862961,0.016961737167741416,40.92193375134942,1.5624405448051908,-29.280969414827574,0.9062445755226542,-0.1019618433202249,0.23187810591250252,-0.3384206520416795
101.0,0.08733925641689166,-0.05741714174188148,0.02614409699985973,0.2548901423962262,4.771602282103626,8.555725455754184,-0.11615926629741058,-0.00863989952191882,-0.025230284051849204,40.8319008105685,1.4897076838896135,-29.131633409223383,0.9068349831184277,-0.10068475978098185,0.2310021372158893,-0.3378353549328185
102.0,0.10498130630218529,-0.051231893339188476,0.01774647058977288,0.26056203946456985,4.7648137295647945,8.558507889167414,-0.023289113872544787,-0.06935942936082454,-0.050022414140120396,40.83252106580652,1.5198587593326902,-29.09001025299879,0.9069238408833307,-0.10085623386186704,0.23054336680171789,-0.33787112198872016
103.0,0.11954902488688375,-0.044394748512912224,0.01181870380487108,0.26432095828835234,4.757706403952904,8.561608015244229,-0.0988901406536303,0.04570142971282891,-0.011474340710613196,40.82591875102922,1.5401953166863143,-29.04591718487113,0.9070014401882094,-0.1009133322803959,0.23018459263280977,-0.33790504088683326
104.0,0.13056760705855908,-0.03960511033681767,0.008020306470345809,0.2681169682664566,4.753020493799408,8.562770596830392,-0.11163172979656064,0.06396350829867745,-0.003189277284477915,40.819433516915815,1.5567396313364055,-29.017707279607357,0.9070429918317038,-0.10103994448877895,0.2299538373646548,-0.33792265956652057
105.0,0.13714060919411042,-0.03361058034543481,0.0036836386797047694,0.2705927091528977,4.752800569480348,8.56153085309655,0.03129566145891873,0.010738638492375704,0.10093289872990896,40.837873721479156,1.570585590648533,-29.016918155932707,0.9070164276939789,-0.10117646117829981,0.2299138009246563,-0.3379708953812146
106.0,0.1527024839833652,-0.02820182833164738,0.0013075943201828332,0.27302412798321507,4.753695328013187,8.563478251095873,-0.04801759019894346,0.03820271814469296,0.12977408115094974,40.82612116443745,1.5847125435540068,-29.00767721329287,0.9070674993709867,-0.10118698029568024,0.22981626280300485,-0.3379153027448953
107.0,0.15218972687422727,-0.024681727923270023,0.0013698625004683225,0.2901699449252556,4.7607501030309844,8.55985084860065,0.19921602787456444,-0.2000402757483796,0.11639316623580982,40.81804376943539,1.6987046195346744,-29.057118504364766,0.906986988749691,-0.1022258693451351,0.2298587901339403,-0.3377803226582744
108.0,0.12703956389794313,-0.018462215728148067,-0.0012697538496122295,0.3269052489603237,4.772168446292759,8.55261743658911,-0.13867923644674235,0.4050201847064553,0.18602876437750554,40.75663613202952,1.9115642913341575,-29.14352661009329,0.9069712749662433,-0.1041417269344723,0.2298754008695815,-0.3372059722507962
109.0,0.11447609681165935,-0.01062296279644824,-0.007353433741710691,0.3385140684125735,4.780500505788469,8.54691809973399,0.11993298302798694,-0.20471636038364993,0.04839377037203552,40.66319171256228,1.9820398261586303,-29.203099710576595,0.9071188116839758,-0.1047294022679555,0.23018448166142141,-0.3364209825981792
110.0,0.09923958537543792,-0.011096708192727626,-0.0030765668333459675,0.3619442608910066,4.772757068622555,8.551658599754468,-0.09478027444578917,0.25227125460589883,0.11700000212378878,40.58184401283248,2.1125108422140375,-29.149967828684087,0.9074580164200896,-0.10551908550482655,0.2294161769038448,-0.335782986506672
111.0,0.08307543784900928,-0.005794715229329981,-0.0051849199233606315,0.36587594633850085,4.765082507560688,8.555740590199814,-0.11859514312376004,0.20555574433678103,0.15046929197456158,40.503623619319455,2.1194561488804258,-29.09861257779602,0.9078102956398246,-0.10531695392983267,0.22899159483370846,-0.3351810250377576
112.0,0.08152985110389097,-0.008711677048181907,-0.0029976527232853513,0.3580166513753872,4.7554956204207866,8.561076431999982,-0.16937329933528678,0.21039490600001917,0.1830237883948339,40.43464029117035,2.0864786645267586,-29.035021277096277,0.9081612925838778,-0.10465265080441276,0.22868964650025325,-0.3346487297336702
113.0,0.07946987651496096,-0.016584658091620203,0.004514112312586322,0.3523797660752629,4.750104244099084,8.56407330993831,-0.00436273970663667,0.06121002241983707,0.04780140441837878,40.399587810715744,2.0613623382896114,-28.99405929150808,0.9083428447587947,-0.10426694990858709,0.2285343975686307,-0.33437655848257414
114.0,0.077685015062396,-0.025134110919850048,0.010980558460440631,0.35238957581796926,4.7632518148298795,8.557425287841664,0.18067193275804877,0.020697177108536042,0.03738956549643978,40.38402969644851,2.0623391952584766,-29.079215705661873,0.9082283425752494,-0.10450148391973133,0.2291730950938391,-0.3341888958157878
115.0,0.07837107869838003,-0.04673864713833242,0.02259190219693761,0.3525691863866528,4.773258205733422,8.552222881236261,0.06519725029756498,0.023673566140127902,0.003105519578768985,40.37731117230527,2.0598408279368154,-29.14429961266114,0.908134333340394,-0.10464138884924046,0.22970981552159622,-0.3340280483251629
116.0,0.0829974984365228,-0.0645140914684581,0.029033952672032935,0.35730740987310594,4.7800161996409045,8.548558332828991,0.1898812766043293,-0.0567607779055458,0.007256929734309751,40.37514752163651,2.0871588089330024,-29.18942950735339,0.9080223834168533,-0.10499593058118986,0.23003408130918523,-0.3339965137534549
117.0,0.07814537167526939,-0.08355429949017673,0.03627993014066973,0.36534772164630536,4.792221392690709,8.542014920039307,0.24255476853332872,-0.08759510552390173,0.03554114142479603,40.375,2.128863301660312,-29.272527499546086,0.90784230889924,-0.10560013766667675,0.23054973237146337,-0.3339595304414123
118.0,0.07622091520266827,-0.09480175204951061,0.042800072404860806,0.4506225787718706,4.827470940252486,8.516335426626686,0.17751740581051184,-0.2897304302120826,0.048268579830062046,40.489778694673674,2.63020290133509,-29.526231434001794,0.9068710652062515,-0.1107678511335288,0.2307626964449311,-0.33469400082999307
119.0,0.06267900598843092,-0.09659727649682456,0.040646102292123565,0.4586856992993895,4.8050467407792725,8.527620703085177,0.13557592359762413,-0.019848004248448875,-0.03918629918803743,40.43868360382778,2.6791602626266324,-29.370568633011914,0.9073000105820794,-0.1106907757987668,0.22947500892712724,-0.3344694422968807
120.0,0.05225453053158762,-0.09883758396045005,0.03823965224755668,0.46144513131767295,4.796480097376261,8.533692334233383,0.12517387839991356,0.009475093076404987,-0.06113524243430196,40.4068418019139,2.695830131313316,-29.307771531297455,0.9074944371769562,-0.11066387543439518,0.2289579482668682,-0.3343108027456079
121.0,0.04833576251205661,-0.10529369363246735,0.0429561754550136,0.46488070885317173,4.7958875703246395,8.532243492057681,0.15774331213465387,-0.02464876345392969,-0.13728969045397238,40.39092090095694,2.7170387871358086,-29.308262240865094,0.907531283290288,-0.11079647482419991,0.22889302453941357,-0.33423968593613984
122.0,0.0466476497173074,-0.11309915283698974,0.04257649168389661,0.4688851298190403,4.7979015424587885,8.531018059392892,0.12786054745393666,0.014604756372019835,-0.16494954531315756,40.38296045047848,2.7421412136570726,-29.336627678261024,0.9075021096120616,-0.11096474197346898,0.22898876518529637,-0.3342058434763872
123.0,0.04692289535798586,-0.12436900078678205,0.04959126671911883,0.4633135326514559,4.801648701809601,8.529091266719117,0.14864771833202203,0.04176583398898505,-0.18331038552321005,40.402143981117234,2.708209579071597,-29.367004327301338,0.9074274635350119,-0.11080924332494099,0.22928160706687645,-0.33425838396734836
124.0,0.04984618410700238,-0.13452517702596378,0.05590892997639655,0.4616056254917392,4.806268882769475,8.524864280094413,0.07425009834775767,0.06027119394177813,-0.12824055861526357,40.4206333595594,2.697535159323367,-29.405866443745083,0.9073210332702599,-0.11081116845633363,0.22962301690479933,-0.334326263049764
125.0,0.03779293451411635,-0.13322657951073133,0.056665173915430085,0.46727233637677756,4.7974505516623065,8.53099177995718,0.28067226410261104,-0.13253495347922345,0.024962147549082395,40.404568367701685,2.731451727261083,-29.336286091339908,0.9074859492332168,-0.11089251437314057,0.2290088347860455,-0.3342611607779765
126.0,0.018416628547380753,-0.14031087040052692,0.06369952244158603,0.5070393939948404,4.804741404863411,8.524669277075365,0.22914661592227326,-0.3217362267396118,0.11903349312937991,40.407526119334705,2.95977828298538,-29.378526110186083,0.9073293067295118,-0.11300496906157029,0.22861626243737757,-0.33423880977205267
127.0,-0.0010796479607706813,-0.15776440451576307,0.07400790441512817,0.5446526631657914,4.815402960496222,8.517528186924777,0.19596591220975976,-0.2632677986569813,0.15926595978262859,40.42352112418348,3.175881470367592,-29.456773873346386,0.9070958658698697,-0.11502944607523834,0.22848099419036463,-0.33426934735494834
128.0,-0.004927707536640258,-0.14380745796205147,0.06770812215248934,0.5615521380345087,4.798813203300828,8.526020584414397,0.309794521801182,-0.14537308107514685,0.0827555211973725,40.430682670667665,3.2865294448612152,-29.349216991747937,0.9072780019900095,-0.11559945653014472,0.22729372723522956,-0.33438724243278506
129.0,-0.012345836459114782,-0.1326912978244561,0.06266916729182295,0.5594212303075772,4.787245311327832,8.53189384846211,0.3403319579894974,0.04128375843960991,0.16274381095273818,40.40747843210803,3.262821174043511,-29.27158430232558,0.907504226376594,-0.11523404064666166,0.22679457105663914,-0.33424622050750197
130.0,-0.010499213217938633,-0.13649193548387095,0.06428245476003148,0.5599880015735641,4.792673485444533,8.529194138473638,0.3521144767899292,-0.09624557435090478,0.12819630212431157,40.39102822580645,3.283933664437451,-29.317182582612116,0.9074453488552319,-0.11540844960031468,0.22709380356785985,-0.3341395713790323
131.0,-0.0036601288823948155,-0.15080261136712753,0.07316273275635984,0.5613540238282566,4.808931596792927,8.521176370312087,0.3690367890862088,0.029015749690907047,0.13306896519426023,40.38245967741936,3.292779284215653,-29.42528795989285,0.9072421136952813,-0.11579427768879022,0.2279171021573938,-0.3339847533621352
132.0,-0.0066929676670038594,-0.15690399385560677,0.07911362444269604,0.5662732100708103,4.817330429732869,8.514957616799663,0.25027900322205987,-0.009198442358847553,0.15337204020081674,40.37388152841782,3.3132027181446926,-29.480598329024765,0.9071596448908437,-0.11617133574685287,0.22831020760173842,-0.3338152821655146
133.0,-0.006758364242628602,-0.14622146978382228,0.07180258326776817,0.5722142014162076,4.792196686148889,8.529082171893144,0.3442423241916751,-0.17099379238320034,0.02318483992731632,40.37107235350867,3.3527559617474054,-29.314995515810573,0.9074959800835019,-0.11596707948524784,0.22686414750444905,-0.3339598930922969
134.0,0.00022104829343224308,-0.15052452137424602,0.07281930238657226,0.5883196583117906,4.807901914503017,8.51885579408789,0.3836827020343936,-0.12366293881832827,0.06620911543216815,40.37746806039489,3.4516011951594168,-29.41999175752126,0.9072401391978571,-0.11710427265295419,0.22739310322131054,-0.3339107878929227
135.0,0.0033292495597767027,-0.1606170993968004,0.076899816417519,0.5979371698325278,4.824502491476528,8.508866134652127,0.4149481566820276,-0.08624630025102095,0.03236203214566708,40.35284693342325,3.499379472481361,-29.531612715896742,0.9070534391921619,-0.11781437682687047,0.22813813723378662,-0.3336505983012999
136.0,-0.0010888314413098053,-0.13737844217151848,0.06367648270952755,0.5940492300775542,4.824140646659924,8.509133528155553,0.49782066052227336,0.1367443613952269,0.1114671143831254,40.314768320782285,3.471463929789068,-29.52915121201903,0.9071744561705818,-0.11752754171604661,0.2282582513319471,-0.3333367524839833
137.0,-0.002349331235247837,-0.124303660409876,0.06069768835937207,0.6365637855456896,4.8281225506725125,8.503687347795132,0.3158986175115207,-0.3463023584728935,-0.013894899029635463,40.323498791727545,3.720346980255517,-29.56622691169308,0.9070192555315273,-0.11975582293559628,0.2276895338418568,-0.33335367700236024
138.0,-0.008560675883256527,-0.12042933947772659,0.055485407066052234,0.6532903225806455,4.802787250384025,8.51577496159754,0.16010944700460827,-0.20557315668202764,0.057704493087557596,40.329353878648234,3.8246687788018434,-29.39970238095238,0.9073165917450075,-0.12013262445007683,0.2260152509546851,-0.3335506312135177
139.0,-0.014829493087557606,-0.12126689708141322,0.052366359447004615,0.7287188940092167,4.812710829493087,8.503309907834101,0.8067492319508448,-0.8374975998463902,0.012435195852534556,40.43882248463902,4.266141033026114,-29.49031778033794,0.9066938292019968,-0.12431143958294932,0.2251201367139017,-0.3342673867511521
140.0,-0.02011467152502412,-0.1128692887507591,0.053451934412174475,0.7117945557818026,4.845684278212411,8.486415175222378,0.7165474404315364,0.7696801432500981,0.17273403172221627,40.25460382952881,4.162260431179224,-29.70454443968135,0.9068184790790553,-0.12369358041581822,0.22736140914192832,-0.33262084027167504
141.0,-0.02680848783624478,-0.0948755045904333,0.05526667381130997,0.6472221626835277,4.955914335726789,8.427431857964493,0.549469956774908,0.6640979441288893,0.29376428928660736,39.877781945486376,3.784495230950595,-30.438245722144824,0.9064387493167934,-0.12188632815721787,0.234787744724574,-0.32907318082324155
142.0,-0.02089590777485312,-0.09760803441278437,0.05186566240863352,0.6028776880631306,4.959016139052185,8.430127640795217,0.6667526528844754,0.0964106717010263,0.08524093131296762,39.592051214023016,3.5264232271046856,-30.449001378175552,0.907304013790595,-0.1191664723698869,0.2360060692287401,-0.3268585585573441
143.0,-0.01340878338051412,-0.09803596805124626,0.062226994030737656,0.6175601957980783,5.006574121753435,8.401442468631094,0.46980105762503344,-0.12880599287452527,0.1282099433830583,39.5532740709132,3.6071776273772276,-30.77300779354246,0.9067061506164957,-0.12074946336620304,0.23833625965661273,-0.3262833345513295
144.0,-0.01190792471637073,-0.11412935115311929,0.0626265538510063,0.6310266416778412,4.974688750584859,8.419277301903875,-0.10138499346090873,0.24430476085920433,0.21893888106172885,39.4414555838437,3.682165042567262,-30.559194948998574,0.9074825531807517,-0.1205322611109049,0.23652124985134784,-0.3255429987426386
145.0,-0.01072140421865048,-0.12004292013769992,0.05694718540262243,0.5672162465703534,4.922584435307432,8.453753429646614,0.25137520769565214,1.297344615988492,0.5573782927439177,39.072049997473236,3.306269130435919,-30.19177864479186,0.9093789515528666,-0.11556063961396708,0.2352089980352013,-0.32292085805098925
146.0,-0.007292345734517253,-0.1261044093776057,0.06270170330038956,0.43150366860007694,4.912667025641426,8.467007283179685,0.20237251168192744,0.758815357149392,0.26520028308470844,38.38085506786104,2.5159897879522144,-30.102393738678572,0.9116256802119174,-0.10717154362034761,0.23760296790776966,-0.31759255515068663
147.0,-0.003041474654377879,-0.13663487300396526,0.06374379309112993,0.4670835566034366,4.900235951845103,8.472265209159437,0.23018924373950633,-1.092085521380345,-0.5082654592219483,38.765614394670095,2.7264416550566213,-30.023476851355696,0.9106799017525811,-0.10952684531847248,0.23597059550834137,-0.3206896286685957
148.0,-0.003309167884305571,-0.12978834429861819,0.05664447906401689,0.4782441124218337,4.863908485832258,8.493141896101204,0.14858788738996598,-0.16675292516508916,-0.09164467183869135,39.101474655467,2.7953638017518316,-29.780980632788857,0.9102482584610572,-0.11008118561622549,0.2335781934131006,-0.3235471200246054
149.0,-0.007701789424842141,-0.12976183137180702,0.05576552205593614,0.48380272500448884,4.851680108448448,8.499543002877497,0.2478582825819025,-0.05260280076049563,-0.07215202101919206,39.23422168611705,2.8328999086745688,-29.700028896094302,0.91002069791746,-0.11040389100703746,0.2327584009656783,-0.3247173400607488
150.0,-0.014135072899825067,-0.14679157192139097,0.06797546277483336,0.49310309150592413,4.8609516892758435,8.49345724430304,0.25780189519371266,-0.05957757656715169,0.06113132703907686,39.28250375378621,2.887058677946758,-29.764478555145352,0.9097508370537897,-0.11114472671274958,0.23306730757943472,-0.3250373848108553
151.0,-0.015961545666502396,-0.15252020992382914,0.07159909851491283,0.5042473982875244,4.8590933561586604,8.493906041506358,0.2852949568134462,-0.0611587959640674,0.09376170806638942,39.31967929624794,2.9478736170071733,-29.755511166973598,0.9097032617181389,-0.11171610498463896,0.23275127150477115,-0.32522885630327714
152.0,-0.00958983581328192,-0.1336333768513155,0.06314977967220296,0.5072120247966041,4.841489842441852,8.504095877896033,0.2780161420011931,-0.051172715954383934,0.09077966355700423,39.31860980941429,2.9640241740949844,-29.631091797004466,0.9099943790119107,-0.11149054339477726,0.23170531318710147,-0.32526348715317466
153.0,0.00042538107054236173,-0.12574902516838002,0.05399031076450433,0.508865650478554,4.836577336641855,8.506922840600255,0.23863434952144627,-0.033232896136121945,0.11925883256528419,39.30784444050573,2.9724920241049273,-29.602072255701287,0.9100976025610298,-0.1114335410844854,0.23143794316318095,-0.32519988093063923
154.0,0.0160199692780338,-0.11845929339477729,0.046364055299539186,0.5060721966205838,4.836182795698928,8.506625192012283,0.06984447004608293,0.07004608294930875,0.050624039938556076,39.277035330261135,2.96448732718894,-29.59634216589862,0.9101249281490009,-0.1112879219078341,0.23154427240706613,-0.3250915257895547
155.0,0.022917050691244244,-0.12331643625192014,0.04835483870967744,0.49680030721966206,4.828958525345621,8.512290322580641,-0.03166282642089094,0.12116935483870968,0.04844470046082949,39.262509600614436,2.900115207373272,-29.552544162826422,0.9102719293348693,-0.11069544105683565,0.23135477284792633,-0.3250069390798774
156.0,0.021287250384024584,-0.13499078341013826,0.059741935483870974,0.49477419354838714,4.82875652841782,8.511664362519198,0.10823252688172043,-0.03693836405529953,-0.018068356374807984,39.25534274193548,2.886021505376344,-29.551982526881723,0.9103256931482337,-0.11054364064592938,0.23133613323195085,-0.3249290803064519
157.0,0.019127852084972467,-0.14330015735641227,0.06473524783634933,0.49823288749016525,4.838255507474429,8.50599862313139,0.16776529307631785,-0.07145579268292682,0.017759146341463413,39.25166330645161,2.9110887096774194,-29.612988050747443,0.9101884793428403,-0.11095034545653029,0.23171114557789138,-0.3249114566323764
158.0,0.011614617286725866,-0.15736590049080218,0.07354657937132364,0.5030104529616726,4.844422108575922,8.50284205350118,0.1337278366303248,-0.056591231594919626,0.06554960005245214,39.22695852534562,2.9466805875576036,-29.652083743115657,0.9101546459008748,-0.11124290289742794,0.23198078691336976,-0.32473043403757834
159.0,0.005948831066651681,-0.163489500206062,0.07743054775017794,0.5066181297066429,4.840890833988984,8.505096774193543,0.11230980246150388,-0.05385927138361245,-0.019637178730658275,39.20622119815668,2.9740711405529954,-29.62648259244689,0.9102433096391669,-0.11131084820510656,0.23174259358325844,-0.3246162557902289
160.0,0.008970383275261324,-0.12933749203851486,0.05982414484283092,0.5082768067888053,4.81632848151062,8.51866129032258,0.0008373609081712974,0.006664114308193775,-0.06387604904274849,39.21036866359447,2.9823732718894007,-29.458100167191187,0.9105724394728092,-0.110937499957392,0.23039948573114533,-0.3247596193709209
161.0,0.014896481960211313,-0.10900745569667679,0.04605320145367353,0.5042472743621446,4.791172305271438,8.533032258064518,-0.1705490614813982,0.03947117005732269,-0.04922633097298715,39.23018433179723,2.941589861751152,-29.302311172305274,0.9108792544501146,-0.11023202607950247,0.22918565347847586,-0.3249734784233636
162.0,0.01350724963470833,-0.1047216664793376,0.0451351766513057,0.5020921658986175,4.774181746656174,8.542310778914246,-0.13573676520175337,-0.009188490502416546,-0.0940220954628901,39.240092165898616,2.921802995391705,-29.192781274586938,0.91109818597014,-0.10977157884226893,0.22832984142531182,-0.325103253254168
163.0,0.016629425649095204,-0.10413099921321793,0.05071518489378443,0.4995346184107,4.767779307631783,8.54696184107003,-0.05850953973249409,0.008642309205350118,-0.15114083398898503,39.24576612903226,2.9021808615263573,-29.14037667191188,0.911177122306845,-0.10952777295200629,0.2279658012206922,-0.3252300724437449
164.0,0.013210557865947326,-0.1056416114045933,0.051348375857030476,0.4960422708028921,4.761782389194858,8.550029569892477,-0.14660706090067813,0.09873617277359409,-0.07008284627777153,39.24889112903226,2.8835021051103364,-29.101207687048067,0.911241486507662,-0.10925492724124237,0.2277161471983346,-0.3253278742243826
165.0,0.007536632198119217,-0.114210951256978,0.05394228391592673,0.4927106515304782,4.752306320482559,8.55547043010753,-0.08174238273200704,0.02541733402645086,-0.05304766822149788,39.25,2.865660007118504,-29.04581553707242,0.9113786102241302,-0.10886648563773368,0.2273046862971413,-0.3253899956845751
166.0,0.0026783279007905297,-0.12274257240268255,0.05991626390918288,0.49031283953392524,4.750862837660634,8.557956989247312,0.007618555880259267,0.015609311191038176,-0.0999017107826608,39.25,2.8636325212618483,-29.02033720402008,0.9114358276583873,-0.10869678623281254,0.22716194050596633,-0.32540896791270446
167.0,-0.0022132554044434465,-0.12179064104005097,0.06058716421265596,0.4848338391218015,4.753366902701284,8.556043010752692,0.03672258439174253,-0.053334457307706716,-0.05022807313326589,39.25,2.8366045670825373,-29.04078856168746,0.9114103530227422,-0.10860274047124499,0.22738153632153146,-0.3253646997950618
168.0,-0.007082237458319284,-0.13623363680641415,0.07053748454535236,0.4885577535498857,4.756616574875425,8.553021505376348,0.02981880596455734,0.016212393690757186,0.02764953542392567,39.25472069236821,2.8603508673335583,-29.06273299052115,0.9113208765074374,-0.10887779702555167,0.22757144435274063,-0.3253738394333294
169.0,-0.018404405979543674,-0.1504870180959874,0.0769968528717545,0.4892289535798583,4.762206136900078,8.551483870967747,0.06208202202989772,-0.019015538945712035,0.015317663257277738,39.252360346184105,2.867771439811172,-29.09461054287962,0.9112584123658538,-0.10895275811723049,0.22781033831077885,-0.32534432051927586
170.0,-0.02162470495672699,-0.14385719905586156,0.06907749803304485,0.4783886703383161,4.745354838709676,8.561290322580646,-0.11380064909520062,0.05088267112509835,0.011499311565696302,39.2382769472856,2.7983674272226593,-28.97553107789142,0.9115748661357201,-0.10804244115460265,0.22712640607120377,-0.32523208580173074
171.0,-0.023446199093327347,-0.11185947510396764,0.05020507849087709,0.46738623506050725,4.7031920122887865,8.583993855606762,-0.15502679976396538,0.06064866200217302,0.021885712880746318,39.2441384736428,2.7316576748716797,-28.69360271252482,0.9121709996054569,-0.10670049954399423,0.22509794173647482,-0.32539608543224285
172.0,-0.021553744707953994,-0.08908699561649996,0.0383162489228579,0.46130602075606,4.6772089093702,8.598674347158223,-0.03252852084972462,-0.058057725450526385,-0.05349766775317523,39.254327301337526,2.69465948259713,-28.507083614326927,0.9125134127825671,-0.1059642767599003,0.2237634654448503,-0.3255882747806376
173.0,-0.017613907597778568,-0.07680922840600261,0.031105813541297416,0.46529109062980023,4.671358797116861,8.600937669857027,0.009007961124896612,-0.024591235377525698,-0.04814892768521801,39.284274193548384,2.7201660906298004,-28.47342217594234,0.9124830708031133,-0.10608267188234077,0.22337308024285119,-0.32589767321280877
174.0,-0.015056953798889286,-0.06816267871913034,0.023899680964197097,0.4532584485407066,4.653493914687463,8.61198496396077,-0.16621174524400328,0.2344281726338178,0.062165455512229705,39.25100806451613,2.6491959485407066,-28.365340120229234,0.912823610857202,-0.10504493900165424,0.22270661015771598,-0.32575243783221086
175.0,-0.009029657072536695,-0.058185686330454234,0.020281469120965588,0.4383687010602825,4.6354924333468785,8.62257755279077,0.0315799062922391,0.058700858543502134,-0.006783617641210091,39.18639112903226,2.5566808568431307,-28.247462177541838,0.9132316351424089,-0.10383245889146443,0.22208840677486502,-0.3254096247150827
176.0,-0.005126364259920515,-0.05836956565595434,0.02333994028525894,0.43374272226593213,4.634970374629305,8.624044574229861,0.13761823796122577,-0.1424853487058444,-0.03214799067965866,39.16941507671125,2.529514162077105,-28.237959082289333,0.9133128659476233,-0.10352668466537554,0.22215389798607998,-0.32524364081956975
177.0,-0.007782652176043207,-0.06642902245931356,0.0253585262102178,0.4259220523772059,4.630738259511274,8.62646045915794,0.02666602182239476,0.042947033788398856,0.005911411726222898,39.144964594807234,2.486022442021655,-28.20867328154405,0.9134453718069531,-0.1030253384156371,0.22208061145540559,-0.3250752641519123
178.0,-0.004409463864223896,-0.06064095575287551,0.025537587576336604,0.4330915945449778,4.6426520081675475,8.619349808924357,0.42727827263871715,-0.4042066497133865,-0.14235328622007418,39.16805641414709,2.527381420703608,-28.282786215390956,0.9132112298146191,-0.10368470720675511,0.22249951534781387,-0.3252408939393616
179.0,-0.009044621782623356,-0.05637368401333784,0.028453785920347693,0.4946603724101757,4.702258439174253,8.582023153872093,0.3212131430070061,-0.3199393053838372,-0.07623356187478926,39.38655820313963,2.8844273350567606,-28.693848113596342,0.9116884640331948,-0.1083372909340227,0.2244249767224908,-0.3266345743790042
180.0,-0.012850399010902548,-0.06388078378479638,0.03148417069424152,0.5390579596118542,4.735178000074934,8.562379004158707,0.19345472256565882,-0.5130381027312577,-0.11032370461953467,39.53723071447304,3.143462684050804,-28.912207298340263,0.9107434139874866,-0.11149162454804991,0.22522211005282683,-0.32766455891806234
181.0,-0.012813869843767561,-0.07454070660522275,0.03369251807725452,0.6028610018358248,4.753249896969016,8.548058109475106,0.020630783784796367,-0.22285953130268632,0.02046757333932786,39.68939623843243,3.519484095762617,-29.0510584092016,0.9099553798654976,-0.11530745714420593,0.22493151737102401,-0.3287289344550972
182.0,-0.012685736765201754,-0.08084639016897083,0.035630437226031264,0.6031839571391104,4.72792525570417,8.56157206549024,-0.031154462178262336,0.008477108388595417,0.06848071447304335,39.72655295792589,3.5266871323667153,-28.88223043347945,0.9102435807422724,-0.11486179301910754,0.22358275492207114,-0.3290336624771645
183.0,-0.011361087223025267,-0.07290060015003752,0.035765063217023774,0.5932306918192962,4.761020017199423,8.544104898175764,0.19951895367134467,0.36187148921376683,0.04255158682963424,39.62044735650376,3.4652567676980217,-29.104474136826887,0.9100851041638702,-0.1148366685966827,0.22560895399365088,-0.3280916489488134
184.0,-0.01860924617042762,-0.06436026972771067,0.03028615080599418,0.5654276796551052,4.794335642708587,8.52719182191018,0.3093127906867832,0.16978498217760013,0.17035109033138074,39.491903598449696,3.3035640456825877,-29.322079899330234,0.9100402895587998,-0.11386184389127532,0.22797534613061587,-0.3269102830673781
185.0,-0.013003516558582152,-0.06152662773707364,0.03331936947651548,0.4719128270743643,4.7265787365831,8.56975626354324,-0.3235969570572085,0.5663487926641939,0.013950512344985191,39.312409624618695,2.757911875616988,-28.859352027684622,0.9116069044436907,-0.10754816403969242,0.2262095635332374,-0.32584873518532076
186.0,-0.017914032079448434,-0.06385379380559426,0.027956301575393857,0.41241982817132855,4.678659155860393,8.599965464580432,-0.0006655123602328783,0.12503120199692777,-0.055037922427035334,39.19781574858,2.410373128996535,-28.53112664326796,0.9126469180888794,-0.10345235702614045,0.2247769753889633,-0.32528405913003267
187.0,-0.013271532168756473,-0.07117286464473262,0.02769992498124532,0.3910203979566321,4.6596481263172915,8.61068031293538,-0.05706158682527774,0.018337173579109058,-0.02371351766513057,39.151428035580324,2.28583172578859,-28.40109759582753,0.9130454966250847,-0.10195560120258634,0.22422126035980428,-0.32503726232308094
188.0,-0.009962097667273961,-0.08099528453541957,0.03172768192048013,0.38475476011860127,4.649602007644768,8.616803022184119,-0.05017370414032079,-0.06288223841674705,-0.04503849176579859,39.13774046190119,2.252143169721002,-28.34092764262494,0.9132151637138924,-0.10145215706040794,0.22382232908762908,-0.32502656561690435
189.0,-0.010864399026585914,-0.08793891460670046,0.02704204709714016,0.3949336724425011,4.657545093590469,8.613228981025749,0.4065023306131411,-0.7949504716118053,-0.09326523704096755,39.17540368323788,2.3161116498636853,-28.388977903774723,0.9130104843560094,-0.1021937566594423,0.2240086834044792,-0.3252510379258138
190.0,0.011255722467202169,-0.08286668160942673,0.035621548679852906,0.45976991199019285,4.686465720088558,8.593726268457363,-0.1674352562988308,0.3125069472398588,0.00217645874883355,39.31934569008105,2.6911812937990596,-28.585336663815344,0.912131951075229,-0.10623877635297699,0.22424284273374745,-0.3261992796418266
191.0,0.01127793991180722,-0.08643068541525625,0.034308413993742355,0.44119003073939234,4.663942930854661,8.606746198744812,-0.11779328216200392,0.2933471744460505,0.03835834149086052,39.28699139342763,2.586790981281906,-28.446269703858892,0.9125599729089757,-0.10481931740967104,0.22348931063162594,-0.3260006044382423
192.0,0.0046741082047515375,-0.08790524286123796,0.02580032834863769,0.47811287251255347,4.684373539160051,8.593833928865493,0.5588932974750656,-0.8428497422700623,-0.10465315452338694,39.36344577351873,2.8008719691355766,-28.577995162989353,0.9120235483267999,-0.10717411472806902,0.22381027417852417,-0.3264940724635528
193.0,0.00017999273337498348,-0.09398802662338057,0.040270050090919954,0.4896564559258281,4.684022233781439,8.593069600152653,-0.24881726747017763,0.6709703885030489,0.13517403741179196,39.318003989237724,2.867610576424594,-28.578213749866038,0.9121382487370624,-0.10764144688655614,0.22362990322793244,-0.32613697190034435
194.0,-0.008229437150228325,-0.09812855304418439,0.04222471820045605,0.444678739371254,4.654035507134621,8.61191245546578,-0.042135817055309124,0.3182300801681256,0.04707167645569929,39.18774412679825,2.6079349105569074,-28.36538047839486,0.9129527318838733,-0.10464884626861248,0.22294983789563413,-0.3252944622003688
195.0,-0.010438799595369225,-0.10123832003296993,0.04040343186842008,0.4242711026188603,4.646344835337754,8.617966730358548,0.10469165636356825,0.05824294706080699,0.02208234985575662,39.118815799333106,2.4807303960136373,-28.308974935371474,0.9132795143215314,-0.10327493262567905,0.2229768582966543,-0.3248199683574987
196.0,-0.022674946611217266,-0.11188902626353453,0.048061668727286365,0.4160592334494774,4.657604361020567,8.613047881308304,0.28470715784346784,-0.1298478419692031,-0.020710398636244427,39.11182725450526,2.4295420272751116,-28.379408789479598,0.9131808727862574,-0.1030184935811322,0.22367652503975125,-0.32471874522359584
197.0,-0.02740122138548575,-0.1143546513806152,0.050167547113259166,0.41914712824547595,4.6588482634595945,8.612096137274738,0.23984781855307033,-0.1729788364991945,0.00042149039001910735,39.11733355812821,2.446121820089169,-28.390453242666066,0.9131349990505786,-0.10324493294263985,0.223675388963808,-0.32479565162485485
198.0,-0.02493548387096775,-0.11344854070660522,0.04940245775729648,0.42348387096774187,4.661519969278034,8.611319508448545,0.1748487903225806,-0.14821668586789555,0.029713901689708146,39.15111367127496,2.4663978494623655,-28.40953341013825,0.9130498815890934,-0.10349710463287254,0.223762013266513,-0.32490765117434717
199.0,-0.02866858678955454,-0.12807450076804916,0.057425115207373284,0.4272258064516128,4.665494623655913,8.606404761904766,0.13972494239631333,-0.13503504224270352,0.019402841781874042,39.17132296466974,2.4856182795698922,-28.45252976190476,0.9129299421428574,-0.10387832504224273,0.2239440965764209,-0.32499394548425503
200.0,-0.026798003072196624,-0.13772273425499235,0.06266820276497696,0.4289758064516127,4.6701505376344095,8.60283947772658,0.13324452764976957,-0.08362135176651306,-0.08545986943164363,39.18142761136713,2.4948252688172046,-28.47999471966206,0.9128526446036866,-0.10410719004531496,0.22410263710675887,-0.32501639194777276
201.0,-0.016729646697388634,-0.1329662058371736,0.0621889400921659,0.4298387096774192,4.6750107526881735,8.601282642089096,0.055357142857142855,0.036415130568356366,-0.003869047619047619,39.18088517665131,2.499327956989247,-28.490879416282638,0.9128181791566823,-0.1042139196436252,0.22422985015821822,-0.3250011823609833
202.0,-0.002826345959312127,-0.129066089693155,0.05960005245213743,0.42181746656176233,4.668237645648347,8.606015136188233,-0.07510420179086583,0.1869892941440935,0.008077629163388406,39.152822580645164,2.451219512195122,-28.45596713311603,0.9129520158088121,-0.10358596600104902,0.2241017807223034,-0.3249111029626465
203.0,0.00877115881757896,-0.12207912779588626,0.0530987973474205,0.41460304971713313,4.65888072758608,8.611325540444351,-0.0510409641826833,-0.07768430838110224,-0.017034534112622235,39.14558371735791,2.4080214304447187,-28.40686701509872,0.9130940271555581,-0.10305215402587012,0.223813011693717,-0.3248869082055936
204.0,0.030946683970644238,-0.10773070096792489,0.042068992857970604,0.47463460812938424,4.668192015991803,8.602863677591877,-0.05575571947211541,-0.0338972795790411,-0.0018855868148221723,39.2828209284464,2.770589860008556,-28.470927836488737,0.9124968939674301,-0.1065171533538953,0.223085083697214,-0.32590627594254246
205.0,0.04809509650931898,-0.0915419830567398,0.032164708860141875,0.45861156055564406,4.648893903353886,8.61553097333567,-0.13539838983047156,0.2574311546636659,0.059466087395106615,39.24224150277552,2.674634033072728,-28.331254634216045,0.9128966950907175,-0.10523475839498464,0.22239821622862277,-0.32568270513541353
206.0,0.06709534526488764,-0.07731780506102136,0.025664769850999344,0.43259846320465134,4.643306314383472,8.620353999649739,0.09765104603677052,0.27040334778816655,0.05451237591627872,39.18748458891726,2.518866977197261,-28.285808276982138,0.9131804429712046,-0.10366072043234675,0.22257127257192355,-0.3252781285130254
207.0,0.0857972641109889,-0.07330313582147882,0.023032409134178485,0.40508678027185707,4.641306973084733,8.622046918524054,-0.06222044321050779,0.1714194965251632,-0.05660355805247211,39.199253047146804,2.366210153449646,-28.27342169987016,0.9132067186876842,-0.1023205811934979,0.2229278701932425,-0.32538970861266264
208.0,0.10868110554843215,-0.07117753171876459,0.02234494833839793,0.38164177535941196,4.643009898816165,8.620955177818846,0.07312903507302718,0.18235281146740717,-0.01351566198303797,39.22876298342878,2.232227440068272,-28.27960428779803,0.9131064051059901,-0.1012838730044894,0.22338258776118985,-0.3257026998566105
209.0,0.122637535556497,-0.07371219915673102,0.023117472613932107,0.3655387439730474,4.6488355625491735,8.619753474954107,0.03116110875748957,0.1555987613226008,-0.08800737356008796,39.252491476527666,2.1343480804535093,-28.32474681756743,0.9129742230987108,-0.1006349150053461,0.2239784283489682,-0.32586383311303435
210.0,0.11557525873025477,-0.06808347959410116,0.018856139926163532,0.37541689362303043,4.644940991345397,8.621395226855494,0.03539762754947649,0.20614320442211867,-0.05287957190986302,39.23787044322056,2.1916331275595633,-28.29681479352014,0.9130553633274827,-0.1010238901226573,0.22361483125945653,-0.325768334282717
211.0,0.1021775988087078,-0.06731996789065933,0.020860562232490585,0.40319433047755376,4.651128391854059,8.615465512719643,-0.0009678193469568139,0.21560144961193395,-0.07451297040958176,39.21879707731811,2.354707315431109,-28.352201676122597,0.9129901618399439,-0.1024990300102793,0.22351499452988013,-0.3255455702917803
212.0,0.09442804080811143,-0.06188460878285773,0.0159815040868231,0.4056270600751234,4.633889848768812,8.625052264808359,-0.10290769556500623,0.16257592272632618,0.05137564879024634,39.15519346953463,2.369665042567262,-28.232485985172254,0.9134070258366682,-0.1021464022413443,0.22258611492888908,-0.32512433232714966
213.0,0.09725317217806193,-0.05536608019600719,0.013896113401172595,0.43516769436261504,4.647311714688254,8.617000112397434,0.3431501385799412,-0.5290910053297295,-0.1875043564898193,39.23478103846519,2.542558440132681,-28.324345677011586,0.9129626400259734,-0.1040406386445566,0.2226802908565992,-0.3256722028431672
214.0,0.10298299836283112,-0.05766966480296033,0.015203760870531224,0.47430768667776696,4.671795117768988,8.601761267843088,0.15644918416015155,-0.043174534922929275,-0.1888003686461685,39.45964071592811,2.777406285369252,-28.493221225602568,0.9119599773040961,-0.10686612164957962,0.22310071766905487,-0.3272793589023075
215.0,0.1184096738470332,-0.04975536741328191,0.013813524809773874,0.49233008252063015,4.703627692637445,8.582958525345619,0.21077278248133463,-5.894330725537619e-05,-0.04579180509413068,39.57945647126067,2.8740394920158607,-28.70279176937091,0.911181658691387,-0.10858398074925873,0.22434549319172645,-0.3280426904141749
216.0,0.13456565883631189,-0.05540208309917202,0.015351129594245254,0.48520535011801735,4.714596493199954,8.576589412161397,0.027130165598891018,0.1458019557154097,-0.03951495822561912,39.59967919898093,2.8339370012363716,-28.77527186130156,0.910973632859316,-0.10853812970623056,0.22505021418702925,-0.3281684529897344
217.0,0.12227383762316887,-0.05686976883593722,0.015547881308306174,0.4949815668202766,4.71051908883144,8.578552096212203,-0.020101462103330706,0.23322597036454235,-0.028739907646772322,39.56816974822974,2.8947190766550523,-28.747659557528756,0.9110946357330749,-0.10889789191851189,0.22466297967444077,-0.32798408522702405
218.0,0.10264229515567044,-0.05749786444869058,0.019006659548162306,0.5032741935483873,4.707744183432618,8.579909688659097,-0.017875231819714506,0.10257208656475966,-0.08529449299389306,39.53710906766325,2.9415031635195383,-28.726628357873437,0.9111886344794409,-0.10917076096309616,0.22437272287101456,-0.32783412221028607
219.0,0.08895706417893672,-0.06566454984826348,0.024717039451500514,0.5028847364280096,4.696651399348097,8.583988085871638,-0.07140135017421603,0.06397474804241131,-0.026222556292383195,39.54725363886703,2.9466385555992654,-28.66041169073845,0.911338569265389,-0.10900743349177629,0.2238542463089336,-0.32783347932534374
220.0,0.08517208047656513,-0.06956614589187368,0.025447229403169618,0.5013375295043274,4.694446667415982,8.587381139710011,-0.0471170057322693,0.04247124498894759,-0.021074987823610954,39.551298190401255,2.9418928665093103,-28.647267337304708,0.9113736583665655,-0.10894129163298492,0.2237801015617248,-0.32780838856993005
221.0,0.07386377430594582,-0.07198920984601552,0.025867595818815342,0.5077560975609755,4.697877936383051,8.586537934135098,0.12002922333370798,-0.16972621857554981,-0.012391349143906183,39.55618607395751,2.980058353002885,-28.672281386984377,0.9113163409102694,-0.10926447034521002,0.2237797370515154,-0.3278552124234386
222.0,0.07016556142519952,-0.061238507362032166,0.02124221647746432,0.5155578284815107,4.701020006743844,8.584492413172978,-0.08674482971788242,-0.05137569780075681,0.06402462440523023,39.55998229740362,3.0232953055337006,-28.69225792401933,0.9112380710845606,-0.10970112149046493,0.22377633765636346,-0.3279385062982654
223.0,0.057275373721479166,-0.05398190401258853,0.01907592446892211,0.5184437450826119,4.679933123524783,8.594926042486232,-0.2716832218725413,0.009175845790715963,0.055679583005507474,39.56224921321794,3.0442417387883554,-28.555195220298977,0.9114743644996065,-0.1095372732226593,0.222625360625885,-0.32810491567938627
224.0,0.05535287175452401,-0.053879228953579876,0.019250786782061376,0.5195011801730918,4.669046026750588,8.600299370574355,-0.053622885523210054,-0.014122738001573569,0.025848249409913454,39.56239919354839,3.0551411290322577,-28.478054927222658,0.9116000477730134,-0.10945981025413057,0.22201352587942558,-0.32820677648642793
225.0,0.059271673972500105,-0.04543231800981606,0.018426660672136684,0.5204418343261771,4.663982690794648,8.602645845041405,-0.1417920015173654,0.04020485603761568,0.04538380212431156,39.570180491551454,3.060836693548387,-28.45063580654528,0.9116444613350474,-0.10938813481139704,0.22174925795680195,-0.3282856922553107
226.0,0.05992881495635233,-0.047958487879809684,0.021886028998538837,0.5334258738900751,4.6664752163650665,8.60130905548687,0.0002247948746768591,-0.2620382338616013,0.08885719905586152,39.598598310291855,3.127016129032258,-28.46105194634896,0.9115397152313514,-0.11004337770034842,0.2216504519976771,-0.3284070254996064
227.0,0.04874174815480875,-0.048967442208984316,0.01970776666292009,0.5600890187703718,4.653751376868605,8.60635712412424,-0.14768461279082834,0.06051805852159903,0.10353068450039338,39.57571044546851,3.280241935483871,-28.385979356337344,0.9117303229846766,-0.11105912192963921,0.22054821283518788,-0.32827728843115656
228.0,0.0423449102693792,-0.03959544415720656,0.013965606384174442,0.5703513543891199,4.642291109362705,8.610329624217908,-0.08364757783522535,-0.14821756397287478,0.05916601101494886,39.55055683563748,3.338306451612903,-28.31594404480911,0.9119327774939117,-0.11130392862650329,0.21986297530508414,-0.3280975080377655
229.0,0.03225821437937883,-0.03654437825484247,0.007671237495785096,0.624105653591098,4.647510621557828,8.603949233824139,-0.15290758120714848,-0.01689497396126035,0.21845987411487017,39.56439623843242,3.6449350904799367,-28.358330991720052,0.9117292743803153,-0.11404916280656402,0.21914979366749088,-0.3281815092234461
230.0,0.025044846577498038,-0.04510070810385523,-0.0013619197482297421,0.6621750590086546,4.649852871754523,8.599761605035408,-0.1003909323367427,0.04828629032258064,0.29468922108575923,39.49161093627065,3.8690597954366637,-28.38623377261998,0.9118225362431156,-0.11586688605035406,0.21870256231471283,-0.3275595821077891
231.0,0.017687272863512047,-0.037822543179348855,0.00026167996703008417,0.6261929957663631,4.624166067213668,8.616478532089467,-0.21461418408826943,0.6498854365703794,0.44865872391442807,39.04985692742872,3.657312155782848,-28.205365865366602,0.9134822751241054,-0.1127231817028212,0.21837242100768045,-0.32421411418828444
232.0,0.011417753175227606,-0.03125382151286952,0.002920778539582631,0.5506696545652094,4.590498548199768,8.639406316735977,-0.1716684111685587,0.2144648477014724,0.3429977567344798,38.64196715419055,3.213556711531977,-27.966897842437525,0.9152054004353244,-0.10756456765325394,0.21825677879569888,-0.32115819164790566
233.0,-0.008559221686954839,-0.021372503404596798,0.0007231424580883895,0.5714765189555231,4.635787439891332,8.61395597157129,0.277035613432975,-0.2060529287374108,0.18249967544150844,38.4501500484006,3.3368626346482086,-28.270464229733392,0.9150996904791961,-0.10911714380449643,0.2204843150212553,-0.3194169011473774
234.0,-0.019004237121998273,-0.01529679458192074,-0.0013064067410580864,0.5850655608152908,4.634538094453927,8.61418884337809,-0.198765828216636,0.08639131690588153,0.07826793370816572,38.437235724436334,3.4171036225955445,-28.26330548229392,0.9151474590200859,-0.10970717315716562,0.22021538354917997,-0.31929461448399565
235.0,-0.030089395171092433,-0.009863001464651876,-0.0004997808685620879,0.56532285946051,4.603520030704539,8.632476198317867,-0.24214756324098444,0.07517038776244585,0.11625617096782906,38.389202047898735,3.3081827730451776,-28.061217013748212,0.9157445457100731,-0.10808744924802198,0.21898122507645207,-0.3189886947505214
236.0,-0.03394638729368755,-0.013460686600221487,0.002933673313798833,0.5596161148301013,4.581619462356878,8.645784182108248,-0.23697719943923262,-0.053462233154107336,0.1341313496928239,38.37782875052387,3.2760671929742013,-27.904178015322646,0.91610081066072,-0.10733656694889582,0.21783801774867154,-0.3190100983145848
237.0,-0.03317135032887143,-0.012586718108098456,0.002353933431092964,0.5643165059557573,4.570571635940345,8.6528805703168,-0.13322554288397884,-0.126385494457238,0.13318990679725679,38.37802247818052,3.3050122831230455,-27.825600912423226,0.9162312920853524,-0.10734202266799628,0.21713227814084884,-0.3191331012886289
238.0,-0.032019594619909345,-0.01428084373009629,0.0015733767936757705,0.5646656176239183,4.555678843055711,8.659594732306772,-0.175496890337567,-0.016250561987186704,0.13862725263197334,38.37775373721479,3.2938232924955977,-27.726678468397587,0.9164210622567908,-0.10706945551848937,0.21631848046019256,-0.31924306968663596
239.0,-0.034141976696264675,-0.013172679929564274,0.001999119553407515,0.5601235247836351,4.541808737027461,8.66570216552396,-0.04242488104604549,-0.005228939530178717,0.16227684425461766,38.365322580645156,3.270126634446068,-27.63736067400996,0.9166279855697801,-0.10658578012037767,0.21573894306251168,-0.3191969911289198
240.0,-0.04325088044659249,0.0059722940316960784,-0.0040358454160578485,0.549267206174366,4.546004683226555,8.663783044846578,0.1020799379940804,-0.08470908967442209,-0.22043092709152895,38.55033438237608,3.2085197257502527,-27.667249962534186,0.9160590818895511,-0.1064950644695403,0.21599564846805103,-0.3206957849179873
241.0,-0.05125319396051104,0.024417106889962917,-0.010930688246974638,0.5480423363680641,4.535991720055449,8.66997639653816,-0.13558104791877412,-0.11013520475066502,-0.04128966692892733,38.72466561762391,3.2040828369113186,-27.601521814469297,0.9157051770289611,-0.10656244065392831,0.21528922290996969,-0.3221457266155632
242.0,-0.05886073957513769,0.03304956726986626,-0.015818646734854447,0.5490118017309207,4.521567663257278,8.676443745082615,-0.1459406963021243,-0.03218184500393391,0.06529061762391819,38.789801337529504,3.225961349331235,-27.509797895357984,0.9157017101593234,-0.10653392360306844,0.21449147426239185,-0.3226826059523996
243.0,-0.062483084185680576,0.03865452774343414,-0.018981032932449144,0.5534283840995092,4.511899376194222,8.681185043647673,-0.04150374892285789,-0.1309177836162002,0.06724966983252782,38.80820712037765,3.248118689352216,-27.448603052058743,0.9157381704749257,-0.1066147416838916,0.21396407988924165,-0.3228983005450433
244.0,-0.06420928402832415,0.050611442059121076,-0.025133565621370507,0.5619238694691095,4.5106069461616265,8.680753812146419,-0.0648462965044397,-0.0818651418081001,0.10061912255067251,38.817712431156565,3.2812418043535274,-27.440909388932596,0.9157070579592368,-0.10696912546963394,0.21364038673897567,-0.32305132259375824
245.0,-0.06481510621557829,0.0489162639091829,-0.023635232850024362,0.5664654752538311,4.509642576149263,8.680675883256532,0.01950938518601776,-0.08114205162788955,0.033039695028286686,38.81653225806451,3.2995017046944666,-27.434926567007604,0.915701708450114,-0.10718177906447866,0.21350821561575062,-0.32308417363126163
246.0,-0.06294728560188828,0.053603686635944725,-0.025348694316436264,0.568602525195759,4.5095459143531516,8.680408752013792,0.04634989322243453,-0.00612472368963321,0.04170179086583492,38.83515932336742,3.327956989247312,-27.428871623393654,0.9157089747577083,-0.1073208768485257,0.21337501595421673,-0.3231172191806977
247.0,-0.06448387096774195,0.05893087557603689,-0.028222734254992332,0.5510353302611369,4.476115207373271,8.698233486943167,-0.28323732718894007,0.23422619047619045,-0.0714189708141321,38.83064516129032,3.2204301075268815,-27.212365591397848,0.9161600475960059,-0.10579574183102917,0.21198675242242698,-0.3232592604086021
248.0,-0.05901416207710466,0.07901004083773559,-0.03554387246637445,0.5297419354838713,4.444947285601886,8.714838709677423,-0.07012277078415943,0.11358428402832414,-0.087215611067401,38.82157258064516,3.105846774193548,-27.003024193548384,0.9165746153815895,-0.10418169240375033,0.21077602424940997,-0.3234006928242852
249.0,-0.04066955153422503,0.10487490165224236,-0.051273210070810385,0.5155043273013373,4.425105428796221,8.726624704956727,-0.2178243017309205,0.22724109952793076,-0.017467791109362706,38.81703629032258,3.017198564122738,-26.862276258851296,0.9168655412195121,-0.1030355806622738,0.21002752924901652,-0.3234439505873327
250.0,-0.027519875613502685,0.12640327263871717,-0.062152158030796906,0.49642343861226634,4.396277752800569,8.744479787194184,-0.12985229103443105,0.1610391845565921,0.03126826458356749,38.81476814516129,2.9067847659323367,-26.67216155492488,0.9172933775744255,-0.10160768054331049,0.20887710862028402,-0.3234663622506555
251.0,-0.010006593982990525,0.14774618785358362,-0.07331968641114983,0.4895295792589262,4.386042102206734,8.750508973062079,-0.03677287053688508,0.014208616668539953,-0.058393454254243,38.81295362903226,2.8651099036191976,-26.603394285526953,0.9174747064300135,-0.10096407420497547,0.2083642462263497,-0.32348468387129536
252.0,0.005867670750440226,0.1598166423138886,-0.08042193997976846,0.4922809186617213,4.385073470458204,8.749786744595557,-0.035347120752313506,-0.06403984489153647,-0.011883219062605371,38.8125,2.8822777340676633,-26.596707223408636,0.917473943965007,-0.1010444226992619,0.20825132154059417,-0.3235138075525831
253.0,0.010641939230452214,0.1425967554606422,-0.07475620995841295,0.5081082012663443,4.388785358360495,8.747377243265522,-0.19332265557678616,-0.0753470270877824,0.03998679330111274,38.8125,2.9701711250983474,-26.624764902026897,0.9173715353223931,-0.1019215060223296,0.20820720333205947,-0.323552996680304
254.0,0.018347720205312657,0.1245800457082912,-0.0672836911318422,0.5143216065340375,4.397609831029186,8.74374369637706,-0.10300475815818065,-0.12121009890974485,0.0489469765089356,38.8125,3.018302517702596,-26.68748079877112,0.917252395160803,-0.10242311391596416,0.20852832845045152,-0.323520642924731
255.0,0.01675298702724462,0.10148553601815087,-0.06549802389621795,0.6120256802005379,4.465154538634659,8.700502845223502,0.543246196457651,-0.8264862518983405,0.005995096335059378,38.99179482370593,3.5830681755804803,-27.154688672168042,0.915705687311227,-0.10890676648393499,0.2102807118938393,-0.324508050968492
256.0,0.026231575751080632,0.08039115135926837,-0.05943384953381203,0.6132688439967136,4.473084181759724,8.697166112956815,-0.286890305165577,0.5112246253527666,0.11741931018468903,38.92902913228307,3.5821341496088306,-27.198072062658518,0.9158119295032776,-0.10893756618041114,0.2107251466265495,-0.3239715919665809
257.0,0.037608706836988,0.05283581958207321,-0.04167768401159524,0.6178750789613779,4.49391974626932,8.685975660727031,-0.062361729097343985,0.119916379356163,0.03622612834175443,38.936067477235156,3.60650521406484,-27.337537949110533,0.915513460935254,-0.10957662695635426,0.21174878470489555,-0.32392789251908893
258.0,0.03709575782447355,0.03284414897278326,-0.03270420392554585,0.5909109855861179,4.49452743804418,8.687486453494907,0.04976856011694563,0.33747958031537495,0.06314711708197084,38.88057799510853,3.451047158566645,-27.337152014484456,0.9157160559647748,-0.10817971225856657,0.2122968388100599,-0.3235110466933564
259.0,0.03479787891223678,0.02669223577671422,-0.025190811640192285,0.5497780734382202,4.488836299667252,8.693485162231319,-0.09893124413507556,0.316345636931881,-0.07581051403965974,38.81670028787685,3.2043542244446126,-27.29922116853255,0.9160210865590003,-0.10591276419783167,0.21283819318325575,-0.32304739728619447
260.0,0.0320088419317373,0.02727409988385599,-0.020080026975384968,0.515041324791128,4.486487917275487,8.698025401820832,0.034386590985725524,0.1610938612266307,-0.052688640365666325,38.800126212955675,2.9875625210745196,-27.26594591809973,0.9161953869524186,-0.10404666212592259,0.21325992049035264,-0.32288737729125927
261.0,0.03313959761717434,0.02516162751489267,-0.016783485069873743,0.5005774980330446,4.488439811172307,8.69736139522685,0.08146940916413772,0.04250449589749353,-0.049049773331834697,38.80240085609381,2.888006490952006,-27.29071105428796,0.9162059891405718,-0.10331116726495826,0.21370615658158187,-0.3228096273745082
262.0,0.02820649282529692,0.020088587913528914,-0.012521599040875204,0.4905120452587013,4.491343280506539,8.696101176426508,0.06741270465700049,-0.02436823273762692,-0.04687792701659735,38.782368237420854,2.8466354529616726,-27.29939270259638,0.9162088522923645,-0.10293408743525909,0.21397913484262482,-0.32276146164386865
263.0,0.01966935483870968,0.01555645161290323,-0.0062242703533026125,0.4890837173579107,4.4933437019969285,8.694021889400918,0.06514016897081414,-0.056912442396313365,-0.07327668970814132,38.797237423195085,2.8541546658986174,-27.305897177419354,0.9161866332914748,-0.10291615171620586,0.21406349221543775,-0.3227834466716591
264.0,0.014979346970889065,0.013571597167584583,-0.0041904199917575215,0.49905444719193714,4.5088155370724206,8.686046841632011,0.24416159707392007,-0.2509311425199505,-0.10018820716720991,38.818389684256864,2.9198395526581997,-27.402335759244686,0.9159051662489042,-0.10377812777558915,0.21461934979113745,-0.3229192550859279
265.0,0.005477576711250984,0.008632572777340678,0.0002354351654115616,0.5112167397250009,4.521802929826533,8.677519388557942,0.0825898711176052,-0.19416516803416883,-0.07945398261586303,38.847980124386496,2.995202034393616,-27.4875590086546,0.915610797777678,-0.10470234251279459,0.21510795069798805,-0.323127038373609
266.0,-0.00700382151286951,-0.0022437900415870514,0.007153609831029187,0.5179805177775278,4.526546626203589,8.67446255292046,0.020161290322580655,-0.13770723277509272,-0.11544481285826683,38.8846240305721,3.043111442059121,-27.529061762391816,0.9154113248382227,-0.10523361449241317,0.21525593846671157,-0.323422989875239
267.0,-0.01937364654752539,-0.014337679367577091,0.008502528942340118,0.5415885129819037,4.545962047131994,8.662398186654674,0.30342507774156074,-0.35446896894084146,-0.04520062942564909,38.959431549960655,3.1706333595594023,-27.667830448465775,0.9149355227086284,-0.10685043540185829,0.21581318041961708,-0.32386838520849726
268.0,-0.025608482259937816,-0.026642726012513596,0.011144505638604772,0.5602796635570039,4.56766612341239,8.649747480424107,0.05695447435465137,-0.19530764115244836,-0.04796993836873852,39.03650340938893,3.2708965568918362,-27.80660147615301,0.9144037076292755,-0.10831579359954667,0.21653824635420182,-0.32440748134464803
269.0,-0.03639590124011841,-0.0448595219362332,0.023491214266981385,0.5719140253268891,4.574753596717999,8.647143606459103,-0.006337869038252609,-0.2065002013787419,-0.09191868279569892,39.11214922633097,3.345764958225619,-27.846996646809785,0.9140938404983509,-0.10914202499410847,0.2165755999473606,-0.3249752093072571
270.0,-0.04320070435727401,-0.055358360496047365,0.02993443482821926,0.5951418081001085,4.580774418343264,8.642584391742528,0.14666694766025998,-0.2930575849537297,-0.09538093364804616,39.17925517964857,3.4795062005919597,-27.900657056685773,0.9137670139425271,-0.11056829445505972,0.2164699411951595,-0.32546819993293624
271.0,-0.047506725113334106,-0.06180899928814958,0.035012850773669044,0.6142860889438386,4.581193660784534,8.640901951968821,-0.027664755910231917,-0.2387986587239144,-0.08401521111985313,39.24014883293994,3.593264115244839,-27.91544949608482,0.9135586446203586,-0.11160097352965417,0.21616275977775284,-0.32592230383507537
272.0,-0.053463039976021906,-0.07191866172117943,0.041873065827432485,0.6210352553295115,4.57635214117118,8.644649245063874,0.01568178412198868,-0.13945735453898317,-0.05769899029635457,39.280946761080514,3.633187919148777,-27.89657702971039,0.9135056023565991,-0.11198135931557454,0.21573567870791654,-0.3262432329128169
273.0,-0.06727852084972463,-0.07576553894571204,0.04577261998426438,0.6282738001573563,4.578072383949647,8.642343823760811,0.021784028324154207,-0.09273210070810385,-0.12084972462627852,39.30008359559402,3.6759244689221084,-27.889693154996067,0.9134233146302122,-0.11236769518568056,0.21559265827222657,-0.32641356165066876
274.0,-0.08193981117230528,-0.07462980030721965,0.0424813045595894,0.6299236821400471,4.5710484807613065,8.645136731482516,-0.11418291746281517,-0.022014443070697984,-0.09203078753137761,39.30848003540519,3.6862362313139263,-27.842408021430444,0.9134561920595895,-0.11233532452532691,0.21525567685781716,-0.32654338929747867
275.0,-0.0979683320220299,-0.07543842493724476,0.04421075456146269,0.6301978756884341,4.557565939829905,8.651899600989097,-0.13333555786594734,-0.009728700685624368,-0.07984702240455585,39.3117439516129,3.68834333202203,-27.749833042973286,0.913608606635617,-0.11209315396998056,0.21452849010868827,-0.3266904440586529
276.0,-0.0966313926042486,-0.060942461878535845,0.03947388632872506,0.6321130999213218,4.550151970701737,8.656268348881648,-0.0438228241729422,-0.1223186186354951,-0.09221501395601514,39.32508851298191,3.7005101789929187,-27.714936682776965,0.9136632194022889,-0.11210953279685101,0.21412990598746773,-0.326810313044472
277.0,-0.09432730133752948,-0.05901165186767077,0.036091191787493926,0.6642328874901653,4.54507549361208,8.656809036753968,-0.12068206511558204,-0.26638895133190965,-0.09126203589224832,39.39589889850511,3.887195121951219,-27.691113109287773,0.9134849183492562,-0.11374646228916116,0.21323027389007532,-0.3273211130643289
278.0,-0.09426829268292683,-0.057791427822112336,0.034682102581394494,0.6653800157356411,4.52653774680604,8.665952905473759,-0.19052395938705932,-0.07277944812858268,-0.0717620171593421,39.431618804091265,3.892673092053501,-27.565167097523506,0.9136172927064924,-0.11353105253639803,0.21219374538799596,-0.3277046690050205
279.0,-0.08237608182533437,-0.03532966168371362,0.022259638080251776,0.6812383949645948,4.52138945712038,8.666914240755311,0.11835169158143191,-0.5797797010228166,-0.15579268292682927,39.510769079464986,3.9908929976396537,-27.53262195121951,0.9134292023524782,-0.11442338019984265,0.21155807008339886,-0.3283129465570417
280.0,-0.07035011801730921,-0.027255516840882704,0.012606159379566148,0.681671424824847,4.506767936757708,8.674425611629388,-0.20894004533363308,0.12884446067962985,-0.07678992918961448,39.58367755048518,3.990502182383575,-27.43605803454348,0.9134260735504474,-0.11423993660585963,0.21067153224731178,-0.32895876860747053
281.0,-0.06659445131317673,-0.015694934622157285,0.007952512082724515,0.6705193136263159,4.488420872204113,8.683556891836197,-0.20646718463152375,0.08661721179423776,-0.09432673935034282,39.60898570679255,3.9146445665205496,-27.31062694353902,0.9135752397228467,-0.11334330273869467,0.20995134038145813,-0.3293092735118954
282.0,-0.07249077404368515,-0.0011244145966805294,0.00633660222546926,0.6663454160578474,4.485241120602451,8.687687179198981,0.04064917715709415,-0.05017093776928552,-0.11654771271215017,39.639293207448205,3.8855284201603535,-27.286066815593273,0.9135643562343583,-0.1131155325101813,0.20980115018286122,-0.3295154668149564
283.0,-0.08376554831216518,0.009135373346821027,0.001720720467573339,0.6682452886740853,4.479293947398,8.689359718631746,-0.14739214529242067,0.02788832143793788,-0.06059240474317186,39.66702563598217,3.9122450568543705,-27.247015262635344,0.9135611406131467,-0.11323676021073582,0.20941616738578545,-0.3297328072381235
284.0,-0.09479809673672775,0.003257202802442772,0.0036547150724963464,0.6700097411112363,4.473876812408678,8.69430485931587,-0.06815171780750066,-0.07474031508748266,-0.0716772507586827,39.6789765276685,3.9282747461691203,-27.212066099059605,0.9135674091856059,-0.11327657733520663,0.2090039496283766,-0.3299386686230941
285.0,-0.09628181784121988,0.00624663744333296,0.0026394290210183203,0.6807879060357422,4.476086246300253,8.69090978232363,0.11599345284927504,-0.16768152186130156,-0.05393461279082837,39.70751376868607,3.984905726649432,-27.230998510733954,0.9134593726669663,-0.11383302173361809,0.2089315479029635,-0.3301034990293357
286.0,-0.09998347757671122,0.006484657749803305,0.001250590086546026,0.6910621557828478,4.477536585365856,8.688791502753736,-0.05213168764752163,-0.05451907946498819,-0.06922698662470496,39.7307730133753,4.027375098347758,-27.252306254917386,0.9133637871553897,-0.11428608009126673,0.2088948223182534,-0.3302303318890636
287.0,-0.109397718332022,-0.007890637293469713,0.011235051140833991,0.6962509834775764,4.477446498819827,8.689258064516128,0.08282971085759244,-0.08786634539732494,-0.03948170731707317,39.74178796223446,4.052879130605822,-27.251546518489377,0.9133357684203389,-0.1145340934130606,0.20875380311034625,-0.33032691295082606
288.0,-0.10158441984189426,-0.024373122026151148,0.017442986399910085,0.7353528342887115,4.513220561237871,8.666763824884793,0.2664448573489191,-0.2983350544190926,-0.016567850586339965,39.84367623918175,4.2954967849649695,-27.494031227754675,0.912478603579409,-0.11744444228333517,0.2098272559543667,-0.3309750954988385
289.0,-0.08233636806414146,-0.0463789292270803,0.02398673710239407,0.710818628001948,4.515402570154733,8.666793301112733,0.10924094263984115,-0.06797469184369265,0.016730826870480685,39.86236231313926,4.143859353340077,-27.49340133378292,0.9124526324828593,-0.11627257401558573,0.2103774829740362,-0.33111781432318
290.0,-0.07203384603856672,-0.06421651781211184,0.03327269635688205,0.695228354126859,4.513204825596642,8.668117342924582,0.08824279575656443,-0.0228797232141056,0.014720822057564777,39.87096774193548,4.0390323517290465,-27.471734205998565,0.9124814443688886,-0.11542401407985405,0.21060485912848753,-0.3311905865214721
291.0,-0.06778403552911813,-0.06679118573532422,0.0371524772106991,0.6930980480311715,4.550944662995015,8.64969045745757,0.5508877236060555,-0.010761262079122032,0.032124376410371684,39.87741935483871,4.034637143606459,-27.7282648213313,0.9119740705361359,-0.11610305422718115,0.2125984982471706,-0.33106970348103504
292.0,-0.049200174071928594,-0.06549573898433066,0.04048455976229384,0.6467755048518228,4.562577722827918,8.647237795511595,-0.09138390785715733,0.04499800782747281,0.07388715729589057,39.79911674347158,3.7711553051590423,-27.794791387474312,0.9121280305280808,-0.11392181368827867,0.21404757102235264,-0.3304569702791635
293.0,-0.04065999487006569,-0.07906123354746487,0.037200805226769044,0.5896588737776781,4.495636019632084,8.686291708815705,-0.24764087865976145,0.3783217765711865,0.18892130522244605,39.70625,3.443253343823761,-27.344304295887692,0.9133519225489863,-0.1096529745015894,0.21161797943206728,-0.33006498800824535
294.0,-0.03609564616428834,-0.07795046563838762,0.04260658708633204,0.5858828099882115,4.530566623798808,8.66893894902297,0.654861654974183,-0.3871666920851092,0.07346798066274811,39.666844054763686,3.417198049512378,-27.574710676295446,0.9130187330533526,-0.11007379212015227,0.21356476427699098,-0.32959958586934507
295.0,-0.031412469188725756,-0.07579255528167755,0.03341779194798701,0.5402839549173009,4.512295600685885,8.681758260993824,-0.11999473082556356,0.5834497686921729,-0.059453088718608216,39.657250752420246,3.1520034026363737,-27.44378996534848,0.9133507140689191,-0.1074354768287161,0.21338637990110926,-0.3296627419509788
296.0,-0.04172718266674684,-0.06790925954485136,0.035957617453143784,0.47639640310774567,4.492561942750495,8.695358674163318,0.09815566369815451,0.3333739303728371,-0.01629531402885564,39.604759448790766,2.7737667485251105,-27.29921107236739,0.9138389931521818,-0.10379818165835884,0.2134965758111958,-0.32941029356547746
297.0,-0.054857446940132254,-0.07828642700744873,0.037068670477723976,0.4846843766690801,4.525608928364495,8.677287632012533,0.31235068131144283,-0.1351323512498334,0.018470046518598293,39.6670830654092,2.8284876369353658,-27.522349391790456,0.9132446472980571,-0.10497858169707497,0.2150526413195764,-0.3296914495438755
298.0,-0.05507783740360178,-0.08236546070315488,0.04405108245702542,0.4822556423077895,4.53038604598885,8.67644195020881,0.015143485348689117,-0.06978426880239225,0.057197117223556755,39.72080983007076,2.8196221529249907,-27.55672726979654,0.9130389948437199,-0.10503780260446643,0.2153051912070701,-0.3300901349369746
299.0,-0.05798152935446406,-0.100286613465213,0.05665205499981268,0.4807804128732532,4.5214118991420325,8.680637293469712,-0.09661613465212991,0.03066108426061219,0.0645617904911768,39.737256940541755,2.8125702483983366,-27.489810469821286,0.9130952882066987,-0.10483239738357497,0.21479902812577278,-0.3303233163482072
300.0,-0.04591360383649921,-0.09792214604173691,0.05411074894159081,0.47225506725113353,4.495184519126298,8.694446817279232,-0.017840751564197666,-0.07976939792439398,0.03685465138061519,39.7671944662995,2.760452961672474,-27.32004467798134,0.9133681561372746,-0.10396555008804464,0.21357047936907575,-0.3306482083428871
301.0,-0.04484526619459744,-0.10537803004758159,0.0546980255516841,0.47498651230751954,4.4831044172192875,8.70104960473568,0.08395620246525044,-0.06346123225057135,-0.13024872616237682,39.84764293207448,2.7800885598141694,-27.24391063467086,0.9133014445346748,-0.10399186478906744,0.21282931950769926,-0.3313019258605897
302.0,-0.03166610467947998,-0.09452849275036532,0.05487205425049643,0.4420823498557567,4.474378629500581,8.706842006668914,0.8198198831066652,-0.9271079202727511,-0.02376971638379978,39.879802648832936,2.5843847176951034,-27.180543066951408,0.91333739558915,-0.10229815959499453,0.2129259294619909,-0.3316285932643962
303.0,-0.03320520025476753,-0.09685118579296392,0.04827395002060621,0.5143889325990034,4.4993883706118165,8.689817541493388,-0.23773462965044395,0.02240689745607133,-0.07962187628788729,40.06949908208759,3.008286969390431,-27.354876175489863,0.9123728053476827,-0.1066881425197632,0.21276241240998833,-0.33298541192330744
304.0,-0.031247761417706348,-0.09957229028511483,0.04574066164624782,0.5190877074669367,4.452499868869657,8.713750552620736,-0.22362921958712673,0.059715353489940406,-0.01591500880446592,40.17749147652766,3.0311692143419124,-27.044623187591323,0.912658459451875,-0.1061740490548125,0.21011151466351952,-0.33408585080573977
305.0,-0.03495196882844405,-0.11251391854932373,0.05095530328575176,0.5163038852047506,4.424221610280618,8.727652616987005,-0.1252341613277884,0.03690921096998987,-0.10639377505526205,40.25176698137949,3.012117848713049,-26.860932758233112,0.9128081147731442,-0.1055916357099397,0.2086326009470233,-0.3348001697317448
306.0,-0.03642759731744784,-0.12070012363718106,0.0501550709977146,0.5028869656438499,4.406415720654902,8.73901832078229,0.055662489228578915,0.18658536585365854,0.09659669926192349,40.27392496534412,2.9372705218987676,-26.74035021168184,0.9129583710655276,-0.10469046743254284,0.20796559779686036,-0.33509766840657906
307.0,-0.039165804952980415,-0.12622095462890112,0.05378112472368965,0.48158978681952724,4.425264733430744,8.730536285639353,0.3707048958450414,0.059410709602487746,0.054059303697875684,40.22344704207411,2.813798424562586,-26.8648198362744,0.9129011011280956,-0.10392429302989775,0.20935850714474918,-0.33461393689183627
308.0,-0.053127355662957565,-0.1276069367951744,0.05642636094563712,0.47144792252069995,4.449268873403019,8.71922959049867,0.14357923785171034,0.11993942246450115,0.11564098151062155,40.19354885541943,2.749960777977596,-27.013546818215875,0.9127063527552359,-0.10378692452832416,0.21077367397363345,-0.334304558886516
309.0,-0.05062337492038517,-0.11199672174141094,0.05205110336817656,0.4726466599228204,4.433804775017796,8.726154527743434,0.07042074107377021,-0.05331584148214755,0.11368754917387883,40.130205289236066,2.75699381345772,-26.9178645774793,0.913092725451182,-0.10343501771479151,0.21003536840981044,-0.33382855055911165
310.0,-0.05411007455696678,-0.09799029635457646,0.050025551684088294,0.4814846202839909,4.421059645573415,8.73306919935559,0.24045230602075607,-0.3098736465475254,0.03491837136113297,40.10204820913416,2.8150392454385376,-26.83486474841707,0.9133328312497844,-0.10358604596223447,0.2092705789266794,-0.3336092356948784
311.0,-0.05302124311565698,-0.10060267505900866,0.05156884343036981,0.5061447678992921,4.419059008654603,8.732517702596382,0.042240361919748226,-0.12549173878835565,0.07501966955153422,40.119826907946496,2.956549960660897,-26.817643587726202,0.9132790306325727,-0.10478044972305273,0.2087072627505901,-0.33372778643115664
312.0,-0.04108388595406693,-0.10288572927203928,0.05189528305421305,0.5200813008130083,4.394796448240982,8.742944063542016,-0.011099246937169828,-0.21364528305421304,0.05725783035480124,40.15172811059908,3.038713189839272,-26.662376362818925,0.9134629006725861,-0.10508355945670825,0.2071570114172568,-0.33409862166842763
313.0,-0.0370002343791523,-0.10063037492822684,0.047929234486321956,0.5151643398654542,4.375305292350964,8.752209594210395,0.14042875374767036,-0.0508524752050382,-0.0003322122995905799,40.15270395887299,3.018051199973338,-26.53731250212379,0.9136930079352357,-0.10447253628069346,0.2062282710186754,-0.33423022306227085
314.0,-0.038378165970063965,-0.10099968785750446,0.04686390913930576,0.509993656950823,4.377038956167615,8.753516284123291,0.0923917962286739,-0.008559597161921145,0.04841768613974051,40.14912932011313,2.9906591562415867,-26.54653784036166,0.9136799776379562,-0.10426177482406032,0.2064150087390781,-0.3342172926129606
315.0,-0.03362456685599973,-0.10977000521907482,0.05052469650513675,0.5075936026689598,4.377938832922515,8.752693625932613,0.06560114004982082,-0.12365983890354122,0.05321589952148316,40.14260901489527,2.975546311991761,-26.55068827501954,0.9136801835851074,-0.10420032405315918,0.206511719805023,-0.334179515177448
316.0,-0.03275583181509664,-0.12869145422244063,0.05924621922031032,0.516095188431254,4.383675061622547,8.74891939361147,0.21495782808942654,-0.14920391138725447,0.03837710298654803,40.1569143864799,3.0217953334152354,-26.595581032671056,0.913549405792554,-0.10472981769593442,0.2066916707775115,-0.334276397338724
317.0,-0.03365152873584251,-0.13640550381497812,0.06704733500448284,0.570479406436975,4.423620716154646,8.724873694033267,0.21040862349733774,-0.43331896236254186,-0.0003182579181380714,40.25489131429198,3.336470893638044,-26.86843757433261,0.9126720677442594,-0.10837259955138784,0.2076854912332351,-0.3348603768679121
318.0,-0.029244295830055084,-0.13017309205350117,0.05748072383949648,0.5572529504327302,4.3942096774193535,8.741181746656174,0.03933418568056649,0.2417559992132179,0.12497295436664042,40.265007867820614,3.2589029307631785,-26.670301435877263,0.9130629228988982,-0.1071125527553108,0.20636169527930762,-0.33502576407317075
319.0,-0.023930903675396208,-0.12182570904050055,0.054175901989434665,0.5333561593795662,4.378871351766511,8.75142261436439,0.2739709780450339,-0.027005416151511766,0.07012950292233336,40.22696695515342,3.1163150148926606,-26.565684886759584,0.9133786814108593,-0.10556691742332622,0.20602477423288748,-0.3348634476813721
320.0,-0.024634614664119002,-0.10411753962009665,0.04563326589487095,0.5325768892135925,4.396521121351765,8.741716299501704,0.1845661341838073,-0.1669457284290585,0.031110498388970065,40.238812298621255,3.1233540800269752,-26.677788919954292,0.9131732821748996,-0.10591449148969691,0.20689991765254204,-0.3347727437573527
321.0,-0.17544378254842458,0.05642126559514441,-0.04675358735154171,-0.3402555168408827,2.716718369487842,9.132032520325204,-15.014044996440747,4.635195384211906,15.31489078715672,32.79407852834289,-2.000800831741037,-16.41896613090555,0.9373954941617022,-0.031395246908695815,0.13507147549660933,-0.2752647588348132
322.0,-0.1697478550822375,0.045873890075306255,0.02036828893634558,-0.018019182495972424,2.250943763815518,9.375583530028852,-3.0664737177325687,-3.719823629687909,6.547885991532727,18.385139185493237,-0.0873398336517931,-13.473841838072758,0.9667649109950919,-0.024644172014536735,0.11363725697725824,-0.15516747737964104
323.0,-0.2800816380053202,-0.04475384961222888,-0.12026432130680759,-1.0073148626877972,0.6992035892248322,9.409250458956205,-11.985351335656212,7.458769341725675,7.753929227080289,169.96158021430446,-6.027142576149264,-4.037388070885317,0.9762190509467983,0.037227108145367366,0.02725754445165036,-0.02254957734048929
324.0,-0.08256846877224536,0.023189127421228067,-0.02533722977782777,-0.17767816867108743,0.32682683301487386,9.570279607358287,0.6211300157356421,-10.33374896969016,0.4500636918811587,262.8366368813458,-1.0381392604248627,-1.9071732981154699,0.9842604198412948,0.0029683591018695513,0.01532033166130905,0.05738964027983216
325.0,-0.07208684575325018,-0.007149675920722364,-0.012660934397362426,1.2587876437750551,0.6576415271065154,9.47747083286501,0.9933847083286506,-7.8071154602675055,1.3280464388745272,309.60481037615676,7.470465700048705,-3.9701477089655683,0.9841647472017534,-0.06313123672402682,0.041653653610992464,0.0939794671714061
326.0,-0.09790022854145594,0.05227488666591734,-0.013254149338728417,2.0863214379378814,0.8731126596980257,9.397877823985613,2.579919144093515,-3.8251253933910307,-0.9793186373684013,332.6685293029485,12.368223605335132,-5.319923382413547,0.9823001091319546,-0.10229141428254841,0.058116882191019445,0.11507939624109251
327.0,-0.06065304000216083,0.01449471557784916,-0.020514601429102927,2.2746429797780454,1.065499480270765,9.403188358500776,1.172097789527957,-0.13914220742685668,0.40099684383203804,344.5886342652192,13.449320825959974,-6.463775640120831,0.9820709487070125,-0.10979546729890508,0.06928650472961945,0.12247835123675213
328.0,-0.039097337705506524,0.011945407301302675,-0.03429190311515161,2.4795727089437865,1.1693470769695908,9.394405694629231,0.8669759624684046,-1.3462256189047261,-0.7678295975888572,345.1442110514018,14.657980461742177,-7.098854952468518,0.9812655246365145,-0.1191865988858554,0.07655256858733411,0.12765645547021406
329.0,-0.02907689465920487,-0.006361973768703503,-0.013613693493059674,2.4830202254396356,1.279959828807376,9.390154460217843,0.6959123763954926,0.7140847711927982,-0.7179621778266867,344.6583706466687,14.661727126032378,-7.750863968169743,0.9806056458666443,-0.11818675389050833,0.08267539805173156,0.1317368035052683
330.0,-0.030398662383365877,-0.004763168143952369,0.0004243360491690742,2.4753196365293415,1.2498992692423978,9.394055724732574,0.6960024631593438,-1.2768861858321725,-0.272863577392606,344.83580974729745,14.629538678223563,-7.573348650751538,0.9808922287858568,-0.11828604000593003,0.08094405392217915,0.13026442934864033
331.0,-0.0277301468224199,-0.04711838673954204,0.010326438752545276,2.679043618047369,1.2128335655342406,9.341112385239166,-1.09175374200693,-1.3912752741756869,-0.8127681473939914,343.31662424534704,15.865623325474225,-7.384101829028685,0.9776280746154754,-0.12810479136241204,0.08229532647047476,0.14304089437459366
332.0,-0.1081223877397921,-0.0593393884185332,-0.012091094202121963,2.825740863787375,1.2453852748901513,9.293628210624084,-1.6808168559997139,2.6922093246525916,-0.08954705194155682,342.82272041224587,16.743834731004178,-7.620126683456578,0.9758298955785552,-0.1350117172115886,0.08561832217747294,0.14710958091197798
333.0,-0.2437036044725468,-0.11085445468509986,0.02285060550851999,2.042367627621191,0.7454506483763796,9.481835896474117,-7.990284066552353,1.8346430915764655,-12.65022846113314,341.9113055049477,12.050685271764369,-4.519396925124139,0.9791155342008804,-0.09809488611284964,0.0540036817399707,0.15552541772816417
334.0,0.044657414353588276,0.11192012288786479,-0.13839727789090125,1.9927590826277997,1.0472337727288965,9.451186189404496,6.323523961347479,3.2018417550816274,-14.835138472118029,172.44895152359518,11.735846908155612,-6.319339879612761,0.9810099152557782,-0.10340882787286107,0.05550488945754295,0.014686135260779477
335.0,0.035578001643267895,0.0042962526345872165,-0.013011109920337216,1.4912322723538027,2.124769942485621,9.330579251955847,4.607831645411352,5.74533700389383,-7.05749651698639,87.07760422248418,8.761020612295932,-12.754170685528523,0.9799766223505876,-0.08655198974940163,0.10701574533883469,-0.04994203506805271
336.0,0.04417532954667236,-0.048001643267959845,0.031036687743364426,1.1161268888650733,3.065952559568464,9.12941020969528,4.788962865716428,2.428232058014504,-3.9941860465116283,47.175418854713676,6.541992641017398,-18.478659843532313,0.9728119301768299,-0.07912416419497731,0.1531686258875433,-0.10533943446182975
337.0,0.034878183831672196,-0.06797163576608438,0.045317043546600946,0.9682917157860892,3.6583556603436582,8.971925302754258,2.5213256439109775,1.0729043868109884,-1.7712709427356839,28.750532499196225,5.665946620583718,-22.121905476369093,0.9656385823989928,-0.08120681059014755,0.18137560815078768,-0.14565313983263675
338.0,0.025837709427356838,-0.08146661665416355,0.05262779980709464,0.939875504590433,3.957203943843105,8.891734540778048,1.374310095380988,0.38697062658521775,-0.5584945343478727,20.123034106740974,5.5,-23.95827416675597,0.9611599205735364,-0.08532710369753153,0.19516956139106206,-0.17073687531954418
339.0,0.0052652448826492355,-0.10751902261279606,0.06662880005715714,0.94477262172686,4.091528239202658,8.851232093737718,0.5431938341728288,0.05511645768585004,-0.08123459436287644,21.680828689315184,5.532066052227343,-24.80054165327046,0.957823058393527,-0.08931735801236024,0.20088922086450184,-0.1836494538348873
340.0,-0.007709902214229518,-0.11647015848038667,0.07334532239331609,0.9643776928552694,4.139820164100258,8.828854295455393,0.09071995241841818,0.13260907234648384,0.09592770034843202,22.638259385186018,5.6493679985763,-25.099086536660295,0.9558355657716086,-0.09238562495260574,0.20250913005413806,-0.19156881193866845
341.0,-0.022792701659735497,-0.12573695253081563,0.07161889775579783,1.0031636132029524,4.140208497246262,8.824639391555205,-0.1025380746318984,0.050236971263721855,0.10490427484920009,22.953686401783372,5.872838690944514,-25.114249653441234,0.9552258081428198,-0.09489765593533403,0.2019487740170844,-0.19419197226218576
342.0,-0.021251957588700313,-0.11087846090442471,0.06625030909295268,0.9830149863249787,4.101364617286723,8.844640740324458,0.19506832827544862,-0.1205996403282005,0.05393063204825596,23.013877571091378,5.75113708740774,-24.859457776029373,0.9556437964907647,-0.09353490937319697,0.20000421878580799,-0.1948496047378518
343.0,-0.023218912742122816,-0.10858592784084523,0.06429028511483273,0.9728692443145632,4.080945749503577,8.855383350192954,-0.0329045839421528,-0.12301103368176539,0.044400031845940574,23.04087215728148,5.694846577498033,-24.71700807388258,0.9558813297177329,-0.09289034476493951,0.19896466207185942,-0.19511979569918703
344.0,-0.018168596156007646,-0.10914319433516914,0.06912670937769286,1.0025905361357759,4.080430632048257,8.852772320257767,0.18072032707654262,-0.33363493312352477,-0.10623220373908808,23.135859465737514,5.872960923157619,-24.725631533101044,0.955631752623843,-0.09456152540474318,0.19859142393915552,-0.19590089501165187
345.0,-0.02130808137574464,-0.09102527069049492,0.059432411674347166,1.0297915776853623,4.083792364467423,8.848440972612487,0.2965860449215091,-0.3177203926417144,-0.07079528211756772,23.254422839159268,6.0368689352216105,-24.756799225394325,0.9553163410033902,-0.0961888731058784,0.19842034880952383,-0.19681980634813237
346.0,-0.02323655913978495,-0.09558026113671275,0.06262711213517666,1.033876344086022,4.057927803379415,8.860697388632866,-0.3064588133640553,-0.0626632104454685,0.09770785330261139,23.263911290322582,6.059048579109064,-24.58826084869432,0.9555987610072959,-0.09608490159677421,0.19696630594086023,-0.19695687989093705
347.0,-0.02090514592933948,-0.11334254992319509,0.05970391705069125,1.1110929339477726,4.092054915514592,8.834608678955451,0.18076516897081413,-0.1219830069124424,0.22830021121351768,23.327040130568356,6.504233870967742,-24.83553427419355,0.95483283585023,-0.10053582463095238,0.19797531091436252,-0.1973582327158218
348.0,-0.028566558015810574,-0.10896631823461092,0.05805327638529842,1.0915411561949724,4.077871379865872,8.843820763553257,0.8538107414484282,-0.8370272282791952,-0.6668165299164512,23.246465334757033,6.392604248623131,-24.740288158929975,0.9551954008997412,-0.09924429141864301,0.1974965370267131,-0.19673447822337115
349.0,-0.02132628976059346,-0.08908377355662958,0.06052433404518377,1.307149226330973,4.255867333558129,8.724275973174475,1.3629652785583155,-2.470620949009029,-0.9391590330073807,24.592774718069762,7.664908115094975,-25.994832059495707,0.9496790151695326,-0.11508352261024317,0.2035194740279495,-0.20725266872766102
350.0,-0.027895357985837928,-0.08135719905586154,0.0552506462852647,1.2435804203664156,4.238405455022294,8.740164474916638,-0.8488266175864523,1.9186664044059796,0.45451064965718774,24.59452624480162,7.277108856918062,-25.8515370349556,0.9501349049799558,-0.1114430080236784,0.20319890335375224,-0.20735080759975266
351.0,-0.025278708178786857,-0.07569165636356825,0.046690607320819755,1.0358892885242217,4.108827919523436,8.82841403469334,-1.4214227173953766,1.8853892697913155,0.5190227979468734,24.3647170394515,6.058226087445206,-24.942857611179797,0.9528397378847553,-0.09870038931598665,0.19867154549177626,-0.20592355566393164
352.0,-0.02878392594664345,-0.06695685593872333,0.04415291627784996,0.8928316695898713,3.3465128773482573,9.121198675975613,-6.079981689673289,0.6463459941640463,0.5119595556554644,23.763283884995637,5.223774432284029,-20.12261280694738,0.9613669075843596,-0.08171198175842914,0.160578351712862,-0.2024877129409216
353.0,-0.041832111337939015,-0.059932101492272016,0.04365227021040975,0.7792889006223682,2.8046413624312003,9.312548871538443,1.6736099475652888,0.6155386353121381,1.8333654134352404,22.53110945963843,4.554687457796504,-16.756767888618494,0.9682523651952745,-0.06843415706688083,0.13452260398314037,-0.19307489271357647
354.0,-0.032332391895883376,-0.04719392914430698,0.035808380666595224,0.802601171634372,3.228058544252788,9.184491847264953,1.472021255531653,1.2873942462096362,0.9972553052243898,20.90106516992924,4.693544319224405,-19.352743047477894,0.9676224934415982,-0.07139643480527623,0.15737422935260686,-0.17873655159800922
355.0,-0.032131577537241454,-0.04266698817561534,0.036065480655878265,0.6345893348337085,3.357757832315221,9.166975270603364,0.41105488425677844,0.8993078626799557,0.3270206502518487,20.00363053933126,3.707782191083485,-20.100083168113457,0.9685934785004999,-0.06275896785267746,0.1659657557565552,-0.17112599613653406
356.0,-0.04705369199442718,-0.05502704247490443,0.0380488693601972,0.47325031257814454,3.3439595613189015,9.189757796592009,-0.2830310256135462,1.1141700603722358,0.32119681706140824,19.43314087450434,2.7598890794127104,-19.976704890508344,0.9700706253228308,-0.053587740636016144,0.16678921696295507,-0.1664008628102025
357.0,-0.04202162213027125,-0.048568175144831506,0.03798359520193638,0.3454160735305777,3.3309863310775434,9.20494980016781,0.2517468652877506,0.784377562160575,0.4082380623465971,18.94083763209966,2.0151967216542808,-19.88217231790526,0.9711900400767449,-0.0463221834125317,0.16739406013765373,-0.16227388040973045
358.0,-0.04385259293917558,-0.053389310306670754,0.04262082985903272,0.13964736088203233,3.2914993099320125,9.226165376274379,-0.3708623584467545,1.363074917793037,0.2746355442301342,18.406286711595147,0.8077855728087073,-19.624961927001785,0.9724892670929038,-0.034489277409030836,0.167208874696323,-0.15777173426016472
359.0,-0.05044110374283467,-0.06790263571990558,0.04738532651455549,0.0004908115094975768,3.2340236877599184,9.25052222659323,-0.28607910906298006,0.8011700456146267,0.2091281354201791,18.121721214547975,-0.009405850754936218,-19.252304088925104,0.9734749873447229,-0.026320002286482333,0.16535813742210856,-0.15552379130541183
360.0,-0.07361379303885206,-0.09168998913491438,0.05480499044621783,-0.07719219025139566,3.1968926042486228,9.263999784571574,-0.33953773041474655,0.6053433273388034,0.11440109727998202,17.975754760499793,-0.4539216753774681,-19.02940305252707,0.9740257867660636,-0.021777535341013825,0.16412556787541677,-0.15431962991518672
361.0,-0.09002060619684538,-0.1194659623093927,0.06327346296504441,-0.12130980480311722,3.1650511408339885,9.273237795511587,-0.12528801843317972,0.2705144056048855,0.0810160728335394,17.890674759282156,-0.7093449102693792,-18.837534187553857,0.974406524786258,-0.019157702267281113,0.16294836726432124,-0.15364720245356112
362.0,-0.08520306470345809,-0.12072826046232812,0.06765561425199505,-0.15658723914428097,3.1263335955940197,9.28567869319246,0.000323142632347978,0.12451271027687236,-0.028851719680791275,17.871207757296467,-0.9125746974635645,-18.593457298340265,0.9747654890768427,-0.016951451464089023,0.1611525068697688,-0.153537444936458
363.0,-0.07076359072346484,-0.11800775542317636,0.06739001910756436,-0.17566689146154146,3.1031852309767336,9.293568993293624,0.0626711719306133,0.0026221385485744216,-0.06975900116144018,17.897206221198154,-1.032684238132704,-18.452503418755384,0.9749428657304338,-0.015815966458619008,0.16003147316990746,-0.15372290069633965
364.0,-0.07109992132179388,-0.1353633247161965,0.07477027837098649,-0.18415833052339756,3.0907669626465846,9.297306770072314,0.06916200685624369,0.008199510134502265,-0.0533126803042224,17.918145161290322,-1.0865706136900077,-18.37710136375557,0.9750286536601473,-0.015204262395976172,0.15948639283303356,-0.1538309055440224
365.0,-0.07216473717732569,-0.15359948109849764,0.07869175939455247,-0.18834775767112527,3.088829867745683,9.29908733280882,0.003319880765051894,0.013877746712374957,-0.009515145554681352,17.92883064516129,-1.1113296616837136,-18.360118345135064,0.9750428796910567,-0.014922822155707914,0.15932829285923156,-0.15387494119217154
366.0,-0.06326746843505301,-0.14709179124049304,0.07679154021954966,-0.2029680416619835,3.0555516466224573,9.309574388370612,0.005386178861788617,-0.00041399722752987877,0.025057135363980368,17.934677419354838,-1.1897854145592146,-18.15591362725263,0.975285672433854,-0.01398889629213967,0.1577379852270428,-0.15405342201371247
367.0,-0.046875276310366795,-0.12400537634408602,0.06783164737177326,-0.2173140759057362,3.0136121726424636,9.323047619047617,-0.1398177288224495,0.0353998070510659,-0.010553651043422879,17.93709677419355,-1.2878264208909371,-17.899081911974072,0.9756045854285713,-0.012893138752678803,0.15566752764735298,-0.15424915186444874
368.0,-0.038405380090667275,-0.1121720430107527,0.06587550110524146,-0.22752800569480364,2.989959312127683,9.332168970814127,-0.04732821924993443,0.0944136132029523,-0.06656714810235659,17.9375,-1.3354454685099846,-17.75052381889026,0.9757711796497692,-0.012256772364242628,0.15454388070270872,-0.15433582254512762
369.0,-0.03612281293319847,-0.10836866359447006,0.06388629125922596,-0.2345704544603051,2.978690869581506,9.33608448540706,-0.023155277059683038,0.028298396463227307,0.05673658723914428,17.9375,-1.3592549923195085,-17.684569705144057,0.9758661830937019,-0.011855221685961564,0.1540499179427522,-0.15428366385320894
370.0,-0.031472106702633854,-0.11690266381926492,0.06687626915439661,-0.22095949945674587,2.9807262373084558,9.333148458281816,0.13201008767000114,-0.4773191337904162,0.02940094507511895,17.94615460267506,-1.2893344198418943,-17.696435127945747,0.9758540121526731,-0.012520105457457575,0.1539813098919111,-0.15435267307924022
371.0,-0.0303174665617624,-0.11701123974373384,0.06381447866321982,-0.06239603237046204,3.038362350605072,9.315410634670863,0.31470896088569184,-0.8513227773406766,-0.03925498061144206,18.167633752950433,-0.36711344648008704,-18.050622517889927,0.9750995443635867,-0.021625770927653512,0.15564689937375895,-0.15615716445052638
372.0,-0.023284764788758162,-0.09023686518319475,0.05243696551315531,0.14487475200681704,3.1140399524968343,9.284331067522979,1.5788438371570246,-3.4050148207783653,-1.4652078307033205,18.865770177300423,0.8483731342243226,-18.531079497879695,0.9732908468811559,-0.034083131551411155,0.1575765086810655,-0.16198186739780635
373.0,-0.018151022947374473,-0.0664734633135636,0.04374229228038719,0.5293354174780629,3.3140937089673104,9.194561847125545,0.8862081128949486,-2.2640161469483226,-0.8473816611273899,20.654323260693218,3.0984377191858936,-19.81075864294906,0.9682880069213764,-0.058242354201396826,0.1637649638272839,-0.17666453494160667
