time,linaccel_x,linaccel_y,linaccel_z,gravity_x,gravity_y,gravity_z,gyro_x,gyro_y,gyro_z,euler_x,euler_y,euler_z,quaternion_w,quaternion_y,quaternion_x,quaternion_z
0.0,0.07341463414634147,-0.01097560975609756,-0.03731707317073173,2.315853658536586,5.601219512195122,7.699268292682926,-0.17378048780487804,0.009146341463414634,-0.17378048780487804,62.80030487804878,13.661585365853659,-36.010670731707314,0.8063458695121948,-0.26454869829268296,0.19289937829268286,-0.4925373360975613
1.0,0.08947154471544716,-0.00882520325203252,-0.040272357723577255,2.265784552845528,5.596073170731706,7.719089430894309,-0.31105182926829267,0.7301321138211382,-0.12459349593495934,62.72405995934959,13.358028455284554,-35.90459857723577,0.8071323813373983,-0.2617811247642277,0.1940941025975609,-0.4922359580325205
2.0,0.09203265537638763,-0.007104489101369418,-0.04117984766226401,2.296366137266023,5.563366907057775,7.731436998622481,-0.22467005307511545,-0.26349819706668826,0.0770014585527915,62.72476323839235,13.541314520703347,-35.7124359350944,0.8074442904735029,-0.26223781891888825,0.19169923333915398,-0.49243294254549874
3.0,0.09120254076294915,-0.010553523485400968,-0.045756944782072415,2.30198673707335,5.529698207420613,7.752003932690492,-0.1342111041334666,1.307986555654593,-0.04739931934203063,62.24933395569421,13.576422966804419,-35.472946293520245,0.8099662832368411,-0.26057829378119546,0.19097718927255758,-0.4893692516640899
4.0,0.08671090682078186,-0.010783962976806921,-0.042011424894551175,2.201090356648395,5.546370100364815,7.769937386785721,0.16328494961283874,-0.2114581182316485,-0.2568061222622729,62.32790352694881,12.977301435550526,-35.494974012993666,0.8100241655662135,-0.2564557897650946,0.1942322842286569,-0.4901796153213338
5.0,0.07778424963383704,-0.00031172971814382236,-0.043758662880005725,2.234031409638124,5.588004090308291,7.7313675918979765,0.07234861170649805,0.061058903118636765,-0.29092273068267066,62.619592007376845,13.170721921551817,-35.83279876888865,0.8078787952103292,-0.25988509213589106,0.1947995006579949,-0.4917102991429642
6.0,0.07947008180616581,0.0023040045725717146,-0.048487050334012086,2.2986933161861893,5.586119172650305,7.713618511770802,-0.06522858393169723,-0.20134698853284752,-0.18839531311399277,62.9707755063766,13.557456774908012,-35.888839620619436,0.805957603455971,-0.2635399080817704,0.19219108344746905,-0.4939374261237093
7.0,0.07699228204263608,0.0023787418980180585,-0.04924892285789219,2.302685999025888,5.589010677756548,7.709929395676444,-0.1283832799445506,-0.2740182786332472,-0.12856276460230037,63.13065253737214,13.58013281630512,-35.9199112060245,0.8051590619029072,-0.2641536535527144,0.1919097342267993,-0.4950484306078265
8.0,0.07329176501442433,0.0016600352178636995,-0.0463552882994268,2.3181002397811987,5.586169476602603,7.707863989734365,-0.042060467479674804,-0.07328154855569294,-0.10188710614064665,63.21868320548124,13.675238376231688,-35.93957829886478,0.8046857568432331,-0.2650379406627795,0.19118490072894423,-0.49564748820404836
9.0,0.07395874437652565,-0.00018363003374805118,-0.048363128020681156,2.3239494168302177,5.584433787101965,7.707694091641375,-0.07034591302023442,0.08569237812083012,-0.07175750054757726,63.24802607854707,13.707673210034784,-35.91887542941585,0.8045689824167572,-0.26527756446383394,0.19090110020142406,-0.49583178420179674
10.0,0.07831808186568218,1.3023692803393674e-05,-0.05145172530066316,2.322805353576398,5.586591893550984,7.7091212393690745,-0.06866590005850431,-0.020435060939584943,-0.05571241962862734,63.270661224757404,13.68732954856578,-35.89225021470792,0.8045323066317653,-0.2651421916754654,0.19087052666926044,-0.495965817875092
11.0,0.09345473985757226,-0.002518065726562973,-0.055583005507474456,2.320765195989426,5.5883842724283355,7.709771833202201,-0.04548886400774678,0.002930511004861907,-0.07807702394641812,63.2917486231314,13.683646533115455,-35.88254503822954,0.8045241376707208,-0.26507818381008297,0.19091321049284837,-0.4960306980427687
12.0,0.0946770158768585,-0.0018105670883011558,-0.05576317859952795,2.309365288789363,5.592930137787732,7.709025963808022,0.14000635477818796,0.27351974016018077,-0.024369943916560756,63.256795830055076,13.624804187092739,-35.92128825475599,0.8046322595686416,-0.26468135775319257,0.19156969316145175,-0.49580543884357153
13.0,0.07938526527236206,-0.0012818149592343146,-0.049297235023041494,2.262373626373626,5.536069242585373,7.761652841781869,-0.10731197565874985,1.5412501477017606,0.8700213429044074,62.21405529953917,13.3361577602505,-35.46779658513529,0.8102806388973178,-0.25878315284272724,0.19230959220134708,-0.4891707636239514
14.0,0.07053303504447542,-0.0050447969135140915,-0.04232678705390634,2.191756474832994,5.4930653020397955,7.811565355624618,-0.3719176445897188,0.057199121208873716,0.8244866462151252,61.26015968277784,12.915248845693565,-35.08682125888615,0.8154836107690852,-0.2524012842036938,0.1940892768440325,-0.4831129353726735
15.0,0.060852347015325256,-0.011132613510520485,-0.031102525631407855,2.1983667166791694,5.475050316150465,7.823209713142569,0.14459273300467973,0.4136706051512879,0.2171720385453506,60.766096546458044,12.953158937055694,-34.96554964634015,0.8178450130112705,-0.2512676998468545,0.19418499597577965,-0.4797558161965134
16.0,0.0519770192983786,-0.010147443655338921,-0.02768363889752926,2.23362867698632,5.4475526954473805,7.832065124077186,-0.061002954898132206,0.2506934851090822,0.30925478402483897,60.43268930391352,13.169267312745,-34.79950377674993,0.819452818893519,-0.2515677931492337,0.1926475255370637,-0.47751451980950765
17.0,0.045355445133060265,-0.017186625053475915,-0.020426496868119468,2.2363909513963858,5.418788444497882,7.850931755586981,-0.12823333228777578,0.28880440384486367,-0.1038655515359676,60.254676305182564,13.182743535404757,-34.59153616256852,0.8206498077895015,-0.25046744835687496,0.19154146131691896,-0.47652047392894736
18.0,0.037786431062335396,-0.017977986992057583,-0.014153931407000773,2.2387980988814613,5.396816531122863,7.865388482070933,-0.03543667677841465,0.02679282876870384,0.23567393875405335,60.060246474108475,13.196943447366799,-34.42782637916917,0.8217910602671954,-0.2495700742357458,0.19078792450018225,-0.47533580847753054
19.0,0.026074248594311532,-0.019046904315196997,-0.014052429081540018,2.2546842121948334,5.421578356864746,7.843612214431257,0.4305061415112556,-0.752758348391708,0.29058709288351303,60.00953767907937,13.294848180602507,-34.63072985564134,0.8214802700295776,-0.25109585562115727,0.19174220814500997,-0.4746754933062456
20.0,0.01064772337549678,-0.023448183340394203,-0.005139885815731607,2.340881276604329,5.44747965462285,7.799629455909943,0.1557628633823559,0.510837607678186,0.05705909943714822,59.84725155843369,13.813361110270531,-34.90767963596199,0.8211422596484294,-0.25583772122378906,0.19121687373917162,-0.4729096685763179
21.0,0.003463122112610702,-0.02882479977405234,-0.002160816235953923,2.2604917791361534,5.452661935887347,7.820117639048599,0.029346813280477717,0.2933810383001473,-0.006801882224777584,59.67178175876052,13.327928588180113,-34.86392538053017,0.8223379443718148,-0.25175722401472694,0.19390036993410198,-0.4719296432653422
22.0,0.006239625572434382,-0.030162399887026178,-0.001749762956686639,2.250745889568077,5.454258387298512,7.821530593717846,0.21111997922088402,0.14212902721458975,0.1691797040489015,59.51129410518671,13.267064092477153,-34.868530230587666,0.8230472248391331,-0.25106636945897637,0.1946109631202768,-0.47079847085444515
23.0,0.0027442958300550736,-0.03723918174665619,0.005850511408339888,2.267558221872541,5.482061369000786,7.797125098347756,0.07015883162863887,-0.535505999213218,0.08038699842643586,59.478894571203774,13.367294453186467,-35.08687057435091,0.8225997665361918,-0.2527259069040126,0.19561950818214002,-0.4702575942981903
24.0,0.011439024390243902,-0.04294610542879625,0.009354838709677418,2.3189065696302125,5.4855696302124315,7.779612116443744,-0.04474454169944923,-0.2802136605035405,0.2698994394177813,59.46730920535011,13.679359264358773,-35.16793863099922,0.8222303576701415,-0.25534256577616055,0.19455925482749797,-0.4699321044787568
25.0,-0.008167584579071598,-0.04528756884343039,0.012241935483870972,2.0836428009441383,5.487284815106217,7.839515735641228,0.24045535011801733,2.2398578874901656,0.18547895357985836,58.73032798977182,12.26079858379229,-34.96743705743509,0.826632776790716,-0.24252426212195125,0.20204856501455543,-0.46540819789260424
26.0,-4.838709677419412e-05,-0.049072580645161304,0.01541129032258065,2.1351290322580643,5.4734354838709685,7.837040322580645,0.1654233870967742,-0.8345262096774193,0.1880040322580645,58.44712701612903,12.57217741935484,-34.902822580645164,0.8277237922096774,-0.2441968860483871,0.20066237905645157,-0.46335459108870974
27.0,-0.01642466561762392,-0.04039732494099135,0.01100688434303698,2.158720692368214,5.451582415420928,7.847586152635719,-0.1515034913453973,0.3159925747442959,0.2957845692368214,58.101439565302904,12.711164929189614,-34.76091783044846,0.8293806400887096,-0.244040037059402,0.19975076753658536,-0.4609877613806059
28.0,0.006653066576748719,-0.041125313776179256,0.011196414521748905,2.1995270128507736,5.418186945037652,7.860800756809411,0.08508614795249335,-0.5219012260687124,0.044029237383387654,57.98337747274361,12.96107641620771,-34.5503957911843,0.8301502102907067,-0.24484595737301895,0.19729017790308528,-0.4603123741186823
29.0,-0.00593389157393878,-0.040311771758270595,0.011069489715634484,2.184481445056386,5.433988142070358,7.85515096849125,0.3113287250384024,0.6229781340152112,-0.0852655740699112,57.931756842194,12.867301829268293,-34.6510147966543,0.8302340058814863,-0.2444476094928627,0.1986067746017197,-0.45985817215975433
30.0,-0.01617201491139335,-0.03574190738451165,0.00922925330635795,2.161371866921434,5.469145760743318,7.836857358285565,0.12752976190476187,0.007358402645086415,-0.1931212182945562,57.998916535536324,12.729388241823086,-34.88820061069274,0.8295420139148213,-0.2445347822341426,0.20083190201552964,-0.46010316245276495
31.0,-0.020170094788505497,-0.043841744408227495,0.012506837510771422,2.089888726537035,5.453754823723352,7.866459855381966,-0.25702952306020754,1.4187694353902065,0.519688284440448,57.57205612378704,12.300887939754972,-34.71147343673898,0.831943790375782,-0.23979405825259453,0.20266048705556183,-0.45737776543104414
32.0,-0.03047450451463041,-0.044320557491289214,0.017103143381664236,2.081124536360571,5.453702746244053,7.868816080326702,0.3805824060544753,-0.6203753137761793,-0.04559940616687275,57.262793404143714,12.25535644037316,-34.70912479862126,0.8332120169306132,-0.23890024091622647,0.20354228012494846,-0.45516321586265024
33.0,-0.036605147802630106,-0.03929084710201942,0.01314143344198419,2.131632160653404,5.478519575887003,7.837392679180249,0.32723436738975686,-0.826249484845079,-0.02601110861339027,57.37308737027462,12.554795155670451,-34.93973905061631,0.832061970690345,-0.24233836052954177,0.20340677863159864,-0.4555405050665017
34.0,-0.040143081937731834,-0.03497961859802931,0.013766962646584995,2.263290884567832,5.509466786557267,7.77861691206774,0.15144196545652092,-0.8347205050391517,0.02928749391180547,57.626230751938856,13.339586143269266,-35.28776343149376,0.8296431150458206,-0.25016673590524896,0.2011696397927391,-0.45666542150837347
35.0,-0.03789861751152074,-0.04429612978157432,0.016327863324716203,2.324926229815294,5.524561799857631,7.749820239031884,0.09522779213967256,-0.6037561818590536,0.011432224345284925,57.82622138548574,13.71222134801993,-35.461467114383126,0.8281745377999699,-0.254018088120003,0.20004018831400094,-0.4577156442102206
36.0,-0.03061859802929827,-0.04859124798621259,0.019582574650631304,2.3478879772207866,5.529731351391855,7.739843243040725,0.025338128957326442,0.042904560526019986,0.0700835487617549,57.867991317297964,13.852283307107264,-35.522263239481475,0.8277785425090668,-0.25537608744897156,0.19964164220877828,-0.4578860912671875
37.0,-0.024601195159417034,-0.04938610393016374,0.0143585571915627,2.3387630287362784,5.518520278370986,7.751534524746168,-0.02347373646547525,0.386445395919973,0.03258308043909932,57.841081614589186,13.79497033175977,-35.422471116200214,0.828163065223849,-0.25449655252070924,0.1993130001287794,-0.45785033330078495
38.0,-0.02932479112809562,-0.046975310029598004,0.01967524633771684,2.3778976434003978,5.514812558540331,7.742089843018244,0.0072147446704881775,0.3027741092503091,0.07375121763890449,57.82784927503653,14.035136375557304,-35.43953696939043,0.8279921091159568,-0.2562989679821288,0.19821479077003484,-0.4576315511947473
39.0,-0.035648570679255184,-0.053311003709115456,0.021736240680379156,2.357656963021243,5.505509197856954,7.754467348544453,0.12630802517702597,-0.08710660896931549,0.20016765951069646,57.59487701847064,13.913804746918437,-35.349467985463264,0.8292222679143532,-0.2546197703328463,0.19873910296182234,-0.4560856652509835
40.0,-0.03970548124836088,-0.05509216589861753,0.027343336705256457,2.255819826907947,5.503939492712899,7.78516679779701,0.08191876475216364,0.982656372934697,-0.024670300850473947,57.26312497658387,13.303892932074483,-35.2373323404893,0.8312612504866809,-0.248984525574763,0.20184209455172158,-0.4540748747608182
41.0,-0.04463768686073957,-0.05314516129032261,0.028016522423288753,2.2564260424862317,5.504939024390243,7.784341463414632,-0.05480674665617624,0.3300378638867033,0.1697261014948859,57.13096725019669,13.301509638080251,-35.24365656963021,0.831766637752557,-0.2487722400538946,0.20219865103776555,-0.45312271483202204
42.0,-0.03736904761904762,-0.051818356374808,0.02602073732718894,2.1453897849462367,5.490827572964669,7.824906298003068,0.12991791474654377,1.2631840437788016,0.03991695468509984,56.64570612519201,12.63193644393241,-35.03245007680491,0.8346471222146699,-0.24198733318625193,0.20518461537557603,-0.45008938748963134
43.0,-0.03607373271889401,-0.047438172043010776,0.019619815668202766,2.114135176651306,5.493888632872505,7.8300913978494595,0.08496543778801843,-0.27069172427035326,-0.021769393241167438,56.66624903993855,12.446646985407066,-35.030522753456225,0.83466561809255,-0.240642124531106,0.2060136105983103,-0.4503386495203533
44.0,-0.029746543778801843,-0.04057795698924732,0.010463133640552997,2.0714708141321045,5.497887864823349,7.839473118279569,0.36526497695852533,-1.3194436443932411,0.23478062596006144,56.57621927803379,12.196685387864822,-35.0238047235023,0.8352159865180491,-0.2385503435679724,0.2074314848314132,-0.44981957839324105
45.0,-0.0355910138248848,-0.04685752688172044,0.021739631336405538,2.11017089093702,5.501984254992321,7.826752688172043,-0.11555299539170505,0.7527529761904762,-0.06660666282642089,56.49430923579109,12.42356950844854,-35.08302131336406,0.8352571449888633,-0.24035804390092172,0.20691201587135172,-0.4490461663821044
46.0,-0.03971889400921659,-0.05034408602150539,0.020861751152073737,1.8183717357910902,5.474689708141321,7.9087634408602145,-0.09184907834101382,2.271361367127496,0.34802227342549924,55.73704877112135,10.687288786482334,-34.67039170506912,0.8401486252887866,-0.22379363208755765,0.2138900170768049,-0.44449051306605214
47.0,-0.03512135176651305,-0.047196620583717375,0.02488940092165899,1.5585514592933944,5.451963901689707,7.979440092165899,-0.052433755760368655,2.0292722734254993,0.21091109831029187,54.80866455453149,9.149025537634408,-34.32493279569893,0.8453933219569894,-0.20872029257450075,0.22055107627112136,-0.43853140479569885
48.0,-0.030595594020456335,-0.04166011014948861,0.019023603461841072,1.3412045633359555,5.415347560975608,8.045676829268292,-0.07957931746656176,0.6139457120377656,0.15941802714398112,54.085059746262786,7.867494836742722,-33.92457956333595,0.8497278108591658,-0.19573104956176238,0.2250022076485051,-0.43400173840165224
49.0,-0.029009834775767115,-0.03185503540519278,0.014892604248623133,1.6512244295830052,5.430076711250983,7.974334775767108,0.45039707907159715,-3.059398357592447,-0.13819949842643586,54.767519423682145,9.708652143981118,-34.23686688630999,0.8454182355757276,-0.21265683929346976,0.2172961171880409,-0.43818787957533445
50.0,-0.020963058708928103,-0.02834053613577612,0.008020034843205577,1.9355244651755275,5.458920076055599,7.890751105241464,0.13849179030384773,-1.5909642997639655,0.000520306470345816,55.502789329736615,11.394483042036642,-34.65684670160354,0.8406187827062586,-0.22876203788636623,0.2107347158190589,-0.4425584807613616
51.0,-0.016162020905923346,-0.03259672736128284,0.004543619572140422,2.025043722603125,5.46762113633809,7.868456005769735,0.02432222003671649,-0.6103150991907385,-0.0410224888539208,55.814437099584126,11.925476928084374,-34.775373955640475,0.838888632243874,-0.23397603117282978,0.20850557885154175,-0.4445822543929695
52.0,-0.009008429807800382,-0.0437136862612866,0.007485519463489567,2.081521861301563,5.496540406878722,7.837256228691319,0.19205022292158405,0.3118031358885016,-0.2079104379753475,56.075716533663034,12.259537859203476,-35.02065068749766,0.8371354546017757,-0.2380582620057697,0.2081551514177063,-0.44612274697471055
53.0,-0.012337417106889965,-0.042690045333633075,0.01062710276872354,2.1848553444981453,5.525843767562099,7.789996328350378,0.1113821138211382,-0.32747274362144546,0.08310713349068972,56.27630240530516,12.87710370536885,-35.330943951144576,0.835227837697426,-0.24441336433412014,0.2068383002997265,-0.44699248114667856
54.0,-0.009082949308755762,-0.04446697388632875,0.01637019969278034,2.1918525345622113,5.510815668202765,7.799817204301076,-0.014784946236559134,0.6861751152073732,0.18198924731182795,56.08842165898618,12.919777265745008,-35.22250384024578,0.8361966603317972,-0.24393552456989248,0.20628840243625196,-0.4457348060737326
55.0,-0.014641321044546855,-0.046869881233374565,0.011549436139522685,2.0239347720205307,5.501693567120004,7.849765951069648,0.09867616893334832,0.36483470551871416,0.13856976602600127,55.576859943426626,11.915535550372784,-35.007698170731715,0.8393554813883144,-0.23446106666366945,0.21082083601431195,-0.4426193983359371
56.0,-0.010897521636506688,-0.04045594020456335,0.008265538945712038,1.995675845790715,5.497339889850513,7.860197875688435,0.1743029602675059,0.3478769177812746,0.09616074940991345,55.416367525570415,11.741245820220298,-34.94134908536586,0.8402453786607004,-0.23260861590479937,0.211604981940598,-0.44161479736605014
57.0,-0.011671687085534451,-0.03360393016372561,0.008256425386834514,1.918358276197969,5.491056657674871,7.882354314188303,-0.2041827652579521,2.9886213985987786,0.14453174759282153,55.142505959405796,11.279005446592485,-34.833379755816566,0.8418589070167941,-0.22803649381376678,0.21363894160393954,-0.43986512812177314
58.0,-0.011339219386728215,-0.03041618113587631,0.002466078409846365,1.67423230764137,5.4525953768494375,7.959548499929861,-0.24355506886303455,-0.2651088430862072,0.27492083441156456,54.38053244800747,9.837841761180712,-34.38676032520761,0.8465794005711316,-0.21365594138334626,0.2186833257171048,-0.4351756269026908
59.0,-0.019371222596589917,-0.032925832503422035,0.00488223275331028,1.7446080893045557,5.415616236811813,7.972475862868158,0.20896843331041814,-0.896112889285039,0.2639221107541694,54.24127428851986,10.253295880590358,-34.16197895292639,0.8474261026565333,-0.21579873611909245,0.2154798554956492,-0.4342841285481196
60.0,-0.02058883710474657,-0.028454261649035962,0.006721997572563875,1.959347317665653,5.437672005109291,7.906869717429357,0.1940052630753507,-1.2777525500713156,0.1279927233550548,54.50447369028668,11.533443770350253,-34.489830939877834,0.8448545295776767,-0.2274562951279963,0.21110723888629823,-0.43544093738656975
61.0,-0.0259183367270389,-0.033547351123495175,0.009862965741435359,2.0544565069838887,5.446893437645125,7.8786284071017745,0.21894893366198692,-0.16928540170756967,0.022862412031579328,54.51462374522202,12.092666023648768,-34.634028373164725,0.8441415614355732,-0.23238390066077236,0.2094495542472404,-0.43516281310870575
62.0,-0.02497417342140413,-0.035336861654438015,0.006685351215852743,2.147483770332827,5.46045535469233,7.845101641263975,0.18921342378277495,-0.8380632124494538,0.2729577973761733,54.71466816780415,12.653111162699211,-34.816469761495256,0.8425710864878964,-0.23779184683660545,0.20758836462699215,-0.43623007534345776
63.0,-0.021119000786782062,-0.036860149488591676,0.012325531077891423,2.1755481904012584,5.45296833202203,7.844681353265147,-0.028444630212431155,0.17538109756097564,0.04970987411487017,54.60284839693155,12.807859215184894,-34.77501598151062,0.8429898908501181,-0.2386776445936271,0.20679960928520846,-0.4354283917592445
64.0,-0.01725554494024203,-0.02399785508223747,0.0005078116218950185,2.081474748042411,5.442131439436514,7.87363099921322,0.051532293188715314,3.560134385186018,0.019236177456820654,54.33574519500955,12.246079905211495,-34.6260316562699,0.8447028767818178,-0.2331544996881346,0.20895670141218947,-0.43377371092301703
65.0,-0.014544247124498895,-0.025608950582593396,0.0028203420628676325,1.6385756996740475,5.412466833389532,7.987519800681879,-0.05316890524896032,2.0594306718556816,0.33227433872841033,53.32045276263534,9.621595060132629,-34.10091065340377,0.8512090347733973,-0.2086990260487524,0.21934131699776138,-0.4276205616464164
66.0,-0.020457607433217187,-0.025473830130006377,0.013591622644337041,1.4459975272563785,5.397955190888313,8.040550222921585,0.040451837698100485,0.5527748117342924,-0.06728016934547226,52.67879997002735,8.477430594582442,-33.85801581057285,0.8548447879713762,-0.19762769650421488,0.22413448920452583,-0.42351509265385323
67.0,-0.021806301749653444,-0.01957011726799296,-0.0034598928477764046,1.4112757109137912,5.39878483383912,8.050585890375036,0.08095565921096999,-0.9223488254467798,-0.08753465587651268,52.648015248585665,8.276972575025288,-33.82805393203702,0.8552130505317148,-0.1959363643142632,0.22508034331587423,-0.42340156086665914
68.0,-0.022240680379154026,-0.018203626690644792,-0.005106028249222585,1.520408115094976,5.402414446817277,8.03093810647784,0.1017189783072946,-1.1804358210632797,0.0450308624630025,52.9439033756697,8.925184753287626,-33.91224687160466,0.8536557666978002,-0.2019362831673598,0.2222450827122251,-0.42535072909579996
69.0,-0.021471956839384063,-0.019358266831516247,-0.002254317934884418,1.6119437825484242,5.402993125023416,8.01372829792814,0.028027003484320558,-0.6405737186692144,0.22712677025963807,53.06875398074257,9.464226822711776,-33.96441860083923,0.8527735930696861,-0.20667077818852797,0.21997635012339362,-0.42610374904332915
70.0,3.422501966954955e-05,-0.02850177025963809,0.0016837136113296604,1.4107145948072386,5.386628442171515,8.059111723052716,0.18476101494885916,1.7898099429583003,0.3465983969315499,52.25126130999213,8.2670227675059,-33.73508187450825,0.8568825657191186,-0.19470248568253343,0.2250792591221479,-0.42052151461664045
71.0,-0.012773406766325728,-0.031963021243115675,0.0068749016522423306,1.416210464201416,5.3997124311565665,8.051331628638867,0.003616738788355625,-0.45808172698662486,0.11847708497246263,52.17884047993705,8.306825334382376,-33.829101101494885,0.8569675877950431,-0.19523541588945711,0.22581943910700236,-0.41990397042486227
72.0,-0.020993312352478363,-0.03513571990558617,0.012442171518489382,1.5227354445318646,5.40070594020456,8.031987608182535,0.0981891719118804,-0.8762182828481511,0.0331272128245476,52.36784274193549,8.934047993705743,-33.8983231707317,0.8558149094994099,-0.20084650153245476,0.2231616856746656,-0.42107628776553896
73.0,-0.01142407553107789,-0.03535011801730922,0.01031785995279308,1.6390653029110935,5.413268292682927,8.000280094413847,0.16262785208497246,-0.727448859166011,0.06064122738001573,52.65362903225807,9.624685287175453,-34.05450432730133,0.8540056450763179,-0.20747261467348546,0.22068942850668766,-0.4228477776569631
74.0,0.007263571990558617,-0.030896931549960677,0.007219512195121952,1.7205617623918172,5.4220472069236845,7.975855232100704,0.11985641227380016,-0.5760031471282454,0.10941188040912667,52.82324940991346,10.10984461054288,-34.18079268292682,0.852820094242329,-0.21211286099449259,0.21911294580173094,-0.42380384542722277
75.0,0.031301337529504335,-0.037427222659323384,0.003390243902439025,1.778829268292683,5.429818253343825,7.9595381589299725,0.021602084972462632,-0.3856412273800157,-0.00208497246262785,52.97189221085759,10.451322777340676,-34.27170043273013,0.8518741491424076,-0.21543658732494103,0.21788294040519277,-0.42473156007081053
76.0,0.07283792289535798,-0.04550196695515343,-0.0027635719905586146,1.8225546813532651,5.427232494099133,7.95207749803304,0.0401185090479937,-0.33073367427222655,0.030738591660110153,53.09148308418568,10.708401357199055,-34.294485149488594,0.8512481188937844,-0.21770959049488595,0.2166019443497246,-0.4255089103453974
77.0,0.11249999999999999,-0.04575806451612904,-0.012233870967741936,1.840596774193549,5.423911290322578,7.950008064516123,0.12827620967741937,0.05201612903225808,0.014616935483870965,53.162499999999994,10.817590725806452,-34.30912298387097,0.8509101132903224,-0.2187177596612903,0.21596615733064517,-0.4260053080483871
78.0,0.11935877261998429,-0.03742073170731708,-0.021599921321793867,1.8672724232887492,5.4213674272226555,7.94641247049567,0.09436590283241542,-0.12240730723839496,-0.004381392604248622,53.1276898111723,10.977596380802517,-34.289733723446105,0.8509381365824152,-0.21986953435759243,0.21518725679642012,-0.4257438245977577
79.0,0.1471585012810426,-0.03959384393471728,-0.02343685065262564,1.8636896649115375,5.415228792188664,7.948294221186627,0.06584959223506627,2.130651055851439,-0.1454741433658133,53.03406823064819,10.946801964181242,-34.259987183269786,0.8513791587129405,-0.21929757038040915,0.21522895344856158,-0.42507513190940405
80.0,0.12367199257600517,-0.04218805099961671,-0.01584342532631282,1.6734980582622203,5.407428912223363,7.994078562206218,0.07911935256914604,-0.18046580271944168,-0.23490945071516472,52.66108653467893,9.831843522413202,-34.06409137389296,0.8538347599250184,-0.20908866452891428,0.2196768447202485,-0.42284362332970205
81.0,0.11851341564284126,-0.037658541628840615,-0.01811122879218867,1.6615837065504648,5.40125881095039,8.002527184328912,-0.03949778339284633,0.5613800018660855,-0.22000008826080814,52.63576000121043,9.751682849916278,-34.001324920817446,0.8541265572649286,-0.20820676172816682,0.21969225286818878,-0.4227752367938832
82.0,0.10618412717625936,-0.0368010450079687,-0.0158217434283524,1.7694491113397486,5.400435857088096,7.980263592164454,-0.015162198148036068,-0.6383372168088927,-0.20107867316266215,52.816065484476184,10.395473481409752,-34.06900923460228,0.8529277379429481,-0.21384909592053503,0.2168566048413524,-0.42383952871952224
83.0,0.098653057495143,-0.03317226421990113,-0.02159447554196242,1.7938434512474273,5.390908832977473,7.982038278800468,0.06713060476657627,-0.37874276261373035,0.0055567377421278374,52.73331337642102,10.536902134187393,-34.0136731899321,0.8532783046012656,-0.214610797920105,0.21596369330672088,-0.42325808169430806
84.0,0.09401517343621618,-0.03214149072982533,-0.01691740792340943,1.812327019254814,5.383377138927588,7.983833744150324,0.20268381827599757,1.0480222734254991,-0.08576145152359518,52.58264097274318,10.642479928017718,-33.96622230334369,0.8538714313157574,-0.21499800554223375,0.21544144740959342,-0.42216022352173754
85.0,0.09223512128032008,-0.031693057192869654,-0.018775140213624836,1.8020093237595114,5.374595059479154,7.991688761476084,-0.025261393473368338,-0.3126032066052228,-0.012419176222627084,52.39611119297681,10.58672335494588,-33.90051586557354,0.854744890161335,-0.21393582834158537,0.2155514945851731,-0.42086177721901
86.0,0.09737850534062087,-0.034718456399814246,-0.027498169185153437,1.7922673346908153,5.37273838995463,7.994839004393954,-0.143826693280463,0.04931835637480794,0.1789934648840782,52.20405358035937,10.529231973171864,-33.8811719112814,0.8555283496618888,-0.21304172320036258,0.21603101371443753,-0.4194624064553191
87.0,0.10316781285913812,-0.041322151095265124,-0.013779080658666416,1.8657731244657856,5.341172401114216,7.998478609199336,0.0875513956886434,1.8966177737814245,-0.008363589155128498,51.89229896759905,10.963117412628417,-33.71327293931496,0.8567649164805313,-0.21518327149622768,0.21338921608312356,-0.4171477438506925
88.0,0.09203401895770111,-0.04599115806826272,-0.014446929676670044,1.732556479712263,5.320932037016222,8.041069012026526,-0.20617272676182982,0.6624217901165188,0.01509333670525646,51.418500384024576,10.176044827844592,-33.47005544940242,0.8595130348231614,-0.2071928967511146,0.21608669628912364,-0.41409444458926226
89.0,0.09677700348432058,-0.04967985463264772,-0.011048255966430633,1.8402914840208313,5.270830654527742,8.048352965419056,-0.3971397193810648,-1.8795366415645725,0.5493965662582893,51.47149858566558,10.821747030834363,-33.1988076505189,0.8594907468657975,-0.21131834995942453,0.211035839570979,-0.4145931511073395
90.0,0.09816960773294371,-0.03870705481248362,-0.02043580233037354,2.0472809186617216,5.231863099921322,8.023550522648087,0.24543455659210967,-1.1635586433629312,-0.15082495035779847,51.5111189164887,12.059875051515492,-33.08668301112735,0.858731156516616,-0.22060506239522684,0.20442665624862316,-0.4145767715982166
91.0,0.09689867371023941,-0.03322355850286614,-0.026888127084035828,2.209367670750441,5.257851953842119,7.963588138323779,0.27716891929863996,-0.7910387630662021,-0.279369918699187,51.81957155501854,13.029007319883107,-33.41728016934547,0.8561784184662433,-0.2299560380629425,0.2016152482123562,-0.41618509674615034
92.0,0.1028277790266382,-0.028360795773856366,-0.03666200217301713,2.341178721291821,5.275757605559926,7.914943557753549,0.19810943997976846,-0.8676427096212207,-0.09057008916863363,52.124705132347984,13.816347680397886,-33.66486549773332,0.8539005159876457,-0.23755614786624707,0.19900867627061555,-0.4178902619230359
93.0,0.12455501854557714,-0.030664268854670124,-0.0375648720542505,2.3845530703233297,5.26627799632835,7.910625004683226,0.004372260312464876,0.41227239518938963,0.04433189089955415,52.12366809036754,14.070598235360233,-33.628400490802136,0.853810033231726,-0.2393905324169945,0.19757459369982386,-0.41784080801393725
94.0,0.11935461391480276,-0.03280499044621784,-0.03517267992956428,2.4342057247761417,5.269758195646473,7.8939348469521535,0.020080504664493647,0.23604375070248396,-0.03580514030946761,52.06419930875576,14.369248763628189,-33.69954151212019,0.8536063945025664,-0.24189842528088118,0.19680794721261843,-0.41721963415803076
95.0,0.11278560188827695,-0.031178992918961458,-0.034529504327301355,2.463433123524784,5.261744689221084,7.890212431156567,0.03822285601888277,0.28232199055861523,-0.03608133359559401,51.93901209677419,14.548982100708102,-33.67071449645948,0.8539809617313139,-0.2429360261726986,0.19601778512627852,-0.4162337595605822
96.0,0.10478225806451613,-0.02700806451612904,-0.03504838709677421,2.4745403225806455,5.246508064516127,7.896935483870967,0.05635080645161291,0.328125,-0.05378024193548387,51.76023185483871,14.611794354838711,-33.57565524193548,0.8547918502983873,-0.24275035257258065,0.19539351918548387,-0.414979848217742
97.0,0.11030664830841858,-0.03363217938631001,-0.028757474429583013,2.4259144374508264,5.208012391817465,7.936709087332808,0.019865017702596383,0.7631687647521637,0.04169699055861526,51.452660306845004,14.319812155782849,-33.252829956726984,0.8568680460121952,-0.2386924437743902,0.19509073482199055,-0.41312876169610546
98.0,0.11107555917725077,-0.033602956052602016,-0.030482615863024996,2.39227576711251,5.212897708965569,7.943848591285451,0.01159701537971601,0.22332065349743366,0.03338689773706492,51.28713084466674,14.11565924609419,-33.254520777134616,0.8576317850986476,-0.2368626893305515,0.19641073756633323,-0.41198985632213103
99.0,0.11683888611525703,-0.031112618311372284,-0.03188946997202263,2.4128216795052424,5.21057291674835,7.939846932551954,0.08354079482414156,0.37691081905929447,-0.028532896780379756,51.18460185331612,14.240729449566224,-33.254774102933396,0.8578927088717169,-0.2376540770520912,0.19603958410368427,-0.4111976509457617
100.0,0.120407641326708,-0.024899542829958373,-0.036171426567443266,2.4430612134741,5.2097349241491555,7.930407337243718,0.17185251778972616,-1.0068349622248767,-0.09353535574660214,51.15718831847552,14.42881033847312,-33.28415460654144,0.8577602842557838,-0.23916020714494804,0.19541458385229452,-0.41089935768255825
101.0,0.11554341547059238,-0.027436789510966605,-0.03941714522707333,2.559822699577333,5.208489413294091,7.891980320864188,0.005150786825626252,0.570402345795508,-0.1036790665436394,51.26485067477671,15.131537348622869,-33.40956291991116,0.8564511915426241,-0.24519614392328046,0.19263776617496708,-0.41124496509855685
102.0,0.10371041366613429,-0.03384521653061351,-0.03236096480566135,2.5370120578925217,5.220526037432702,7.8930895572325115,-0.007212550088741703,0.37825103052766673,-0.006408723260954603,51.194734495906204,14.989811422803434,-33.46194913819918,0.8567235600156268,-0.2442370552352156,0.19389929733741795,-0.4107361507816414
103.0,0.0959949917793037,-0.035674528388194626,-0.026226565352139432,2.500487595766537,5.205777611650298,7.914421122702277,-0.14411126736387928,1.0066178347722818,-0.0820254061773283,51.034243208014544,14.774235588513854,-33.31654004529007,0.8578385398657242,-0.24170885329733127,0.19425832201740328,-0.409760304630452
104.0,0.08731482522198494,-0.0360031471282455,-0.017612303772807317,2.4099089580757553,5.167350043085685,7.967461691206773,0.11040004121239369,1.0056784121988684,-0.16701790865834923,50.72344376381552,14.222973099546664,-32.94855943951144,0.8602123233168484,-0.23555114341425948,0.19485231408227494,-0.4080502797474805
105.0,0.10523884455434418,-0.037081038552321026,-0.01696901577310704,2.3463628189277284,5.133659285901615,8.008435802330373,-0.299810797647147,1.225326420890937,0.03465587651268219,50.40138061518864,13.83714547974973,-32.63547169457869,0.8623658778228618,-0.2308594061170432,0.1950536903731595,-0.4060741730759432
106.0,0.11329290772170397,-0.031479937057435105,-0.01876774942864636,2.262625154546476,5.112893372297776,8.04590948259713,0.1437069143156869,0.25151057472556293,-0.1502074669364205,50.146987514518,13.33716538346259,-32.414775579783445,0.8641706161506126,-0.22569652186497322,0.19628520479397552,-0.40457137377085906
107.0,0.10978674459555654,-0.035484358023303755,-0.024208909370199694,2.320348769248061,5.13593555880259,8.014802367839346,0.1602850680004496,0.3024481566820276,-0.03803950769922445,50.14895165973549,13.682060432355476,-32.630921237495784,0.863400778064254,-0.22922253342152785,0.19624017739043126,-0.4042586742916714
108.0,0.10445558427934508,-0.03803019744483161,-0.022465437788018433,2.2907465812446146,5.1511398224120475,8.014451875163914,0.37946569068225244,0.26328725038402456,-0.13485116706005768,49.94426749653441,13.502848572552546,-32.70896580307969,0.864098961125061,-0.22775251589663187,0.19806089140642913,-0.4027266513048219
109.0,0.11336450488928851,-0.04215023790790905,-0.020291952343486568,2.2406870668015437,5.169302068112846,8.016524015585778,0.2100685858529092,0.7547035985912854,-0.13410302161777377,49.81842908190026,13.205675016859615,-32.79331176707504,0.8646096817097336,-0.2255058527075981,0.20030264607431342,-0.40180405270703606
110.0,0.1061885009579921,-0.043515058207060496,-0.01875282300540292,2.227553750589215,5.169404661487668,8.020493541286019,-0.04604044222074681,0.42495382937633364,0.06211740489564899,49.64257890338221,13.125727377238473,-32.77954886287992,0.8653180378404852,-0.2245372127937017,0.20093768134594123,-0.4005089133401427
111.0,0.10439204748922422,-0.04450103815152397,-0.016083236837083834,2.2259545896927193,5.186132012097099,8.009898127842067,0.3549787708251104,-0.10301900387988988,-0.3948055284727105,49.59017160649047,13.117498941372972,-32.89816410984279,0.8652489638229768,-0.2248319180002143,0.20196268756527982,-0.39998734056985497
112.0,0.10864763664783791,-0.038985373521080634,-0.024056567277707927,2.277009552910876,5.187649011556022,7.99455567289035,-0.35319511498083583,-0.04691174426881983,0.21209271176679187,49.615133993646495,13.424947346374921,-32.958302157203065,0.8647862829461068,-0.22750466126210558,0.20090278545848572,-0.39999245493874336
113.0,0.1043430195527976,-0.04424927425906331,-0.01685547257894613,2.2830755551391197,5.138374310811686,8.02435186456759,-0.09979264197582498,0.9251014509188809,-0.04162217182545436,49.332283040188486,13.455607387591336,-32.615145628406566,0.8664880079592285,-0.22597351390796405,0.19879906287074117,-0.39821996981133073
114.0,0.09693034234168298,-0.045512501952880355,-0.008397782372422375,2.1965900049121094,5.096256279829808,8.0751021995649,-0.31522850224751303,1.0958072538772592,0.009622861859930266,48.969919361876116,12.936948279049123,-32.23791075583155,0.8689759906631782,-0.2198750990376994,0.19909193673644585,-0.39602071549783124
115.0,0.09821715184893784,-0.04532481994795136,-0.010970889063729346,2.140117775222417,5.076521091811415,8.102983921402489,0.17789798059270917,0.024897113115051828,-0.08273694244386613,48.770182472916545,12.602446085254897,-32.04858984445924,0.8703326073417257,-0.21621370722967986,0.19959617099360488,-0.3948091110061934
116.0,0.0989315499606609,-0.044597893844943434,-0.012062942564909522,2.206691460388549,5.048512316165344,8.101566704997076,-0.1906536847626541,-0.04031501543303269,0.03898164679537614,48.67794627186346,13.004901248764348,-31.904433592567933,0.8706531278486755,-0.2186939366203474,0.19694771018995746,-0.3940799980916097
117.0,0.11105844666741599,-0.04891428542608718,-0.0116605222734255,2.2187029667159486,5.057225323719031,8.09375982396832,0.09398205387583827,-0.0358381210318661,-0.05401944223492217,48.621770942308416,13.074962191951768,-31.971196742707853,0.870650555216159,-0.21939050204645183,0.19725596615788382,-0.3935718266414363
118.0,0.10937018357376802,-0.046468799473387536,-0.012870771264244633,2.208404804380538,5.069386797701168,8.089118740922164,0.24310255481988963,0.234374782175509,-0.1468107050172822,48.56591136705126,13.016947717438942,-32.04921283266156,0.8707244558276342,-0.21909892246416307,0.19821133155327203,-0.39308990715513836
119.0,0.09841817597256458,-0.04262198824967568,-0.010581530400021608,2.25080242185982,5.064973394916674,8.079719677306088,-0.08969478867974834,0.495672589750225,-0.064059242162457,48.47008011802602,13.26779353810578,-32.055456263891756,0.8708402932433803,-0.22093909053027191,0.1972955956729775,-0.3922686345937966
120.0,0.10089437516173468,-0.03748644652452314,-0.015134982351859741,2.2292753258000904,5.029708569999643,8.108124984207725,0.09885834916917384,0.17540317135032882,-0.006842760341653365,48.295538682144404,13.136434141200805,-31.790031436430535,0.872110909982823,-0.2186646506065994,0.19622381861540297,-0.3912526278201084
121.0,0.09606402471698064,-0.034035119407029475,-0.017677640664521533,2.241868190044026,5.003723679177636,8.120754860317865,-0.25914674988433517,-0.04984758820367115,0.12271453643027483,48.116062023999035,13.21421923425107,-31.6200353877668,0.8730161081527017,-0.21834575789338626,0.19494855911887382,-0.39004587642854355
122.0,0.08268301831555448,-0.03580694563884876,-0.01582226044315957,2.2275642325215443,4.972412493367244,8.143765557242968,-0.052361604120542304,0.4405444348892101,-0.10354440744332426,47.916179006641904,13.130433256179899,-31.388772002451834,0.8742612569175708,-0.2164958329493532,0.1940159053643899,-0.3887427994490512
123.0,0.09776750590086547,-0.030534618410700244,-0.014357985837922894,2.2925712037765535,4.926852871754523,8.152613296616835,-0.0158708693941778,-0.3920043273013375,0.15196203776553893,47.79300993312353,13.520375196695515,-31.127343135326512,0.8748918535334383,-0.21843893632061373,0.190590954736428,-0.3879265110594021
124.0,0.09530782848151062,-0.030373524783634944,-0.018630605822187257,2.3639606608969315,4.8959834775767135,8.150551337529503,-0.15843209087332807,-0.13136309992132178,0.08352920928402832,47.62754843627066,13.9478842938631,-30.97267530487805,0.8754235953229741,-0.22095183692505901,0.18787111498426434,-0.3866326835509441
125.0,0.09940194499844476,-0.039864838160759704,-0.015842497209668273,2.4013456717838,4.928603329185956,8.118809520977804,0.03750082909446874,1.2551701473386638,0.2256050960148574,47.519008534526925,14.176394908559455,-31.244010078358002,0.8750022138510969,-0.223487829815399,0.18901530925976157,-0.38546333929375787
126.0,0.10345097249922239,-0.04381951585457341,-0.014824474411285746,2.2679147713757706,4.96541053556072,8.133916857263095,0.25365464841820207,1.667428823669332,-0.2807206374764422,47.06582987210217,13.369724672021665,-31.38231249885642,0.8768944518932904,-0.21687143389157051,0.1944824530290743,-0.3821434972718789
127.0,0.09419362157612575,-0.042586390500064054,-0.002284778511701096,2.1453460560262014,4.955203300825207,8.174375423124076,0.34763279234442757,1.1683770790258539,-0.13111562951713535,46.72091650961521,12.634857418622948,-31.201866320238594,0.8790169918364956,-0.20985989658543908,0.19695986930682668,-0.37993302476025104
128.0,0.08269869906501015,-0.0419084588220226,0.0008725596033154642,1.918726529193274,4.951157118547928,8.231719576235523,0.04346136076702101,1.4699822059173329,0.042713231661573925,46.07744782994529,11.283056168005416,-31.002457550363197,0.8825145586664775,-0.19726745265227894,0.20227845348189483,-0.37559559480734817
129.0,0.08501575393848462,-0.042914103525881486,-0.00255663915978995,1.812028882220555,4.953655663915978,8.255696924231056,0.08955129407351836,0.00032351837959487817,-0.009534414853713428,45.67516175918979,10.653664197299324,-30.94547543135784,0.8844178986282822,-0.19130403825768943,0.20516585692348083,-0.3727447945956488
130.0,0.0861573564122738,-0.04219571203776556,-0.0016939417781274596,1.8281831235247838,4.923682533438235,8.271816679779702,-0.018030832022029902,0.6835980527143981,0.04060655979543666,45.57135006884343,10.742733330055074,-30.74018243509048,0.8851600461961054,-0.19115437601986626,0.2034944853237608,-0.3721212917199055
131.0,0.0789565583904687,-0.044544668614888934,-0.00799443632685175,1.789219633959013,4.9132763665655075,8.287123009628717,-0.028335452493349816,0.5452312460192574,-0.017447536154509016,45.32811095032034,10.513221743752576,-30.63899002706905,0.8863226024630682,-0.18852342528854293,0.20410140582355474,-0.37039540332923077
132.0,0.08874517627664755,-0.04765923906934924,0.0003964070285864133,1.8652674590686003,4.871872438275073,8.29434625903863,0.09098660363043723,-0.5793105002622607,-0.10716006800044958,45.304766880690124,10.971161803135889,-30.405088091491514,0.8865678301852591,-0.1913703525544097,0.2005181110500262,-0.3702906484299763
133.0,0.08373824510134502,-0.04683876587613805,-0.007663126147390509,1.8754571953092807,4.91252345359859,8.267580289236072,0.3524618551197033,0.753276619459743,-0.27667085815443404,45.35116700151736,11.024431339215464,-30.69465409688659,0.8857779936855683,-0.1928357860806077,0.20241646798577237,-0.3703856574280094
134.0,0.09022741748154808,-0.040413622569405436,-0.0037267243640178352,1.8662938818328274,4.8997459817916145,8.277426473343072,-0.22742450638792103,0.556971451050916,0.0108557191562699,45.14318262710276,10.972010696489452,-30.59722144168446,0.8866913646910946,-0.19173536983177847,0.20224808172080477,-0.36887605228466525
135.0,0.08885879135289049,-0.045727661009329006,-0.005456595856281145,1.7829746356449736,4.90471406091941,8.2917179573639,0.047809186617211785,0.7122927672249073,-0.17278319470982728,44.943704806863735,10.47645578097486,-30.58384380502791,0.8877005164596306,-0.18731410435806078,0.20445146038203887,-0.3674564033406017
136.0,0.08872279045371098,-0.04631621145704547,0.0009429770334569705,1.6797745682065113,4.877806339215466,8.32870844104754,-0.13546560638417443,0.8288086339964782,-0.08175930088793976,44.67015309467611,9.864595978045035,-30.33574870742947,0.8894781297351917,-0.18107592024738675,0.2054250464775018,-0.3657101687056311
137.0,0.0963583230302349,-0.04581555580532766,0.0034015960436102055,1.7445685437038698,4.8099669176876105,8.355540856468473,-0.2978115282304897,-0.2252126184856318,0.046677953242666076,44.661761455172154,10.252310469821289,-29.903545436664047,0.8901542509505452,-0.18274098585718035,0.20064146241309805,-0.36590673737892926
138.0,0.10221198156682028,-0.04072427035330263,-0.007149001536098308,1.8039239631336406,4.766264976958524,8.367903993855606,-0.2943164362519201,-0.06309523809523807,0.0033170122887864854,44.61243279569892,10.603912250384024,-29.64336117511521,0.890609951559908,-0.18462581094009214,0.19732791166513058,-0.36566680576881727
139.0,0.095142089093702,-0.042666282642089104,-0.0008709677419354834,1.779846006144393,4.708946620583717,8.40617549923195,-0.15611079109062978,0.607925307219662,0.09687259984639017,44.431480414746545,10.458014112903225,-29.233546947004605,0.8921288456916284,-0.18176763821198155,0.1950953308364055,-0.3646173808260369
140.0,0.09741256742757118,-0.04103972421676849,-0.015086271567891977,1.803102204122459,4.676492158753975,8.41889954631515,-0.1933228842925017,-0.08014391990854858,0.13122477047833386,44.17633426213696,10.593421792948236,-29.026929723502302,0.8932548408912944,-0.1817796659221948,0.19337229880773765,-0.36276564429589536
141.0,0.09127924838352444,-0.03930250419747795,-0.017113028257064268,1.8293928839352693,4.642527953416925,8.432157146429464,-0.041745927553316894,0.1085215500303647,0.18840424391812238,43.84407150894866,10.75137199478441,-28.815956221198157,0.8946267097620834,-0.18176140681670416,0.1916668610897367,-0.36030822690601216
142.0,0.09457109922079823,-0.040947662873906644,-0.012429074167496579,1.7938323866680954,4.624841868132538,8.449512783248078,0.06173856726376716,1.5384847409587588,-0.13424449862465615,43.64287037569496,10.537262582196071,-28.674203149001535,0.8956880382539013,-0.17917265439445224,0.19172541210934702,-0.35890801657222227
143.0,0.10159430537076779,-0.04582329380254474,-0.008756779787281316,1.6650114314292856,4.621633683682244,8.477371598997312,0.20408836965338897,0.5147300816928971,-0.24216545207730505,43.44864332916852,9.777751874815394,-28.580501152073733,0.8969739585125113,-0.17236403883317084,0.1942284547221082,-0.3576559911394138
144.0,0.11143079323837926,-0.043088298206955936,-0.016997437512688278,1.7994066373736286,4.588236196679832,8.466681191203724,-0.27977225142522566,-0.8779796212119231,0.31896143678776834,43.42423045874709,10.5763279343355,-28.432027649769584,0.8967862404006488,-0.17834637073378967,0.190063457203604,-0.3573643361457438
145.0,0.10428628934237044,-0.04442862022125742,-0.016319423932638213,1.9533379773514803,4.614639478685001,8.417290333036224,0.34743101607283355,-0.2916482877252414,-0.10174865144857642,43.51190892779815,11.488323382021463,-28.71052807844818,0.8953116959992742,-0.18681530970297885,0.18848461121995655,-0.3575612157322867
146.0,0.10926296033938797,-0.04274042378190368,-0.01388551841793201,1.930347944128889,4.6569510757480295,8.399474659605668,0.4901277584204414,0.6401541587487465,-0.0900448326367306,43.30868583870706,11.353200669505355,-28.98453631264959,0.8955010491478704,-0.18626448795056777,0.19144107297556967,-0.355781857735575
147.0,0.10085342764262495,-0.04427624763333692,-0.016409995355981852,2.0615795020183616,4.7046040081448925,8.340822527060336,-0.33717357910906287,-0.7755778230271854,0.2032014700103597,43.49682844818347,12.14202992712464,-29.407158709320186,0.8934548255392418,-0.19436192633694138,0.19116123143589467,-0.3566755849346265
148.0,0.09726722185772926,-0.04121768246939786,-0.013907387996824989,2.1802297307776426,4.687574193199868,8.321194580003885,0.4768016372560039,-0.6812539371776742,-0.2516755332125714,43.50012887041447,12.85298442424195,-29.375817304718165,0.8929654360919019,-0.19995418541154886,0.18812184660579345,-0.35651422874424177
149.0,0.08666120161774565,-0.037822004415604044,-0.020987133677013464,2.2229498529818734,4.756158596068207,8.271828236474825,0.6887324090805602,0.34434733130481754,-0.37872718229812075,43.670802131650575,13.101286168164929,-29.875757597768512,0.8912287316974338,-0.20389132301210788,0.19062546755286716,-0.35735725793705064
150.0,0.09497315430438953,-0.03734632532429544,-0.0160104817815282,2.189396728369978,4.768348651086653,8.274466256271921,-0.16614646827077983,0.882984180781191,-0.2649929895700942,43.63123841802048,12.902182977984513,-29.932736888406634,0.8914209087008584,-0.20240007477115593,0.1919176258214091,-0.35707419912070626
151.0,0.09272467239029,-0.032144744843407326,-0.011872368386923854,2.061445676012946,4.701048365481883,8.344871376983885,-0.052303264857356146,1.098798157978921,-0.11987168679733587,43.27529662836508,12.132087072709615,-29.37571464236,0.8942421370309207,-0.1937546248356548,0.19133815166646495,-0.355028504184009
152.0,0.09525250516595912,-0.03290800990250245,-0.009200393102832128,2.0123472619696066,4.725435857088101,8.343891141640945,0.2246884213347628,0.41631056132433003,-0.10126648855995826,43.218869512339225,11.841125141577542,-29.506141691379693,0.8943939594524802,-0.1917587827941715,0.19361828957747207,-0.3545695993116666
153.0,0.10649485997873094,-0.034155027767931,-0.010096656032139904,1.9555386978612788,4.7099917287014055,8.366851943755169,-0.3684730591988657,0.7982172397494978,0.05815904525581945,43.04416134940328,11.49921127259837,-29.352770885028946,0.8955073190008269,-0.18822722038449724,0.19409926547323642,-0.3534154670736146
154.0,0.10515975422427036,-0.033035330261136725,-0.01066205837173579,1.956235023041475,4.7189892473118284,8.36152688172043,0.48270929339477725,0.045727726574500804,-0.31022465437788016,43.094201228878646,11.506269201228879,-29.42298387096774,0.8952096493440855,-0.1886116367265745,0.19453907837019965,-0.35375508696774194
155.0,0.10059447004608295,-0.029079877112135184,-0.016376344086021503,2.058729646697388,4.725556067588327,8.332118279569894,-0.20364823348694322,-0.2849654377880184,0.0063748079877112285,43.206096390168966,12.11858678955453,-29.545228494623657,0.8941501032749614,-0.19409731932258067,0.19283641291397852,-0.35432779571889406
156.0,0.10934254992319506,-0.03138863287250385,-0.022771121351766514,2.093548387096774,4.751621351766515,8.308925499231952,0.4751296082949309,0.09749423963133641,-0.23830165130568354,43.310699884792626,12.325307219662058,-29.749519969278033,0.8932546586597542,-0.1966239030752689,0.1934034727872504,-0.3549275529554532
157.0,0.10282140047206925,-0.029873721479150284,-0.02272974036191975,1.977895357985838,4.763277143981118,8.330360149488593,0.18229863296616838,0.9256859756097561,-0.009518833595594023,43.072217987804876,11.633455448465774,-29.74521784028324,0.8945111990489771,-0.19063413598426437,0.19650471064693156,-0.3532797822498034
158.0,0.09769564647259377,-0.025424187928515238,-0.019666713498932224,1.8863052058746397,4.723997442958301,8.373987870443221,-0.06650357330186202,0.7734228649170132,-0.06387640028474018,42.74987987523885,11.083401591360381,-29.407735168221496,0.8965844099263702,-0.1845466179783073,0.1966038139457776,-0.35119497386261295
159.0,0.10496780750065565,-0.02629509947173205,-0.01681929302011914,1.890825203252033,4.694382376081826,8.390155913978493,-0.23626860411749276,0.4891731997677119,0.1661526240118392,42.535525844385745,11.112779178843056,-29.202581687179197,0.8976503471110018,-0.18375418484969652,0.1952984280526488,-0.3496646964407478
160.0,0.10512503278258586,-0.028994323929414416,-0.012833033606833761,1.8664287306582743,4.7067153815893015,8.388400537634407,0.5446429156831891,0.2656047450451463,-0.011404534768273938,42.293947397999325,10.966394629744109,-29.275055964557342,0.8983435126321138,-0.1824153143159773,0.19681234366745343,-0.3477629856316642
161.0,0.11118751639129293,-0.029182645835674953,-0.013311678093739463,1.7952425911355885,4.710821400472069,8.402301075268817,-0.05219971151324415,0.8036693080064441,-0.20623150125510473,42.13729627964482,10.5421438874527,-29.25093524034319,0.8991579740781537,-0.17859375756524673,0.19853097370469447,-0.3466632838843805
162.0,0.10823341201153945,-0.02909879734742049,-0.009394627402495224,1.7266275898242855,4.692859952793077,8.426836611591924,-0.020567794387621293,0.8616890993218688,-0.195218425686561,42.000994717320445,10.134589843018246,-29.089373993106292,0.9001700582837661,-0.17450035818230863,0.19902334910254393,-0.3458263813229927
163.0,0.10787490165224232,-0.02440047206923683,-0.013999606608969317,1.6953627065302912,4.697175452399685,8.430647521636505,0.09894767899291898,0.7699031274586939,-0.20443302517702594,41.83129179779701,9.951339988198269,-29.102495574350904,0.9007773026817467,-0.1727514861699449,0.20006948463453972,-0.344529511265539
164.0,0.10349891349143907,-0.02245088231988312,-0.013042851522985276,1.6620524896032371,4.696419204975459,8.43786038364992,-0.007058559064853316,0.20542358613390282,-0.1733523823573489,41.84859614429958,9.755036166217078,-29.07406797937507,0.9009084880110991,-0.17110128212772094,0.2005694926514649,-0.3447432638319752
165.0,0.11967038514855197,-0.031110767674497036,-0.012288833314600428,1.6535234910644037,4.684677147727697,8.447008870031098,-0.08830750533887827,0.35803793881832824,-0.12007078696939044,41.889766330411,9.697318560095162,-28.9879898069574,0.9009925069728,-0.1704475602597692,0.20005348746528795,-0.3451591991466131
166.0,0.13372691169308007,-0.03534708328650109,-0.013090030347308084,1.6588008879397549,4.6719267918024805,8.452889859877862,0.04095393812521075,0.20264578884268103,-0.08421787774905398,41.9051408363306,9.732262864823348,-28.91052285882882,0.9010808676899797,-0.1704878110250459,0.19929001390829307,-0.3453462179963003
167.0,0.1309763590723465,-0.037463864223895714,-0.013415982915589524,1.7041020568731033,4.6758666217076925,8.441150575100224,0.2001896706755086,-0.5743827507399498,-0.09901418081001087,41.95990408752014,10.0053955453149,-28.964081993930535,0.9006264985828931,-0.17298241016574875,0.1985849147726949,-0.3456800648650856
168.0,0.1424393990483684,-0.0371701697201304,-0.016102169270540635,1.7774640890187703,4.697610730208685,8.413356562137052,0.4280846071709564,-0.34767524633771685,-0.11849804241129969,42.0770704544603,10.443492422539432,-29.160370068562436,0.8995819175723279,-0.17737012775006555,0.19826036266172115,-0.3463407957330935
169.0,0.12780802517702597,-0.031541306058221884,-0.01998426435877262,1.8406490952006291,4.736825334382376,8.376552321007082,0.3175993312352478,0.08248918174665615,-0.1330153422501967,42.11545535011801,10.81999409913454,-29.46978756884343,0.8985728339866246,-0.181503284332022,0.19917082512195122,-0.3462929767175452
170.0,0.14443823760818256,-0.02493981117230528,-0.026581431943351694,1.901429976396538,4.765664437450827,8.346890637293468,0.22613837529504327,-0.17723003540519278,-0.12586054287962234,42.174082907159715,11.178894571203777,-29.714471872541306,0.8976667243001575,-0.18530969301573558,0.1995786321557828,-0.3464069914162078
171.0,0.14997379266419394,-0.021544687347795143,-0.02990212056498446,1.980797038327526,4.776349509197857,8.322136825147055,0.1729208230302349,-0.48632983730470947,-0.04661039769959912,42.2011740263572,11.652127589824286,-29.846662381514363,0.896972956944204,-0.18961850915763737,0.19867329058652727,-0.34639139938368735
172.0,0.1542207672998389,-0.020332827544865317,-0.03292686673410514,2.0588702933573115,4.779920722340864,8.298649057734815,0.14455012925705293,-0.21687963639429023,-0.0545047956239931,42.19960415027538,12.11457185942827,-29.939208206886217,0.8964254087180695,-0.19367611571591548,0.19748147206745714,-0.3462592364660373
173.0,0.1664961892945764,-0.013682825239276854,-0.04236399621883495,2.1141168025522865,4.792726101855136,8.279127732482568,0.02718450903934775,0.035375494800898036,0.0014777561148528913,42.12256642886683,12.444773573200992,-30.05289015420064,0.8961651413258889,-0.19660269798626373,0.1972343907746957,-0.34543458741315136
174.0,0.16220373980857855,-0.011458348103509396,-0.04080296585135297,2.1586148528890456,4.794080792863051,8.26757999527354,-0.11619605193193903,0.18485004578754577,-0.002537331619992909,41.97184269023987,12.709533964019851,-30.094892657745483,0.8963387126145574,-0.19861577886813184,0.19675687876234782,-0.34409980299689824
175.0,0.1646226212811579,-0.010584012761432119,-0.043543693783268944,2.1971467262084885,4.78976236732059,8.259650933907421,-0.12229513945928186,0.19184292710305692,0.004555365464590485,41.84305708961246,12.940657152151545,-30.094264164238595,0.8965271150987815,-0.20027761957371976,0.19611552621093398,-0.3430155222558252
176.0,0.1603739534789889,-0.005869822873166697,-0.04742984022271987,2.228218468195848,4.7825653281284675,8.255994774960156,-0.21572741405919021,0.7385186873348262,-0.010004078910205974,41.65206798225705,13.128811889739556,-30.071647602332103,0.8970014251208567,-0.20135887905655753,0.19555567838992619,-0.34145301252772897
177.0,0.15359135461967877,0.0032822544620341636,-0.053253898605983604,2.223433542853684,4.759158816137965,8.270578032641367,-0.5614675376747564,0.1547972180913762,0.013696357242285647,41.515714530683056,13.101580724055644,-29.90064714986037,0.8977773208543991,-0.20036380971376266,0.19461795019515513,-0.3405283563544943
178.0,0.1496244614289461,0.014303894571203776,-0.06464065602637595,2.2473973811397094,4.7040807669251805,8.295707307706717,-0.23433326074332173,0.8049036309055486,0.15425453570491926,41.283937703720355,13.244331364036565,-29.53637462065865,0.8990866989330486,-0.19997390577026905,0.19167497702715336,-0.3389537063445637
179.0,0.15235097973099548,0.022037765538945715,-0.06178187403993857,2.1570844104754405,4.638954329174627,8.355670825371849,-0.1336663107414484,1.041357573713986,0.0025593833127271343,40.83666544902776,12.705720092915215,-29.017941440935147,0.9018797658072009,-0.19323258034018959,0.19055344338503616,-0.3359714764737178
180.0,0.13800082424787383,0.02576081825334383,-0.0618932973661534,2.128432055749128,4.659322168521226,8.352578921733915,-0.11892304522123562,0.5943904312315013,0.029382563410887564,40.56058783859728,12.534006781312053,-29.132544677981343,0.902608035005882,-0.19171447070353304,0.19258078808354878,-0.333781108730958
181.0,0.13194297703345698,0.02423760818253344,-0.060970252144917775,2.090856468472519,4.6511244988947595,8.36668678580795,-0.3025280056948035,0.9336773163238544,0.07328195833801655,40.2469048555693,12.307768536210709,-29.049405698550075,0.9038664949262298,-0.18908048910471698,0.19329955596545656,-0.33145077137570716
182.0,0.12063047469184371,0.02780544003596719,-0.06270555617998577,2.0605296167247387,4.631221235622496,8.38519823161365,-0.34279626091191784,0.8735350867333558,-0.014717507774156084,39.972569171256225,12.129585112959425,-28.888604538983174,0.9051277532864633,-0.186671373810423,0.19317725253879586,-0.32945533749046496
183.0,0.12072533987155326,0.030195185991619865,-0.06326754249537996,2.0535514335901053,4.606940771778311,8.401106599820686,-0.26208653916527913,0.49116339679432053,0.038271515287358435,39.72124957687593,12.086270024060894,-28.714481421422427,0.9062375329290888,-0.18537606916854518,0.1924025026042852,-0.3276027906178435
184.0,0.12680079514652184,0.03454515959129156,-0.06264441153842469,2.10207113472619,4.574288077245792,8.406033049638715,-0.5259493240579308,0.10255713019064874,0.19735477341678626,39.56483102836903,12.378003272867433,-28.531928573661272,0.906814834215659,-0.18694920475586602,0.19016634576488284,-0.3263936194709989
185.0,0.1346025731171469,0.03662188587216492,-0.069219992715949,2.1455062162753236,4.529511255427096,8.419603359027908,-0.3595607226066099,0.5927703833623911,-0.0004792383853803178,39.34874088458961,12.634389741272425,-28.258178160611585,0.9077578450655375,-0.1878545294727379,0.18744621532655245,-0.3248296150969022
186.0,0.12977178223127211,0.0441504393955632,-0.07183973671989426,2.1497287178937596,4.522189931411424,8.422433465509233,0.03764194396813486,0.6807183938841854,0.07132804406458756,39.0956332275033,12.659631928071303,-28.212960048047727,0.9085514258860339,-0.18748945328711641,0.18741468968451935,-0.32283929047449356
187.0,0.13007137498660382,0.04841796163326548,-0.06636744900510842,2.088219197656557,4.506139320544422,8.446313506948165,-0.3199139070481906,0.6415688743614474,0.09128398170971314,38.69940431536455,12.293752455971134,-28.061167524023865,0.910244730132533,-0.18340315619597758,0.18821243324145323,-0.3199123672453113
188.0,0.12771910834851571,0.051816632729611,-0.07085814310720537,2.0640210766977454,4.49073282606366,8.460609116564854,-0.1603930000357232,0.38449880327224656,0.07068418890436895,38.459051369985346,12.147129416282642,-27.942502366663096,0.9112613711390346,-0.18146193934179972,0.1882091581338549,-0.31814674389497366
189.0,0.12641013302106013,0.05033733738312629,-0.06867136296269188,2.0481270195597676,4.488632682560884,8.464872202806799,-0.23148637769198396,0.6359008197171244,0.02512505031745741,38.1787548259016,12.049628737214793,-27.919094674583278,0.9121655674591056,-0.1801425976853055,0.1888079697913289,-0.31595218714811624
190.0,0.12489298849102518,0.046875345360730444,-0.06648871974091083,2.0816741624430497,4.468896236254185,8.46771367079575,-0.15768336138912775,0.20192921706036265,0.043390544663604924,38.00748975353594,12.253012043026,-27.804610165498694,0.9126992880356293,-0.18120665397018465,0.1874889627051168,-0.3145931517436005
191.0,0.13344374050829777,0.04477490714141952,-0.07371878945346091,2.0937910544709344,4.460223491848573,8.469099262620535,-0.479571912795272,0.8168735876804567,0.03671113090772693,37.928999351590946,12.321881832882,-27.75362540139608,0.9129613448996989,-0.18150124840503726,0.1869666902971886,-0.3139746091983149
192.0,0.1295139209453931,0.050058728532307306,-0.0699154623150561,2.064155895899061,4.425646308136269,8.494773901663567,-0.36955266146676036,0.3364213848540532,0.0366363354231415,37.701583249144164,12.14825010422902,-27.50226992996071,0.9142144022403641,-0.17895276705658925,0.18597535849517643,-0.3123726844079132
193.0,0.15198935622407342,0.04466960816859268,-0.06937354547696159,2.0263933492083823,4.407272898363964,8.513180420540674,-0.3459658468624125,0.6610300767700635,0.13078313132290043,37.45085677996154,11.921438928983118,-27.35549299999216,0.915359991645359,-0.1762215584241444,0.1859923813477062,-0.3105324973909157
194.0,0.1502307127304474,0.04232614948162129,-0.07000384590921249,2.0096506478536007,4.386599470425098,8.528278644574037,-0.41786884003230773,1.2764483586053306,0.02037779697537625,37.176288932860395,11.823234216655209,-27.203390677808827,0.9164706523002562,-0.1745267350570761,0.18557578039847938,-0.30845958324463174
195.0,0.14782578397212542,0.04356217451575439,-0.07228174290959499,2.032737551983815,4.349518039788693,8.54134412348732,-0.399463302236709,-0.8651329099696529,0.21577310703982616,36.97640403132142,11.96452877374396,-26.96700854220524,0.9173299581156195,-0.1746664253927541,0.18355462162159525,-0.3069888741632011
196.0,0.12182477239518938,-0.03787902289161137,-0.10464519875613498,2.0430249522310895,4.323312914465551,8.543752313513917,0.11742511520737325,2.751117652017534,0.25895854407852836,36.24896617773781,12.023403253905812,-26.82353672586265,0.919293567342625,-0.1734734395217114,0.18303383478089993,-0.30114320533651795
197.0,0.13507521261848565,0.01003130268629877,-0.08370124761155445,1.8158596343336706,4.338277040950134,8.588792439399047,0.10688364055299537,0.2315736109550035,-0.0032492225843917255,35.72161730545877,10.672655928028174,-26.783720167846838,0.9217958219547225,-0.16135339383919672,0.18805432982900605,-0.29729282845934957
198.0,0.13823540706605225,0.029689324116743493,-0.07403993855606758,1.7899919354838711,4.334495007680491,8.599707373271887,-0.3132536482334869,0.876819316436252,-0.024366359447004597,35.41311443932412,10.516981086789555,-26.731490015360983,0.9228880378598312,-0.15945281699846392,0.18870235492012288,-0.294923407625576
199.0,0.12928456221198156,0.03791282642089096,-0.0635326420890937,1.734597158218126,4.329394393241167,8.615797619047617,-0.26939804147465435,0.5574212749615975,-0.09218509984639016,35.17151737711214,10.187531201996928,-26.66018385176651,0.9238977296159754,-0.15617294625345624,0.1896024080917819,-0.2931369737488479
200.0,0.13069470046082948,0.040299155145929355,-0.06347196620583717,1.7342380952380951,4.320491551459293,8.62132219662058,-0.3198300691244239,0.8822388632872503,-0.017060291858678953,35.00977582565284,10.187036770353302,-26.600076804915513,0.9244683569208909,-0.15571930344930876,0.18937832872734256,-0.29184621169700464
201.0,0.12597235023041473,0.04508909370199694,-0.06181259600614439,1.6562964669738862,4.298600614439324,8.64769738863287,-0.4508928571428571,1.190111367127496,-0.014074500768049154,34.721899001536094,9.718644393241167,-26.411127112135176,0.925867364952381,-0.15083919160368664,0.1897682296620584,-0.2897460285944701
202.0,0.1459553407515642,0.04716604848076132,-0.06514030946761079,1.6088455659210967,4.251339852384699,8.679505751002207,-0.4109215184893784,-0.19604197107639265,0.03643011689333483,34.46011506687647,9.442486933797909,-26.075281461916,0.9273333334188303,-0.14720070922809186,0.18832231809748604,-0.28784265117043206
203.0,0.14871499756472223,0.04577196433254657,-0.06335740511782997,1.6699872990895808,4.221073151998801,8.683247499157018,-0.2890821110112023,0.42456445993031366,0.10330050391517741,34.24573053651043,9.804600801768386,-25.90352014724064,0.9279515137793076,-0.14943482542049755,0.1861113487799258,-0.28615360839627585
204.0,0.14418075816863624,0.04543063618692131,-0.05842154898480717,1.6767682003253426,4.20622835608728,8.689527332617125,-0.1820331294169361,0.3554128786987688,0.042191414033822046,34.021334863332555,9.842879295607874,-25.81298319189989,0.9286652052772862,-0.14916184369692398,0.18554521519328876,-0.2843802812335575
205.0,0.1507715356539483,0.049091104875522026,-0.05789143932324545,1.6898144699502402,4.194765731938212,8.693337820517844,-0.2715111309948567,1.1902150447781805,0.0310017849083351,33.79222353906203,9.917457792965227,-25.742674965344122,0.9293170977854763,-0.14920511590068464,0.1850690420289811,-0.28254674310143646
206.0,0.14859564194184433,0.050385540636030096,-0.056639464744234855,1.7027973805298016,4.15622727981647,8.709111868559475,-0.7697611467326761,0.9839911524048259,0.46635221523150827,33.43061892433039,9.996926550888592,-25.493785358360498,0.9306002084531235,-0.14865731422984665,0.18326119913565497,-0.2797080928752659
207.0,0.13383079520885313,0.05139170513614735,-0.06387663285427363,1.860569643885107,4.151371522859273,8.67622572790075,0.29911925515552035,-1.0189708292122615,0.06982930820483199,33.16897505961521,10.949754657154639,-25.556205203136752,0.9303972582685035,-0.15636417119892743,0.18116558057087373,-0.27733154370003477
208.0,0.13484662910568168,0.04977709718236314,-0.05800899568231646,1.9184879615776362,4.154236209146095,8.662807798572533,-0.30615812372417683,0.40969614472098315,0.025980228640649854,33.09874971087987,11.288748928554838,-25.60649044765882,0.9302449378717474,-0.15918604371437134,0.18058101953780656,-0.27666832652902906
209.0,0.14108898706853074,0.04896023724505236,-0.06540378058867435,1.9706395125985996,4.2201162016582945,8.619947346123585,0.38164856059230556,-0.009841080110552985,-0.32259073211079503,33.21137076600294,11.5974928887006,-26.07084947245254,0.9288932790976214,-0.16313981482902618,0.18320639964493937,-0.277261485739676
210.0,0.1450606225665234,0.04893723900018157,-0.073315580302205,2.00356129839214,4.289192640561642,8.57810506566604,0.20766633379733296,-0.1307319090560633,-0.2119936351348625,33.23439801085355,11.789305059613872,-26.548529574935948,0.9277970932270169,-0.16605418458209764,0.1863821531977647,-0.2771493342899797
211.0,0.15900397238146308,0.04740450591071785,-0.07873160128681325,1.993823446480757,4.3409071357895765,8.55489786611756,0.3444758351876899,0.11069940327483369,-0.47117290579680565,33.302926458631546,11.731751476799783,-26.887593996294573,0.9270360361354923,-0.16656613728995096,0.18917134306129063,-0.2775387422867021
212.0,0.1514138377800025,0.04743615346345299,-0.07729856680197922,1.9415460136811205,4.400071315738343,8.537024142795282,-0.060938851873247074,1.1348649444591112,-0.14603487544359955,33.32202922246242,11.416441436143007,-27.246338206938496,0.9265385058764429,-0.16490813894628703,0.19299040090438985,-0.2775596168357769
213.0,0.14392260957225372,0.042359379043367125,-0.07073744045767538,1.8498633369143678,4.412659201385713,8.550862114483326,-0.20507533242195566,1.4452400665497385,0.09691812108079284,32.92116784640411,10.867799321346016,-27.279189625368016,0.927841796109515,-0.15972251103958912,0.19548475119776465,-0.2744191798359694
214.0,0.13952464074206705,0.03988858015897704,-0.07239783116510834,1.967186585845068,4.4497623308266085,8.503741836155903,0.0445020662831213,0.12434603642199737,-0.09749392923143677,32.971230067969955,11.57433534123949,-27.608777542817762,0.9265326239823737,-0.1665654208557505,0.19580783986009398,-0.2744641189581106
215.0,0.13690315436001854,0.042766477333619136,-0.06935233808452113,1.917107848390669,4.4198339584896225,8.53127060336513,-0.6135770549780303,0.969937573679134,0.26734272853927765,32.58209418426035,11.272341746150824,-27.37076367306112,0.92816296723981,-0.162763094508127,0.1954223058718251,-0.2715162706017933
216.0,0.13340208309917198,0.03423614701584804,-0.05762916338840808,1.871331722303398,4.363342774718069,8.570291221760145,-0.2373630156232438,0.35632305833426997,0.07933994604923009,32.090457691731295,11.002588887640028,-26.96713100857967,0.9303075233640178,-0.15862615592001045,0.19370554345903113,-0.26780859423910675
217.0,0.12909801056535908,0.02491021318047282,-0.05239275411187291,1.9180076617586448,4.390817541493386,8.546102768723538,-0.07979901933235925,-0.07751863924169197,-0.0872817616425012,32.10719437263497,11.280970294293954,-27.175434369263048,0.9296739281883217,-0.16153251834721438,0.19453364680210555,-0.2677698271184294
218.0,0.1482471619647072,0.02315403132141921,-0.06842371960585966,1.8678056741972946,4.42426053725975,8.540151998801093,0.09273297881308303,0.8476414100258514,-0.3308192602375332,32.08256704038814,10.97725070014237,-27.36615900490802,0.9295735043821794,-0.15943281742629534,0.1970627024870743,-0.2675442651759582
219.0,0.14155257390131504,0.02758498182908096,-0.06839203289498334,1.837281180922408,4.446583258401707,8.535567541493386,-0.18298232550297852,0.06978721760143869,-0.1369170553744708,32.20246320154733,10.798241916750964,-27.49753908152561,0.9291719201551927,-0.15847400354861188,0.19848770137296282,-0.2684995003731876
220.0,0.1452480611442059,0.03615136188228243,-0.07324843580233037,1.8814793001386234,4.425537596942791,8.537618448166048,-0.38776132404181185,0.05581094751039677,0.04106768199018396,32.17580317335431,11.062024184181933,-27.378154621407965,0.9292657027348544,-0.16037553919366077,0.1967892526098685,-0.26830753948094865
221.0,0.14599145779476225,0.03855404443445358,-0.07625206998613765,1.9216712000299727,4.403780600202316,8.540437076167997,-0.17368494998314038,0.6728700685624368,0.12096165374096136,31.9192892735379,11.301001273837624,-27.25952380952381,0.9299288329299766,-0.1616144834135102,0.19547225753310105,-0.2662239075193885
222.0,0.1393293244914016,0.0295838672211607,-0.064416357573714,1.8799937432093212,4.316355288299427,8.591870780412872,-0.5882439305383838,1.086926773069574,0.4215646191600165,31.16474888539208,11.055939267918024,-26.65693047281855,0.9329618020629427,-0.1568084486540407,0.19238614476969765,-0.26043263420816
223.0,0.13357356412273802,0.030929583005507483,-0.06182415420928404,1.9143894571203777,4.338510621557829,8.57394295830055,0.1952301337529504,-0.21997688827694728,-0.1785208497246263,30.9116468332022,11.258413650668764,-26.823566581431944,0.9330908367415421,-0.15846617632179386,0.19348481595908734,-0.25823340034815107
224.0,0.12755389457120378,0.031814122738001584,-0.05951553894571205,1.9319744295830057,4.37594295830055,8.551235837922892,-0.03149095200629426,0.6876610444531864,-0.12697678992918962,30.897158979150277,11.354816581431944,-27.086399734461054,0.9325620666083793,-0.15988758980133752,0.1952992505877262,-0.25798931105133754
225.0,0.12983032670188455,0.041114626653179,-0.06389544228391594,1.8743097954366643,4.391962262560412,8.556059355213367,-0.1886621426698138,1.3630305510284364,0.014963025926342188,30.65427625416807,11.012563340639167,-27.152763279288898,0.9332315370351806,-0.1567452789421434,0.1972011879609138,-0.25604450492102204
226.0,0.12990483683638682,0.039919823161365275,-0.059513319096324596,1.7955861526357202,4.350359671799482,8.593893072571278,-0.5293404143718856,1.1957050129257052,0.1570426360945637,30.166570660522275,10.544778670712974,-26.828914709077964,0.9352750399629088,-0.15117965521074517,0.19661083523547263,-0.2523099302547675
227.0,0.14333243415383462,0.04427462440523025,-0.06400764302573901,1.7156931549960661,4.328681802854895,8.621083436364314,-0.17967807500655653,0.9125210745195009,0.2189717507774156,29.733850829867745,10.070230602075606,-26.64274708703308,0.9369004790585589,-0.14600554008452282,0.19703056076722492,-0.24897216843108166
228.0,0.1328109849762092,0.03994455059757973,-0.05813285377093403,1.6964169944925256,4.3197657637405875,8.630100333445728,-0.20606150013113034,0.5977731257727323,0.028378479637330936,29.324139222959047,9.95630924281593,-26.572057060432357,0.9380138269612229,-0.14416858069529054,0.19730857064403734,-0.24567443137604436
229.0,0.13745191262972536,0.04688808961822338,-0.06653298864785884,1.6780118017309205,4.315956839384063,8.635714997564722,-0.12631458169420404,0.9210590648533212,-0.001177597317447824,29.06094352965419,9.848925667828107,-26.533987814244504,0.9387203904908397,-0.14269411484410477,0.19764087145891876,-0.24356648329620467
230.0,0.12952950432730134,0.04529307631785996,-0.06602360346184107,1.669824154209284,4.302965774980331,8.643675845790717,-0.2092938630999213,0.7677345594020455,0.05191778127458693,28.8305910700236,9.801603068450039,-26.44322138080252,0.9394144732222659,-0.14169485381549957,0.19735033971675847,-0.24175346850078672
231.0,0.14278299801431193,0.04573840433104793,-0.06725686561013075,1.694472603124649,4.277465615750628,8.651723090180212,-0.5219505170282117,0.28883173401146445,0.20321667415982916,28.62608053744708,9.948757774156082,-26.291493797066426,0.9400393781009608,-0.14227022210725526,0.19593319997433595,-0.24014349281713865
232.0,0.1453116218950208,0.04655372597504778,-0.06878357873440485,1.6851416395039527,4.230038683451351,8.676700254767526,-0.43518560797647143,0.7367749779888351,0.13680898992169646,28.33908673569743,9.890414313345321,-25.971897772189127,0.941285190589843,-0.1405413985711007,0.19385527023447977,-0.23794069825169528
233.0,0.14389830907204157,0.045990103797726445,-0.0641526670866323,1.728813692970281,4.208763715319073,8.67845159024948,-0.2872107944233445,0.3526798511474558,0.21986501634119332,28.07287291117204,10.154748018450606,-25.856076769627947,0.9418829547658518,-0.14206544058759463,0.19254569994263374,-0.23574699888278694
234.0,0.14242909159345588,0.04605563411758865,-0.0618442328352123,1.7682896159579966,4.194716240035619,8.677136888751804,-0.17421613678680992,0.6030216722299041,0.13090516749396408,27.759710452438895,10.389111814103352,-25.783491767976834,0.9424978225442162,-0.14336396648970604,0.19173982960152927,-0.23313735964595678
235.0,0.12688199924545598,0.05316456727422275,-0.06144607580466546,1.7547144756572421,4.190931983867046,8.681775517921292,-0.14764696727317717,0.47447761330576543,0.08523687433182336,27.40840417530341,10.307110232479722,-25.754287330543434,0.9433187532900166,-0.14202420657556375,0.19213342823918955,-0.23029959190457894
236.0,0.12958232066727482,0.05048627749271814,-0.05568924373950632,1.7204655327594969,4.187888418968853,8.690390831157266,-0.18293926704672683,0.7082353504316845,-0.03403766882487173,27.12657631960255,10.10683372607089,-25.719856798912268,0.9440939080851003,-0.13973564974400304,0.19268842725707558,-0.22803970819960134
237.0,0.14387718183901377,0.04709029696448504,-0.05804815489586684,1.680040754090962,4.177081690283198,8.703306014656977,-0.2996109545679102,0.9090091882726778,0.06621849277650424,26.847514350277464,9.862676655662174,-25.623969298073646,0.9449856442537637,-0.1370056530248433,0.19288992365925975,-0.2258158915690787
238.0,0.1417826982878124,0.04648387096774194,-0.05991652616987001,1.6536472593758196,4.157837773032108,8.717478213630066,-0.2820712037765539,0.4965791371623393,0.025320332696414524,26.600167893672023,9.706119103817766,-25.486907571840693,0.9458327181435688,-0.13497686886261284,0.19246653674253492,-0.22385741171394852
239.0,0.1484885167284853,0.048946105428796224,-0.06086148889138662,1.690510490427485,4.122130530890562,8.726438556067588,-0.5239230920535012,0.831098380540257,0.41766606721366745,26.321199210408,9.928905342624855,-25.274320229665427,0.9466047422362218,-0.13594161899228202,0.19051185906756957,-0.22160255257294592
240.0,0.14520478813083063,0.05070033906560263,-0.06292924581319546,1.7998692536810164,4.192690157731071,8.669019922445766,0.5126985688059646,-0.19679614617286723,-0.44958881270840356,26.404740888782733,10.584175845790716,-25.799407571840696,0.9449662266849688,-0.14278231566123412,0.19299858733435427,-0.2219470249556873
241.0,0.13919051365628862,0.04421808849424899,-0.06438732156906822,1.7777091154321685,4.238978045033907,8.65219377318197,-0.0875777415608257,0.2032461784871305,-0.305975562923832,26.53175368101607,10.446921715184894,-26.086289151774004,0.9443042833926416,-0.14243519752455883,0.19554206978981675,-0.2228846920886816
242.0,0.14597915027537373,0.044313532651455545,-0.06520338316286389,1.8259162077104643,4.231226593233674,8.646763965381588,-0.38330055074744296,0.18361526357199057,-0.06042732100708105,26.4675845790716,10.732262981904013,-26.055401750590086,0.9442969996156568,-0.14469279389575135,0.19465001177222657,-0.22231805481077893
243.0,0.1412730789404668,0.04316834326177364,-0.06269704207410738,1.9231993836873857,4.2249334794500015,8.62878136825147,-0.13137832040762804,-0.16679194297703342,-0.12074511305308905,26.559147746431382,11.309218580233036,-26.070236280487805,0.9436410460473849,-0.1498405677427129,0.19311867286955342,-0.22298162857469744
244.0,0.1402757483796036,0.03919073845116333,-0.06267206174365891,1.8745299913828632,4.199871117605184,8.652053126522052,-0.3432477239518939,0.952486324978457,-0.004692593008879378,26.331926023753326,11.017529316998239,-25.87710042711026,0.9446812047128246,-0.14655647804128735,0.1926153749361208,-0.2212433839822412
245.0,0.14012213854857444,0.04197145105091605,-0.06590251395601514,1.9175246337716834,4.1897907909033005,8.64735071747031,-0.21189726874227266,0.6306835637480799,0.09965999775205125,26.17954975459893,11.270743415383462,-25.83602759357087,0.9448576239874114,-0.14840065013157994,0.1918220066592484,-0.21998007667326064
246.0,0.13720347682739503,0.03908171293694504,-0.06415503353190213,1.8893201453673525,4.1769245063879215,8.659976696264657,-0.11201669101944475,-0.0598647484170694,0.22098460155108463,25.827417481548085,11.10477080289236,-25.73330195571541,0.9458470213406768,-0.1461689624009591,0.19187817877022215,-0.21713910914150836
247.0,0.12961904761904763,0.03869585253456222,-0.0604347158218126,1.9438402457757298,4.166563748079877,8.65289708141321,-0.08309331797235023,0.22823540706605222,0.08009792626728109,25.620804531490016,11.431029185867896,-25.696342165898617,0.9460585914193551,-0.14851800855453146,0.19100924992012286,-0.21538903550230412
248.0,0.128443145629613,0.040320445093851874,-0.060591173054587694,1.9502593570866584,4.180503034730808,8.644215859278411,-0.05352693791914878,0.3440307594320183,0.005902387508898134,25.440474200104905,11.470678435615001,-25.793661838260086,0.9461922837242706,-0.1487526098335394,0.19193376551521113,-0.21384489533385784
249.0,0.13737254130605822,0.034438630999213224,-0.05886860739575139,1.8971685680566486,4.196239771833202,8.648936073957517,-0.24666846970889061,1.3845372738001573,0.014977134146341461,25.14656643391031,11.150350363886703,-25.862105379622346,0.9468491393880804,-0.14565341569512194,0.1936834186237215,-0.21145460021085757
250.0,0.12922390506163126,0.03517246450114272,-0.060763796785433304,1.8590499138286316,4.186363165486494,8.662872990895806,-0.32021883546888463,0.2817367628601401,0.13627960969989883,24.909008303360682,10.92556280675134,-25.775115909857256,0.9476267587345546,-0.14315701377344422,0.19382530472219098,-0.20954384087847025
251.0,0.13382349855756623,0.038276141770634306,-0.05971215016297629,1.8637154565209249,4.158831563073695,8.674846605597393,-0.504190726743097,1.3639290865834925,0.11243993761942228,24.618936685118577,10.951503374264734,-25.59574909379566,0.9484696871603537,-0.14250781116563632,0.19266109209850696,-0.20720968225896366
252.0,0.139637555730396,0.03593645798209136,-0.061839946049230085,1.8314343411636882,4.140605297665881,8.6901047544116,-0.16703991982316135,0.9254121239369075,0.2699800494548724,24.154705237720577,10.76070632422914,-25.46125660334944,0.9496866023382414,-0.13982828187314078,0.19259411162586637,-0.20346106374238504
253.0,0.14118069761342772,0.03871095125697802,-0.05948881645498483,1.757035030534637,4.150381327039076,8.700360795773857,-0.03723258776366566,0.7944822224719943,-0.006596324603799025,23.766814656625826,10.318743209321493,-25.488751826458355,0.9506436976529917,-0.13542205998771117,0.19432665777280733,-0.20030179535034276
254.0,0.1434597429845266,0.036310629050990986,-0.05449735866022255,1.7023334082649584,4.130759506949907,8.720270877823982,-0.4396873009628714,1.206707082911843,0.15916249859503204,23.42870138810835,9.9936261286576,-25.33272662133303,0.9517458885031285,-0.1317681370670263,0.19417908433329586,-0.19762260677981336
255.0,0.14994755091211825,0.037496578412895915,-0.03895803524051745,1.557631356009734,4.084255722467202,8.768021517574514,-0.2436827575796388,0.631054104989662,0.10023317567196677,22.952642409840266,9.143389887105922,-24.962404396830912,0.9537807153057563,-0.12294567937041881,0.1935784203146671,-0.19390200273054542
256.0,0.1475819579894974,0.04155504054585076,-0.05085045368484977,1.553601373557675,4.090129996784912,8.767042117672275,-0.26468213035401705,0.8959427356839209,0.02552613599828529,22.788392689690276,9.119707382202694,-24.997408503911693,0.9540324287440698,-0.12251783480247742,0.19413841372838744,-0.19251373449366804
257.0,0.13653891369183757,0.04591373191729989,-0.04655278388412434,1.5207443335136919,4.066361811925108,8.784196314540306,-0.134175250857575,0.5596993379442422,-0.06784767157599503,22.557234184144903,8.922223380322432,-24.82724968861989,0.9548593192476249,-0.12011164657029849,0.19340234310150684,-0.19068633704649962
258.0,0.13420484236912888,0.040414969813882054,-0.045264098472353284,1.5206313130983093,4.046693396127778,8.793703881109646,-0.4288703014712737,0.8034900112223178,0.14284212113568462,22.295532291718402,8.916244213764678,-24.693462324640393,0.95553462369895,-0.11940548119958672,0.1926051806155646,-0.18858330253259287
259.0,0.12797742118456445,0.03656635587468296,-0.03976511375230568,1.5180293662265743,4.040342665805825,8.796569682490308,0.13685013152242767,-0.5239606395501314,-0.2618954716902222,22.137332678117264,8.904014243979113,-24.64915051715891,0.9558742965793137,-0.11893438197479336,0.19245887662229838,-0.1872551349719416
260.0,0.1359346970889064,0.04746697388632873,-0.05522689296017382,1.6213080064441199,4.045040800269754,8.775133303360683,-0.5233791352890488,0.8488411355887753,0.28198831066651675,22.013077441834326,9.51540734704582,-24.72898729908958,0.9555240227337678,-0.12417830235498858,0.19188549812135175,-0.18612433203285753
261.0,0.13948424562586642,0.047577572964669745,-0.05068948334644636,1.5633805777228278,4.001414409351467,8.805727173953766,0.10178969502828666,-0.011951360008991718,0.09563125210745194,21.632306770072308,9.171490155857779,-24.42060924094264,0.9569102782063617,-0.12006054891558954,0.19048955768970816,-0.18311112437664384
262.0,0.13824592559289645,0.042771215016297645,-0.04947572215353491,1.6354430519650818,4.01730662020906,8.786055486868232,-0.25250915570791654,0.3543424047431719,0.18223125304409724,21.482221769510318,9.599221062343112,-24.5503618963321,0.95664617100532,-0.12370823263114908,0.19084743149724626,-0.18176622492969544
263.0,0.1335960061443932,0.04404493087557605,-0.049336789554531496,1.6132645929339475,4.019947004608294,8.78896850998464,-0.25938700076804916,0.9984182987711213,0.12182939708141319,21.13233006912442,9.465675403225806,-24.5605966781874,0.9572766419531489,-0.121971087625192,0.19159304913440858,-0.1788423202983871
264.0,0.1363249503577985,0.041635860402382846,-0.04903316661046796,1.555684322430782,4.012028380352927,8.803084766400659,-0.17251104070660522,0.7358061940354426,0.04756829315124947,20.74215220017983,9.122450334382375,-24.483460834176313,0.958246124479525,-0.118191353996703,0.19204964446747966,-0.17560131027891426
265.0,0.13331973324341537,0.04362841407215917,-0.0488190026600727,1.59572522573152,3.9614738675958194,8.819292383200331,-0.6185387864823348,0.3759172099209471,0.2011782998014312,20.462053922670563,9.360065892997639,-24.167486465475257,0.9590907577397623,-0.1192808200951257,0.18925255353212692,-0.17334725974429582
266.0,0.13081922745494737,0.04584552845528457,-0.04732321756397289,1.6391400097411108,3.9567999325615366,8.812999475478627,-0.18200446779813417,0.6644060732081974,0.008402176763703126,20.278571662732755,9.616166029747856,-24.160141292945188,0.9592098097718706,-0.12119511068176539,0.1888741127847589,-0.17180349658424188
267.0,0.14188351878910493,0.05629346970889065,-0.06228792476864862,1.6724500018732904,3.9411000337192306,8.812816567382264,-0.624401249484845,-1.8097795136937542,0.5862254598928478,20.07400340938893,9.824797450451463,-24.07382263684388,0.9595121393763066,-0.12249860809920946,0.18795291489562022,-0.17006962527593572
268.0,0.15525051515492116,0.05101539844891538,-0.05689665055636732,1.7676458918736653,3.9109494024202913,8.807026563261024,0.1869353199580383,1.2217663491439066,-0.1903502116818403,19.671962342175263,10.381892772844779,-23.926312240080925,0.9599476066274775,-0.12642416255574915,0.18605551496701134,-0.16670882899357464
269.0,0.15016656363568248,0.052698887265370364,-0.06442786894458806,1.7922061088007195,3.94116706942415,8.789146641189912,-0.2776721905323892,0.9505517426286016,0.050330401633509436,19.566680423644677,10.528426716870854,-24.134305805327635,0.9596405483491439,-0.12788449589235135,0.18760141971009892,-0.16575655746688958
270.0,0.14686898205387589,0.05179161515117457,-0.05621895020793527,1.7089558278071262,3.8901251358135704,8.82828181784122,-0.2892079727248885,1.9546640253268892,0.048328556442246456,19.136733824135476,10.032068393840621,-23.763796785433293,0.9612672399389307,-0.12228363246712373,0.18595079618972687,-0.16231343621820088
271.0,0.14542190251395604,0.05544340789030011,-0.05704731932111949,1.6685896369562772,3.9033780675133936,8.8300189577011,-0.11264096511932861,0.5273664343786295,-0.09710342437525757,18.958969783822262,9.796035180397887,-23.835084860065187,0.9615644169852009,-0.12004599576306618,0.18715706664089019,-0.16082417903435614
272.0,0.14534903150874828,0.054014386871979334,-0.049356861863549525,1.545752725637855,3.8807087033082306,8.861925293169982,-0.25790388145816945,1.85123239106815,-0.008804465924843581,18.675192012288786,9.067662554793749,-23.632717489041248,0.9627876368741897,-0.11293412949207599,0.18713707174058672,-0.15859266892551796
273.0,0.14538001573564124,0.04943273013375297,-0.05066247049567272,1.4671856805664827,3.8931101494885905,8.869971675845793,0.1262440991345397,0.30051140833988976,-0.017653422501966953,18.43434795436664,8.60762195121951,-23.68341365066876,0.9633157343092054,-0.10864313030212432,0.18866989159244688,-0.15660960295279303
274.0,0.15182791952343486,0.046827001611029956,-0.04876010640290736,1.5000264695964929,3.916154752538308,8.855825821437941,-0.23554018676707503,0.6955050391517739,0.07267079727248885,18.243819194672362,8.798486147015847,-23.8384543244914,0.9631966630773856,-0.11022302725495486,0.18982229801007827,-0.15496321747523512
275.0,0.14271569068225243,0.04525457082911845,-0.05507635532576524,1.5451863268517476,3.9251348113596336,8.844089149900718,-0.15895321690832115,0.3069873740212056,0.05116132310516654,18.072760305440035,9.06916341182421,-23.91460481763516,0.963131210964342,-0.11237833719160016,0.1901276493354876,-0.1534550114598835
276.0,0.14684033944026076,0.04647907534374885,-0.048011230377280736,1.4887773687759918,3.9179459461990915,8.857547722078605,-0.035764103536772694,-0.00362914933872846,0.04047665879884605,17.750872309486343,8.735872520231538,-23.844605098628747,0.9638954994944644,-0.1088525732045727,0.19044330454008843,-0.15080631377488668
277.0,0.14056198718669213,0.049324116743471605,-0.05264733430744446,1.5021614027200176,3.9224543853733476,8.853360308718292,-0.3769060732081975,0.9026614776516427,0.016063467086283766,17.618944588063393,8.808502866134651,-23.87927110261886,0.9639634085624369,-0.10931256985238466,0.19071579463452099,-0.1496876447963733
278.0,0.136956839384062,0.04729305758495375,-0.05284058296804166,1.4499973024615036,3.9065033531902134,8.86907354538983,-0.1243302986025252,0.5905370724214154,0.12020718594282717,17.382397156344837,8.499683179723501,-23.756792317635156,0.964676657817017,-0.10607736643524034,0.19045882463354688,-0.1477618606491701
279.0,0.1445129819040126,0.04344453186467351,-0.04307159716758459,1.4071046420141617,3.875118804091266,8.888996066089693,-0.11698465774980331,0.6569236821400471,0.09612509834775768,17.12267899291896,8.248387096774191,-23.53961447678993,0.9655466287380015,-0.10312952355940204,0.18932194943351693,-0.14563193830999216
280.0,0.14038863287250386,0.04632906223071449,-0.04771053913304111,1.3772383949645948,3.8966411149825784,8.88488074631898,-0.25059008654602677,0.6961852778089992,-0.010032876250421492,16.930390627927018,8.070993265520212,-23.664259019894345,0.9656725312218726,-0.10144335999370574,0.19085988260293726,-0.14398248657772283
281.0,0.1512040200816755,0.04450936645311155,-0.04420032969914954,1.3812388070885315,3.8880667266119664,8.888258439174251,-0.09981477838971939,0.3488197098272826,-0.0813975216365067,16.78092205706043,8.097540018170918,-23.612192312015285,0.9659413517032518,-0.10134808808740775,0.19051767122878493,-0.14272097371634634
282.0,0.15248635307781652,0.04835224420216554,-0.04610881945224983,1.4630702296654303,3.9076053538645983,8.8657224532614,-0.047915847102019404,0.6112214206099434,0.14348200236034617,16.611473026956652,8.5768974677794,-23.773887265370348,0.9655655477871098,-0.10552126319004534,0.1911950087261155,-0.1412410824443258
283.0,0.1600214023453599,0.04976886403656665,-0.04865118391967331,1.4405996309617475,3.9043349349968146,8.871240258888761,-0.19961316548649355,0.5227730086920684,0.059392210857592435,16.315741553800905,8.443413451631635,-23.738758148814206,0.9660755815185549,-0.10379414404663556,0.19141071397999326,-0.13875504597216287
284.0,0.14581312052751866,0.048888464276347854,-0.044813495185643114,1.3885296541905512,3.8977360158855046,8.882156419766961,-0.20262916338840806,0.4317998107976471,-0.021513571990558627,16.074781059158518,8.136550475815817,-23.679157300213554,0.9666535924246,-0.10063108473702746,0.19160632924806115,-0.13678204300221047
285.0,0.1469963283503803,0.04706777565471509,-0.044217376643812534,1.3662888239481472,3.9070027724701206,8.881719156269902,-0.1645030159979019,1.512821737664381,0.05870658648982802,15.820322393316097,8.005529953917051,-23.730381027312575,0.9669432567886177,-0.09910767572020532,0.19246563954010715,-0.1346379850230789
286.0,0.15259008654602674,0.046131392604248644,-0.04109008654602676,1.2720731707317072,3.876750983477576,8.909384736428006,-0.39780438630999215,1.1483723446105427,-0.010756785995279315,15.412534421715183,7.453004523996853,-23.503174173878833,0.9681050928717545,-0.09329520842761604,0.19176575951022815,-0.13127411827734065
287.0,0.15590165224232888,0.04853383162863889,-0.03864889850511409,1.207956333595594,3.8711961054287958,8.920837136113295,-0.17421690597954367,0.7130286191974823,0.05102404602675058,15.125031963021243,7.078562647521636,-23.445012539339103,0.9687306579937057,-0.08943833904858378,0.1920991607976003,-0.1288970929427616
288.0,0.14862939754973586,0.04605570229665432,-0.0372996796673036,1.277152129931438,3.840486109550036,8.923569873740213,-0.2337638389344723,-0.11275652373459222,0.012732405117829975,15.046247740343187,7.485186661702446,-23.27340272704282,0.9689131263075288,-0.09264692268001384,0.1901057701985313,-0.12821991634215651
289.0,0.14368438799595368,0.0464276347832603,-0.04430257390131506,1.2880971113858606,3.850896182233712,8.91780637668128,-0.18126896706755086,0.6719938368738526,0.07401839571391106,14.844699524184183,7.55011754898655,-23.34085225356862,0.9689955886103931,-0.09293716521599041,0.19076370154733807,-0.1264910012479862
290.0,0.1503184594057922,0.04789153935495402,-0.039706210390710796,1.238146479798722,3.8446137995233203,8.927601467507056,-0.1414071438658378,0.5961841070023604,0.030759071770086722,14.599131117374625,7.251822855874783,-23.28270963563056,0.9695159537564664,-0.08989434771158818,0.19089459707074985,-0.12443132494655355
291.0,0.14667063804278596,0.04283089949651714,-0.03162651196168113,1.2212604940299667,3.830701077574406,8.936710253816468,-0.1769978284238709,0.5358477576711251,0.11025561771037773,14.355913906444984,7.155120711965715,-23.185144156918348,0.9699893605650941,-0.08850379172282791,0.19044362126550868,-0.12243773993590462
292.0,0.15457993331085387,0.04172997524374396,-0.03230458264525928,1.1895832648861762,3.831219370977829,8.9404904908886,-0.2935621846027039,0.7646655239593871,0.09005180008818875,14.078369311320728,6.967478774176256,-23.17975853644127,0.9703918370127186,-0.08638543230422241,0.19086742781251528,-0.12006930427146287
293.0,0.15622621857554983,0.047070824795451084,-0.0354725678203255,1.2220112945014598,3.792303233876011,8.9513051532784,-0.29640666833821827,-0.3466898954703832,0.14758446379217424,13.855596906044386,7.161158741926838,-22.93816555854321,0.9709204657183408,-0.08744294684335543,0.18875881171731757,-0.11821306263880363
294.0,0.15713896331225669,0.044145442954145145,-0.0367190478938416,1.3194563269938366,3.7776240887144867,8.943352153972558,-0.14158773209785963,0.6034153627692638,0.7123870940262538,13.414182434688342,7.732963503581939,-22.87762393895177,0.9711590998561328,-0.09167451742539207,0.18779641896891802,-0.11445640256590246
295.0,0.16636518058085953,0.044012931804379686,-0.040031507876969255,1.325339057978781,3.833868761833315,8.91864346443754,0.39783427999857107,0.4174910915228808,-0.033846184760475795,13.027947444450398,7.766919687511163,-23.24212861251027,0.9708855507020236,-0.09175825541776514,0.1910966775879684,-0.11114278038197048
296.0,0.16886177990490653,0.0424163793561631,-0.04140678462298503,1.351609831900484,3.8644844399253127,8.902041834500439,-0.17746956338387732,0.6950321803011729,0.003756982364057925,12.839768495041877,7.918376371096259,-23.4429196367036,0.9706436613100008,-0.09298754335542071,0.19273973273182843,-0.10951241252871144
297.0,0.16340938457610915,0.0391037349929817,-0.03786545068322831,1.332152842217523,3.8640317744941473,8.905352714485243,-0.17298017339700777,1.0008139012104942,0.088284021135946,12.517786513265946,7.8006820411548885,-23.438961738474685,0.9710357369491631,-0.09141229469614354,0.1930793452100002,-0.10678009788109918
298.0,0.1621245903810447,0.034698265158624154,-0.04310997610029686,1.256338962789478,3.8976945804395347,8.901189713804758,-0.052554841672090485,1.3064885886105673,0.0928774223172518,12.081592153264797,7.356575097607155,-23.633287840688393,0.9713280819003619,-0.0869417064937576,0.19561567136460067,-0.10305713785610165
299.0,0.16761661234123862,0.03093645798209135,-0.02695758870031097,1.1942536810160729,3.885401071522235,8.914659623093927,0.05653122775467387,-0.5967847308081375,-0.05576317859952792,11.831464725937582,6.9947606402907345,-23.53204263609456,0.9719041564772768,-0.08323865660128882,0.19541925713873587,-0.10098661898842307
300.0,0.1514813982241205,0.0395571540968866,-0.03292533063579484,1.288234985575662,3.8902412798321526,8.899979393803157,-0.319136132029523,0.8605592709152898,0.08895320520025478,11.712524821100747,7.545064347532876,-23.59237664381252,0.9716212342407552,-0.08794581273537896,0.19533928202877374,-0.09991128767112509
301.0,0.15446555018545577,0.041364317560226294,-0.028439548911618158,1.1736250046832266,3.8825812071484753,8.918504552096215,-0.04784618410700234,2.973210773294369,-0.05457129744108499,11.432559195983664,6.861779251433067,-23.511121492263307,0.9723311033855979,-0.08133708623356188,0.1956656033464464,-0.09757956435708665
302.0,0.18270128507736688,0.04173054587688734,-0.02104005095350493,0.8696197220036717,3.890787531377617,8.946084073283133,-0.16318000449589748,1.3781424450189201,-0.11911552583267768,10.904307631785995,5.085459518189651,-23.48983973998726,0.9734791462972535,-0.06470071396163501,0.19777754193435992,-0.09315676256640815
303.0,0.20067007605559928,0.0541028811209771,-0.026487767412236338,0.7386257539994754,3.8653937656888084,8.971271777003485,-0.3618073507924019,1.2515466355700422,-0.02262817991083136,10.618140243902438,4.314562961297816,-23.291930098160428,0.9743661239904835,-0.057251284549660934,0.1971288890395639,-0.0907929008072009
304.0,0.20993795661458917,0.06144468172792327,-0.030862163276010643,0.7367168708553444,3.8358297553482448,8.985888576673787,-0.38430229290772167,0.2261525420553745,0.014641171181297066,10.386062249447379,4.305111741785621,-23.099800494548724,0.9749290499875611,-0.05662517342460006,0.19566792315342252,-0.08887031087287847
305.0,0.1779917949870743,0.06491510246899704,-0.035833914053426244,0.8560279869618972,3.821545876887341,8.981240905174031,-0.10271861301562324,-0.146650322205987,0.004050522648083624,10.400643241167433,5.0060177119628335,-23.035369366078452,0.9748026597420103,-0.06280105647941253,0.19439922405035404,-0.08900325217601437
306.0,0.17013645048892884,0.06150133003634185,-0.03792079727248885,0.9063818890262636,3.8282345359859127,8.973473755198384,-0.1789034693342325,0.13320805702296656,0.3722249541043797,10.166359447004607,5.299499831403844,-23.087457148477014,0.9747821480046455,-0.06504250155767863,0.19469577317725076,-0.08695886690213929
307.0,0.14450932898729912,0.05109759844142221,-0.03924926005020418,1.1909481473155745,3.877999194485032,8.912669869993632,0.2879232465999775,-0.8527683722977782,0.24790530984226894,10.021883312727136,6.97498887733693,-23.49960672604998,0.9732987152030084,-0.07994772291982316,0.1963734811138399,-0.08560221220514405
308.0,0.1373648139822412,0.040733693005132826,-0.0350888314413098,1.2968863474579448,3.8918123431119103,8.895135092353229,-0.4735885340564234,0.006100078209883508,0.14635135673073318,9.757843701996928,7.595431102712524,-23.611428067981716,0.9730542205676724,-0.08507091873371174,0.19687151250420554,-0.0833212949892754
309.0,0.13919076655052265,0.04168568993293621,-0.037884895657712345,1.3866620958375484,3.906575624742423,8.877225984414222,0.051935694616162736,-0.5796462876063093,-0.014887977220786053,9.596388412760856,8.131632619609606,-23.73653191853059,0.9726942463423529,-0.08961306649962533,0.19749247049216964,-0.08191153509131355
310.0,0.14079296392042262,0.03820171593421005,-0.03480131879659812,1.4532665317897417,3.9100297478550825,8.86548799220711,-0.06601803978869282,0.06393189651942599,-0.09212140796523173,9.561047028961074,8.524989696901578,-23.782101644749165,0.972424635352628,-0.09305598109658685,0.19746988681866548,-0.08159737949323742
311.0,0.14674901652242328,0.04307474429583007,-0.04256963021243117,1.443274586939418,3.893915027537372,8.874989771833201,-0.3396046420141621,0.5867230527143981,-0.03414634146341464,9.359205350118017,8.464702989771833,-23.674134539732492,0.9728129629535798,-0.09208138254445317,0.19676760483713612,-0.07990692819669551
312.0,0.14686463601963207,0.03943647671499757,-0.040305646097935646,1.447532913716234,3.8900117267992957,8.876782286163873,-0.2636377898917238,1.1324692780337942,0.027933807275860773,9.230454319808175,8.492532829418156,-23.651310600951632,0.9729395665500356,-0.09205602403102169,0.1966520984927129,-0.0788007275620621
313.0,0.1427061913562014,0.041536345323264626,-0.04053843774532484,1.4225522508675952,3.902628775225165,8.874530513290344,0.07154825781793882,0.09603229422338166,-0.04678570829554079,9.082062237575943,8.341860435165412,-23.72389853506495,0.9729935267136216,-0.0905516208443034,0.19755029056961407,-0.07755185885348817
314.0,0.14066859528470965,0.03882482097005089,-0.036358912027658494,1.4295452048987858,3.899138935212897,8.875388781428803,-0.30979530460794635,0.6724752344444996,-0.08281948672054773,8.9935045648934,8.377903073601587,-23.699429597980938,0.9730721020310832,-0.09073401205079056,0.19739777732257258,-0.07679473273122875
315.0,0.1450681686100968,0.03896482983986416,-0.04359881085253893,1.495429860513909,3.908436403090319,8.860250842327304,-0.15532607972332804,-0.2987926247132341,-0.08795712239253192,9.020870225995088,8.77088198034918,-23.789205726409826,0.972650528132477,-0.09434227998507269,0.19769318715725404,-0.07699922303900147
316.0,0.1452921488211774,0.050059027823157895,-0.05196069574885011,1.544577833482761,3.907952072512901,8.851431872776557,-0.1276378382487608,0.5160522763530604,0.023032527513411463,9.088938137191093,9.06177667565846,-23.80584278255975,0.972387098606561,-0.09701222718205249,0.19744652566733673,-0.0775484278017588
317.0,0.15286880866558103,0.04849369659488044,-0.047018150879183214,1.4884500759336174,3.891716941430479,8.868016430937004,-0.19421692313322234,1.8188571533127185,-0.06390534371397726,8.792232242511847,8.726288355625492,-23.68061096829085,0.9730127677012426,-0.09342735349239747,0.19697595877349827,-0.07509499134795894
318.0,0.16093745082612115,0.050740361919748234,-0.04878874901652243,1.3941715184893781,3.8837852084972466,8.887094413847365,-0.24525963808025178,0.30527143981117233,0.04860100314712825,8.468093528717546,8.175226199842642,-23.58871705350118,0.9737111065861527,-0.08791737281274586,0.19704618178048783,-0.07236796548780487
319.0,0.15061128282941816,0.04813272264059047,-0.04844873740212058,1.3862881120977106,3.865776497695853,8.896763084934998,-0.3993569929938931,0.5261768948334644,0.0538926393728223,8.252965828837436,8.124655080364168,-23.469260647315572,0.9740971259638267,-0.0870290994562774,0.19626104799376198,-0.070543489766307
320.0,0.14552511146079203,0.04813778989172382,-0.044919261174178576,1.4172381420703606,3.847337173579109,8.900120789779324,-0.2218511155445656,1.2825944958038291,0.041540453710988724,8.05478912601626,8.303329364298827,-23.361045214210783,0.9743098883632497,-0.08821081694895283,0.19533892494158142,-0.06885806803829941
321.0,0.13813794912142668,0.04373421752650708,-0.040878198643737595,1.328918736652804,3.849897343673897,8.912545052639466,0.048295773856356056,0.5145226855494361,0.15634015211119853,7.523275635982166,7.786545558427934,-23.351499569143158,0.9749255866389419,-0.08272963126184857,0.19613181546026748,-0.06436467196358324
322.0,0.1439076842381327,0.041005582406054494,-0.042547675246337735,1.4249825783972123,3.8572106702633846,8.89368401333783,-0.10781021692705406,-0.39104707579333864,0.18433648046157883,7.2608018620508785,8.355826870480687,-23.433470083548762,0.9745913621314299,-0.08737893663407141,0.19648965896144766,-0.062115133338203884
323.0,0.14369499082087592,0.04533048593158745,-0.04226990371286203,1.5505731145329888,3.8825880259263412,8.861146491326664,0.22877093402270426,0.6020276029373197,-0.026419485969053233,7.155091135588775,9.09820749503578,-23.648088306919938,0.9738025566274773,-0.09386906823048968,0.19767403282454757,-0.061174588355175905
324.0,0.14274688097111388,0.05367753175227607,-0.05352819302386574,1.4756052976658798,3.9128861788617884,8.861388145816942,-0.1790573133265895,1.1548780487804877,-0.07375121763890449,6.883747564722191,8.652574369637705,-23.810977717208047,0.9739472181539844,-0.0895675808848301,0.19966276738462402,-0.05887520488572926
325.0,0.14762920085422054,0.05175044022329625,-0.048211869169382957,1.4823149376194222,3.9084054550222915,8.862725562923835,-0.33998468584916264,0.029291942977033525,0.03568103480573977,6.7961124536360575,8.692214604173692,-23.78204895845041,0.974028084852722,-0.08975291867206174,0.19947966759016147,-0.05810195273856354
326.0,0.1496210520400135,0.045623449852010056,-0.0459076655052265,1.568179498707429,3.9024246000524516,8.851040200816755,-0.27011036023378665,-0.007236404593308571,-0.044684069536547896,6.816058783859727,9.201068946461353,-23.781809294331424,0.9737030240746695,-0.09429611107481922,0.19895274424354653,-0.05823430524811733
327.0,0.147649985884973,0.05003712883795863,-0.044327316367419385,1.5245523955030564,3.898177882885356,8.859477248231915,-0.26058408520902,2.121619090258192,-0.10885832847584719,6.588462076320473,8.943720117202645,-23.734407634192955,0.974047183283561,-0.09157202427965613,0.19898716701317903,-0.056332034073658874
328.0,0.1385951542328091,0.05122289675206259,-0.045368178063679696,1.4605306988768096,3.8813316271140943,8.877850777154217,-0.09772628397735324,0.0049821117082407,0.0032133713959848834,6.279741868992945,8.56331143707094,-23.598780265896178,0.974673481726364,-0.08762413296409663,0.19844369019873132,-0.05373925744558787
329.0,0.139785480342211,0.04461951289216033,-0.0415187664511947,1.4854911558900181,3.8889843619441455,8.870296356319049,-0.15473511779512822,0.10526323327347517,0.0058909598915408284,6.167164281270665,8.709024670148374,-23.65657259262551,0.974551154290601,-0.08875842913124186,0.19889114868807534,-0.05273625372279394
330.0,0.1382222332586631,0.04362696074715544,-0.04612036632851593,1.4765973444580658,3.9303485557800606,8.85302068199977,0.1309417728996709,0.28230231556146873,-0.08074787642903757,6.0769337151361,8.652347396518119,-23.92237231781813,0.9741456354287106,-0.08824588902414628,0.20128374061515902,-0.051930794561089746
331.0,0.14384960525845747,0.03887203943843105,-0.04595441717572251,1.5300108598578217,3.9660056442682095,8.827554138534634,0.03388369413782017,0.656530873789876,-0.007832538491765802,6.014117591897974,8.972602972171615,-24.178441038831135,0.9735150235346692,-0.09111840497945914,0.20319597455713928,-0.05138564138323867
332.0,0.1496329796734898,0.035249973207587625,-0.04569288750759119,1.5544240345800735,3.98640867359697,8.815198674668672,-0.17555158879005467,-0.09840373039688499,0.031694195870396166,5.885364309827457,9.1150289804594,-24.314159566677382,0.9732372183652344,-0.09225675223091487,0.20432667960040013,-0.05030077222950381
333.0,0.15886410888436392,0.03238778444611153,-0.047783570892723184,1.602355981852606,3.95125188439967,8.822424293573395,-1.0091880671060622,0.8202063350659093,0.7215324478441038,5.542434771639338,9.400153721466081,-24.10486695334548,0.9735607700094309,-0.09406228486568069,0.2025683246217626,-0.04738468696407138
334.0,0.15310256135462436,0.036459829243025044,-0.046865287750509056,1.6182847497588684,3.8768717179294816,8.851981924052442,0.1341864483978138,0.31618395670346156,0.24317909834601503,5.034241819383418,9.498447156431965,-23.63679647590469,0.9745149258050225,-0.0937846604320723,0.19895391084467545,-0.04308109512431679
335.0,0.14251634337155716,0.04010431179223378,-0.05022541349623122,1.6076651305683562,3.937126960311506,8.827079984281788,0.24837570999892827,0.3989814417890187,-0.4152511342121244,4.788520790912013,9.436475190226128,-24.021141446075802,0.9739686499555246,-0.09296216189333048,0.20247168156717749,-0.04098310723805952
336.0,0.135328832208052,0.04383095773943487,-0.05374557925195586,1.701889400921659,4.01209266602365,8.774776551280677,0.35952291644339657,-0.23901734362161967,-0.06572848569285178,5.005963544457543,9.996751419997857,-24.553053441931908,0.9725224385146287,-0.0986071668913657,0.20628072008466403,-0.04277594869967492
337.0,0.1434421105276319,0.0515016254063516,-0.05956685599971423,1.6787387918408174,4.03192315936127,8.76998231700782,-0.48153109705997926,-0.03603579466295144,0.12662652270210412,4.801522925374201,9.85549065837888,-24.67211557353624,0.9724892290424392,-0.09703260446022222,0.20756520454024222,-0.04100700601632551
338.0,0.1259261243882399,0.021330689815310975,-0.034264994820133614,1.659818704676169,3.9777703354410026,8.799104061729716,-0.32337883578037363,0.8843918568927945,-0.014859741721144556,4.5015919158361015,9.746149707069625,-24.311840236844922,0.9733300540027866,-0.0953405340235059,0.20485210973939916,-0.038514452435966136
339.0,0.13247919122637802,0.021563962419176227,-0.039006537348622874,1.634460043582324,3.957245382774264,8.81287000321509,-0.2783128817918765,0.5072160897367198,0.04693360840210053,4.27609357696567,9.599625352766761,-24.168280909513093,0.9737673656189048,-0.09356851718072376,0.2039523180302218,-0.03660607078019504
340.0,0.1392624854819977,0.027574837960361177,-0.03525739013150501,1.5805840920160354,3.932101457420103,8.833447791390352,-0.349580617061931,1.4425672511333407,0.004917387883556251,3.964901558577798,9.276853621070774,-23.98094278033794,0.9744148008103853,-0.09004163606534038,0.20287057016747215,-0.033971492667191176
341.0,0.1427070922782961,0.035434603424375266,-0.03811134839458995,1.5085570042336365,3.9118195271814473,8.8560767674497,-0.19076537971600915,1.0547047693979243,0.04048063954141845,3.6924712449889476,8.850373253156494,-23.816740661646243,0.9750737227095275,-0.08570850226743097,0.20200908452268557,-0.03169883343580232
342.0,0.14348795474129858,0.03871192536810161,-0.038914353152748125,1.463744707953992,3.8870994717320446,8.874515342250195,-0.4366221291821213,1.1283220467573338,-0.013001807725450527,3.4432690326327227,8.580841388483009,-23.636922558165672,0.9756265394146715,-0.08285506123817016,0.20086283026364693,-0.02959210115799333
343.0,0.15190142744745422,0.04425304409726126,-0.04019527181446931,1.3860505413809898,3.839237907909033,8.907510359297142,-0.4261211644374508,1.4367560694616162,-0.016039114308193773,3.1751243396650555,8.118051262597879,-23.300728944213404,0.9765608573548011,-0.0781556464132479,0.19851223454580194,-0.02733836293076318
344.0,0.15124641264845828,0.045237121126971654,-0.03794709827282606,1.3479830279869618,3.813055973923795,8.92531047918774,-0.28760935334007715,1.2148978119965532,0.03878343823760819,2.900614205162789,7.893439033756697,-23.11659431081638,0.9770791179208722,-0.07562236503458095,0.19727813279517437,-0.025012039733430746
345.0,0.14971091379116552,0.04726375931962086,-0.039959649319995516,1.3475826121164436,3.796524240380654,8.931241092503091,-0.18195892341987935,-0.2817143419130044,0.1341694063542018,2.6850678833689257,7.8988733327713465,-23.01754254711326,0.977298107442696,-0.07525275222262186,0.19657655611153568,-0.023158049302854894
346.0,0.15533333333333332,0.04763210445468512,-0.035286482334869446,1.322640168970814,3.796319892473119,8.935826420890935,-0.14447244623655914,0.26541858678955454,-0.10628600230414745,2.4930563556067584,7.747995871735791,-23.007519681259602,0.9774410381129032,-0.07357313441167433,0.19668079090092164,-0.02152384086981567
347.0,0.17843894009216588,0.050043010752688175,-0.03665207373271891,1.1424020737327187,3.806644393241167,8.954342549923195,-0.16383928571428572,1.6852870583717359,-0.05917338709677419,2.239600134408602,6.683177323348694,-23.019530049923194,0.9779623781985407,-0.063691767218894,0.19744216235944695,-0.019394855539170513
348.0,0.17931044172192873,0.05106084447941254,-0.035548499494211544,1.0957687984713949,3.8062901352515826,8.961192911468284,0.032472322131055414,0.6578984957476304,0.06360641227380015,2.0148095331759768,6.416173757071672,-22.998825680941145,0.9781780013643175,-0.060918189703270745,0.19756924643306734,-0.017467723852984153
349.0,0.16391405342624854,0.04888295680191826,-0.03427578584541607,1.1544396987748677,3.817784084522872,8.949498145442284,-0.19946564384998688,-0.2895463358435427,-0.07262747742684801,2.0150132535311527,6.763218406953655,-23.088290528642613,0.9778757826906075,-0.06402875899142033,0.19817252348919118,-0.01745091966842756
350.0,0.10877374395863773,0.049964220149113926,-0.07361769884979956,2.155903113409014,3.6572059870368285,8.589463676894834,-4.407546082949309,-21.567408021430442,3.8507713274137347,2.3392119534674607,13.236275804578323,-23.029273678393466,0.9679257432891235,-0.12077500590330073,0.18887794033400776,-0.019851080950133
351.0,0.13102435277808996,0.1017586077704095,-0.1459870368288936,2.5115260574725555,2.8922274174815477,8.770952268554943,-0.9375768049155146,11.952480705106593,0.622697491663857,89.57948020868457,15.234670160353678,-18.239324819227456,0.9729665863649919,-0.13562306011370875,0.14914054767929266,-0.011247246995803829
352.0,0.22685135046827903,0.10057092321860953,-0.04657262747742686,2.095704264045105,2.7444638319858705,9.030952414061701,-0.24876799557032112,3.82960882860088,0.4315947671586888,46.95812427627813,12.545592256077956,-16.9227443184838,0.9795399317692856,-0.11390627629368144,0.13996341578048868,-0.024416102887838687
353.0,0.23403262139576703,0.13510038049582082,0.005536510434228762,1.6035750348737006,2.8212658600190115,9.145162430851613,0.9129541967373374,10.618621946427375,0.43563037972036567,24.84592034877186,9.500014572458445,-17.142207927853043,0.9826439827071671,-0.08728428672370184,0.1441071854688289,-0.024115188065065046
354.0,0.24833342569091754,0.06367672188081865,-0.03054641273558808,1.3062187145218358,3.28833431964263,9.057739558583023,3.398777405588331,-1.4242859304765219,-1.0475357460880899,14.13206155687441,7.722037682221078,-19.932559841288718,0.9803210448559769,-0.07329826111289582,0.16909847357632135,-0.026781707031228626
355.0,0.22635081984781913,0.052564560783052924,-0.04032592076590577,1.3567710409745293,3.669818615368128,8.943007466152249,1.7292126603079343,-0.6031441454113529,-0.7316406110456185,9.464280188350658,7.970833947326116,-22.286932949755297,0.9771684618253135,-0.07793710329366271,0.18899069453875078,-0.03389527579492194
356.0,0.19405444218197407,0.041536312649590984,-0.04034844425392064,1.4918976172614584,3.8708528560711617,8.859761797592256,0.4734772978959026,-0.5947424356089022,-0.4668787732647447,4.493959650626942,8.751823223663058,-23.587040063587324,0.9749003212352376,-0.08629988828392812,0.1992367207088915,-0.0384970844337513
357.0,0.15998854068917925,0.026993889587379433,-0.0343244975006818,1.4411595930341474,3.9468700816319062,8.84427974240947,0.1363364523622195,3.0946909745729116,-0.06252470674288779,4.494483393278633,8.447195438885853,-24.03609077356447,0.9745178638080203,-0.08371792391205904,0.2034069557209398,-0.03848945777988226
358.0,0.16670317971478932,0.030605239724565303,-0.0295969645721535,1.0068278763941858,4.000458850339763,8.875830347395212,0.23073063017496537,2.0665947192373006,0.29971882942425504,3.3748818656101305,5.900729055848456,-24.246708021190837,0.9756282664239795,-0.059088970838517996,0.20730109540655278,-0.02900229097519458
359.0,0.15524063354688844,0.0327273331834701,-0.023571747030834367,0.8249789723127646,4.00893052901727,8.89539954479038,-0.23212892454385375,1.8618225712787082,0.13727479534299952,2.6744801033119776,4.827013377636656,-24.24357268133453,0.9763252099711797,-0.04827329832820052,0.2082823925839608,-0.023041718165945448
360.0,0.15489009403918927,0.0410051796485707,-0.023113062455509356,0.8185530422239707,4.0127607714210765,8.89804136225694,0.02008425124573826,0.37932718425686573,0.2180313588850174,2.1603403300738075,4.793759424993443,-24.25744662292533,0.9764987080921564,-0.04704508852354726,0.20881153889681914,-0.01867313961811097
361.0,0.15148536960023984,0.032595331759769225,-0.017270240905174032,0.7914660372410176,4.014561837323442,8.901956164999437,-0.34429255179648566,0.9999962534187554,-0.044613352815555826,1.8391419392304522,4.629717414109624,-24.256319077591698,0.9766724119372071,-0.044990502874676847,0.2090878297226031,-0.01593063176066839
362.0,0.13995590273875091,0.03153763440860216,-0.01438649732119441,0.7320705481248361,3.996785245963057,8.91599775205125,-0.4225642538683452,1.6352262935071744,-0.22052658199393055,1.5639454778764375,4.276355559926567,-24.128626690644786,0.9770778846310738,-0.04132370886062717,0.20827354729245817,-0.013634285738713423
363.0,0.14598639991008205,0.03463440860215054,-0.018058072009291527,0.7118855044771646,3.9729279532426656,8.927061856056346,-0.1964107751676595,-0.5869471451050915,-0.0337271926866734,1.5123058802592633,4.161550475815818,-23.97332832228092,0.9773523985889625,-0.04026991386733356,0.20699953261934734,-0.013188218760293729
364.0,0.14951009703645426,0.035946236559139796,-0.012654228016934551,0.7253513543891199,3.9541175864523614,8.935259038627247,-0.3521176379678543,0.9591185933460717,0.08538294743546515,1.3895054746918436,4.238777350043086,-23.85143950676258,0.9775915915103031,-0.04066351302045633,0.20598414603317594,-0.0121494335775355
365.0,0.15368736652804318,0.033672979656063855,-0.010604679479974524,0.7071416020381402,3.9370025945075113,8.945232924955976,-0.056686301094001704,-0.43656587192312013,0.06721811659360834,1.114325931493762,4.136675049642202,-23.74494428131205,0.9778613349706173,-0.039220839334213775,0.20514958504255176,-0.009795477651418083
366.0,0.15641472781087262,0.03831536847626542,-0.020953261398973445,0.8579006781312053,3.9625863586976884,8.91926623206324,-0.09910807950245398,0.21527961204151208,-0.15730396013637554,1.189196615900491,5.021289713761193,-23.942713836124536,0.97718988075739,-0.04725480770051703,0.2065267939500393,-0.010386695120639916
367.0,0.14452128994792254,0.045770587463939166,-0.02409032070735455,0.9865089543291746,3.9705347214416835,8.902095743883708,-0.20373381945224983,0.07939924740549247,-0.07504753474954104,1.1907479932374208,5.77263836592859,-24.028492047881308,0.9767391950262166,-0.05398649682350792,0.20699296223229735,-0.010410442197613428
368.0,0.14773241916750968,0.04640545502229218,-0.01995241841819341,0.9320851223258776,3.9446342962047125,8.92057206549024,-0.28961892585515714,1.1231421640253267,0.04765768423813271,1.0399556498445168,5.448768779738488,-23.843580701360008,0.9772427653881083,-0.0507893791012701,0.20559252167663256,-0.009120626735903489
369.0,0.1417233524408977,0.04389397175077744,-0.018885579408789488,0.7825556179985762,3.9044200666891453,8.951663144880296,-0.44468945524708703,1.080695505975797,0.10939431830954255,0.6007813963508298,4.570342531190288,-23.55333796972762,0.9780788583269264,-0.0421616472326627,0.2035324562845528,-0.005384400103742835
370.0,0.13793091304184935,0.0410697238769623,-0.01936804540856469,0.8113761567569593,3.9022179011651876,8.950650612566037,-0.2309255694803492,0.34529956258663963,-0.15943049623468583,0.5476123740212057,4.7420949477351915,-23.544568276759954,0.9780537494112995,-0.043587765697369905,0.20345838613991607,-0.004948627833146004
371.0,0.13718742272676182,0.042216889588250726,-0.018773884455434414,0.8207418418193397,3.857522161028063,8.969791512120192,-0.5168884759844142,0.09454878282941813,0.27740360748941595,66.71406636366191,4.80024294237758,-23.25536305543067,0.9785620641526543,-0.04373447448078941,0.20107403578117156,-0.0032857484749447374
372.0,0.1501175298179946,0.047748542318506455,-0.0196381612824809,0.882079097953931,3.81904033782836,8.980488873089357,-0.45217841372364,-0.0798349249768888,0.15378115952115207,119.7488063204281,5.158105107722924,-23.02049086286162,0.9788445420346917,-0.046540754060255915,0.1991116811830651,-0.0015308414736876727
373.0,0.14414401836521845,0.05077000848644218,-0.02344734485014982,1.0362570989001607,3.8046394085455173,8.969108491844215,0.08697722939010011,-1.4656687105683215,-0.15857529005509216,68.81214197549822,6.066838172141032,-22.9688127797411,0.978538801394266,-0.05463009941108035,0.19840837806945116,-0.001674599662727093
374.0,0.13325027249843818,0.04908577318545665,-0.02584501526078384,1.197918965804169,3.836055825803141,8.935160209913107,-0.030905374427230528,0.3382230575065369,-0.1128175118692565,34.66846197612121,7.016325945597897,-23.213228829855545,0.977648066112643,-0.06341313958016509,0.20008529012849907,-0.003194139562233765
