time,linaccel_x,linaccel_y,linaccel_z,gravity_x,gravity_y,gravity_z,gyro_x,gyro_y,gyro_z,euler_x,euler_y,euler_z,quaternion_w,quaternion_y,quaternion_x,quaternion_z
0.0,-0.019302325581395344,-0.0730232558139535,0.020930232558139535,4.861627906976744,2.2606976744186045,8.201860465116281,-0.22093023255813954,-0.06395348837209303,0.036337209302325583,76.49127906976744,29.719476744186046,-15.401162790697674,-0.7525123767441858,0.27792855209302325,0.06564969860465118,0.5934334688372092
1.0,-0.023798449612403096,-0.07193798449612403,0.027596899224806203,4.863023255813954,2.244263565891473,8.204651162790697,-0.2451550387596899,-0.10174418604651163,-0.41230620155038755,76.76550387596899,29.734011627906973,-15.286821705426355,-0.751143106976744,0.2772633156589148,0.06708520713178294,0.5953080520930231
2.0,-0.030664451827242527,-0.07707641196013289,0.03308970099667774,4.745016611295681,2.237176079734219,8.272956810631229,0.09925249169435217,1.7205149501661128,-0.2796926910299003,76.68355481727573,28.937499999999996,-15.12126245847176,-0.753004308039867,0.27157319043189376,0.06313326511627906,0.5959093465780729
3.0,-0.026093023255813953,-0.07106976744186047,0.030449612403100776,4.582961240310077,2.2961085271317825,8.347410852713178,0.007558139534883726,0.1432170542635658,-0.6119186046511628,77.40658914728684,27.87470930232558,-15.365891472868217,-0.7507267441860463,0.265982126635659,0.05694220489922481,0.6018631335813953
4.0,-0.036834565784303205,-0.07973421926910298,0.03501018111670775,4.515196299074768,2.3104058157396477,8.381189583110062,0.3423668417104276,0.7244445039831386,-0.008839263387275365,77.65295788232771,27.41556594505769,-15.405154860143607,-0.7501228859271961,0.26328439270389026,0.05456490823848819,0.6040518677083555
5.0,-0.04319222662808558,-0.09474332868931518,0.04213374772264495,4.44295073768442,2.3356042582074084,8.413955631765084,0.2527663165791448,0.048925177723002145,0.09701979066195122,77.24766236201907,26.94336530561212,-15.506684706891008,-0.7529286299253386,0.2610525699228379,0.05020175035330261,0.6019419546943878
6.0,-0.03858035937555816,-0.09147143928839352,0.038092380237916626,4.503418354588647,2.262419533454792,8.402184117457939,-0.19204801200300076,-0.6840192190904868,0.37010591933697706,77.03537938055942,27.343072375236666,-15.059090665523524,-0.7538049190511914,0.2613417726170828,0.05479866867252525,0.6003339501228878
7.0,-0.04058657521523237,-0.08424606151537885,0.037739434858714685,4.561488943664488,2.1855960418676093,8.390886293001822,0.1508970992748187,0.4830046797413639,0.9490966491622905,76.56218742185546,27.724422176972812,-14.587195906119387,-0.7560310066948879,0.26155565846926015,0.05884368631729359,0.5970171244114602
8.0,-0.046876366304119586,-0.07996002049292811,0.03855747473453729,4.540505418166388,2.1272218403032817,8.417522263841223,0.19857193719161498,0.3417044102053388,0.3844646375008386,75.92011455607803,27.581827349258916,-14.16976726215526,-0.7599287194181079,0.2588774734445546,0.05906553749555419,0.5932193965937782
9.0,-0.04566168545620726,-0.07727263697457468,0.03228564980966496,4.539465458699169,2.1128275100133918,8.422194311644112,0.2607443019291408,-0.4917101988911863,-0.16390247387630885,75.6393487526934,27.575331877394433,-14.073146879925556,-0.7614781750201138,0.25849703560860604,0.058997326255457574,0.5914403247139399
10.0,-0.028559953577244498,-0.07731473809218856,0.031583828012752314,4.555487739530703,2.176481986350246,8.396826445287282,0.3068894945861901,-0.3819616707312717,-0.09742832049475786,76.10964419022874,27.689335552529247,-14.519955446178617,-0.7585284060532642,0.2612085721307418,0.05798096656841038,0.5941196439761247
11.0,-0.04650428286514139,-0.08117424826589924,0.03889018857501832,4.568212736982156,2.2067556218322872,8.382336703513857,0.19878420715806128,0.4411225029689477,-0.42603505297055977,76.19379433817514,27.76753911910033,-14.742676522789232,-0.7577974425577649,0.26276286752823663,0.05729509022719094,0.5944514230870872
12.0,-0.04579438413610372,-0.08591738526966239,0.042682421476449246,4.420085631163889,2.282943863143486,8.439328874030355,0.77198714966198,0.6947596001787903,-0.15078154338236127,76.38474759151461,26.801300281516372,-15.127866679213357,-0.7579617549655183,0.25864371884476345,0.049623739322504835,0.5966623364974606
13.0,-0.04874298278402353,-0.0863064503059563,0.04865828390895634,4.449822516604762,2.353092702618163,8.40524665574059,0.44119125382390895,-0.7094160299656795,-0.11067302975569676,76.20105298537177,26.994523075455273,-15.633883182250266,-0.7582034199296512,0.2624906058503912,0.047317010695870826,0.5948859855107287
14.0,-0.07539530091582129,-0.09781451547555878,0.06661255209272701,4.515238447242474,2.353425767591723,8.37084222187951,0.04909025056786845,-0.7564169243530394,0.38212508266439427,75.92169584752459,27.421445485500293,-15.697226729373982,-0.7589646881230437,0.26557626550276847,0.048816291699701926,0.5924406412292507
15.0,-0.023143212632426392,-0.09673901750698999,0.031666397435595836,4.555402746156924,2.3373123367949997,8.353620784987186,0.45089611906460936,-0.556181608555449,0.2630437334943492,75.55797628631896,27.68225692093755,-15.626563446175133,-0.7604783744892878,0.2670380027291857,0.049971718275387655,0.5897485292410349
16.0,-0.030254345182748013,-0.0919233517597011,0.03749895606622593,4.675608008828309,2.331073477270172,8.28805365785539,0.44355443271650985,-1.006827675995654,0.3922759757289655,75.3343464429617,28.483666225591872,-15.700372103637248,-0.7602555811868794,0.2724593722624309,0.05373471420793866,0.5871950776775319
17.0,-0.026321489027625926,-0.0982082196586524,0.034962995698243536,4.742949933753632,2.316059012060585,8.253070607729537,-0.11208415076924122,0.6552603171481024,-1.0853520274965005,75.36933816003692,28.926908957650006,-15.662110014952264,-0.7593147458737777,0.27500260703751345,0.05664039525681111,0.5869092482320071
18.0,-0.025890146376473758,-0.09344293843891761,0.03029159061621598,4.724891522235168,2.2832902419459793,8.273070626719875,-0.3984712421275258,-0.20806550314625688,-0.047847847865316095,75.57519087205183,28.812520403842846,-15.415119468713392,-0.7586798836997015,0.2729461879186067,0.05795143174977126,0.5885884094626452
19.0,-0.002971762896378193,-0.09118133865110244,0.025854128641441324,4.69178197463525,2.2664485003892723,8.297085044542733,-0.10725453427420838,0.21636735403363036,0.2983819036403067,75.92403576820718,28.593187765285478,-15.2691332750633,-0.7574120763901735,0.2706632255026981,0.05835386925622202,0.5912574254838188
20.0,-0.03218190911364205,-0.08486664685651932,0.03696847101385737,4.69302929628511,2.249312937000484,8.302137750346677,0.21944614603326157,-0.7323237059264815,0.04642840905031452,75.87453641007654,28.600677716101103,-15.149893449417549,-0.7577510391214768,0.2701353021288764,0.05902443145115824,0.5910257562913943
21.0,-0.03215928982245562,-0.07823866680955953,0.034348229914621525,4.8173882756403374,2.2290495838245277,8.234308577144285,-0.10717969670989176,-1.1684405476369093,0.5503083360125746,75.83698603222234,29.435626763833813,-15.132640302932876,-0.7565452887589754,0.2752051436989605,0.06398177756439109,0.589668792273604
22.0,-0.03586075090201122,-0.0853674132818919,0.03950130389740293,4.880806272996821,2.174774407887686,8.211685778587505,0.03528783981709714,-0.037969313757010625,0.1054393062551352,75.54886936019719,29.856446254420746,-14.823616618440324,-0.757551738258136,0.2764296834508628,0.06762259858250276,0.5874027143203657
23.0,-0.042557660321003596,-0.07826482753092454,0.037954044260193984,4.8085343461300845,2.152879400163629,8.26057190691401,0.22576950313362312,0.6053943799538735,0.029426101081019375,75.3986284572014,29.369333404779766,-14.601011669511454,-0.7593315615272895,0.27237476199595634,0.0657274701984294,0.5872212411667332
24.0,-0.04331809433194536,-0.07860114854497596,0.03911995420457903,4.801047735801546,2.1486515879841037,8.266592667330597,0.08342198790115647,-0.5353849350839452,0.1128003037344702,75.24676819248366,29.318560149619284,-14.566911762783903,-0.7602236664402773,0.2719950242620934,0.06529233508516502,0.5863188037614978
25.0,-0.0411131964175713,-0.09774875774692804,0.04068382949395887,4.918039675424083,2.1398461026406426,8.199232639170244,0.03659587588534764,-1.010833609970437,0.1079286589940168,75.1986986838173,30.110638450117754,-14.626023666195294,-0.7590612442837973,0.27719270323525125,0.06947424502659635,0.5848807243099277
26.0,-0.04748389821560553,-0.11433915415819429,0.049619006747252226,4.90830613655948,2.1915424334385776,8.191798001369206,0.4794075335233872,0.17943835766908156,-0.2391437486588942,75.46801537205255,30.041210584262313,-14.975787612269713,-0.7575394031430579,0.27834355558679974,0.06763669076297424,0.5865423747076475
27.0,-0.04747824032346382,-0.10944532458740279,0.046660859069693,4.906516337668514,2.219887424342623,8.185493810101242,0.2597372349501693,-0.23832544392829275,-0.026747887082635396,75.3977534215673,30.027897851878237,-15.164708657169044,-0.7577585269963671,0.2792566491433802,0.0662423374491469,0.5860050269990922
28.0,-0.03831425784859266,-0.10127655686490517,0.040372128984099066,4.943305375757939,2.209105789275954,8.166189076569113,0.10245418002425853,-0.23568022786501183,0.06318978580565318,75.32756475169631,30.27520974419246,-15.131306924965324,-0.7577123284863818,0.2806527429273157,0.06776824761521075,0.5852295737119773
29.0,-0.042071032487295094,-0.10257020305123793,0.04154176491541321,4.952440219256588,2.2074838451456387,8.16162213185542,0.2801736450306748,-0.1748993754813426,0.14724951431079183,75.2215757331596,30.334205552100727,-15.129717660152288,-0.7581443621319924,0.28106414831165905,0.067896237098415,0.5844678935177847
30.0,-0.04411539335578273,-0.10779047786970498,0.04736842470041015,4.966243151102949,2.2253241038324196,8.147781112010659,0.26823102374421603,-0.05648770617385103,0.08209729939809945,75.1164762306351,30.43404786053577,-15.264839628847266,-0.7584149126174557,0.2824022240175807,0.06739700166364682,0.5835291759025174
31.0,-0.050727307262355664,-0.10414621076872005,0.04927975896413128,4.985818414533948,2.223383084447069,8.136821487601864,0.3382155425615986,-0.2528914567492047,0.17121631235334966,74.9548017448613,30.564681512277026,-15.272051135606201,-0.7590059346748534,0.2833683733691873,0.06769097221353246,0.5822550070333872
32.0,-0.05298931004528136,-0.09266611077856571,0.04949537907124865,5.007577338585518,2.217488169951895,8.124869858579629,0.2567301232973749,-0.19126438839675075,0.12361877490278493,74.73021407573148,30.713632730917922,-15.25207913476627,-0.7599003597587464,0.2843207686820573,0.06812377102103051,0.5805719925969994
33.0,-0.04930053942056943,-0.09273407637623693,0.04820294359304113,4.997271460722324,2.222366484478262,8.130321687564749,0.4778661183152931,0.4633055585324903,0.013663013967777658,74.5458730754117,30.638041206730254,-15.27484772978959,-0.7609406304745829,0.28408268631640055,0.06708353307112494,0.5794370010150751
34.0,-0.047318793984210336,-0.07951291394277141,0.0408184188904369,4.9890197549387345,2.2150789483085056,8.137347372557427,0.06751353016825631,-0.46568003608044867,0.15915027864108883,74.44398264744757,30.581827376486977,-15.218168381381059,-0.7616143358530704,0.28350655877344333,0.06684576698210265,0.5788628817991999
35.0,-0.04800450112528131,-0.07022041224591861,0.03816132604579717,5.007532597435073,2.1989761726145827,8.130247561890474,0.29156396241917626,-0.19104552923945273,0.19704256421248167,74.21835146286571,30.709760029293037,-15.12774398956882,-0.7625876578776837,0.2839807637891616,0.06759732144464686,0.5772601949305183
36.0,-0.04252438109527381,-0.06444253920623014,0.03445575679634195,5.001932090165399,2.1763260457971643,8.139163540885223,0.046686894938020224,-0.10715067159647054,0.2957737202157682,73.90160821455363,30.676358821848318,-14.959572482406315,-0.7643811925059836,0.2831409576597721,0.0676022929466295,0.5752963605972921
37.0,-0.04064259967430882,-0.0604832305637385,0.03128355259546594,5.010500064040401,2.1342065394397385,8.14564982709092,0.060709155947523456,-0.1983754322727023,0.19067457413133773,73.58188937478272,30.727522963057837,-14.677016815179403,-0.766119674943187,0.28229071152086804,0.06884073942290451,0.5732551799273599
38.0,-0.039357583298263596,-0.05883153715258084,0.035788520300806925,5.0350505919162725,2.1328163138345566,8.131303496605863,0.14061785263389018,-0.29594555651107896,-0.0047275538396794325,73.51479561963663,30.89525506376594,-14.692985746436609,-0.7661253203756426,0.28344072489323546,0.06954788424972097,0.5725999671265987
39.0,-0.058025699804742134,-0.07244474010488686,0.049055443303334556,5.017602100873651,2.1436730088445457,8.139013838825559,0.29433703155754093,0.6918722276387912,-0.017224634991500485,73.44043017505248,30.781784731897258,-14.752516254063515,-0.7666628623513981,0.283020444531246,0.06830917340410886,0.5722316295363998
40.0,-0.059811085175475065,-0.08289385935334007,0.05036721723985005,4.982842775153717,2.1551255409671235,8.156854649202373,-0.04073671945861029,-0.36428608458734885,-0.1006185779894451,73.41490103579903,30.54573241524667,-14.794071285678562,-0.7671952563335958,0.28178239787077425,0.06664521767926301,0.5723201656000148
41.0,-0.054264132235149386,-0.09521287116204138,0.052404163758709724,4.9995196621455005,2.2169251110687087,8.130062733453396,1.2263261263922254,-0.126066523163892,0.19622109360092635,73.34593045038264,30.65632926088665,-15.249741006680242,-0.7669526221277881,0.2847224908183579,0.06440143078261726,0.571428489938042
42.0,-0.04370300763344147,-0.09608288831789827,0.04871791118511336,5.0122293901001385,2.407131582547205,8.064562482083932,1.991325411927895,0.014529165828042388,-0.6966610990726775,72.87470223392086,30.741075349412267,-16.611940114819646,-0.7678847511854707,0.2920726550766699,0.05548529101473974,0.5672397515824861
43.0,-0.04151895116636302,-0.08959186225127709,0.04879219804951239,4.936293001821884,2.6403479441288895,8.036626656664167,0.6640443593041118,-0.5670245686421606,-0.5732158486050083,73.046684662237,30.226114564355374,-18.170461142071233,-0.7664470394750474,0.29639106366645235,0.04358090422034079,0.5679413637780873
44.0,-0.03226145822169828,-0.08146679527024614,0.03948933661986927,5.016886364448256,2.721435716071875,7.960853963490875,0.5974998213839173,-0.6789163808809345,-0.20977677455078053,73.47829926231557,30.774520639088344,-18.865656146179404,-0.7626775927790875,0.30291518300718034,0.043934659825492085,0.5696128832624228
45.0,-0.0360347229664559,-0.08028792912513841,0.05295895402422034,4.932314149966063,2.718329225163434,8.014255706783839,-0.33695477440788757,1.58515298467474,-1.0460606222984317,73.90920051441431,30.199976333369055,-18.72492676740614,-0.7616556522766404,0.2985761787693352,0.042386941291394274,0.5733526044307506
46.0,-0.05447218947594043,-0.07996963526595935,0.05707230379023327,4.9181023827385415,2.7299076554852997,8.018097381488229,0.4777533669131569,1.6525928357089272,0.604245927553317,71.99373727360411,30.109185778587502,-18.79163094345015,-0.7710036742480263,0.29897266939145506,0.036316458206873146,0.5605181770040724
47.0,-0.05802629228735755,-0.06868860072160897,0.05914585789304469,4.641412495981138,2.735106991033473,8.176909227306828,-0.011281838316722026,0.8555241488943663,0.05159772085878617,72.55554960168614,28.268602865001967,-18.488046118672525,-0.7717374638280999,0.2858140204326082,0.02872649146072232,0.5668447120083593
48.0,-0.08539920694459328,0.06394205694280714,0.08408852213053264,4.31336619869253,2.3829607401850463,8.440333297610119,4.072192155181653,3.690891472868217,16.147364966241557,62.691168327796234,26.114477280034293,-15.797766405887185,-0.817428033180438,0.26022981307934123,0.013246416904226056,0.4976229736559139
49.0,-0.06208695030900582,-0.01980459400564428,0.05038956167613331,4.2074797270746265,1.946727038902583,8.60554424320366,3.310996275854678,2.5275102257707287,13.832427973064695,48.5738700300075,25.42256211374272,-12.768569374486479,-0.8741525341712213,0.24463812161951198,0.00017378657914478637,0.3934729250173257
50.0,-0.190270603365127,0.0332708177044261,0.07358339584896223,4.511800271496448,1.7138818633229738,8.50567874111385,3.309447897688708,-1.1137762119101204,8.251788393526953,36.02310399028329,27.422895902547065,-11.38349989283035,-0.9101838754093879,0.2552483460688386,-0.012652227014968029,0.2954431823182581
51.0,-0.19443682349158717,-0.015074840138606084,0.09354302861429642,4.453357982352731,1.5762294144964815,8.571483585182008,-1.1596336584146036,0.3291604151037758,-0.4647188582860009,33.54055478155253,27.020603365126995,-10.409441646125817,-0.9229043342853569,0.24906463340156465,-0.012236747373271887,0.2780955464448255
52.0,-0.17070946308005575,-0.046039188368520695,0.06815811095631051,4.2682670667666915,1.4681743650198262,8.685409745293466,-0.9473864001714714,2.313365171650055,-1.0693778355303114,33.81020478333869,25.819922614582218,-9.589004393955632,-0.9278727119236951,0.23713192779730646,-0.009135893835065908,0.282333306095631
53.0,-0.10157735862537065,0.03924677597970924,0.04003286535919694,4.202223234380023,1.5749774943735932,8.69359304111742,-5.553543519808523,-4.091010475833244,-19.227312408459255,44.80196500017861,25.390801941556816,-10.28875968992248,-0.889121308695388,0.23522081444789766,0.00868415953631265,0.36628720808005577
54.0,-0.10238345300610871,-0.07858643232236627,0.07363340835208801,4.428815060908084,1.9804293930625512,8.489886042939304,-2.949661522523488,-1.883412817490087,-9.934726985317758,59.595796270496194,26.86109920337227,-13.165463240810201,-0.8278075530529061,0.25452445548137026,0.0283298738516772,0.4740927536084022
55.0,-0.07860357946629515,-0.09893687707641194,0.06803950987746937,4.440326510198977,2.195781088129175,8.440096809916762,-1.5333922766405885,-1.21810363305112,-4.960166380880935,67.2459007609045,26.931112242346302,-14.596492873218303,-0.7974977144596861,0.259833426244061,0.03513706035794663,0.530686649842461
56.0,-0.05693644839781375,-0.0969530596934948,0.05337684421105278,4.503083735219519,2.2794576858500335,8.391755831815095,-0.42538424784767614,-1.3109694834422891,-2.194993167934841,70.87810323116494,27.34418046475905,-15.201847336834208,-0.7824284914849068,0.26439242808677166,0.04082689030875576,0.5572014596016506
57.0,-0.04126481620405097,-0.04460315078769692,0.09008552138034509,5.4351042760690165,1.3887261815453864,7.128160540135033,10.744232933233308,-38.91996436609152,26.470564516129034,73.37458739684921,35.16224681170293,-2.4915135033758444,-0.7655951832978244,0.32097666157089266,0.10057553458664666,0.5012620215318829
58.0,-0.24572618154538625,0.11321230307576893,0.19700075018754687,6.339903975993996,-2.7366421605401348,3.9182625656414105,20.742943548387096,-25.39518473368342,20.616893285821455,200.45173480870216,41.3664759939985,41.19896380345086,-0.7256623071215302,0.47687928773593385,0.18132553202700677,0.10930966985821455
59.0,0.009241185296324173,0.4548657164291071,0.38452813203300834,6.014498124531132,-1.7458267066766684,4.790594148537135,-11.64163306451613,30.036372374343586,-28.897198518379597,170.11530851462865,39.12971680420105,30.67740763315829,-0.742562660136159,0.4317583595431357,0.15404805064591148,0.20446388584808697
60.0,0.14366785446361593,0.15411702925731427,0.15679144786196553,5.0596721680420105,0.364566016504126,6.668069017254313,-5.682547590022506,14.96532140847712,-14.513115388222056,121.73973884096023,31.939834958739688,7.267975196924231,-0.7591263918197675,0.3417535664107276,0.08934534284733683,0.3913057982353714
61.0,0.15986496624156038,0.019399849962490605,0.04952738184546138,4.7447636909227295,1.4122505626406603,7.52712678169542,-2.802700675168792,6.8495405101275315,-7.282773818454613,97.48982558139534,29.405710802700675,-4.534227306826706,-0.7660294899699924,0.3040361683345837,0.06241643722430607,0.4830420709302327
62.0,0.11481370342585645,-0.02835494587932699,0.01145500660879507,4.658912585289179,1.955148429964634,7.944736898510341,-1.5083659307684065,4.65837441503233,-4.114198192405244,85.32658164541135,28.54649823170078,-10.86768343871682,-0.7687901544461115,0.2877109965891473,0.05073541452863216,0.5301533472357376
63.0,0.0821030257564391,-0.05580537991640769,0.0010913442646375937,4.649703854535062,2.3088457828742897,8.216299432000858,-1.2004273389776015,2.082328617868753,-1.9826898688957952,74.6998624656164,28.368851141356767,-15.031483317257884,-0.7737838068367091,0.27698700225556383,0.044753764383595906,0.5606716754970886
64.0,0.052703890258278846,-0.08805415639624192,-0.0045129139427714056,4.739673847033187,2.353847747651198,8.244054227842675,0.11624334655092344,-0.32286866359447003,0.419837102132676,72.223471046333,28.91248705033401,-15.924068070589074,-0.7749543224027434,0.2776164883917408,0.04742332236666309,0.5656918100125032
65.0,0.02251848676454828,-0.0916114742971457,0.011303182938591798,4.778587861251028,2.3579966420176475,8.222413460507983,0.08906690958453897,-0.1879487729075126,-0.05367859822098381,72.13250634087092,29.16615537813025,-15.990658378880433,-0.7749611400310792,0.27955797013360484,0.04824511560568713,0.5647239990197549
66.0,0.002015503875968992,-0.0853697352909656,0.01943628764333941,4.826534312149467,2.3444230700532267,8.198758618225984,0.23278810774122102,-0.3477253241881899,0.05448571964419675,71.92108741471083,29.490248678240988,-15.94879076912085,-0.7754857808957596,0.2814741709554175,0.049859450885578534,0.5629298710741971
67.0,-0.010390097524381098,-0.0809002773341419,0.026058857920054933,4.857978762983429,2.376029956966593,8.17065670598834,0.3954382541628439,-0.33797462867459027,-0.1980958545385475,72.01737231999637,29.704982648101048,-16.21244144877683,-0.774403157356482,0.2840393806422773,0.049727966066969706,0.5631441969143418
68.0,-0.020615868252777482,-0.08622676139418128,0.03244196066438213,4.902556523277161,2.3992604684272116,8.13753747670367,0.1745314105094218,-0.2159957182239811,0.23682733618944807,71.96117874743076,29.999750236993044,-16.42437503975297,-0.7739580066220126,0.286953240347038,0.050044707197204344,0.5622437265702706
69.0,-0.04080698746115101,-0.09911389868373016,0.04574550432033097,4.921681308828948,2.400589223961042,8.125553113016931,0.1546447151857651,0.006918704850428628,0.03458579148271389,71.78837893271228,30.127316018900196,-16.456393660697405,-0.774547605120923,0.2879734504993147,0.05013835023124247,0.560909466594802
70.0,-0.05498713964205338,-0.10765147297277283,0.056571176766317025,4.89884140460202,2.3826051896249316,8.144588259434197,0.1602415248847055,0.6292564266937815,0.5064620630331799,71.35046759838914,29.971806921678155,-16.29850346950849,-0.77711995247419,0.2864239609173243,0.04910244352897458,0.5581988520971009
71.0,-0.045417495488854806,-0.1108163887661811,0.06879502976789492,4.698512250013723,2.2854783469386506,8.281984006454575,0.19457003841552722,2.630828547729267,0.935998045678667,70.4250154437564,28.641823293366897,-15.432215795673656,-0.7845994954201531,0.2740369564944982,0.04478071003637669,0.5539665849552979
72.0,-0.06328939290571772,-0.11314462239253194,0.06563984375884913,4.502526778035971,2.2935692285440696,8.388426306925162,0.8568837603564654,1.5237295767757268,-0.17533791657844772,69.67625182101274,27.346486981065823,-15.292356914359251,-0.7905016691294315,0.26525928639516416,0.036536090723145065,0.5504564289442107
73.0,-0.08831431028488829,-0.12616310175104753,0.046136643917076836,4.533776517300057,2.353048323056374,8.3462127605072,0.401380985490275,0.6744885916601101,0.2016293707573235,69.53801461035991,27.57398541708598,-15.740493888716081,-0.7902470020848993,0.2689204885377564,0.03468834195348837,0.5488629518711873
74.0,-0.08366953323696777,-0.12754141584176532,0.05527012240865094,4.37058668325618,2.3416141840338134,8.442382449270854,-0.2898149461145774,0.5797424203611878,0.11525579565623115,69.12166578229923,26.490598297440215,-15.496676989369295,-0.7943370129666808,0.2608709895989607,0.02922452886871718,0.5474143026722779
75.0,-0.05431788739867893,-0.1144796351526906,0.05225621649314768,4.328684189340018,2.275473258558542,8.486675095603168,-0.25330957358242,-0.41307796461310453,0.3569292856750773,68.95737733976176,26.207274017437285,-15.000424953799424,-0.796079658430077,0.2567608921025561,0.030422315848462115,0.5469742289767991
76.0,-0.0538735666059372,-0.10494222662808558,0.048321169578108815,4.3478292251634345,2.224824599006894,8.493037259314828,0.052379110402600654,-0.38464325902904295,0.024176914764405394,68.74522280123603,26.32319837771943,-14.670893839531312,-0.7972131221205123,0.25606353824565065,0.03267894930671954,0.5456199552877327
77.0,-0.047041045975779655,-0.0949908905797878,0.0472546708105598,4.355224520415819,2.207277890901297,8.494687600471547,0.090498070946308,-0.10727458650376878,0.11074197120708748,68.72392428464258,26.37083377987354,-14.553520076447683,-0.7973445993962776,0.25583592074840134,0.03362166681849034,0.545530608875433
78.0,-0.046312649590969174,-0.08779409137998787,0.04543493016111172,4.340107169649554,2.2038934733683426,8.503675561747581,0.2020304183188654,-0.18372003715214516,0.1711856535562462,68.676061872611,26.272639588468547,-14.520045189868895,-0.7977848625131282,0.2550346337087843,0.033177723471224954,0.5453327419526308
79.0,-0.0476987103918837,-0.09127889115135927,0.047248597863751664,4.3399035473154,2.209774943735934,8.502629228735755,0.3338312256635587,0.024231504304647586,-0.10608009145143427,68.58024774050655,26.267227521166006,-14.55953497302897,-0.798224327779445,0.25522807008394954,0.03268465159682778,0.5446347001060978
80.0,-0.05291858678955452,-0.09155413853463365,0.046047404708319944,4.33375558175258,2.2334144250348302,8.499893544814775,0.31615046618797554,-0.20462258421748297,-0.12584284463973133,68.52509332690315,26.231197308255634,-14.709368190261852,-0.7984091523984567,0.2557045575433144,0.031385276228521414,0.544212848467474
81.0,-0.06979243939904836,-0.09332465084912342,0.056530970721774515,4.295080555853248,2.2443054666105553,8.516113832465086,0.3278152671878771,0.4383730677878529,0.4400506703330885,68.1881231686406,25.9797926942537,-14.750302585446013,-0.8003570514150313,0.25429506830108656,0.02900016044173064,0.5421163088388472
82.0,-0.06145382338616013,-0.09056631928016848,0.0518998939630378,4.269323688064873,2.235937679541837,8.531606071378473,0.30792165049101994,-0.20625029406306278,-0.05903572474128982,67.87288742917437,25.80988482638952,-14.674186430971854,-0.8022008283419244,0.2528964850606816,0.027882699600281603,0.5400964495208062
83.0,-0.047363213625706085,-0.08416448711481007,0.04541990375642692,4.299375701068124,2.2515820645056737,8.512706279357296,0.061316570431806536,-0.20850026313198505,0.22388421582747606,67.91312985040685,26.004796059642086,-14.807000312795969,-0.8015952832765422,0.25481808792794014,0.02819043432359309,0.5400882960977909
84.0,-0.03991941626521614,-0.08638832007653481,0.04531685360364482,4.305104204622584,2.2446845056211786,8.511596950631386,0.39445235873428286,0.34499499221495267,0.13742504114704635,67.76254767088984,26.038289815267404,-14.767083239668803,-0.8022903104829824,0.25490917312000905,0.02828907293073878,0.5390134894329915
85.0,-0.045231597533529726,-0.08183701718112456,0.04438423325343532,4.271279444861214,2.240153312718423,8.529962069785737,0.11363362944394634,0.10816377874956543,0.2964870981464878,67.4581747571039,25.820911420690535,-14.708546420141621,-0.8041147359258232,0.2532161714931842,0.02682530250838014,0.5371653730598137
86.0,-0.0422488211338549,-0.0787084003143643,0.043241908691458594,4.241553700925231,2.2415925231307816,8.544585021255312,0.26869183813810593,-0.051036643089343775,0.11883054468974386,67.31177325581396,25.62490884998035,-14.690428187403993,-0.8051316927334333,0.25188270535039115,0.02554089421249062,0.5363359019041902
87.0,-0.04780048583574466,-0.07640277926624511,0.042364233915621774,4.200229807451862,2.244577751580752,8.56370917729432,0.258791483585182,-0.031513905262029795,-0.0625089308041296,67.13248513021114,25.363187671917977,-14.680491551459294,-0.8063858984673312,0.2500952902769621,0.023797890950523343,0.535360708435966
88.0,-0.027165880755903263,-0.0743027363983853,0.031366091522880724,4.227027167506162,2.2351211910120385,8.552839299110488,0.19127839995713214,-0.5975876781695424,-0.022398456757046402,66.94605738488193,25.531661263530168,-14.638652966813133,-0.8070117121229593,0.25109573067665125,0.024574243592112313,0.53391864246308
89.0,-0.02767396313364056,-0.07319930875576035,0.030066820276497704,4.273402841781874,2.231215437788017,8.530309907834098,0.05103206605222734,-0.3106494815668203,0.15639400921658986,67.06563220046083,25.83448060675883,-14.647129416282642,-0.8059640086989246,0.2531379478728879,0.026403890505376344,0.5344437537811059
90.0,-0.03172811059907834,-0.07599078341013825,0.03458986175115208,4.301729646697389,2.2142488479262665,8.520594470046081,0.0997599846390169,-0.1805011520737327,0.23807603686635945,67.0054723502304,26.017693932411674,-14.562980030721967,-0.8060393485913977,0.25401106948079877,0.027790947172043015,0.5338566893179724
91.0,-0.041013824884792625,-0.0732826420890937,0.03995852534562214,4.3143917050691245,2.2043609831029176,8.516582181259597,0.17937788018433176,-0.006845238095238099,0.022695852534562216,66.90535714285714,26.10257296466974,-14.505270737327189,-0.8064200170430107,0.25433684331643625,0.028401795795698924,0.5330958494792627
92.0,-0.03267281105990783,-0.06726728110599078,0.03626574500768051,4.335233486943164,2.19663133640553,8.508202764976959,0.24003456221198155,-0.22325268817204297,0.42633448540706603,66.60057603686636,26.232162058371735,-14.469969278033794,-0.8076411888095238,0.25514172896620585,0.028670378946236558,0.5308340418402457
93.0,-0.04300691244239631,-0.07559984639016896,0.04298694316436252,4.343761136712748,2.1905084485407063,8.505783410138251,0.17116455453149002,-0.1962557603686636,0.06978206605222734,66.52321428571429,26.28963613671275,-14.43026113671275,-0.8079540290514592,0.2553639256812596,0.029028371750384023,0.5302390238233488
94.0,-0.048942012288786474,-0.0781647465437788,0.044246927803379424,4.375636328725038,2.1886643625192015,8.490107526881726,0.2010536674347158,-0.3869863671274961,0.49353638632872504,66.21998847926267,26.49900873655914,-14.44799347158218,-0.808989787451997,0.2569180224604455,0.029373902465053767,0.5278747577411674
95.0,-0.053846989621969946,-0.07973196021130718,0.04855570229665432,4.408000206061967,2.1724523622194742,8.47698452661946,0.16752071156944287,-0.33661744595556553,0.23525720280244278,65.95536083089806,26.716264670207185,-14.3656728274512,-0.8099283822707466,0.2580610580355924,0.03046784878356937,0.5258121678159022
96.0,-0.048650481435689924,-0.08077048443295493,0.0444449439886104,4.431543966130905,2.1544417593945524,8.46976134277472,0.3100284271851935,-0.025274202914840227,0.20798560376156758,65.72689178936722,26.87082841594545,-14.268343027612303,-0.8107894128629499,0.25872722678412197,0.03140908206792552,0.524101629309505
97.0,-0.04800419617099397,-0.07803412559116729,0.04008788615004194,4.429944853206064,2.134624578149362,8.475578414504458,0.014540607897216867,0.06042172815382883,0.14987820008473038,65.424090391316,26.858659141802335,-14.131178706881894,-0.8122977459620788,0.25810505154313035,0.031569720410365924,0.5220553425089413
98.0,-0.037665692555543064,-0.07846790764965432,0.03584655444214847,4.451182104022387,2.100077266033206,8.473215474533337,0.22604430548470672,-0.2453747734038843,0.3674218189363744,65.13478425095754,26.997013902698406,-13.917859898755847,-0.813564892758305,0.25817863381303985,0.03304175312376975,0.5199535942191404
99.0,-0.03932645182201473,-0.07154435285315568,0.040603322232327044,4.443638778228462,2.0903356715619537,8.47992151213896,0.11694779933257234,-0.17742875061434882,0.3365058046205467,64.92217669215614,26.947235204841146,-13.83879333040175,-0.8146925570267252,0.2575514224348663,0.032794021997618814,0.5185136866851784
100.0,-0.040505082716672206,-0.07310891914884375,0.028771370006800814,4.456095549617771,2.0476619349155163,8.483469804063187,0.23490977692828457,0.0684207545118657,0.38402788264072185,64.36866604080663,27.026209065835204,-13.563033565279554,-0.8172431408422375,0.2570255574015402,0.033812319295426246,0.5146645534606065
101.0,-0.04724309997359968,-0.07804147767040928,0.02997183763912032,4.45391323507639,2.0398537841375384,8.486396585745208,0.17083313394014543,-0.1992917863947359,0.2026600860882602,63.995849542826605,27.01234233779565,-13.504028584370698,-0.8189768450749346,0.25679359833885035,0.03328351019452666,0.5120555619506022
102.0,-0.05150173431859709,-0.08143832125278705,0.03493333699278479,4.470286996836316,2.032169004794753,8.479847235328002,0.2647708148727077,-0.1708381418089714,0.20241343545816767,63.7626469444016,27.117974016587773,-13.463866619965096,-0.8198818860072771,0.25743301660059614,0.03354535264423249,0.5102774374056449
103.0,-0.05331615133748595,-0.07864542790749952,0.041771584010985324,4.467463006866698,2.0697749785878523,8.471697811212389,0.3036843705699944,0.10532113646878621,-0.6474251947133124,63.847673318590964,27.10098969646593,-13.721756658676863,-0.8193166040712268,0.2584128636612812,0.0319629062683528,0.5107859240830068
104.0,-0.050476530282396376,-0.07788235386372726,0.044400420662656946,4.441207122338075,2.1145536558355613,8.47406721018234,0.33165276292940826,-0.23566932673935032,0.21494550466885015,63.91326370355655,26.932223092794104,-14.007680654919827,-0.8190746210528678,0.25846767507895263,0.029360607001393202,0.5112956298509558
105.0,-0.045082829940934696,-0.07842363901079799,0.04327444230395579,4.4764080915699305,2.141980686809333,8.448844301667751,0.24876727674950094,-0.353662294057835,-0.15882896028885268,64.12218886603183,27.161062532619216,-14.224133014961058,-0.8175797495245674,0.2609255520533182,0.0296030806641643,0.5124169260168179
106.0,-0.03665628515142722,-0.07098207914347926,0.037872468988327225,4.4645612448408265,2.1362578493055313,8.456605471054177,0.3388555109160565,-0.0013049865253769999,0.28444763629931874,63.99067743852339,27.081342635310392,-14.174148529510425,-0.8183534932713317,0.26020229245073456,0.029221588286448795,0.5115822457110053
107.0,-0.029895993162053578,-0.06559903477611562,0.03012811565260654,4.4214721101878265,2.1286156992209717,8.481120820274757,0.12146917391368747,-0.32107300017513085,0.1429415226193308,63.795183470301374,26.79886813493443,-14.083486327810176,-0.8197745798326234,0.2579255452186609,0.027930571599014742,0.5105293736760975
108.0,-0.041767149104349255,-0.062416335791264876,0.028639232978976456,4.456898431925055,2.126544745942583,8.463323513805282,0.2266847199604779,-0.13396679962673594,-0.12728830073372,63.729820412420175,27.03103214828097,-14.099634283570893,-0.8196735673071924,0.2595875216315664,0.028879300472618157,0.5097843517043894
109.0,-0.03094450441878762,-0.06295226245585786,0.02980110881378882,4.433233308327081,2.142314054123287,8.47196604029056,0.13367976140376558,-0.02250562640660165,-0.1821354728926134,63.81765639580627,26.87607267670576,-14.18302632060454,-0.8194745282903042,0.25888834246518944,0.027684751197372515,0.5105391408286828
110.0,-0.027242516203963882,-0.06387583829755349,0.02848787980967368,4.42516129032258,2.142114945112586,8.47587763665655,0.2614621969952418,-0.16993087557603687,0.049148121089505795,63.759324304072535,26.824367296092316,-14.178674459555655,-0.819828716305871,0.25853851434640884,0.027305678140571728,0.5101804542040389
111.0,-0.025867520887190434,-0.070053576111798,0.030841107489415914,4.409339103068451,2.17952718144693,8.474402232962424,0.2687375894496272,0.022282791952343478,0.02420525645348618,63.68690054700086,26.72254458431681,-14.41654021954966,-0.8201005975235098,0.25888228597729573,0.02506120265407815,0.5096825821374247
112.0,-0.027908144283457628,-0.06873198264722975,0.035215807436179615,4.377357693081807,2.175361453603819,8.492167632500458,0.24747443393949534,0.1570059871239587,-0.14330912867589718,63.47332249003017,26.515383800218345,-14.36095157282352,-0.8214468426447988,0.25724920516657046,0.02387690868345135,0.5083898715664892
113.0,-0.025803009985945966,-0.07041241146523564,0.03125857248284197,4.360264212394561,2.1697735670851506,8.50236627101026,0.04678009659209226,-0.18686384357413394,0.19570381489100494,63.408327256030034,26.4049922541611,-14.300632159346456,-0.8219716049533987,0.2562708442197919,0.023549180789404666,0.5080609440011832
114.0,-0.03106830278998321,-0.07168928991829837,0.028843290962113355,4.360084899273599,2.1640370589162967,8.504141436055875,0.22242132288298555,-0.01664690998533605,-0.03272932780233388,63.4082352251826,26.404059856427523,-14.264030674480466,-0.8220065336529385,0.25607963576056475,0.023772728986362443,0.5080953605293091
115.0,-0.03431679348408531,-0.07387075863042414,0.03105759018151751,4.3846353835845715,2.1528365018083786,8.494067645831315,0.04743858002828233,-0.36258612780372795,0.19916913026165944,63.238583818428474,26.561764951255235,-14.214340606057437,-0.8225467075753172,0.256995243060774,0.024553104804241128,0.5067121081256377
116.0,-0.04400788350397704,-0.07736234581293405,0.037079304669372926,4.4180788576935175,2.130098561225673,8.483190849977301,0.3132688115408643,-0.2538262505521851,0.2515284199969853,62.998232680992544,26.774054739730225,-14.087140524242558,-0.8233662517584012,0.257967806083385,0.025960470571937407,0.5048137426649084
117.0,-0.04634717041629746,-0.0738490720241036,0.03572823519468718,4.451192467106322,2.1254792095236352,8.466860312639136,0.1469969517640734,-0.3270089081503825,0.34336660166783856,62.80581578321409,26.99330728805895,-14.080285914248597,-0.823837311701549,0.25947362391441064,0.026689774909624618,0.503234771628421
118.0,-0.037356905428447704,-0.07099377283345228,0.03316545512684792,4.468502606487858,2.107595623644587,8.462099707853792,0.2886391131755064,-0.08266259726952643,0.21757728195114978,62.60446178617825,27.105932754965743,-13.973428755708092,-0.824617248008131,0.2598510345819103,0.02753353930925763,0.5017195805939115
119.0,-0.0434030789927447,-0.06881710671570332,0.03428139003391964,4.462189934243142,2.1136837284233945,8.463846864155062,0.1640382820008138,-0.10828153466938163,0.05159941988981565,62.52474269482004,27.06715304152693,-14.0129240552734,-0.8249977372377397,0.2597575232941023,0.026871320240781447,0.5011803806588755
120.0,-0.03822283881074799,-0.0662951443435772,0.031587231302599175,4.452467714489598,2.10931694944642,8.470225481457476,0.17587275738795324,-0.06887185646585862,0.018935270620791093,62.470608674598964,27.004233179374978,-13.975473702920503,-0.8253694759417503,0.25917967173284784,0.026672723820327027,0.5008730278031179
121.0,-0.033863857514901376,-0.07637712956113593,0.03238776418843388,4.43059244689221,2.1101273419400144,8.481838172086578,0.30830397059195114,0.06899617979407743,0.38880465706583434,62.01109203422371,26.859979492913297,-13.96178505101014,-0.8276200453639735,0.25819496230678396,0.02500124277287919,0.4977203576750024
122.0,-0.03188584580814193,-0.07527381823678915,0.03173535674859482,4.437600370911543,2.119695007375537,8.475220161312105,0.40856826793806467,-0.0492432695499659,0.11171703667423821,61.834799089308476,26.90781232710181,-14.036432080036558,-0.8282573909807578,0.25887791229778523,0.02433898112914313,0.49634578333058876
123.0,-0.03575478364364611,-0.07656757394923644,0.03488793801237767,4.4552512082724505,2.1292369608081465,8.463220230144643,0.1732406642601417,-0.1346789223438264,0.2823368080696132,61.481622474433934,27.02321551642266,-14.11459561318901,-0.8295075384685455,0.260113469399876,0.023615901545787146,0.49363947803036123
124.0,-0.03861303304920306,-0.08013272481883536,0.0361379107843163,4.467558727661009,2.1213297313875508,8.458982262987348,0.2195619135620142,-0.09443426841030815,0.010906798999401418,61.21465073367645,27.102726955693626,-14.07052558000127,-0.8305518812130297,0.2605515793970269,0.023697440379502537,0.49164692510487384
125.0,-0.045459152244507126,-0.08082560709863877,0.04214842038035643,4.468480386647183,2.1478285163625404,8.451792469023177,0.2083991707857278,-0.2619840500194735,-0.03073857532327333,61.39413201514664,27.109069024660347,-14.25251298669615,-0.8296372058189461,0.2613133237504411,0.02291819696394482,0.4928276257192347
126.0,-0.039692031021692706,-0.0841210520400135,0.03872147915027538,4.48544603049717,2.128530590835863,8.447748304671983,0.11545909669926194,-0.09805856843130645,0.010262120190326327,61.18293970814132,27.224887368401333,-14.13168530590836,-0.8304632265705668,0.2616193802596381,0.02376640724719943,0.49123853786426136
127.0,-0.042580270503165873,-0.07994455059757971,0.040485931587426485,4.513752201116482,2.1345648345884385,8.431255104716946,0.20723511670600578,-0.27202755610505414,0.1519004533363306,61.301555299539174,27.40567045071372,-14.19693904312315,-0.829576553104792,0.26316958314825223,0.024529341154321684,0.49187092763028734
128.0,-0.04031883406391669,-0.07300700610692742,0.04150724963470833,4.516033869094452,2.145436289385936,8.426840508036417,0.19961784871304936,-0.07734582818178413,-0.3597514143344199,61.31471516616088,27.421003334457303,-14.277546738601027,-0.8294073513038103,0.26361259365628864,0.024148529436888843,0.4919208949934435
129.0,-0.040509535049267555,-0.06814394365141808,0.038405080364167704,4.484185305908358,2.1562350605072877,8.441484770147238,0.3237959424525121,0.150277715334757,0.10828322280918656,61.349406166872726,27.211583492563037,-14.324798152935447,-0.829580834609419,0.26232932994380126,0.022856621712936946,0.4923844403173354
130.0,-0.04645610880071935,-0.07172136675283805,0.03551684088269455,4.4457798508860655,2.1589039376568886,8.46117417856206,0.1518138136450489,0.17788182346109174,0.06295310216927051,61.11432458506613,26.958860196320856,-14.31078359746731,-0.8310207152195497,0.26055071005732267,0.021161708803716612,0.4909713868347009
131.0,-0.04197613427747181,-0.0678768124086771,0.03218238357498783,4.423988235734891,2.159041062530442,8.47274530740699,0.22433240605447524,0.32744417593945524,-0.17860889438387473,60.96744455059758,26.813723492937694,-14.29196053913304,-0.8319220314615413,0.2595053917874939,0.020214072865759998,0.4900419152261062
132.0,-0.03771233749203852,-0.06552826795549063,0.03298827320070436,4.413315162414297,2.146075830804391,8.482067738188903,0.14718444419467236,-0.23398336517927393,0.4376732793825634,60.78402949496085,26.742571231875914,-14.197127542992021,-0.8329118099780823,0.258652124879922,0.02010376957420104,0.4888131153396275
133.0,-0.041590423738338766,-0.06167734442321383,0.03707017346671163,4.4080899928814965,2.1397122625604137,8.486126034993069,0.21116902701285073,-0.1287044322056124,0.002582799445505962,60.51814281967704,26.711555393203703,-14.152783241542092,-0.8341555048008691,0.25827551015885497,0.019645279606608973,0.4869136954655126
134.0,-0.041412835787344046,-0.06127927016597356,0.03307088531714811,4.426602038140198,2.123333707991458,8.479797871941855,0.2172583923419879,-0.18431189352216104,0.005790809636206963,60.30460642164026,26.834411646247794,-14.053255310778914,-0.8349440972116069,0.25874641381664226,0.02040640497639654,0.48527708016784676
135.0,-0.04113615076242928,-0.061900640665392845,0.03085609381439437,4.437195309280282,2.132446517552733,8.471972013038105,0.348813738713424,-0.24779185867895542,0.43302517702596377,60.040984086396165,26.902859343973624,-14.1232742310142,-0.8358691509566895,0.25957469806320477,0.019683397173953766,0.48326333587033077
136.0,-0.044764527368775994,-0.06616069086958151,0.03459761717432843,4.446207897793264,2.1421074519500953,8.46510996215953,0.1689637892922708,-0.2061287044322056,0.07040528642613617,59.92455907421977,26.958806339215464,-14.194264920759807,-0.8361971480883068,0.2602988404889288,0.01922397857592447,0.4823309614988198
137.0,-0.04416253017958323,-0.06734382201822234,0.03823502478407059,4.479766775317524,2.126997711971546,8.451043710404953,0.20026307208335184,-0.2622084909293525,0.3044150355968783,59.6581013720329,27.179300242090136,-14.11490922599988,-0.8369833793587858,0.26160268017801913,0.020215136877538196,0.4802158943939818
138.0,-0.044892137668563495,-0.07251459206264982,0.03708414908605201,4.512541306058223,2.1124461603205678,8.437696558285914,0.10045994730389914,-0.32984808702175544,0.11532418165516989,59.46803011728542,27.394977174171594,-14.050861800816058,-0.8374387799092455,0.26287715639141485,0.021314787774687573,0.4786712042330705
139.0,-0.047587689605328165,-0.06850749272684026,0.04085521380345088,4.518985051140835,2.114263992827475,8.434162991967503,0.3431341829359779,0.035336578046950756,0.037574561323257635,59.2771405503815,27.43733418110625,-14.066884480266408,-0.8381588903480137,0.2632532422712385,0.020951902223299727,0.47722302947688144
140.0,-0.044935465573710504,-0.06949686202038315,0.03557630871132418,4.513579858379231,2.11148368799517,8.437587396849214,0.15842291365524308,-0.2565941027939912,0.1884027409291347,59.20046543648107,27.40312814484109,-14.043980202367663,-0.8385920342810091,0.262910428363786,0.020752153896071577,0.4766640583796681
141.0,-0.03885404277898743,-0.063809013228917,0.03472285144456848,4.5137309205350125,2.11096843723126,8.43784169213035,0.42762314054123285,-0.004993550216822518,0.03526155929226209,59.06410466946005,27.404716118053905,-14.041905522112236,-0.839152025445776,0.2629641786028214,0.020469539029074342,0.4756674365478198
142.0,-0.046133340826495825,-0.07209205350118018,0.040038702184256876,4.534108163800532,2.1265412685924097,8.422845041399723,0.06115286988123339,-0.6445936832640216,-0.13262218538084,58.96520526581993,27.544957101644748,-14.167808671462291,-0.8392078523915553,0.26443841004945484,0.020070662614776517,0.47475096227616054
143.0,-0.03806067588325654,-0.08088586040238283,0.03750164849574764,4.529419298639992,2.1454829905211494,8.420460023978123,0.28849342943314227,0.1831556048855419,0.1455112444269604,59.096659103255774,27.50655792214604,-14.291425129257053,-0.8386172898106665,0.2646782504420966,0.019364483259544416,0.47568330199155145
144.0,-0.034936635944700464,-0.08388978494623656,0.03561175115207375,4.491482718894009,2.1486609062980033,8.440190860215054,-0.014792146697388653,0.3004848310291859,-0.16856518817204302,58.95731806835637,27.256557219662056,-14.28037874423963,-0.8396362844289554,0.26287661042242705,0.017917660453533026,0.47493367056566826
145.0,-0.03549654377880185,-0.0804247311827957,0.03538248847926269,4.491640552995392,2.149334485407066,8.439680107526883,0.31455453149001533,-0.15797331029185863,0.334190188172043,58.9053475422427,27.263661674347155,-14.28008352534562,-0.8398504962910908,0.2629434961386328,0.017797582432411675,0.4745296710691244
146.0,-0.030555805327638533,-0.08068502491476526,0.03388557940878949,4.488577160840733,2.1575855157169084,8.439608444794125,0.19281031059158518,-0.17639396238432428,0.2886768948334645,58.66620396388296,27.24192377580458,-14.331260537259748,-0.8408244023455846,0.2630303807226405,0.016788244785245963,0.47278861279183987
147.0,-0.03764733430744446,-0.0847664755910232,0.03882451013450228,4.489622681802855,2.136238994417594,8.444239706268027,0.20705223670900302,0.06414076842381325,-0.3343481885279682,58.40640267318572,27.248314038439922,-14.187903694129108,-0.8420176047672622,0.26253352881754144,0.017185412296616832,0.4709287617223409
148.0,-0.04143503428121839,-0.07928415945449777,0.03986156382301152,4.468843598965943,2.1585265632610255,8.449228148064885,0.2928502350979731,-0.07185626709377693,0.09506668914615418,58.396101682214976,27.11194023734592,-14.318654228016932,-0.8421909217077477,0.2621057706606909,0.015595388548462027,0.4709122076968079
149.0,-0.04396118520048131,-0.08074253341209867,0.04038687807840463,4.484896025182254,2.14560960035305,8.444066794355383,0.18936498197937987,-0.3757318344721198,0.5014554188416442,58.189207112318144,27.217674607295116,-14.246601722839246,-0.8429231540620865,0.26260860866448255,0.01613219908668413,0.46929710357771126
150.0,-0.043551698029036884,-0.08835444923948757,0.04191059088814016,4.497608417783889,2.128060996085258,8.441416068302788,0.223100690242247,0.04233729381822804,0.16430092932640827,57.82498809589157,27.299548972609003,-14.130717511694996,-0.844347785434564,0.262800805412198,0.01646181740781885,0.46661383508537413
151.0,-0.03847923217738232,-0.0878239594741891,0.03730069276901107,4.489960778522158,2.1414459189710318,8.442478293789474,0.13448995959791343,-0.24577175434973725,-0.17335700976637888,57.888816825286455,27.250777633432747,-14.218289519026097,-0.8441006833978484,0.26276822739138617,0.015785173955679688,0.4671027801823409
152.0,-0.040707358024175036,-0.08248340830852312,0.032911483097255154,4.495615565912384,2.1360824064901243,8.44072916225572,0.2615134129786802,-0.15120768977087476,0.11390233229038967,57.85376901172157,27.28477821763803,-14.192175673491544,-0.8442014581282637,0.2629279261519143,0.016099288815781473,0.46682880313187713
153.0,-0.04782998188571534,-0.08158564031251714,0.037828957239309825,4.483122683109802,2.150861910599601,8.443174610725848,0.22765676175141347,0.04832076921669441,0.18073001482077836,57.58428014015699,27.20154177263828,-14.287132453845167,-0.845366381684116,0.2627349770537024,0.01443293061288493,0.4648713854170495
154.0,-0.04933884690684867,-0.07775456059136734,0.04022355588897225,4.4925290834903855,2.1379778420214803,8.441834867253396,0.32493584524179825,-0.15597840008782682,0.1836930269152654,57.27361981501473,27.26599969352094,-14.202221515744789,-0.8465825161908951,0.26288597886443565,0.014580656893089124,0.46257110740094787
155.0,-0.051872600554319775,-0.06978151767907134,0.04116662789390728,4.486890595471168,2.1324406463114034,8.446221281365634,0.14585183480103475,-0.18932822818073858,0.06878747670367069,57.1056301559057,27.230588921729563,-14.161417837037657,-0.8473521752753959,0.26248432409221556,0.014320725203503838,0.4614038362074987
156.0,-0.04924153425115861,-0.06850939433464637,0.038612237554162064,4.512284606866003,2.125285176477046,8.434699191130534,0.32254774685613913,-0.0009773376488721452,0.2811248462159094,56.85440667249783,27.3977386836365,-14.136418240012965,-0.8480991509764638,0.2636082927778151,0.014695767750865852,0.45936793118325187
157.0,-0.05378896989055626,-0.06802773864197757,0.040712416780153235,4.521487157503661,2.135134715734683,8.426916223829476,0.5514128423220788,-0.15257440231137925,0.16395192003575806,56.552838176878716,27.458730372924244,-14.208445295121688,-0.8491279870268265,0.26438202455979853,0.01380370820991833,0.45702907505821583
158.0,-0.055137712999678484,-0.0601196727753367,0.04080448683599472,4.534453256171186,2.170817704426107,8.410506555210226,0.14498937234308582,-0.3542671382131247,-0.22399796377665848,56.74006671310684,27.5454935162362,-14.466690333297608,-0.8480014055556746,0.2659911821330333,0.012911639953559819,0.4582092478383882
159.0,-0.0577188940092166,-0.06007108920087163,0.04036098310291859,4.537601721859037,2.1797711927982,8.407721394634368,0.02459989997499376,-0.29646027578323153,-0.06133787911263531,56.83259430929161,27.562248821133856,-14.527746892080161,-0.8475429512024433,0.2663531265316329,0.012791686075804665,0.4588564739266959
160.0,-0.05096774193548388,-0.06232433108277069,0.0387941628264209,4.562714071374987,2.1618249205158433,8.398012003000748,0.11790670882006216,-0.3669321348194191,0.020814355374557916,56.769551762940736,27.731033204729755,-14.430948138820419,-0.8475806148408527,0.2671520598787197,0.014124923844353945,0.45828766508162744
161.0,-0.03962258421748295,-0.05803468724323939,0.03550137534383596,4.582270031793664,2.159288572143036,8.387819276247633,0.12989854606508772,-0.23489242846425892,0.11472064444682598,56.78246124031008,27.86071406244418,-14.42888177401493,-0.8472977596275851,0.2680559535008752,0.014757127621012396,0.45826110414103527
162.0,-0.04407012467402564,-0.061962812131604324,0.03660629443075056,4.5954629728860805,2.1600167899117633,8.380810559782802,0.30986094737970205,-0.14569602221984068,-0.06720765012681743,56.73277247883399,27.942813828457115,-14.446535741078126,-0.8473421370603362,0.2687407233095773,0.01490902255474583,0.45777841940538705
163.0,-0.0406898153109706,-0.06313328332083021,0.03576715607473298,4.622144464687601,2.180163969563819,8.36118708248491,0.22418104526131533,-0.16780534419319115,0.07260297217161432,56.65504322509199,28.1201349444504,-14.607846157968062,-0.8471713768470688,0.27064369369092267,0.014469082214839425,0.45698247509555956
164.0,-0.04554370735541029,-0.07140160040010003,0.040164148179902125,4.6188891865823605,2.195096988532846,8.359250705533528,0.36094179794948733,0.12856450719822812,0.19215294895152357,56.41684081734719,28.09924132818919,-14.71101703997428,-0.8480762258691457,0.27090251753938477,0.013124364997142141,0.4551818517450791
165.0,-0.046899939270531925,-0.07943128639302685,0.045525667131068495,4.603452648876505,2.2012231629335903,8.365379201943346,0.2026890651234237,-0.15458775408137748,0.04648037009252314,56.11662960382952,27.999825849319475,-14.738825331332833,-0.849422689215518,0.27034641486228694,0.011748714779051903,0.4530311062119101
166.0,-0.04363001464651878,-0.07929178723252242,0.04348676454827993,4.594768334940879,2.185724109598828,8.374264994820134,0.15364667059622047,-0.10277681027399707,0.1457786321580395,55.99079792269496,27.944774139963563,-14.623749687421856,-0.8501189432724253,0.26950258892401674,0.01197139431375701,0.4522288952965027
167.0,-0.03626585217733004,-0.07176186903868825,0.039934626513771304,4.5843810952738195,2.194978030221841,8.37684063873111,0.2316092415961133,-0.07877415782517058,0.2564770656949952,55.78641758653949,27.87623691637195,-14.680058407459008,-0.8510102794587933,0.2692770446847427,0.01076912845104133,0.45071168169971065
168.0,-0.02874732968956524,-0.07368813631979425,0.03346543778801844,4.588487621905477,2.179933126138678,8.379012967527594,0.1952166613081842,-0.09663576608437824,-0.03043082199121208,55.4700045547101,27.901406155110205,-14.580070464044582,-0.8522909243287964,0.26907929214282145,0.010834376698889007,0.4484036407193227
169.0,-0.056105134297511655,-0.0757261057424635,0.03842384289452154,4.585343933544362,2.221665463404179,8.36977700871211,0.26453763920074097,-0.017069598410055474,-1.3427191619333405,55.800193689537366,27.874950717208918,-14.864750366598617,-0.8507399481084453,0.2700050563302254,0.009547865661028498,0.45078167301678906
170.0,-0.06441223633434491,-0.08505561320643751,0.047351547817267914,4.643850493111083,2.2935788755551263,8.317234761652085,0.40841903093369164,-1.0455381430287887,-0.09865542931900217,56.40771936777748,28.267967852154676,-15.412363701770389,-0.8471133666603011,0.2749044323550931,0.00915727620068606,0.454589194006336
171.0,-0.05592704839973059,-0.09383688387253608,0.055299929947643725,4.6682343238248585,2.324936474536753,8.295035235289657,0.01720182604449022,-0.2991194090987905,0.1065237482062153,56.58666632304853,28.430542440705995,-15.655262871140257,-0.8459057013721609,0.276984970483623,0.008734225590965688,0.45562173596790917
172.0,-0.04469163479894364,-0.0874176738871129,0.04832200798457455,4.696332983725025,2.313051954626287,8.282352487076473,0.08185360119428811,-0.6847699580056165,0.0729911367759187,56.60444107243056,28.619961120506606,-15.600072871822046,-0.845545412337386,0.2781057880106287,0.010047694592717867,0.4556050404340313
173.0,-0.04754969230112406,-0.08076420673112529,0.042730142465930085,4.696976779037964,2.3220310913965423,8.27981511057207,0.14853092628557835,-0.04151767471484602,0.006741068978045897,56.714834250810085,28.620980756948818,-15.66154250888506,-0.8450496554411164,0.27835353321095946,0.009904495304226752,0.4563902723002179
174.0,-0.041076183680066346,-0.0784033464812196,0.04080645596939306,4.693323165286095,2.291239778585761,8.290820222477224,0.17030204850864283,-0.05498385702697455,0.2059915022309584,56.45755972965367,28.597641243934675,-15.437896549485803,-0.8463229874569863,0.277326601550405,0.010655840807109443,0.4546400796355535
175.0,-0.05344210442854617,-0.06658640966861924,0.03588552538831573,4.6881651231623245,2.277095892440008,8.29786093735978,0.21278674415990756,-0.2238973179706076,0.24966176213042807,56.26057569488191,28.564349732903608,-15.341169950588691,-0.847265098645881,0.27671385122366826,0.010677221759180212,0.453266444401569
176.0,-0.03247266868982054,-0.06630467198681203,0.033277846465100604,4.673609943426623,2.268809261548837,8.308652542055377,0.10757558727661008,0.014729215840545512,-0.3671057191562699,56.04234175377468,28.462669766962648,-15.267399357461315,-0.8483641680315461,0.2757386921866921,0.010173870855119702,0.45180249090135255
177.0,-0.0314226309190538,-0.06378231491670827,0.02929789154605725,4.69584857189907,2.255988240962679,8.299118808447759,0.2081288342556022,-0.3622289065297683,0.14798817300143854,55.974132889711974,28.61263054221744,-15.195840772039698,-0.8484218441870659,0.2765401532439731,0.01118513314145261,0.45118168133982706
178.0,-0.04751698029036876,-0.05927117319399537,0.04401558621362658,4.717275190748906,2.249504742039168,8.288292685105073,0.09118086087288371,-0.13380918182507298,0.16555584889253672,55.7652922513076,28.757682304940346,-15.175000441094593,-0.8490066537772465,0.2774927804457473,0.011511319851607502,0.4494764614212904
179.0,-0.025316318626694992,-0.06969852916190719,0.030819752194146097,4.7044519148079695,2.2225179099652963,8.303025178115085,0.09591989542464012,0.06866779303710946,0.007713998403782132,55.58912724288433,28.67127820990526,-14.977867057683408,-0.8500311923292213,0.27613854394828674,0.012024200590634596,0.44835548391284813
180.0,-0.029271062539153955,-0.07046216780676005,0.03515584383900853,4.682750150952372,2.212129922724583,8.317710169702705,0.31224926222844906,0.5181040578088774,0.31161909597608456,55.24791543595829,28.527020153339727,-14.888681512712672,-0.8517171725436428,0.27477485516769173,0.011144640279188267,0.44599699822658545
181.0,-0.029424317751911844,-0.07052294258233546,0.03500879749554113,4.656382755967737,2.201971259365364,8.335229892839063,0.1332271656764365,-0.32960964544271953,0.3169558613520976,54.99269331705749,28.352819792491673,-14.791882999059869,-0.8531033442211302,0.27319097789490576,0.010377033903034995,0.4443465011294217
182.0,-0.024912030272376456,-0.07432516578622006,0.02900816754711326,4.692645348619383,2.19559195983665,8.31656236184482,0.2145557022966543,-0.3393674365891124,0.10969006406653929,54.90228073133266,28.59728185530703,-14.780066548649359,-0.8530217457220037,0.27488558393244916,0.011379656870068562,0.44344632945157547
183.0,-0.018687516391292947,-0.06502534562211981,0.029666123412386197,4.675812951931363,2.1926363755573046,8.326830504664493,0.24812588981304556,0.5105736718369487,0.21100370911543218,54.68425499231951,28.47624526994118,-14.743654345097596,-0.8541159278321531,0.2739135814847889,0.01055975234047057,0.44193803387493913
184.0,-0.02340898617511521,-0.06747427035330261,0.03260253456221198,4.6653099078341,2.1973406298003066,8.331692012288784,0.2445108486943164,-0.3648929531490015,0.10308179723502305,54.68222926267281,28.410733486943165,-14.763779281874038,-0.8542351956513058,0.273515130046467,0.010102104054915514,0.441988559781874
185.0,-0.035238095238095235,-0.0650384024577573,0.033364055299539175,4.677250384024577,2.191113671274962,8.326889400921658,0.3058755760368663,-0.16738671274961595,0.32286866359447,54.37274385560676,28.490207373271886,-14.730510752688172,-0.8553012547158219,0.27400186453149006,0.009952621758832565,0.4396222610061444
186.0,-0.036159192237083665,-0.06486793301112734,0.0328640740324454,4.69351541718182,2.183441984189427,8.320416245176276,0.08599457682364842,-0.31011740848975305,0.20014705331385108,54.306094516878346,28.596179423775805,-14.692885710539132,-0.8554049383942153,0.274638059764902,0.010535467449327488,0.43901889772488845
187.0,-0.03839065602637593,-0.06719104863323845,0.034664184338767626,4.680092828085069,2.178903680623989,8.328851176208683,0.3457978769518163,-0.08771095212827595,0.06601478875816513,54.102631194601784,28.5081087345007,-14.649695007593362,-0.8563934832945606,0.27384602294134075,0.009933357128371813,0.4375959177560068
188.0,-0.04261466499028938,-0.0732670493407324,0.036994061233078315,4.704111894698412,2.1732660081396658,8.316377861887073,0.0792343392903975,-0.11918234349528148,0.35512084684934303,53.90444238346171,28.665908446841676,-14.632786653762743,-0.8568583473274504,0.2749517575161996,0.010310423237943633,0.43597890428096125
189.0,-0.041510865521258364,-0.07519343250446758,0.037963236453712745,4.716652721542754,2.1830385340237495,8.306994614507285,0.3944798808587164,-0.09717757727759466,0.018718257526053994,53.88556892598585,28.75122899300609,-14.716186913670926,-0.8566850192781645,0.27588204911908293,0.01009104361589962,0.435740973941556
190.0,-0.04090597039503778,-0.07567966556098954,0.04191249380289324,4.688643565072452,2.192398683294517,8.320555678989436,0.11623955640478063,0.07870095790498148,-0.26152220764250295,53.830836498323194,28.565711462708883,-14.750014539784772,-0.8572067057619701,0.27468033534141556,0.008861935143587291,0.43549251333713745
191.0,-0.037536384096024,-0.06995470296145465,0.0417233594112814,4.678461829743149,2.1889680277212165,8.327711356410532,0.24571812596006143,-0.17074491837245026,0.15175758225270605,53.76048119172651,28.497598060229343,-14.714410299003323,-0.8576442258030934,0.27406337908612866,0.008609916758260994,0.43502854133812024
192.0,-0.04110306147965563,-0.06408248490694102,0.037238809702425615,4.663807951987998,2.1952577787303973,8.333919444146751,0.06562823741649698,0.07169136034008503,-0.21257390240417245,53.7354599810667,28.39849493623406,-14.74748910441896,-0.8579065278397456,0.2734638166710963,0.007885908576144036,0.4349044954445397
193.0,-0.04033486943164362,-0.06038940092165898,0.03593087557603687,4.657152073732719,2.181672043010752,8.340844086021505,0.20380664362519202,-0.18980894777265744,0.27750096006144387,53.62321908602151,28.35439228110599,-14.649471966205837,-0.8584890021397849,0.27280909609677423,0.008098797745007682,0.4341570501635945
194.0,-0.039567284678312435,-0.0628027631907977,0.03522394884435395,4.670700228628585,2.1879466384453257,8.331724064944805,0.22497817534740827,-0.2851763722180545,0.27725218134890867,53.3909820647126,28.443767247615476,-14.707195995427428,-0.8591485565266137,0.27366118051614685,0.007578181910316865,0.43232253663414966
195.0,-0.03436851177079984,-0.06532553674132818,0.02818378701818312,4.6822844461115265,2.172079117993784,8.329449782088377,0.2185194736184046,-0.19267819186939592,0.05618681456078306,53.12751508189548,28.522110438323864,-14.611350493873466,-0.8600886227633068,0.27387070433910266,0.007943153150626943,0.43031498975275073
196.0,-0.03903938963835035,-0.0637271861519387,0.035582353776597464,4.638007093236723,2.2560178241424467,8.330915193955285,0.8210086058099889,0.4321018462368205,0.3905835725046244,53.08853318512555,28.230395305707958,-15.146822719399362,-0.8602833736110986,0.2737552830108181,0.0028058260841647698,0.4300127717208876
197.0,-0.03831376398106495,-0.07296452597469925,0.036899303223018314,4.578924774747693,2.269287713914541,8.36038285268181,0.44503724472058775,0.37945396627902617,0.2499737249207772,52.14520768693916,27.837287964194882,-15.180890823751234,-0.8644591609894503,0.2710253936854509,-0.0014075493043077848,0.42323935280295244
198.0,-0.03584274988607779,-0.07279178679687344,0.035339052533168144,4.580376365868469,2.2621937801523546,8.361762086863177,0.13047273142327387,-0.2885756282276144,0.022812323289881697,51.97899785268617,27.848871516659653,-15.129135888066092,-0.8651210978257544,0.27091663609771777,-0.0013985531582982856,0.42202703298749766
199.0,-0.03685985956419418,-0.06618584088530843,0.03607537772944979,4.582206187435361,2.254596514982404,8.362936557310059,0.014528376214262603,-0.19154962956767066,-0.06328438599196837,51.97719116190197,27.861677881360585,-15.08184570097228,-0.8651512017598388,0.2708406590728649,-0.0010093969504919784,0.42205268828669706
200.0,-0.034297825327412,-0.06886096959780015,0.033782696545216456,4.591080052243026,2.227736045509636,8.365312364676537,0.12921599302264591,-0.09049447684220707,0.31297186230355495,51.868971925037,27.91665403284619,-14.905746199180456,-0.8656178310412098,0.27062440487821426,0.00018290734656660652,0.42124827516485397
201.0,-0.042132240377167465,-0.07398033306235967,0.03536948697104591,4.598798053171829,2.249906762404888,8.354867227259778,0.4469466125242112,0.03292166682785677,0.36531100327346644,51.51937646868163,27.962904870381358,-15.063726242971892,-0.8666478887430393,0.2715657295117159,-0.001540728508912943,0.4185045606928387
202.0,-0.027505931360889004,-0.0796101507955386,0.035324397301415955,4.617998554516678,2.2788007454825383,8.335954463354513,0.6087506469387383,-0.8629156418024367,0.7414182868452305,51.07735149161854,28.095412899392095,-15.27881434099814,-0.8677978301268303,0.2732937272617588,-0.0035175222835674073,0.4149362431434296
203.0,-0.03361087658674251,-0.0782113734008415,0.039482475148403834,4.759794208133915,2.2215969933249866,8.270024082675722,0.022141260489338344,-0.4869493723605118,0.5470964322090975,50.383385807253205,29.03820184140112,-15.023215734247149,-0.868697804137916,0.27930716565468894,0.000762384557141027,0.40894850066157656
204.0,-0.03779943679299616,-0.07607117807326397,0.04063396075499712,4.810335963781886,2.1652958710060792,8.25627235641663,0.39962089281031055,-0.09927457365212383,0.45804746591700185,49.856898267467564,29.375252458585027,-14.684854303732727,-0.8702459162174951,0.28057398276357853,0.0033111089589906192,0.4047996915198355
205.0,-0.03374994881124463,-0.06723681791528022,0.03370023690591638,4.835997474978502,2.1488614531681707,8.245728344106931,0.19513014686598482,-0.06281413014403427,0.37963337197539804,49.33880339640659,29.551825538048277,-14.59573936384793,-0.8718227970027568,0.28153579668516865,0.0034367549096028364,0.4007442978835737
206.0,-0.03942105735493107,-0.06528507562430677,0.033332453322389835,4.8455793826505404,2.137721817213885,8.244258181270055,0.37831104117492786,-0.15417492221487428,-0.10201799143165585,49.06125077654431,29.613734389607856,-14.52449218576421,-0.8727523647264167,0.2817418583771465,0.003522500791974998,0.3986098362152123
207.0,-0.028050418527976947,-0.06538447329602434,0.034978579139558416,4.847376630743052,2.1549269983000974,8.239088177967837,0.23294485969053236,-0.13867774434897923,0.23439619704577713,48.907936560577426,29.621039106684336,-14.648998649923804,-0.8731665950107299,0.28223896428692097,0.0023422366941779,0.39737410832397113
208.0,-0.03535629753056062,-0.06401150877373593,0.032141895028836284,4.84523711603323,2.1488784820166447,8.242160773374799,0.12454986987835139,-0.10352444466651371,0.19531386716285076,48.76970848766199,29.606759435771565,-14.602293103763746,-0.8737176996446773,0.2819962926016314,0.0022382600737225313,0.39633578651398843
209.0,-0.0331162765899194,-0.05662690967569019,0.024966799526201573,4.868352095059412,2.1383245720971926,8.230278875333953,0.20596100889668945,-0.5298592618370352,-0.21173767879117994,48.65236643437863,29.76566278102962,-14.549345987411487,-0.8738477110423999,0.28299677663016626,0.003007008156177681,0.3953331001787552
210.0,-0.04175867405607767,-0.057829115547447574,0.02916982964583279,4.896380442269505,2.1403835778698097,8.21324694581579,0.043209069320398974,-0.2236089376136583,-0.07471718715326109,48.642681521861306,29.955750984198076,-14.599988057772283,-0.8734507495447472,0.2845426400198713,0.0034716204719107283,0.39509042121044835
211.0,-0.053758092431175325,-0.07097614459900153,0.04093784234051009,4.916083176516453,2.187625700984345,8.18859798439291,0.11221089160657893,-0.0007834099706915398,-0.4463084873000614,49.234699681017815,30.089724324842937,-14.950954201965125,-0.8707962749782288,0.2867154674574225,0.0030883909233593585,0.3993182807514214
212.0,-0.05541874211517231,-0.07511215514948155,0.045085136199622136,4.901648160633026,2.1857923392668055,8.198270045935498,-0.059668734022154696,-0.21591795697517246,0.2745065663695473,49.23137720405711,29.992309580678473,-14.922507684848041,-0.8710310541458396,0.28590562518178797,0.0028489590984425283,0.3993980535807497
213.0,-0.04730792454211113,-0.0792693905183613,0.03970724388414178,4.92464311199751,2.14459370940296,8.195302911093627,-0.05681527089089346,-0.5021705121402301,0.013112271970431633,49.238844390975785,30.149601805939287,-14.657732649625821,-0.870955733576565,0.28611905067974314,0.0053542773873346385,0.3993979746844637
214.0,-0.03935447276453259,-0.07651766600186632,0.03119755548643259,4.983176586829632,2.1467024683000018,8.158330924194464,0.2983070462737636,-0.7621653889082025,-0.0349660585878177,49.193245338773714,30.54802115162937,-14.737278831903097,-0.8702343748249867,0.28933015236071213,0.006441683121695059,0.3986324658265785
215.0,-0.03603900975243811,-0.0596324081020255,0.04171042760690173,5.0564591147786935,2.1595198799699933,8.10946736684171,-0.6494279819954989,-1.6786852963240808,0.7023162040510127,49.403225806451616,31.053591522880723,-14.898349587396849,-0.8683158956339084,0.293551079572393,0.008083609834958741,0.39967436654163546
216.0,-0.02573143285821455,-0.11213053263315828,0.012933233308327087,5.2528057014253555,1.8144786196549143,8.060450112528132,-0.8754688672168043,-0.7054107276819204,1.283945986496624,47.99221680420105,32.40496061515379,-12.64614591147787,-0.8719072621530382,0.2962971578844711,0.025553996526631654,0.3884096944186047
217.0,-0.0011513592683885278,-0.11955560318651091,0.02386632372378809,5.282714607223233,1.770819847819098,8.054014932304504,0.5051530739827814,1.6057295573893473,-0.753291001321759,47.714604990533346,32.602181795448864,-12.377058550351874,-0.8727297154631515,0.296787131095631,0.027548441316043296,0.38626930170792695
218.0,-0.014825492087307546,-0.09661201014539349,0.004179973564819771,5.116927446147251,1.9098885435644626,8.128305290608367,0.6532704604722609,0.46188109527381854,-0.52513574822277,48.370876201193155,31.46528819704926,-13.199360107884115,-0.8723106130954168,0.29100919085914334,0.018790985631765084,0.392061457744436
219.0,-0.02635123066480906,-0.08553781302468474,0.02165112706748116,5.055346693816313,2.012089808166327,8.144606508770051,0.5818396563426571,-0.39403600900225055,-0.1611987818383167,48.648092826778125,31.041229057264317,-13.855986318008075,-0.8717540356174757,0.29005954120601574,0.013212937478298145,0.3943592493223306
220.0,-0.029803522309148713,-0.0867223948844354,0.031598256707033895,4.953907405422786,2.1158686100096453,8.181204229628836,0.8613202407744793,1.0182858214553638,0.05816186189404493,48.579836923516595,30.345398849712424,-14.484257225020542,-0.8728992220247918,0.28707483364876935,0.0057301815936126885,0.3942187373693423
221.0,-0.038440259415503227,-0.07886996099674268,0.03584448060066965,4.864163005036975,2.16288179187654,8.224650399612893,0.8150758265865168,0.32963283434494994,0.061922948269534914,48.197545226404,29.74513514742322,-14.727448806195056,-0.8752475149611103,0.283418870658866,0.000571970488547462,0.39178483552331256
222.0,-0.03636227238627839,-0.08002182363772761,0.03511832503580441,4.883683420855215,2.204201050262565,8.202939371206439,0.16137983359476235,-0.8804175475687104,0.27811924572052105,47.92691212575872,29.876896781013436,-15.03499880651981,-0.875656655837823,0.2854462368028371,-0.0016941365907385945,0.3894675587587806
223.0,-0.03971294771744885,-0.09460920424911422,0.040518473774287744,4.9683167220376525,2.1659218376022578,8.162108059482406,0.005214574747582981,-0.22102562978406937,0.733680376262897,47.58887692702396,30.44623046995515,-14.85490183422479,-0.8758072008169573,0.2890362885425253,0.0011704246294690556,0.38646449886461876
224.0,-0.048705942323401565,-0.09016409748620241,0.041918249201198,4.957297712929974,2.10338212166282,8.185353610734014,0.03128709452070017,0.2722377889174543,0.2992060921074425,47.06658672161309,30.3664336484224,-14.402512327282011,-0.8781510661215227,0.2869433162749038,0.002654260013671457,0.38270431355559625
225.0,-0.05000069406803712,-0.08585821839527034,0.03979615093035217,4.941615756726638,2.075112099017785,8.202663448369222,0.49348614053061884,-0.21373266904190408,0.3900387266202043,46.6936602436858,30.262673235570137,-14.189639692450037,-0.8797994501919344,0.28548631758606413,0.002780355923253858,0.3800156367992974
226.0,-0.04326486673933291,-0.08554578540105409,0.04244143788560381,4.947049027065129,2.0615971588715993,8.203129789415996,0.06531995586004513,-0.2957258805119398,0.2206322486544981,46.242592115798985,30.303364168568272,-14.098703465064872,-0.881289096063441,0.28546249131493673,0.0024503884079469344,0.37657444899876535
227.0,-0.0453533636022246,-0.07889067214538827,0.035309241073334545,4.913910860119211,2.0872276867126187,8.2166961775287,-0.23888447068213042,-0.04358687123871559,-1.044597604104859,47.07065839848464,30.07816370468924,-14.24608841670348,-0.8788473453272942,0.28425844874824113,0.002509977628579619,0.3830621755346415
228.0,-0.039487310852103275,-0.07685213986423436,0.03280570142535635,4.90189632774047,2.095976250160101,8.221536054745396,0.12642832964338643,0.04880679011216219,-0.23073984959654542,47.51976332497759,29.99551145408303,-14.29501697070609,-0.8774773252196586,0.2838253074749785,0.0029241430413700985,0.38654232666788657
229.0,-0.041508791832104375,-0.0734182935977897,0.03179056959361792,4.892015076939966,2.080180045011253,8.231299105264121,0.12132339487310852,-0.16022450734634877,0.2932478546465884,47.531594788941135,29.926194582182127,-14.175781750315629,-0.8776866232104368,0.2829294037242237,0.0035042039331784165,0.38674625749217795
230.0,-0.029251642178837398,-0.07491921760928039,0.02749638629169488,4.957557499130882,2.0635439957550354,8.195692825645434,0.3315851828810862,-0.49125505461731284,0.16019591788190946,47.40859833860904,30.3738221140651,-14.127033282710922,-0.8772304822267762,0.2860961005481858,0.005424631651876385,0.3854248099813369
231.0,-0.03364470385889156,-0.08150996285656781,0.029282418165516997,5.001301959636251,2.06215201361316,8.169759866795964,0.1638453058386548,-0.4234255210143999,0.28488257735165495,47.122788547746694,30.668185643971967,-14.154911212559238,-0.8775494134391157,0.28838927167299144,0.005740398943955502,0.38298543261694684
232.0,-0.03532508736940333,-0.09006462591257572,0.03344401954147075,5.037804292536548,2.0437994620606377,8.152191974822975,0.29990416811519954,-0.029903207509194396,0.23734172872486414,46.8361659012314,30.91462819973286,-14.060452308199,-0.8780893536931915,0.2898822634018626,0.0067208781223720565,0.3806079203399996
233.0,-0.04943523860059093,-0.08767983459279455,0.03797748914580563,5.028708260688866,2.052274014496655,8.155937319695777,0.34355901148632106,-0.22703854317237845,-0.016208402056960253,46.74303565002749,30.853719957646206,-14.116687882772087,-0.8784838321719863,0.28961705374712665,0.005852563928369723,0.37991614215400193
234.0,-0.043179198980929916,-0.08276482709527556,0.03532175639728749,5.019662957551235,2.077705256453486,8.15471213143007,0.09619476134277473,0.08006818777865196,-0.2205032829418156,46.77412517327938,30.79453783578734,-14.284819086958152,-0.8783681515673636,0.28971642660188823,0.004496929109006781,0.3801417657469185
235.0,-0.03174395863774307,-0.08389524558840059,0.031534281218388235,5.024501217638906,2.0718875463639432,8.153146407028588,0.03223529232700161,-0.26248009628713803,-0.07328108023303737,46.80610247836349,30.830597333839123,-14.249475127383763,-0.8782425733332303,0.28985164324455803,0.004951730926314112,0.38032913744503766
236.0,-0.035259076093065084,-0.08130246150387772,0.027001011576936053,5.056218350754937,2.081161515117455,8.130867558353003,0.27844123487317823,-0.4650102094338916,-0.09145404818103481,46.81585365853658,31.0460698362744,-14.352509741111234,-0.8776515757270991,0.2917892298400209,0.005208345346221573,0.3801987826660672
237.0,-0.0357373271889401,-0.0709447004608295,0.020898617511520744,5.0897173579109065,2.085027649769585,8.109021505376344,0.2149385560675883,0.6681931643625192,0.07581605222734254,46.73548387096774,31.26786674347158,-14.4144777265745,-0.8773890623041474,0.2936492033118279,0.005499736015360982,0.37936086331336405
238.0,-0.045374807987711215,-0.07745622119815668,0.03054377880184332,5.028218125960062,2.087059907834101,8.145967741935484,0.237471198156682,-0.46741551459293396,0.195852534562212,46.409024577572964,30.852217741935483,-14.368874807987712,-0.8793631229308756,0.2904326134439324,0.0032893071812596,0.3772597345222734
239.0,-0.04789477726574502,-0.07692319508448539,0.037725806451612914,5.06647465437788,2.075803379416282,8.1253955453149,0.18939612135176648,-0.5506480414746544,0.2017089093701997,46.2142089093702,31.11207277265745,-14.326334485407065,-0.8794941471374808,0.2922436929470046,0.004141422941628265,0.3755638150913979
240.0,-0.05050768942235559,-0.07610422248419246,0.036782025863608764,5.122791322830707,2.0464480227199644,8.097456998178119,0.07315863564105313,-0.6000430353123996,0.15594244543278676,45.935836191190646,31.498580616136174,-14.180038089879613,-0.8797051135882096,0.29465111255127174,0.0060448988955274525,0.3731494520100294
241.0,-0.05363038080948808,-0.07425871646483051,0.032647733361911915,5.149831529310898,2.0458664844782612,8.080875388489979,0.30872673525524236,0.03700925231307822,0.01650328876862074,45.80176986210839,31.681484768513556,-14.201090953541957,-0.8797429950961402,0.2960989715146912,0.006296537027640839,0.3719159623078181
242.0,-0.04982498303147215,-0.06845289893902048,0.03819368234915872,5.151481432858214,2.0645407691208515,8.074520835566034,0.5242966433572679,-0.10275593451934413,0.10116999115850392,45.72982838343515,31.690941597006393,-14.338886730611225,-0.8798386358044066,0.29662448492420423,0.005206622003259744,0.37129199473628227
243.0,-0.04773872039438431,-0.0683862036937806,0.03798681813310471,5.157850355446004,2.085286321580395,8.065657307183939,0.22793533204729752,-0.07374499874968743,-0.11628688422105525,45.622108652163035,31.736112599578462,-14.493027274675812,-0.8799563066777408,0.29744608031329256,0.00405406129675276,0.3703727959516665
244.0,-0.048389240167184655,-0.0646483049333762,0.03988068445682849,5.139460936662736,2.1089200871646483,8.071322116243346,0.24686528775050903,-0.07966500553709857,-0.12120664094595077,45.771324527560466,31.607703265101986,-14.637956364091023,-0.8796123214646517,0.29696945617511517,0.002901260302575644,0.37156867427892704
245.0,-0.0515069026997009,-0.06265934990241068,0.04118463057322773,5.073603482039341,2.1590280037541847,8.09913169850904,0.34625326380296373,0.26681091945064184,-0.10415042884097647,45.82386982703468,31.161058121673275,-14.918785094000773,-0.8801281287225053,0.29455947929501847,-0.0007805083442451531,0.3722591748299088
246.0,-0.03877063421699581,-0.06592734222516668,0.032738476826998965,5.058240582872991,2.150659288198673,8.111281635343898,0.05633906447391067,-0.26239159221623587,0.30098068348255896,45.61738638799309,31.05939431286393,-14.840542521994134,-0.881089063175599,0.29353547346703557,-0.0011957019916667478,0.37079850225402133
247.0,-0.04396289007316764,-0.06095522257187674,0.03239074378984358,5.077050398963378,2.1097459267414256,8.110199189407744,0.06875612977919804,-0.27652509718338675,0.27726645541255446,45.31985390828226,31.18133886150109,-14.576185239491691,-0.8820323492990131,0.2936130955353611,0.0003999470840437382,0.36849187557785557
248.0,-0.03886419577653362,-0.056433083167846135,0.03157218430359887,5.102190854571419,2.094965597591985,8.098683667986998,0.15490499812552125,-0.23826933927019925,-0.06243934825565753,45.19696776377734,31.354901170850205,-14.493398247110875,-0.882135611237495,0.2946431849722626,0.0013357427348209398,0.36743215731404866
249.0,-0.037811156938743706,-0.0559820543906962,0.03157789724593011,5.120796066731285,2.0882663875503233,8.088761153108994,0.26524498289800513,-0.14360730565124652,-0.16759305318687923,45.12965685370305,31.48007646510931,-14.468576021351314,-0.8820990335596612,0.2955062892328181,0.0018853938782167428,0.3668276892918258
250.0,-0.04467247473889378,-0.045849667991910883,0.031311181453900064,5.12248466297759,2.1042319116364445,8.08425125445124,0.2614645386085197,-0.07655839264694222,0.1058064494346583,45.11980150961085,31.488631630904244,-14.584616537409614,-0.8820171443930407,0.2959238384673433,0.0010765859257584431,0.36669510273114436
251.0,-0.045948049413366956,-0.05371321290886549,0.03848754871644741,5.151159128869958,2.1086374725610435,8.064680015822766,0.09891749742947298,-0.49397124433547407,-0.09003307754005338,45.10371213378653,31.686632360497473,-14.644651326060055,-0.881584912104793,0.297588508007797,0.0014257687577370268,0.36638171373957473
252.0,-0.04073900166520883,-0.04893033917332676,0.02855253011859237,5.119104910057099,2.1544608253742235,8.072259362750094,0.7413750313568255,0.13322271116559628,0.09762459026223136,44.853003340318764,31.473404505901577,-14.937029004043852,-0.8825809258911061,0.2968936230668785,-0.002166080840025496,0.3645069921270838
253.0,-0.054185393830244066,-0.051565877690518624,0.03958311006323009,5.131881329930202,2.189598626691832,8.054752812767653,0.5431894826335661,0.06270203221537092,0.36131229513111573,44.5379788534796,31.55773392092876,-15.198205690062839,-0.8831480658802501,0.29834166385444627,-0.004456877485315659,0.3619179221296316
254.0,-0.05255184044664952,-0.054844982230670136,0.03992212338798985,5.109020448412707,2.2319327103711304,8.057954222876276,0.6125652463559348,0.2343700581068612,0.1944178087996817,44.0216799403961,31.401349726190656,-15.473765067316084,-0.8848354998779506,0.2980075514603991,-0.008337318808503996,0.3579618160961934
255.0,-0.0440478632090712,-0.062242446104082264,0.03493855606758833,5.094814050162844,2.276266430204319,8.054674785856745,0.4175682570864445,-0.20478608872601425,0.0868234955476278,43.808008012208546,31.30556045949443,-15.773360403125409,-0.8854153782247968,0.2982277499950158,-0.011381820278220491,0.35628480876827673
256.0,-0.034913018324267485,-0.0688338330227156,0.0322273425499232,5.120886811424111,2.29887734999952,8.031486778489048,0.3366119458871686,-0.2175764160987982,0.061360532859695754,43.64128646490891,31.48458728358048,-15.966691504104249,-0.8853681246254204,0.3001437562009013,-0.012424139095261619,0.3547740854068657
257.0,-0.05263700071359303,-0.07351445875406132,0.043333333333333335,5.123304388814974,2.31880887469254,8.024395462977246,0.2096126165687763,-0.009925880860459008,-0.3679132435547911,43.58182794827627,31.496901936721112,-16.111441950208807,-0.8853774183610972,0.30070563627633384,-0.01354186702842958,0.35424046275719623
258.0,-0.04369615574625362,-0.06969035290181431,0.042408602150537635,5.114553059867754,2.3397230840811245,8.024088368782092,0.19042786611286966,-0.29909649668514693,0.2427693813697327,43.70139784510587,31.44218129880902,-16.24803018045452,-0.8849939480121772,0.3007205231641308,-0.014391737183766323,0.3551620436453172
259.0,-0.04545547362450368,-0.06726846519992369,0.039064253868345125,5.119684083041666,2.3257860109626707,8.024770384233687,0.17642459395336638,0.018011743789605933,0.09748618557078294,43.459766585810215,31.47423777764999,-16.153101439558494,-0.8857611458156874,0.30065184282911495,-0.014226292824770653,0.35331122494224954
260.0,-0.03296047356786931,-0.0637412236334345,0.03244303323217564,5.117384998688697,2.3287587576336595,8.026041999175751,0.16908742647334307,-0.4248693379790941,0.04581155632984902,43.43073484507887,31.455568590536135,-16.172064553594844,-0.8858659092621108,0.30057904478932973,-0.014506789566745344,0.3530979155147428
261.0,-0.021815409862918692,-0.06943062682046819,0.028220766428540933,5.132286701466307,2.3296213143006996,8.015988169951896,0.013816768107532101,-0.47319461343994534,-0.10430794490870103,43.37568707834624,31.555318187669737,-16.193711540363314,-0.8857990125457127,0.30140170861264787,-0.014403576898008474,0.35256073835752144
262.0,-0.03264733626786488,-0.07648182646706972,0.036721750341766626,5.159127221700896,2.313520334569704,8.003136174069649,0.19695254688018693,0.08943955963947431,-0.036768987815333616,43.30713117358172,31.741920806584485,-16.11783311273158,-0.8856865011154063,0.3025518229353562,-0.013262856025809152,0.3518957175888989
263.0,-0.05363847930623772,-0.08476904069222879,0.04739637871140259,5.168978638387819,2.3232250571353634,7.993623850213425,0.2608527240695191,-0.1010776975602786,-0.020216835567776953,43.12279872015041,31.811476606085318,-16.20032403571276,-0.886018128313899,0.30329977429792987,-0.014035021244021806,0.35038513815872957
264.0,-0.04760444815036512,-0.09476138895351015,0.04828119486317572,5.189204504087693,2.3350562736502933,7.977028290173591,0.4009367868970727,-0.023714497875339927,0.3591775774954192,43.1214209965819,31.952537083530466,-16.30504498402475,-0.8856108110334246,0.30468663848020017,-0.01421297009801405,0.3502069124499392
265.0,-0.049270734059821575,-0.10192061429991643,0.04902492173566039,5.108246645285013,2.382988872653703,8.013615677438525,0.13409887750683316,0.03584726756602041,0.09943302463246477,43.19179693660348,31.39773493024824,-16.553928279543754,-0.8863113580288887,0.3013049584864753,-0.018021642471921118,0.3511035814545413
266.0,-0.06082441429172624,-0.11432489829774514,0.05773076544397424,5.033384387908823,2.351213115996769,8.069966128291657,-0.003632294179816739,0.8686597553133927,-0.01008750118714346,43.23390953356806,30.891220240818043,-16.239032781932416,-0.887570806328773,0.29651150730025194,-0.017773555943387417,0.3519995049133172
267.0,-0.0489354580884689,-0.11247525462296837,0.0559324822890867,4.9973013965797435,2.3296178692677607,8.099406678166217,0.1248814160995903,-0.4432688341154025,0.10996288255822273,43.048430381223355,30.643459146383044,-16.04250200750021,-0.8888673379528238,0.29402562669753557,-0.017866519248051757,0.35084921046217465
268.0,-0.07585676532769556,-0.10744378250882011,0.0634069305851962,5.010806298165449,2.4074093408329906,8.0680639048343,0.9027388161133963,-0.1320195971941988,-0.17419456461260546,43.26406593073573,30.734245812007323,-16.61380253340081,-0.8874255259031132,0.2965143396137486,-0.020956696295846275,0.3521883840838493
269.0,-0.06450180726999932,-0.10066468945395993,0.06500569710055008,5.119937939030211,2.3650897979483787,8.00979057957394,-0.39438324104307665,0.5361329245836958,1.4370194890740422,42.26807654657567,31.48369267344552,-16.440009739131014,-0.888983102642573,0.30145098050651803,-0.01935198657881211,0.34391255365173334
270.0,-0.08551511254436986,-0.07612437200209143,-0.013879265270863174,4.192511212218639,1.8338936682222504,8.501915446394065,-2.290438173666793,-1.9856789481461272,2.1211712221886643,36.71498901511092,25.645005407195953,-12.348688227251618,-0.9155519977017144,0.2419791555381865,-0.017577232143701514,0.30306087877277765
271.0,-0.1097980663997168,-0.09065783491327378,0.04122240787469594,4.770152830415395,1.9127495347862946,8.232776927998232,-0.5457957935100657,-1.0296689939530335,-0.7723804429191714,38.817007823384415,29.344539462787775,-13.190426259162193,-0.9036728664577587,0.27397678411192894,-0.00879843722713958,0.31804293059043987
272.0,-0.09113070475411059,-0.09599240719270724,0.047543022119166146,4.995149728990689,2.0210888436394816,8.122121601829031,-0.05930277212160176,1.069453442906181,-1.1823091730724888,40.67225024600306,30.756763866291248,-14.032346560666141,-0.8959680550360642,0.28791432741886774,-0.006913272004332253,0.3320239826852493
273.0,-0.07083488404568673,-0.09931421166980056,0.04708966202589609,5.011606765327697,2.0671882256278353,8.131400707319687,-0.16513503375843952,0.4145661009408196,-0.5947570496520234,41.75721811946493,30.805410565303664,-14.288602994904569,-0.8932624722397483,0.2894041610869925,-0.006966186785397649,0.34083971837313226
274.0,-0.05737168058248329,-0.10599243966835864,0.046485566196744016,5.094903157607584,2.0765085914335724,8.091923159361269,0.09363278319579899,-0.5182420808124109,-0.08880294343066286,42.206745781412884,31.346511546717846,-14.405507423933905,-0.8910818268438051,0.2940274290806305,-0.00510258548572208,0.3441056296779389
275.0,-0.05073806763379158,-0.1176843918771901,0.050990094926329006,5.252221932106403,2.0982243417997353,8.00008216339799,0.19293774336441255,-0.7467890511588936,0.038456631203255376,42.59466033310275,32.3982269715156,-14.688660009970025,-0.8877887830202127,0.30297652150114474,-0.002557316343475479,0.3463656546146991
276.0,-0.05256973643157385,-0.12360286781388094,0.0555543305766258,5.326265028959171,2.1024574584412656,7.948808669937518,0.11321314921500411,-0.2975352406362598,-0.06662355895237669,42.67943007415023,32.91215416970928,-14.804694143275682,-0.8862852528707821,0.30720512443957393,-0.001083629662689746,0.3464931846815102
277.0,-0.04786809681514456,-0.12480188775416849,0.043866922305489275,5.357066671720194,2.0709253498043503,7.9371731521730595,0.2402783295998216,-0.32799800015334846,0.08362043145803871,42.602921336823755,33.12626434047536,-14.612791449168913,-0.8862121879741076,0.30822469804910546,0.0008732960362015586,0.34580638012772624
278.0,-0.03759380263184263,-0.11481645847001819,0.037021786805586425,5.404070970268698,2.0677361004014068,7.906893027699433,0.5244690419120459,-0.7186985008447234,0.418490323255901,42.37972967762847,33.448740849193136,-14.647289541788757,-0.8861133443211553,0.31076292195082006,0.001323345763876509,0.3438005026368278
279.0,-0.021770859091079398,-0.09922546925930087,0.028820613690007872,5.622607592446892,2.2076020194072905,7.705400931025439,2.389650303473081,-2.476282501592297,1.2142843678580795,41.1092877749054,35.0140298930351,-16.017870782754486,-0.8846752448464275,0.3263253715317991,-0.0053422141182046376,0.3320660306805759
280.0,-0.02524026825521712,-0.08937079914577947,0.034103855232100716,5.703686860739574,2.373228429058484,7.596615788093365,1.2261759581881533,0.47365310404256133,-0.8782660821999924,40.781660016484956,35.579041156194975,-17.36586583492563,-0.8829269862296653,0.33447559608444793,-0.013147520849424898,0.3285209312072235
281.0,-0.02064137724326552,-0.0794926379678543,0.027268292682926833,5.755930763178599,2.381201153947023,7.5579735116706,-0.022951556704507103,-0.018877617923644674,0.24826861114233278,40.33533728597655,35.954007202802444,-17.48675372784834,-0.8832609254751789,0.3376147235496984,-0.013738212234311188,0.3246873639749729
282.0,-0.029175134375928485,-0.07169484182892412,0.02834800337715091,5.768617151674679,2.4279365181016503,7.536841844607492,0.1558651640261982,-0.793805659603054,-0.4218816627066173,40.942367898159205,36.03852288747274,-17.84962273342726,-0.8809731556267044,0.33939003027920744,-0.01403884054201181,0.3291740793982677
283.0,-0.02728341972252646,-0.07249872659802582,0.02744205084372139,5.888091217926433,2.4310227905408412,7.443520768693915,0.05465109199773812,-0.9009590894021414,0.0714612423794102,41.005170124194805,36.912286597346196,-18.081277380538516,-0.878434497544535,0.3464638205197881,-0.01172437740234231,0.3287363103826976
284.0,-0.030330703538253907,-0.0748560685467534,0.02885927426978697,5.927736353077815,2.4304102985676743,7.412487709035272,0.05822166288523351,0.10623720144975274,-0.29825298631931507,41.172952430725275,37.19709583591455,-18.14869360578385,-0.8771888430273491,0.3487637658519171,-0.010461014374553785,0.32975170336124837
285.0,-0.03619895391966459,-0.07163617559442126,0.036768538824601626,5.76995803829006,2.423511600896741,7.536088708588297,-0.43584932600746007,1.010154651032096,0.39870496805386013,41.31077777066217,36.05401306772686,-17.8205809618781,-0.8799389647886361,0.3394002798892842,-0.012646357278866755,0.3319734830558162
286.0,-0.049039681523168246,-0.07671108543686445,0.037924001906399954,5.469207972724888,2.3454812135089527,7.770569924711143,0.12135051402223374,3.2549298038795413,-0.30113925476142556,40.78085603718002,33.92954390601135,-16.810983832630633,-0.8874000361630041,0.32047205464566486,-0.015752150000566345,0.3301099407096547
287.0,-0.050329328847891416,0.009772024887755047,0.011235247836349332,5.347057456872928,2.0432748474575093,7.708187652313775,15.452341253867473,-20.7480497356482,15.002348066328429,45.123009601485734,34.000307622637365,-15.610573320594957,-0.8922209946533237,0.31431328312213935,-0.020279625349477613,0.296399804429596
288.0,-0.14616696857141118,0.12012410768197278,0.18669289273537906,7.2400225840432215,2.2416719859407364,4.420864179459499,-10.403293658780548,12.414161576108311,3.703194962503692,111.96691474697943,52.27909966385324,-42.65537306582743,-0.8174951484864159,0.47170279613864263,-0.09180576607335632,0.1555841479790069
289.0,0.05635387505412934,0.09888050845463982,0.12154974719289581,5.9429220197035315,2.1182703515600156,6.408185278026824,-5.080913521063192,7.195523211159932,-3.1697125337519054,75.65947012667802,40.269965248280705,-28.006582819485356,-0.8622477366213024,0.369549777848016,-0.05439432476586045,0.24014865739160396
290.0,0.021475708648416435,0.0012720514623429588,0.08365121768246941,5.380032438423195,2.1761090621087327,7.3219805038367625,-1.8800304932504899,2.9379353767013177,-1.5552143697945398,58.04186063937587,34.844756049639585,-21.593873206977705,-0.88116209235443,0.3256250204140234,-0.03876393390366755,0.28589735523190024
291.0,-0.007088379237666573,-0.03995481013110419,0.05889990354731541,5.167566891722931,2.216279962847855,7.73475743935984,-0.7933155163790948,1.1413467206087236,-0.7948918033079699,49.1875279087629,32.59609880148608,-18.52968710927732,-0.8896583731213159,0.307627182123388,-0.030322041043475155,0.3079868583545886
292.0,-0.02594434322866431,-0.06224699031900832,0.04835548172757476,5.107039974279284,2.2259932840352943,7.923043082199121,-0.897017781231022,0.8720606490908442,-0.7467882595648913,44.718499937484374,31.75674275711785,-16.944543055406708,-0.8929695081774015,0.30074269738273857,-0.023999539392705316,0.32067523695763217
293.0,-0.03350980602293432,-0.07265959346979602,0.035955774657950204,5.046323366555924,2.2350626942449896,8.095549958918301,0.45291680062872863,-1.2771273175436717,-0.026883953131139976,40.27426052941807,30.977353713428357,-15.426260583002893,-0.8969889462469189,0.2942785822666381,-0.019343770556567712,0.32918125246883145
294.0,-0.04265745007680492,-0.07203533026113672,0.030844854070660524,5.1917741935483885,2.2391781874039944,8.001474654377883,0.2755856374807988,-0.8542626728110599,0.1476094470046083,40.17962749615975,31.97599846390169,-15.626584101382488,-0.8949287291474654,0.3024089013824885,-0.017203100921658984,0.3275306793164362
295.0,-0.04282374164969815,-0.07012663880255779,0.028608580716607723,5.2525517093559095,2.217867502589934,7.967819990711966,0.06209364841210302,-0.11567512413817738,0.15941038831136353,40.071966652377384,32.39667617797306,-15.54324630264709,-0.8943995178885791,0.3053208002798914,-0.01526773272478834,0.3264211722746758
296.0,-0.0441730075375987,-0.06914550066087952,0.030586932447397568,5.2530884506841,2.181472153752724,7.977800164326797,0.13521349087271817,0.0902759171935841,0.47318637695138066,39.73802825706427,32.39699880327225,-15.283887936269782,-0.8955976043244737,0.30453611996713464,-0.014307512648876506,0.3239259266250491
297.0,-0.04716714893008968,-0.0711892128084286,0.03497725476665335,5.223760047154645,2.1502407788358235,8.005846056461852,0.08000851475935185,0.2771069509537663,0.22800824879564838,39.35928940858908,32.18995017155857,-15.021697443088994,-0.8973664924562497,0.3021956012375481,-0.014261280515551363,0.32120560244828195
298.0,-0.050472975386703825,-0.0764356202290991,0.03808002523278905,5.217721037402207,2.1276127089263603,8.016352367708654,0.17162868134280956,0.03467482724339621,0.10917981564206382,39.11940084868778,32.147994479020454,-14.855222761483054,-0.8982944593310437,0.3013574018015698,-0.013863446390648185,0.3194290513278276
299.0,-0.04399778516057587,-0.07254755326462278,0.03277344597473411,5.214056728467829,2.1212159747253887,8.020722445419715,0.22519349349532503,-0.15394647877997372,0.08822833975044284,38.927010443813046,32.12352413016146,-14.803664657453561,-0.8989575925724986,0.30099098054310613,-0.01413266621840129,0.31790380673355634
300.0,-0.04436573429071555,-0.069488330270721,0.034556265372963454,5.240006608795056,2.1197115132441646,8.004318462019686,0.16309374599747498,-0.3681632243862359,0.005385737767194414,38.84267814013607,32.30226750394044,-14.825500745831057,-0.8987544380942014,0.30240345490771214,-0.013795973818127878,0.31715908129250947
301.0,-0.0448019147644054,-0.06534324347637432,0.03924049827787958,5.252587789804593,2.1233273388033416,7.995150782469139,0.13958258728445178,-0.4603632942207677,0.0073251653505710945,38.75613649710337,32.38997303768451,-14.863739236202779,-0.8987635814203726,0.30317746210439367,-0.013970424163288208,0.3163905315295113
302.0,-0.041399457007108925,-0.06269531668631444,0.03483085056978531,5.326200121458935,2.089100132175901,7.954746543778803,0.10768205444218198,-0.3563212231629336,0.2206143053620548,38.636040706605215,32.8964238827564,-14.704401546815276,-0.8980918162537063,0.30660589452309506,-0.011289643429786018,0.31506978424141757
303.0,-0.040480834494337876,-0.05768406387311114,0.03297610116814918,5.3859725645697125,2.0726453041831885,7.918556067588326,0.2199076554852999,-0.555656771335691,0.06799244453970636,38.550499231950845,33.318579644911225,-14.65630023577323,-0.8973992203157933,0.30968359622084096,-0.009620520800914516,0.31408964624513275
304.0,-0.04075804665452078,-0.060263637337905906,0.03525024113171151,5.447003536598435,2.0644171757225016,7.878745400635872,0.09654422534204979,-0.40732951094916586,-0.16285767870539064,38.57405869324474,33.74809327331833,-14.668852480977387,-0.8963229750716251,0.31298887863930264,-0.008044299875325974,0.313934455553174
305.0,-0.049643482299146224,-0.05412817490086809,0.03265048404958383,5.455140392240917,2.0699546315150212,7.872001929053692,0.11740881648983675,-0.11727708712892511,0.09481164934090665,38.579097899474874,33.80472573500518,-14.724447853034686,-0.8961423435349909,0.31353671487604035,-0.008197259637587967,0.31391755648715747
306.0,-0.05926088665023399,-0.051519665630693406,0.040108598578215984,5.4365970063944555,2.053684135319544,7.888931875826098,0.2960941128139178,0.09164344657592968,-0.17592791054906584,38.37888936519844,33.67192467759797,-14.584666255849676,-0.8971243192212337,0.3121367675440288,-0.008272246864573285,0.3124952840520844
307.0,-0.0483049333762012,-0.04899349837459366,0.0398356732040153,5.431679169792447,2.08552370235416,7.88446522344872,0.3580649626692387,-0.38363050584074593,0.3376725877898046,38.34599498088808,33.63818298324581,-14.810306371235665,-0.8970877051571822,0.31247887799860674,-0.010073526164219625,0.31218688983531595
308.0,-0.06026576330493773,-0.05397101017414632,0.03816780850264832,5.389414853713428,2.1133314251907924,7.905409993613386,0.1807851788731155,0.2662189393167107,-0.28775078133644905,38.353309908487574,33.34259719110962,-14.963345202589846,-0.8975972141110364,0.3106581676800385,-0.012222564423666891,0.3124510241492342
309.0,-0.0409282634247412,-0.05668497263688743,0.03635944264811848,5.292908714983625,2.1323920222215835,7.963896697170808,0.6988564432048779,0.9012946561988928,0.1848239716723606,37.98517930331886,32.67419070577749,-14.981252336167666,-0.9000628683970731,0.3055594753043488,-0.015782403149476393,0.31008769458966656
310.0,-0.051935213768598935,-0.06500843852078002,0.04361849173094669,5.185412668498135,2.1809045989720426,8.021149756080135,0.10115856490254974,0.5472479291425644,0.09594188616840621,37.79026284227851,31.9296709521457,-15.200431967748035,-0.9020581288505923,0.30042243563917115,-0.020597973872187557,0.30903540039507255
311.0,-0.05391584394356429,-0.07648021325888965,0.04757068622556336,5.095883378510132,2.163861901886622,8.082630391918538,0.1751338585953109,0.4042269278120924,0.16446100309920686,37.28958941063663,31.319392865420188,-14.98215521868272,-0.9049532451267215,0.2950366090198856,-0.022534406823565646,0.305600751420342
312.0,-0.05326744578130595,-0.07607036776615758,0.04355108812046218,5.037511581728184,2.180467817302759,8.115981094576782,0.20539047000426064,0.4852355837217144,-0.018839966960381205,37.32627031975764,30.91581682441516,-15.029912094748425,-0.9056987764842516,0.29208119738244664,-0.024266074805792036,0.3061836919889729
313.0,-0.05544568197798577,-0.07913274485868854,0.04661818764795729,4.765368694089899,2.2235777324121977,8.261243891112152,0.4903575088022876,1.6724220798230918,-0.4357083391056823,37.04042174524467,29.088219191121823,-15.053459194502459,-0.9101279001579403,0.27785161286903604,-0.03161619409841135,0.30516216276868
314.0,-0.0551375126011468,-0.08174013886746949,0.048188266578839845,4.710024649019398,2.2555067861041915,8.287524084853965,0.13631129907912515,0.05273650729755608,0.4218347705393247,37.13802563227915,28.71346092185067,-15.212001552217323,-0.9105244735679738,0.27546797570580794,-0.0339221677312708,0.30615758441888347
315.0,-0.0575237450477602,-0.0774263513613595,0.042700213380871356,4.7035183795948985,2.2198596338980217,8.303094554126336,0.055875793861357305,0.309756064887302,-0.2594100180097289,36.91374743729486,28.66501288867513,-14.959768905641043,-0.9115229042247757,0.27431230102976967,-0.032807997786615646,0.30449105487921635
316.0,-0.05642128737759352,-0.07392322819380805,0.03864568058390905,4.72878094523631,2.2214039354786435,8.2888165943925,0.2811261940049472,-0.6070311948631757,0.2974799122254431,36.94456595420632,28.833537952214535,-14.995849381552706,-0.9110817032151635,0.2757625945921542,-0.032400589902310074,0.3045953443413336
317.0,-0.04345365086916328,-0.06108210850622064,0.03512947052094034,4.813008966527346,2.2460791155977153,8.23323764739094,0.17943553832709047,-0.5197420870897167,-0.18910901505864267,37.06347095266848,29.39569953463976,-15.253264753470598,-0.9093656187457054,0.28087215056930614,-0.03197798182055096,0.30509246135608814
318.0,-0.03929566886495142,-0.06460084968977436,0.034142233293515026,4.873585521815994,2.2260568670042087,8.203334008589255,0.11772229316039812,-0.5315813110507592,0.38026846650687063,36.85156238428074,29.801262434511067,-15.174158930629869,-0.9091734887748981,0.2837735617952746,-0.03048704964355636,0.30316800633500707
319.0,-0.0438310797211498,-0.06317909181128036,0.0357883808931327,4.93717509952401,2.1959525464989946,8.173545259137084,0.1230383270904834,-0.7172695013910272,0.21310194708955987,36.56142675150495,30.233963379782224,-15.032514607310365,-0.9091920299920535,0.28665171414892054,-0.028657878833336377,0.30058373220069823
320.0,-0.04004457211863942,-0.0683460743234589,0.033674528388194624,4.985276489854171,2.157952463725687,8.154789526649953,0.09601417122573326,-0.25065183978921557,0.372046365249849,36.30863676284925,30.56053967760233,-14.81739977677346,-0.9093631706688379,0.28855032496078903,-0.02658894732527034,0.2984401242416701
321.0,-0.037071191142733426,-0.07001824846455515,0.03593293096793364,4.982093823107345,2.141534014165562,8.161392548485553,0.32184005278323063,0.17638566871683078,0.11035471193582366,36.00117741761224,30.535860522186294,-14.695575178637863,-0.9103272468369374,0.28795587107736514,-0.026569879461227672,0.2960728994648139
322.0,-0.040118491295297695,-0.06626568837331284,0.038697898342181375,4.969850362416388,2.161742250893734,8.163430707851179,0.1033196888072192,-0.2503996262567384,-0.2657622539345638,35.96940903888864,30.452828048039883,-14.828517146708279,-0.9104675507703065,0.28765801353943277,-0.027890451546067695,0.2958242897999238
323.0,-0.032507074503817596,-0.06410114810932699,0.03293817400343117,5.012002285850208,2.1399464691956966,8.142832771781794,0.18251036517840258,-0.11504657795546447,0.08542982054311485,35.90978811503834,30.742136786374292,-14.713041402772294,-0.9101137866320155,0.2895857458510547,-0.026236478565922837,0.2951720187074251
324.0,-0.03673028971528596,-0.06827851605758582,0.034046734898010224,5.038105410281142,2.134335941128138,8.128863090772695,0.223746003465152,-0.12178184054942306,0.20342100033937052,35.86246823982781,30.918265950416174,-14.702899162290572,-0.9098622764498356,0.29091978683602154,-0.025662133551441424,0.2946964129704748
325.0,-0.0444560181857311,-0.06732041459842313,0.03589758066694375,5.042973535195644,2.124995665292629,8.127987210217187,0.16824962447057756,-0.24157111795370445,0.20008837684159714,35.65541230146387,30.951041413445694,-14.64379566690453,-0.9103759734051893,0.2909828996590611,-0.025638333696059026,0.29304023045160243
326.0,-0.038994522149701186,-0.0694935406325449,0.03453865208462395,5.044916107075549,2.1077436083759613,8.13115566348033,0.24966340670533488,-0.3153420105897554,0.36158892728408576,35.25826970679952,30.966472127613784,-14.527470990134294,-0.9114677591219492,0.2906978369263048,-0.02571966402544886,0.28986389848232963
327.0,-0.044121988685324645,-0.06901408714547975,0.03774212281293321,5.0664272601251366,2.0940272001798355,8.121643812521077,0.25485416432505337,-0.17530487804878048,0.3378538177662882,34.83073882582143,31.111877599190738,-14.447650893559626,-0.9122973310947509,0.2915336134938744,-0.025761705677569212,0.28640839148458286
328.0,-0.05166143016590385,-0.07203437183337646,0.03511360418501838,5.0753779211353365,2.0786711573363723,8.120276502052345,0.20506926056427,0.044284563083279535,0.23967394832157513,34.51641029813202,31.166918553462406,-14.354221885175125,-0.9130496215522697,0.29166204510572336,-0.025674743119747708,0.28389231622696615
329.0,-0.0486379347450103,-0.06987663292129653,0.03726494341355374,5.04922505887796,2.0653801255191846,8.139865593576094,0.2166139313574038,0.2527250388381067,0.17928877907630217,34.18797665444235,30.988485198390187,-14.232650497119053,-0.9143570883337383,0.28987889019111046,-0.026223595427001353,0.28143959336693936
330.0,-0.04535901832601008,-0.06655253098989036,0.03719715643196514,5.00738631086343,2.0547845890043943,8.168151859393419,0.07886234951595042,-0.05166916729182294,-0.04654735112349516,34.015779614546496,30.70426423570178,-14.111492158753975,-0.9154961882734969,0.28732713004572563,-0.02674225147001036,0.28029820648733617
331.0,-0.03540992390954882,-0.06702050512628158,0.028383524452541706,4.977660129318043,2.0857601900475116,8.178234915871823,0.3066402761404637,0.03220113063980281,-0.19728481227449718,34.21015075197371,30.50552593505519,-14.297105526381596,-0.915268516287286,0.28628835716572,-0.02826375094237845,0.28195702306701675
332.0,-0.04649687683244855,-0.06526412090827585,0.03241400942570138,4.962049501922518,2.12209865184066,8.17817088418446,0.2696895369312711,-0.05303498130630219,-0.6193557317900904,34.40855782325372,30.39737514953651,-14.539637304796582,-0.9147864096574492,0.2860887209840439,-0.0298813840278188,0.283543395245902
333.0,-0.04430763178599528,-0.07579052864261362,0.039648758008317415,4.93925180772545,2.1741618897755783,8.178347757671125,0.43490080926154884,0.088404096886591,0.21399769585253453,34.429823020868454,30.240532857517515,-14.877569920572476,-0.9147434747699599,0.2857459727674122,-0.0328385899503578,0.2837057632406054
334.0,-0.042065490240155864,-0.0798115469633959,0.03922146041736915,4.951046794799744,2.1794734180060686,8.17043347945,0.08702605747255629,-0.10194330485931587,-0.04325076804915515,34.23154457495036,30.320583249035252,-14.925944138473643,-0.9150282464671611,0.2864157202201117,-0.033417164018957696,0.28205811212337484
335.0,-0.040607245888127086,-0.08520684875051515,0.0401729421902514,4.920554119366077,2.2069233449477346,8.180663744333295,0.4548609550035592,0.3329905211494511,-0.3489247311827957,34.36828284815106,30.11936420516279,-15.09266676969765,-0.9149549091544714,0.2852975536853246,-0.03497563088198269,0.28322989770454454
336.0,-0.04569532801318797,-0.08602892360720843,0.04557034206286764,4.8814552470870325,2.237591472781087,8.19545015173654,0.11810348057397624,0.2842179948297179,-0.10476190476190478,34.328179442508706,29.859240474317183,-15.261161533850363,-0.9154337439581881,0.28367924753774676,-0.037198256584616535,0.2830152409475104
337.0,-0.048344086021505375,-0.08462980030721966,0.048370199692780336,4.868403993855605,2.22147004608295,8.208064516129031,0.2849366359447004,-0.21591781874039934,0.5520737327188939,34.037634408602145,29.767799539170504,-15.134293394777266,-0.9164572163502303,0.282569624546851,-0.03728387313364055,0.28079285518433184
338.0,-0.05901352123745221,-0.0871401243167935,0.05152327367556174,4.8752103740220765,2.206792340942379,8.208129532383094,0.21028103007894833,-0.7598411879755653,-0.26853621887614765,33.6493001598614,29.814462767477583,-15.040890691422856,-0.9174061406501091,0.2825582982684064,-0.037406120963991,0.27766447513780235
339.0,-0.06499063158646803,-0.08179586861000965,0.049590361876183334,4.884471546458043,2.2254583824527563,8.19729825313471,0.41555238139892114,0.3110596287464723,0.10999552343443,33.70742657762655,29.879053580359376,-15.181039623745221,-0.9169831503096936,0.2834813125251402,-0.03807068272469903,0.27801991130930054
340.0,-0.05250741256742757,-0.08527254091397413,0.05963349722448034,4.868060910915882,2.245880843468707,8.200304909415504,0.1587565949087446,0.6559053798728427,-0.1439284037037134,33.921406665091794,29.765132858236335,-15.308052143697946,-0.9165491566199335,0.2829173163446904,-0.038837196422931736,0.27979325401489813
341.0,-0.04867306112242345,-0.08978584802995174,0.05420230928812343,4.837839403230599,2.2624692235776713,8.214254221220811,0.13936413654807428,-0.6919061810313205,0.1218722036780972,33.96827941741533,29.56454847596917,-15.392582139437298,-0.916786314189767,0.2815986118042577,-0.040003554693224704,0.28024713875072865
342.0,-0.04096095452434537,-0.08202426042050581,0.04705123144897723,4.8620955848718275,2.262878236980848,8.199934330272464,0.12702173801290043,-0.6342355405924652,-0.17173478909797138,33.99623648290121,29.731102963022984,-15.419793373866113,-0.9163497082623181,0.282980186670178,-0.039581382588547834,0.28039473444064855
343.0,-0.04394777265745008,-0.07864636019632085,0.04218706680154359,4.8955728522723,2.2617820613690016,8.18092615488367,0.1793757727323817,-0.44356009516316364,-0.11391011951594171,33.92726012513582,29.9544509385186,-15.444110374283465,-0.9160440353829007,0.2847545545269941,-0.03919246010415496,0.2796771556670788
344.0,-0.03872932518843997,-0.07397559320143623,0.03641334549665291,4.9594271041628,2.256497878825107,8.143521699240143,0.06810827271277749,-0.7038525746419184,0.20337341521791602,34.05655061413437,30.387499912870204,-15.478878321496751,-0.9147659886760714,0.2882731399105874,-0.03764514315356714,0.2804356716207362
345.0,-0.03653824170328297,-0.07610884864073161,0.0333185081984782,4.9962178044511125,2.251899046190119,8.122558496767052,0.29401770085378487,-0.2842150269710285,0.12742806237273605,33.82391803307969,30.6362528132033,-15.492898894366448,-0.914803260747687,0.2901821898181689,-0.037478231120637306,0.27839797105258457
346.0,-0.033027185367770516,-0.07881095273818454,0.031110098953309757,5.059318579644909,2.2270171114207127,8.090173257600117,0.10683027899832102,-0.46288804343943124,0.26880715714642944,33.57900970778408,31.06942248955096,-15.383186198335299,-0.9145664599360555,0.2932020192946452,-0.035861258056478405,0.27621203566070085
347.0,-0.03571021326760261,-0.07200993105419212,0.030777015682492057,5.0836354802986445,2.1948403529453797,8.083882327724789,0.17639901046690246,-0.12208342264137462,0.23626129746722396,33.40536986925302,31.23243109884614,-15.18460865216304,-0.9148312395640337,0.29391627816729177,-0.03433474111963705,0.2747724945246669
348.0,-0.03936872545662548,-0.06789155651282158,0.03303125258666583,5.128083522622815,2.1676477812833004,8.062721389406587,0.11597455112907146,-0.5363944753610006,0.01645428778797485,33.152932091908,31.53561195176843,-15.037014153364124,-0.9149034026987303,0.29588102750230766,-0.0329255356834557,0.27258736196064
349.0,-0.046252254701305985,-0.06547240991432526,0.02861615142461573,5.1477514387307615,2.132589832127021,8.060336688701794,0.18064293948051474,-0.13752394435716947,0.3689501371422995,32.88425393042512,31.666483770332825,-14.805524143448753,-0.9154672520620432,0.2962900553828117,-0.03148524613505119,0.2704095768880469
350.0,-0.0460408738944318,-0.058750029841955265,0.0285477070487134,5.15011611875094,2.109731936032788,8.065099219926935,0.14751713026253077,0.10757731353570096,0.16851404706577341,32.60972969178706,31.682104212355352,-14.645777624719766,-0.9162255476170429,0.2959415180447085,-0.030976988754929588,0.2682825004563122
351.0,-0.03703733402862911,-0.04919068312374261,0.026332225260147793,5.1198161238916,2.107112511795195,8.085111053895883,0.2615945866366417,0.1300895400243789,0.12143540294916935,32.53952786432671,31.469196307406555,-14.600250563511958,-0.9169092380289515,0.2941519034194356,-0.031517020333685995,0.2678716679163281
352.0,-0.04370818314334682,-0.045412929887524156,0.02938289450411384,5.105590857644726,2.0881178918422973,8.099129259666837,0.19063912319543297,-0.07940127453466156,0.14683761314893184,32.24412549130314,31.37721168096902,-14.446054621233705,-0.917949173253531,0.29295670568033993,-0.03145646423347127,0.26560934115920093
353.0,-0.047332904654735115,-0.047846961740435116,0.027024256064016004,5.104698317436503,2.104529703854534,8.094915871825101,0.4653038259564891,0.11431429285892901,0.05897456506983888,32.13471448219198,31.371003465152,-14.56554093880613,-0.9181005714746542,0.29316884951845107,-0.032603864851927275,0.2646988172771765
354.0,-0.028348694316436256,-0.0536251920122888,0.0298310291858679,5.1076036866359456,2.1277880184331788,8.08705069124424,0.10517473118279569,-0.24063940092165897,-0.036578341013824886,32.06278801843318,31.39127304147465,-14.731566820276498,-0.9180663972043008,0.2937087661597543,-0.03394290632104455,0.2640573060906297
355.0,-0.02560675883256528,-0.060000000000000005,0.027726574500768056,5.111374807987713,2.122749615975422,8.086374807987712,0.2894105222734255,-0.1865879416282642,0.19647657450076805,31.79953917050691,31.41445852534562,-14.699212749615976,-0.9186495596313362,0.29372512687403995,-0.0343029294546851,0.26194193682027644
356.0,-0.04142969540294481,-0.0613143007006107,0.031095500355925218,5.131525420553745,2.134540669139411,8.069837211044922,0.01770845041399724,-0.42892969540294484,-0.248527125248211,31.772162198868532,31.553123009628713,-14.810789451500506,-0.9182983794722941,0.29507918376718745,-0.0347384123565996,0.2615914022430781
357.0,-0.04067644524371511,-0.0651195159417032,0.034810422989022524,5.150182833164736,2.137504589562025,8.05719587126747,0.38781447866321983,-0.11941876475216368,0.36450371848188523,31.62664849574763,31.682835506350457,-14.85117525570417,-0.9183028175894496,0.29615204040125875,-0.03500192067906785,0.2603290855070998
358.0,-0.047170019856880595,-0.06553594844704208,0.03617249260050205,5.172433966505563,2.136221572814807,8.043501929489338,0.12855105653591098,-0.3605206342962047,0.07758116031621143,31.47144636768948,31.83301721554082,-14.866039816792178,-0.9182971141787495,0.2973388538872653,-0.03501950356150013,0.2590009441974823
359.0,-0.05630042092404634,-0.07057760520269439,0.04265024444264378,5.1605072522486015,2.170005188579375,8.041849024974013,0.6637886878078405,0.20477623216779803,0.26255020309955535,31.25766170418911,31.748776942711288,-15.096860533730993,-0.9187322261040392,0.2971459348383742,-0.03751478008586206,0.25728001063614336
360.0,-0.08282378957108615,-0.08079955528951925,0.05593341715219747,5.135399555463778,2.2062506741667995,8.047691025543845,0.20845444375031041,0.7294762497244519,-0.7348683316299458,31.115149976518516,31.581497726347965,-15.32269581986089,-0.9191878229022501,0.2963033363708,-0.04007246513125669,0.2561993334440318
361.0,-0.03547090344014575,-0.08481991926553067,0.03683531597185011,5.022574679384132,2.224913692708891,8.112250705533526,0.46607812667452575,0.35419524523988133,0.1498111134926589,31.089538009502373,30.814485094487907,-15.328902984674741,-0.9209170998594649,0.29023488554338583,-0.0426283641903333,0.25643783390297575
362.0,-0.03571744939719249,-0.08826680276340862,0.04234697873074541,4.915448011828742,2.27110685946748,8.164892727537286,0.260473404500951,0.05467456803225193,-0.1261359928396733,30.925816221041323,30.09031045871224,-15.533132063503682,-0.9226119703577794,0.2849596458212227,-0.04683251598093338,0.2554929427094213
363.0,-0.060299154056806886,-0.09531966266828029,0.05771052432097572,4.927689350037857,2.2778998199027107,8.156963148452618,0.057172513947302134,-0.3009276273772276,0.023619112530745945,30.880331118276082,30.17240317810289,-15.595096716252234,-0.9225241756526448,0.2857053838537195,-0.04717829530482359,0.2550321195404287
364.0,-0.06092977207716563,-0.09253980132663828,0.05699854798194323,4.934459828807375,2.269403773417222,8.154993202133284,-0.006531897564983579,-0.29499213326850876,-0.10165631020124369,31.01248832733009,30.219266105180477,-15.543797420391684,-0.9221845233777102,0.2860191671969272,-0.04632810820379965,0.2560956364431326
365.0,-0.05167018736391414,-0.0966674107551278,0.046369545130184986,4.923317507730591,2.274649909428576,8.160398130020308,0.11513697784202148,0.38435452994346153,0.15082326221799353,31.08515786530474,30.143821845324133,-15.562823003769235,-0.9221758889750515,0.2854516508140175,-0.04654808946565147,0.2567181147536457
366.0,-0.04540863438856228,-0.10331988049277127,0.04734510282622921,4.96151877690677,2.2268406997219685,8.149912582675286,-0.21014944502676194,-1.3524823932463952,0.43592910422727627,30.83765981782902,30.407496800158228,-15.267771428919946,-0.9224376551061895,0.2867763883182991,-0.0441382414119732,0.2546673132316616
367.0,-0.04364845566792394,-0.1316402706948514,0.016862952671965907,5.163686217721677,2.107763386839741,8.050007432171633,0.30754329479582443,-0.43961649166647054,0.03651293921041232,30.2425169663496,31.806767676239616,-14.653506092115364,-0.9211397156215448,0.2961625753550583,-0.0369104601709748,0.24924605112802592
368.0,-0.052949326181719644,-0.08873516288479785,0.04591770764990899,4.937791181244789,2.248264069501696,8.150432512309262,0.3268391139596746,0.46422499570885756,-0.2998493525820479,30.292432755401393,30.264270934894,-15.39326071718278,-0.9236371536604971,0.2856298471503851,-0.04698191400759598,0.25034056116590125
369.0,-0.0362947966956896,-0.0938027973892428,0.037415860933874584,4.8756074471579565,2.23153567137429,8.195692268014739,0.20694606360649395,0.47282111250809217,0.36262087081003697,30.138542584252335,29.840659696718603,-15.211818307364297,-0.9251520844862697,0.28180302985265476,-0.04726284294814122,0.24939094761935257
370.0,-0.029914090020763038,-0.09353305660910002,0.04380170391029814,4.954604173691505,2.25507016126854,8.142519802424474,-0.08315956384566524,-1.3344587235659089,-0.7461323627945313,30.67333637089586,30.367160305973705,-15.470898838603379,-0.922589956324155,0.28682453109662,-0.04606919003746146,0.25329315988619544
371.0,-0.043966261600243264,-0.1070622272292812,0.047680421847622195,4.958546326477089,2.2038791666557755,8.155507213040195,0.3297239815180276,1.3395870744689657,0.8087214530113365,30.281584660102304,30.37734455390851,-15.111289473065131,-0.9238123844485596,0.2859401843463131,-0.044368632395842864,0.2501861663524679
372.0,-0.048375735048744775,-0.10171758096318506,0.04870252406307153,4.926063092428159,2.188568222194921,8.180896800855265,0.05122115677002875,-0.10617027079069408,0.008166784727540788,29.99877816797405,30.1624625995349,-14.970377230631698,-0.9250787025901334,0.2838029525508119,-0.044734549608621665,0.24810038886860208
373.0,-0.04523743479423864,-0.1006723231330481,0.046240325760882744,4.964978831815968,2.147036274748129,8.169939352433925,0.1759203738216784,-0.6305831684401937,0.3486201744251394,29.73474018548191,30.424435469712378,-14.711521227432293,-0.9253498135775214,0.28522659740443823,-0.04272064528896859,0.24591852855939944
374.0,-0.044277703572234525,-0.08782464082919686,0.042916629854327704,5.030899554156832,2.121521209570685,8.13606030601727,0.1856944419031587,-0.8157716149420631,0.33581642361809966,29.441534839284735,30.870939893074315,-14.600048248124748,-0.925129941450819,0.2883998011599764,-0.04128544111606647,0.24330873182962293
375.0,-0.04104214903900192,-0.07853347570342065,0.03785991532726388,5.143875276310368,2.070276197969353,8.07798085496984,0.34587922895357986,-0.6611779251433068,0.6045542036641565,28.906378554568953,31.643417022591883,-14.35975445843168,-0.9247440538574425,0.29385142868326397,-0.03858823185639354,0.2385982625509348
