time,linaccel_x,linaccel_y,linaccel_z,gravity_x,gravity_y,gravity_z,gyro_x,gyro_y,gyro_z,euler_x,euler_y,euler_z,quaternion_w,quaternion_y,quaternion_x,quaternion_z
0.0,-0.048593750000000005,0.03203125000000001,-0.05437499999999999,0.010000000000000005,-0.04000000000000002,-9.799999999999999,0.0009765625,-0.005859375,0.00390625,33.9375,0.0625,179.75,0.001159670000000001,-0.956298830000001,-0.2923584,0.0018310500000000005
1.0,-0.04922821969696969,0.03209122474747476,-0.055599747474747455,0.010000000000000005,-0.04000000000000002,-9.799999999999997,-0.0015684185606060607,-0.001953125,-0.0012231691919191918,33.9375,0.0625,179.75,0.001159670000000001,-0.956298830000001,-0.2923584,0.0018310500000000005
2.0,-0.04802421536796536,0.03219494047619049,-0.054391233766233754,0.010000000000000005,-0.04000000000000002,-9.799999999999997,-0.005001183712121212,0.008362080627705626,-0.015134604978354978,33.9375,0.0625,179.75,0.001159670000000001,-0.956298830000001,-0.2923584000000001,0.0018310500000000005
3.0,-0.04924206973581973,0.03266533119658121,-0.05172103729603729,0.010000000000000005,-0.04000000000000002,-9.799999999999997,-0.029513372911810408,0.014158714549339549,-0.014755123348873349,33.9375,0.0625,179.75,0.001159670000000001,-0.9562988300000009,-0.2923584,0.0018310500000000003
4.0,-0.0497102937335093,0.03213705240855278,-0.05376005897087986,0.010000000000000005,-0.04000000000000002,-9.799999999999997,-0.008984564167727232,0.010702700106926455,-0.005695184865487586,33.9375,0.0625,179.75,0.001159670000000001,-0.9562988300000009,-0.2923584,0.0018310500000000003
5.0,-0.048799349743499955,0.03311568707331828,-0.05288794354417849,0.010000000000000005,-0.04000000000000002,-9.799999999999997,-0.002582178493950281,0.008816101648311566,-0.002910596465001858,33.9375,0.0625,179.75,0.001159670000000001,-0.9562988300000009,-0.2923584,0.0018310500000000003
6.0,-0.04771345786295232,0.03273330785728476,-0.05440829239770019,0.010000000000000005,-0.04000000000000002,-9.799999999999997,-0.0032613971648637035,-0.0011363040145538949,0.00011789336085195486,33.9375,0.0625,179.75,0.001159670000000001,-0.956298830000001,-0.2923584,0.0018310500000000003
7.0,-0.04737090292952113,0.031571932521017754,-0.05440600348135252,0.010000000000000005,-0.04000000000000002,-9.799999999999999,-0.003020605718306729,0.0092528401725862,-0.008601243935409798,33.9375,0.0625,179.75,0.001159670000000001,-0.956298830000001,-0.2923584,0.0018310500000000003
8.0,-0.04805487773741264,0.03253496994499643,-0.05416796151208764,0.010000000000000005,-0.04000000000000002,-9.799999999999997,0.007620552844282984,-0.002037614803548241,-0.01530943842006974,33.9375,0.0625,179.75,0.001159670000000001,-0.956298830000001,-0.2923584,0.0018310500000000003
9.0,-0.04794655297559125,0.03131803865569514,-0.052916912869669236,0.010000000000000005,-0.04000000000000002,-9.799999999999997,0.009903800736055792,-0.008842591706059147,-0.01155156562313068,33.9375,0.0625,179.75,0.001159670000000001,-0.9562988300000009,-0.2923584,0.0018310500000000003
10.0,-0.048684398298098945,0.033416602380327114,-0.05239249591485388,0.010000000000000005,-0.04000000000000002,-9.799999999999997,0.019508652895712054,-0.014103228929582294,0.00027260428520885314,33.9375,0.0625,179.75,0.001159670000000001,-0.956298830000001,-0.2923584,0.0018310500000000003
11.0,-0.04978612937876599,0.033938338458003245,-0.05133508593396652,0.010000000000000005,-0.04000000000000002,-9.799999999999997,0.010306089033388774,-0.008344629035905517,-0.01652874169292832,33.9375,0.0625,179.75,0.001159670000000001,-0.956298830000001,-0.2923584,0.0018310500000000003
12.0,-0.04853332312046804,0.03422944843232518,-0.05317762361214455,0.010000000000000005,-0.04000000000000002,-9.799999999999997,0.01693050281948031,-0.003021059019419034,-0.008469611254577552,33.9375,0.0625,179.75,0.001159670000000001,-0.956298830000001,-0.2923584,0.0018310500000000003
13.0,-0.04944502083536749,0.034123033111568266,-0.05232176165192533,0.010000000000000005,-0.04000000000000002,-9.799999999999997,0.02160510215039735,0.001665696146354849,-0.0014021208389588258,33.9375,0.0625,179.75,0.001159670000000001,-0.956298830000001,-0.2923584,0.0018310500000000003
14.0,-0.0471358654786074,0.03396481643356644,-0.052878891270020295,0.010000000000000005,-0.04000000000000002,-9.799999999999999,0.021525070611512147,0.016458195282540042,0.01629275462440785,33.9375,0.0625,179.75,0.001159670000000001,-0.956298830000001,-0.2923584,0.0018310500000000003
15.0,-0.04796173991311208,0.03297268114648953,-0.053720229217099694,0.010000000000000005,-0.04000000000000002,-9.799999999999997,0.01415746526784081,0.024898130877307578,0.009401756163913122,33.9375,0.0625,179.75,0.001159670000000001,-0.9562988300000009,-0.2923584,0.0018310500000000003
16.0,-0.04685721404257754,0.034074317112834214,-0.052712998284014156,0.010000000000000005,-0.04000000000000002,-9.799999999999997,0.008040976035679936,0.022270057618516935,0.0008213570653387708,33.9375,0.0625,179.75,0.001159670000000001,-0.956298830000001,-0.2923584,0.0018310500000000003
17.0,-0.04806936948463188,0.03317596598554713,-0.05184037010974901,0.010000000000000005,-0.04000000000000002,-9.799999999999997,0.005166015877077504,0.011089207694888966,-0.011670821956089168,33.9375,0.0625,179.75,0.001159670000000001,-0.956298830000001,-0.2923584,0.0018310500000000003
18.0,-0.049744362161670774,0.03454083659078846,-0.05359512302013505,0.010000000000000005,-0.04000000000000002,-9.799999999999999,0.016556333000573492,0.01091060881022364,-0.0059129544023622015,33.9375,0.0625,179.75,0.001159670000000001,-0.956298830000001,-0.2923584,0.0018310500000000003
19.0,-0.04641049447663553,0.035908505773635774,-0.05189703930718616,0.007611940298507466,-0.04000000000000002,-9.799999999999997,0.010344293680761544,-0.018617183650886104,-0.027556954961264063,33.9375,0.04757462686567164,179.75,0.0011027783293211368,-0.9562988300000009,-0.2923584,0.0018456267164179104
20.0,-0.04544534945675412,0.034826257627383055,-0.05333783856770736,0.003644679826673088,-0.04000000000000002,-9.799999999999999,0.011999671746865717,-0.05994421643193911,-0.02424545092605998,33.9375,0.02277924891670679,179.75,0.0009756506460501462,-0.956298830000001,-0.2923584,0.0018994086510129246
21.0,-0.04496607648790785,0.036039717278989664,-0.05301300530535905,0.0016610495907558986,-0.04000000000000002,-9.799999999999999,-0.0041113566974371315,-0.03632596940854042,-0.009969133087663421,33.9375,0.010381559942224363,179.75,0.0009101480649605566,-0.956298830000001,-0.2923584,0.001928238357764526
22.0,-0.04273137106033109,0.03655525721269583,-0.05323575978667455,0.0006692344727973041,-0.04000000000000002,-9.8,-0.009050822191770676,-0.024118319691863264,0.0023413484685752377,33.9375,0.004182715454983148,179.75,0.0008773967744157619,-0.956298830000001,-0.2923584,0.0019426532111403265
23.0,-0.04188587501809697,0.037328008334147,-0.051142505805059954,0.00017332691381800682,-0.04000000000000002,-9.799999999999999,0.028749177219025555,-0.02640375342439618,0.0099683281932319,33.9375,0.0010832932113625422,179.75,0.0008610211291433646,-0.956298830000001,-0.2923584,0.001949860637828227
24.0,-0.04371496447101285,0.035887162568614184,-0.052098696330551156,0.0,-0.04000000000000002,-9.799999999999999,0.03496468249492443,-0.017504958079554853,0.01329693491991879,33.9375,0.0,179.75,0.0008546111712158804,-0.956298830000001,-0.2923584,0.0019530088287841175
25.0,-0.04328147967407202,0.03613064604057062,-0.05280385068668757,0.0,-0.04000000000000002,-9.8,0.020386967838353115,-0.007706393231724918,0.01373793756321722,33.9375,0.0,179.75,0.0008544899999999994,-0.956298830000001,-0.2923584,0.0019531299999999982
26.0,-0.04334184870800375,0.036417137536414346,-0.05127843744011798,0.0,-0.04000000000000002,-9.8,0.016052858919176557,-0.0011440232287656849,0.025455158297737642,33.9375,0.0,179.75,0.0008544899999999994,-0.956298830000001,-0.2923584,0.0019531299999999982
27.0,-0.04314434340806608,0.03599035687257592,-0.05160124594015071,0.0,-0.04000000000000002,-9.799999999999999,0.01752996355989657,-0.004295975822218018,0.006645354921483304,33.9375,0.0,179.75,0.0008544899999999994,-0.956298830000001,-0.2923584,0.0019531299999999982
28.0,-0.04345588476516546,0.03596243161321856,-0.052797953596438234,0.0,-0.04000000000000002,-9.799999999999999,0.011185041558879033,0.00722795200918575,0.02389142323110033,33.9375,0.0,179.75,0.0008544899999999994,-0.956298830000001,-0.2923584,0.0019531299999999982
29.0,-0.041885512467068134,0.03520203793922578,-0.05135109373370298,0.0,-0.04000000000000002,-9.799999999999999,0.014163319310545507,0.011964010406794616,0.011197413724485135,33.9375,0.0,179.75,0.0008544899999999994,-0.956298830000001,-0.2923584,0.0019531299999999982
30.0,-0.04170238162375259,0.0355640782828283,-0.052473153526580926,0.0,-0.04000000000000002,-9.8,0.032689750185969944,0.013558748179463904,0.012443790108860674,33.9375,0.0,179.75,0.0008544899999999994,-0.956298830000001,-0.2923584,0.0019531299999999982
31.0,-0.04087515172999044,0.03370593027044642,-0.054415275584630406,0.0,-0.04000000000000002,-9.8,0.030067395641992414,0.01563362153079895,0.004150274009144976,33.9375,0.0,179.75,0.0008544899999999994,-0.956298830000001,-0.2923584,0.0019531299999999982
32.0,-0.0428104986411438,0.0349883512544803,-0.053546836228287834,0.0,-0.04000000000000002,-9.8,0.014239465171924849,0.0018906133069439522,-0.0002617398282720859,33.9375,0.0,179.75,0.0008544899999999994,-0.956298830000001,-0.2923584,0.0019531299999999982
33.0,-0.0446227056993186,0.03436360727086535,-0.053923364941510094,0.0,-0.04000000000000002,-9.8,0.011619466722793336,0.007834609107290558,0.005874191332860687,33.9375,0.0,179.75,0.0008544899999999994,-0.956298830000001,-0.2923584,0.0019531299999999982
34.0,-0.045666331204637645,0.033674146418098044,-0.053525709841234025,0.0,-0.04000000000000002,-9.799999999999999,0.014808127440435909,-0.01051270987636915,-0.0019344888422509394,33.9375,0.0,179.75,0.0008544899999999994,-0.956298830000001,-0.2923584,0.0019531299999999982
35.0,-0.045666524783460255,0.03324999194354034,-0.05329298054096441,0.0,-0.04000000000000002,-9.799999999999999,0.013052375212153439,-0.0005298409028247734,-0.00515798185909073,33.9375,0.0,179.75,0.0008544899999999994,-0.956298830000001,-0.2923584,0.0019531299999999982
36.0,-0.04479698683932554,0.034705897149445546,-0.05343151528131366,0.0,-0.04000000000000002,-9.799999999999999,-0.007220907592631381,0.010720644163184485,-0.0025324648749547943,33.9375,0.0,179.75,0.0008544899999999994,-0.956298830000001,-0.2923584,0.0019531299999999982
37.0,-0.045681823552791295,0.03454604893314572,-0.05552340132985292,0.0,-0.04000000000000002,-9.8,-0.0015465717078620295,0.003501203097977291,-0.0016995101672521028,33.9375,0.0,179.75,0.0008544899999999994,-0.956298830000001,-0.2923584,0.0019531299999999982
38.0,-0.045319150383666504,0.035518032147064414,-0.053660318176447196,0.0,-0.04000000000000002,-9.8,-0.008477778941488618,0.02118384527658721,-0.01718680065454259,33.9375,0.0,179.75,0.0008544899999999994,-0.956298830000001,-0.2923584,0.0019531299999999982
39.0,-0.04529154000121742,0.036072799064734554,-0.05013905449389319,0.0,-0.04000000000000002,-9.799999999999999,0.009156149629939953,-0.004116655074316366,-0.00501935340645018,33.9375,0.0,179.75,0.0008544899999999994,-0.956298830000001,-0.2923584,0.0019531299999999982
40.0,-0.04562095610482708,0.03573118861425314,-0.049132802681189774,0.0,-0.04000000000000002,-9.799999999999999,0.008912752234324814,-0.011285995030954708,0.012231328259554065,33.9375,0.0,179.75,0.0008544899999999994,-0.956298830000001,-0.2923584,0.0019531299999999982
41.0,-0.04484580831355025,0.03559088872596938,-0.04700751757203369,0.0,-0.04000000000000002,-9.799999999999999,-0.006216306934552903,0.003581592858306569,0.017708406065260904,33.9375,0.0,179.75,0.0008544899999999994,-0.956298830000001,-0.2923584,0.0019531299999999982
42.0,-0.044064835701932474,0.03613815183472442,-0.04758938642003157,0.0,-0.04000000000000002,-9.8,-0.007638658804233402,-0.0001303111371155725,0.02475109735694413,33.9375,0.0,179.75,0.0008544899999999994,-0.956298830000001,-0.2923584,0.0019531299999999982
43.0,-0.04433390668471313,0.03550669223249869,-0.046223508346492206,0.0,-0.04000000000000002,-9.8,0.0008834369595458304,-0.002168278629972178,0.01982747175539514,33.9375,0.0,179.75,0.0008544899999999994,-0.956298830000001,-0.2923584,0.0019531299999999982
44.0,-0.04429340216235377,0.03592527275591792,-0.04758959711883098,0.0,-0.04000000000000002,-9.8,-0.003058141874926149,0.009117968165347197,0.010830885484363307,33.9375,0.0,179.75,0.0008544899999999994,-0.956298830000001,-0.2923584,0.0019531299999999982
45.0,-0.042050934952144625,0.03541663343377053,-0.04882252033360904,0.0,-0.04000000000000002,-9.8,0.0008893338404427115,0.00996282992880775,0.0029105324279215415,33.9375,0.0,179.75,0.0008544899999999994,-0.956298830000001,-0.2923584,0.0019531299999999982
46.0,-0.040334332334332326,0.034966152127442446,-0.04862917011304106,0.0,-0.04000000000000002,-9.799999999999999,0.0017687062041900753,-0.0002054397215687535,-0.013081005016488886,33.9375,0.0,179.75,0.0008544899999999994,-0.956298830000001,-0.2923584,0.0019531299999999982
47.0,-0.04090662026145897,0.036743621969428424,-0.047274882823269915,0.0,-0.04000000000000002,-9.799999999999999,-0.01485696203438139,-0.018899245915374948,-0.012495837495837495,33.9375,0.0,179.75,0.0008544899999999994,-0.956298830000001,-0.2923584,0.0019531299999999982
48.0,-0.04037886844338457,0.037306743435775704,-0.051584229390681,0.0,-0.04000000000000002,-9.799999999999999,-0.007568059180962407,-0.014523424604069766,-0.004928942025716219,33.9375,0.0,179.75,0.0008544899999999994,-0.956298830000001,-0.2923584,0.0019531299999999982
49.0,-0.038829987217083986,0.03669612645419097,-0.05121326164874551,0.0,-0.04000000000000002,-9.8,-0.011248507317055704,-0.009077828533473695,-0.01812147306098919,33.9375,0.0,179.75,0.0008544899999999994,-0.956298830000001,-0.2923584,0.0019531299999999982
50.0,-0.03917678020903827,0.03684189914028624,-0.05219472015439755,0.0,-0.04000000000000002,-9.8,0.014643135762087374,-0.01263937115751632,-0.01644090116872375,33.9375,0.0,179.75,0.0008544899999999994,-0.956298830000001,-0.2923584,0.0019531299999999982
51.0,-0.03952853598014888,0.03715905017921147,-0.05168007306313757,0.0,-0.04000000000000002,-9.8,0.0162240229528536,-0.010633449771554612,0.004629434745362166,33.9375,0.0,179.75,0.0008544899999999994,-0.956298830000001,-0.2923584,0.0019531299999999982
52.0,-0.03900212690535272,0.03598273120248927,-0.0519695808224034,0.0,-0.04000000000000002,-9.8,-0.0021443987799834568,-0.0016551982403796924,-0.0031470475648903056,33.9375,0.0,179.75,0.0008544899999999994,-0.956298830000001,-0.2923584,0.0019531299999999982
53.0,-0.03861396667848282,0.03584978854031274,-0.05218550725707982,0.0,-0.04000000000000002,-9.8,-0.0015762316480562445,-0.008732105008566702,-0.008173946209480483,33.9375,0.0,179.75,0.0008544899999999994,-0.956298830000001,-0.2923584,0.0019531299999999982
54.0,-0.039503708656934464,0.036032864089315705,-0.05358259661485466,0.0,-0.04000000000000002,-9.799999999999999,0.011667113128806677,-0.006762592246463214,-0.013373862920233888,33.9375,0.0,179.75,0.0008544899999999994,-0.956298830000001,-0.2923584,0.0019531299999999982
55.0,-0.03952108509769801,0.03647797050619632,-0.05372678217839508,0.0,-0.04000000000000002,-9.799999999999999,-0.010683192815249267,-0.0001554896716187042,-0.003972911609000319,33.9375,0.0,179.75,0.0008544899999999994,-0.956298830000001,-0.2923584,0.0019531299999999982
56.0,-0.038431078048728945,0.03728220945865327,-0.05367744696048546,0.0,-0.04000000000000002,-9.8,-0.010303375003638402,0.003183581506942589,0.008551945700342551,33.9375,0.0,179.75,0.0008544899999999994,-0.956298830000001,-0.2923584,0.0019531299999999982
57.0,-0.03810954824095434,0.03614238481125188,-0.054305441350186404,0.0,-0.04000000000000002,-9.8,-0.03404953696418479,0.016616752351013536,0.01705279056650512,33.9375,0.0,179.75,0.0008544899999999994,-0.956298830000001,-0.2923584,0.0019531299999999982
58.0,-0.03868547356216452,0.03575710276542744,-0.05425631868998154,0.0,-0.04000000000000002,-9.8,-0.0135350720645986,0.0035976131482114825,0.02560460751960492,33.9375,0.0,179.75,0.0008544899999999994,-0.956298830000001,-0.2923584,0.0019531299999999982
59.0,-0.039734871528055715,0.037939646201873053,-0.05371745177299287,0.0,-0.04000000000000002,-9.8,-0.01111960197710718,-0.014998274033458738,0.0016933857960457852,33.9375,0.0,179.75,0.0008544899999999994,-0.956298830000001,-0.2923584,0.0019531299999999982
60.0,-0.03874584767469784,0.03668074121508045,-0.053328949211558466,0.0,-0.04000000000000002,-9.8,-0.002543361782598255,-0.007088156867845995,0.009841730118866564,33.9375,0.0,179.75,0.0008544899999999994,-0.956298830000001,-0.2923584,0.0019531299999999982
61.0,-0.03933514267990074,0.03686290322580646,-0.05224247828784118,0.0,-0.04000000000000002,-9.8,-0.009065795595533499,-0.0021527993176178664,0.009542203008684863,33.9375,0.0,179.75,0.0008544899999999994,-0.956298830000001,-0.2923584,0.0019531299999999982
62.0,-0.039546450860966996,0.03663526392961877,-0.05166872509211218,0.0,-0.04000000000000002,-9.799999999999999,0.004689556075644785,-0.00888030819986465,0.014641255921497856,33.9375,0.0,179.75,0.0008544899999999994,-0.956298830000001,-0.2923584,0.0019531299999999982
63.0,-0.04051143882998722,0.03645658978118657,-0.050767365027445666,0.0,-0.04000000000000002,-9.799999999999999,-0.009356524691706143,-0.010333454348071282,0.01132962299796977,33.9375,0.0,179.75,0.0008544899999999994,-0.956298830000001,-0.2923584,0.0019531299999999982
64.0,-0.03983368625102496,0.036507864783066404,-0.0524616296561861,0.0,-0.04000000000000002,-9.799999999999999,0.005686462535000841,-0.0061755301989676985,0.010117773411624217,33.9375,0.0,179.75,0.0008544899999999994,-0.956298830000001,-0.2923584,0.0019531299999999982
65.0,-0.039237485185065826,0.03594488307391534,-0.05356506575861414,0.0,-0.04000000000000002,-9.8,-0.015101528735601315,0.011288543445801512,0.011723259379509379,33.9375,0.0,179.75,0.0008544899999999994,-0.956298830000001,-0.2923584,0.0019531299999999982
66.0,-0.03422532955395859,0.03833239341303858,-0.05144987628858595,0.0,-0.04000000000000002,-9.799999999999999,0.0014950285489599997,-0.009553769483204968,0.0013077158616473135,33.9375,0.0,179.75,0.0008544899999999994,-0.956298830000001,-0.2923584,0.0019531299999999982
67.0,-0.0315530362334798,0.038418396120009024,-0.04957635554409747,0.0,-0.04000000000000002,-9.799999999999999,-0.011104880642431047,0.008557059539922442,0.011421819807656502,33.9375,0.0,179.75,0.0008544899999999994,-0.956298830000001,-0.2923584,0.0019531299999999982
68.0,-0.030673191503836683,0.03822129483419806,-0.04890108099785517,0.0,-0.04000000000000002,-9.799999999999999,-0.003678070361538104,-0.0010768129719742631,0.004057054057054057,33.9375,0.0,179.75,0.0008544899999999994,-0.956298830000001,-0.2923584,0.0019531299999999982
69.0,-0.029791083916083934,0.03686168132942327,-0.048828144973306245,0.0,-0.04000000000000002,-9.8,-0.02349900603428829,-0.0009866813294232652,-0.010010151139183398,33.9375,0.0,179.75,0.0008544899999999994,-0.956298830000001,-0.2923584,0.0019531299999999982
70.0,-0.029915393074667285,0.03596433942401685,-0.05005427099781937,0.0,-0.04000000000000002,-9.8,-0.012680024108955558,0.014937800774494322,-0.005718475073313783,33.9375,0.0,179.75,0.0008544899999999994,-0.956298830000001,-0.2923584,0.0019531299999999982
71.0,-0.03115609491315138,0.03638430521091811,-0.0506721464019851,0.0,-0.04000000000000002,-9.8,-0.006118660825062035,0.00446843982630273,0.00025589330024813894,33.9375,0.0,179.75,0.0008544899999999994,-0.956298830000001,-0.2923584,0.0019531299999999982
72.0,-0.03321099565756825,0.03408832196029778,-0.05188004032258063,0.0,-0.04000000000000002,-9.8,-0.043391846308933,0.008276306606699752,-0.00418879885235732,33.9375,0.0,179.75,0.0008544899999999994,-0.956298830000001,-0.2923584,0.0019531299999999982
73.0,-0.03383696900114812,0.03391852153623941,-0.05320173326913816,0.0,-0.04000000000000002,-9.799999999999999,-0.0381129402614718,-0.0067622495463130995,-0.019379837783785787,33.9375,0.0,179.75,0.0008544899999999994,-0.9562988300000009,-0.2923584,0.0019531299999999982
74.0,-0.034789452242509546,0.03337861560682938,-0.054238583756157165,0.0,-0.04000000000000002,-9.799999999999999,-0.007967760453316543,-0.021727898966704937,0.005570627013814302,33.9375,0.0,179.75,0.0008544899999999994,-0.956298830000001,-0.2923584,0.0019531299999999982
75.0,-0.03468367015213429,0.03390132875737113,-0.05381738947940199,0.0,-0.04000000000000002,-9.799999999999999,-0.0008651575514839849,-0.027233243272001093,0.005873018812354391,33.9375,0.0,179.75,0.0008544899999999994,-0.956298830000001,-0.2923584,0.0019531299999999982
76.0,-0.03383687229691083,0.03595190507347465,-0.05334045652630149,0.0,-0.04000000000000002,-9.8,-0.026153732621895836,-0.02258064148711717,-0.013285574961068462,33.9375,0.0,179.75,0.0008544899999999994,-0.956298830000001,-0.2923584,0.0019531299999999982
77.0,-0.03394798724252264,0.035993547844655215,-0.0536563174427883,0.0,-0.04000000000000002,-9.799999999999999,-0.014248946918512397,-0.020778346159003355,0.001301418850768875,33.9375,0.0,179.75,0.0008544899999999994,-0.956298830000001,-0.2923584,0.0019531299999999982
78.0,-0.03523916898513674,0.0348398908439231,-0.054696311752763356,0.0,-0.04000000000000002,-9.799999999999999,-0.0006575833440752793,-0.016991011900286096,0.015584415584415586,33.9375,0.0,179.75,0.0008544899999999994,-0.956298830000001,-0.2923584,0.0019531299999999982
79.0,-0.03494960930646416,0.03511473450384742,-0.05331465711707647,0.0,-0.04000000000000002,-9.799999999999999,0.013458429171634817,-0.02304265235212816,0.020431785955979505,33.9375,0.0,179.75,0.0008544899999999994,-0.956298830000001,-0.2923584,0.0019531299999999982
80.0,-0.03391180492894204,0.036773523855177084,-0.05215939638318671,0.0,-0.04000000000000002,-9.8,0.011595987597751711,-0.027402465645913227,0.012104998496127528,33.9375,0.0,179.75,0.0008544899999999994,-0.956298830000001,-0.2923584,0.0019531299999999982
81.0,-0.035270678246484694,0.03763751033912324,-0.05252016129032259,0.0,-0.04000000000000002,-9.799999999999999,-0.012460288367546432,-0.009996404804872546,0.08915672700954959,33.960960410557185,0.0,179.75,0.0008544899999999994,-0.9562654179178893,-0.2924796353470185,0.0019531299999999982
82.0,-0.034207861582861585,0.03781970941245135,-0.051851943978960105,0.0,-0.04000000000000002,-9.799999999999999,-0.011786136130894194,-0.014436624643277867,0.004395428160549129,34.01374633431085,0.0,179.75,0.0008544899999999994,-0.9561876155718477,-0.2927655415444769,0.0019531299999999982
83.0,-0.03699715226529742,0.03892966643571483,-0.053455768357986086,0.0,-0.04000000000000002,-9.799999999999999,-0.031168778018576405,-0.004441026883063173,0.021717240253026543,34.04013929618769,0.0,179.75,0.0008544899999999994,-0.956148714398827,-0.2929084946432061,0.0019531299999999982
84.0,-0.03769716484232613,0.03865334128237355,-0.05145318659834787,0.0,-0.04000000000000002,-9.8,-0.023081868847997882,-0.0022520154576606186,0.016497481013610045,34.0533357771261,0.0,179.75,0.0008544899999999994,-0.9561292638123167,-0.2929799711925708,0.0019531299999999982
85.0,-0.03771150444537542,0.038102744030163394,-0.052898861890797365,0.0,-0.04000000000000002,-9.799999999999999,-0.007297194293162036,0.010138467043708979,-0.022605083088954057,34.05993401759531,0.0,179.75,0.0008544899999999994,-0.9561195385190614,-0.2930157094672531,0.0019531299999999982
86.0,-0.03692684779378329,0.03923461887574791,-0.05307049267936363,0.0,-0.04000000000000002,-9.799999999999999,-0.020918927622556656,-0.01737018861514829,0.01738171103090458,34.0625,0.0,179.75,0.0008544899999999994,-0.9561157199999998,-0.2930297899999999,0.0019531299999999982
87.0,-0.03693500607815124,0.03874941389255906,-0.05356289610926706,0.0,-0.04000000000000002,-9.799999999999999,0.0050775305563612,-0.02476612349344204,0.008914869852369852,34.0625,0.0,179.75,0.0008544899999999994,-0.9561157199999998,-0.29302978999999996,0.0019531299999999982
88.0,-0.03616989383824062,0.038662626911618855,-0.05304939874193904,0.0,-0.04000000000000002,-9.8,0.010270706276250631,-0.03132162766109339,0.023188233697306274,34.0625,0.0,179.75,0.0008544899999999994,-0.9561157199999998,-0.29302978999999996,0.0019531299999999982
89.0,-0.035688426269071434,0.038186014702143736,-0.05286168311974762,0.0,-0.04000000000000002,-9.799999999999999,0.027350002148389244,-0.013690028609383448,0.013360138964977673,34.0625,0.0,179.75,0.0008544899999999994,-0.9561157199999998,-0.2930297899999999,0.0019531299999999982
90.0,-0.0368349267220235,0.03784178545468868,-0.05329789923338309,0.0,-0.04000000000000002,-9.799999999999999,0.004968989343989344,-0.03087055193910033,0.005122151593925787,34.0625,0.0,179.75,0.0008544899999999994,-0.9561157199999998,-0.2930297899999999,0.0019531299999999982
91.0,-0.035694039831136615,0.03776897654317009,-0.05454614919131047,0.0,-0.04000000000000002,-9.799999999999999,-0.018974601787101787,0.003183761802713415,-0.033234199716054555,34.0625,0.0,179.75,0.0008544899999999994,-0.9561157199999998,-0.29302978999999996,0.0019531299999999982
92.0,-0.036021390348003265,0.03711401859788956,-0.0541641047124918,0.0,-0.04000000000000002,-9.799999999999999,0.003717907876174006,0.006013982097651452,-0.018540132022994926,34.0625,0.0,179.75,0.0008544899999999994,-0.9561157199999998,-0.2930297899999999,0.0019531299999999982
93.0,-0.037691648629148644,0.03615509938090583,-0.05430770842061164,0.0,-0.04000000000000002,-9.799999999999997,0.0031081080098217194,-0.005201332885304659,-0.015251248807196385,34.0625,0.0,179.75,0.0008544899999999994,-0.9561157199999998,-0.29302978999999985,0.0019531299999999982
94.0,-0.038357065761299644,0.03722710980775497,-0.05348327747521295,0.0,-0.04000000000000002,-9.799999999999997,0.013971575999045756,-0.04399240642310198,-0.014743170835660752,34.0625,0.0,179.75,0.0008544899999999994,-0.9561157199999998,-0.2930297899999999,0.0019531299999999982
95.0,-0.03904480174121174,0.03682245188618759,-0.053179593992549234,0.0,-0.04000000000000002,-9.8,-0.0010711066739942906,-0.020735614469355363,0.004673870975249747,34.0625,0.0,179.75,0.0008544899999999994,-0.9561157199999998,-0.29302978999999996,0.0019531299999999982
96.0,-0.03929182857551745,0.03836766377049937,-0.053641551693190605,0.0,-0.04000000000000002,-9.8,0.040351001864074185,-0.021349679305259432,0.0009436155459178349,34.0625,0.0,179.75,0.0008544899999999994,-0.9561157199999998,-0.29302978999999996,0.0019531299999999982
97.0,-0.039548162577103786,0.038379824065112825,-0.052463493344151506,0.0,-0.04000000000000002,-9.799999999999999,0.010461424685702781,-0.026926061549012902,0.013729383530534675,34.0625,0.0,179.75,0.0008544899999999994,-0.9561157199999998,-0.2930297899999999,0.0019531299999999982
98.0,-0.03914113896206118,0.03837857283412044,-0.052693134746367054,0.0,-0.04000000000000002,-9.799999999999999,-0.04269817328764714,-0.0005872976366765401,-0.011112458772367068,34.0625,0.0,179.75,0.0008544899999999994,-0.9561157199999998,-0.29302978999999996,0.0019531299999999982
99.0,-0.0391117838110554,0.03818475012673764,-0.05384466755928774,0.0,-0.04000000000000002,-9.799999999999999,0.022906399553446897,-0.03026757484191147,0.006574954701905796,34.0625,0.0,179.75,0.0008544899999999994,-0.9561157199999998,-0.29302978999999996,0.0019531299999999982
100.0,-0.038309872922776156,0.038602197533649144,-0.05398694450710578,0.0,-0.04000000000000002,-9.799999999999999,-0.026898580250394766,1.4686254605610766e-06,-0.016636824197308067,34.0625,0.0,179.75,0.0008544899999999994,-0.9561157199999998,-0.2930297899999999,0.0019531299999999982
101.0,-0.035411196330551176,0.03930358015640273,-0.053255897999849595,0.0,-0.04000000000000002,-9.799999999999997,-0.03816590415632755,-0.0363304748007369,-0.012639695653808555,34.0625,0.0,179.75,0.0008544899999999994,-0.9561157199999998,-0.29302978999999985,0.0019531299999999982
102.0,-0.035334653697556936,0.03853171839361356,-0.051769805351458566,0.0,-0.04000000000000002,-9.799999999999997,-0.009064129055308491,-0.011004779131039212,-0.011852565557202654,34.0625,0.0,179.75,0.0008544899999999994,-0.9561157199999998,-0.2930297899999999,0.0019531299999999982
103.0,-0.03599393975200428,0.03929358097100033,-0.050030567998309926,0.0,-0.04000000000000002,-9.799999999999999,-0.01765265424539618,-0.0033760034768099295,0.009761721253656739,34.0625,0.0,179.75,0.0008544899999999994,-0.9561157199999998,-0.29302978999999996,0.0019531299999999982
104.0,-0.03729721801495996,0.03944083515051257,-0.04874481253513511,0.0,-0.04000000000000002,-9.799999999999999,-0.02262905665123407,0.014177382876979651,0.02237465715288296,34.0625,0.0,179.75,0.0008544899999999994,-0.9561157199999998,-0.29302978999999996,0.0019531299999999982
105.0,-0.03735828642683482,0.0397375241246209,-0.04828980607206414,0.0,-0.04000000000000002,-9.799999999999999,0.021172641762359504,0.0031938967170822004,0.029393584685923395,34.0625,0.0,179.75,0.0008544899999999994,-0.9561157199999998,-0.2930297899999999,0.0019531299999999982
106.0,-0.03808180506769217,0.03970995312930797,-0.05005621215701861,0.0,-0.04000000000000002,-9.799999999999999,0.002386456229702197,0.025571260336885338,0.018308201095499483,34.0625,0.0,179.75,0.0008544899999999994,-0.9561157199999998,-0.2930297899999999,0.0019531299999999982
107.0,-0.03750224405970374,0.03964888337468983,-0.051716534137905106,0.0,-0.04000000000000002,-9.799999999999999,-0.020784178439168355,0.028706649113655162,-0.015383469856756146,34.0625,0.0,179.75,0.0008544899999999994,-0.9561157199999998,-0.29302978999999996,0.0019531299999999982
108.0,-0.03944920670727122,0.0372437965260546,-0.05427056545604933,0.0,-0.04000000000000002,-9.8,0.006697754530415821,0.0021777953229566143,0.0014123477329122495,34.0625,0.0,179.75,0.0008544899999999994,-0.9561157199999998,-0.29302978999999996,0.0019531299999999982
109.0,-0.038714677795322956,0.03696184863523573,-0.052966548236709515,0.0,-0.04000000000000002,-9.8,0.0211063214339424,-0.0008651966313256631,-0.01920697749830814,34.0625,0.0,179.75,0.0008544899999999994,-0.9561157199999998,-0.29302978999999996,0.0019531299999999982
110.0,-0.03875372208436724,0.03557769851116626,-0.055305366004962775,0.0,-0.04000000000000002,-9.8,0.006047417803970221,-0.007886166253101737,0.03117730303970223,34.0625,0.0,179.75,0.0008544899999999994,-0.9561157199999998,-0.29302978999999996,0.0019531299999999982
111.0,-0.039875620347394544,0.035332273573201005,-0.05730776985111661,0.0,-0.04000000000000002,-9.8,-0.056250484646401984,0.030082971464019847,0.01994659196650124,34.0625,0.0,179.75,0.0008544899999999994,-0.9561157199999998,-0.29302978999999996,0.0019531299999999982
112.0,-0.038971595608692386,0.03689168358523198,-0.057041821753515284,0.0,-0.04000000000000002,-9.799999999999999,-0.012296433824911648,0.010138626494473266,-0.0058726954329272885,34.0625,0.0,179.75,0.0008544899999999994,-0.9561157199999998,-0.2930297899999999,0.0019531299999999982
113.0,-0.03913793554116135,0.037051832576026136,-0.055790896155815506,0.0,-0.04000000000000002,-9.799999999999999,-0.005643934638390283,-0.0006970558003824134,-0.004771715179981309,34.0625,0.0,179.75,0.0008544899999999994,-0.9561157199999998,-0.2930297899999999,0.0019531299999999982
114.0,-0.03845427243007889,0.03726722157770546,-0.05328026039820394,0.0,-0.04000000000000002,-9.799999999999999,0.0007314908713598233,-0.0018381001558924945,0.00026711220007590974,34.0625,0.0,179.75,0.0008544899999999994,-0.9561157199999998,-0.29302978999999996,0.0019531299999999982
115.0,-0.03805623050784342,0.03808910086329442,-0.0524745362164717,0.0,-0.04000000000000002,-9.8,0.0014685583233970331,0.015198108343269633,-0.005128249886314402,34.0625,0.0,179.75,0.0008544899999999994,-0.9561157199999998,-0.29302978999999996,0.0019531299999999982
116.0,-0.03909263138295396,0.03665993504703183,-0.05172610185513411,0.0,-0.04000000000000002,-9.8,0.022942715886264273,-0.001923278334568658,-0.010147871841420228,34.0625,0.0,179.75,0.0008544899999999994,-0.9561157199999998,-0.29302978999999996,0.0019531299999999982
117.0,-0.03875883256528418,0.03663397534365277,-0.0514928512347867,0.0,-0.04000000000000002,-9.8,-0.009995470479341448,0.0042961518767970375,0.011318385915160108,34.0625,0.0,179.75,0.0008544899999999994,-0.9561157199999998,-0.29302978999999996,0.0019531299999999982
118.0,-0.038502560163850494,0.03562113513726418,-0.05220443893024537,0.0,-0.04000000000000002,-9.8,-0.014606350191027611,0.02199734629170113,0.009235421836228287,34.0625,0.0,179.75,0.0008544899999999994,-0.9561157199999998,-0.29302978999999996,0.0019531299999999982
119.0,-0.03833426877781716,0.03650165425971878,-0.05220108117688761,0.0,-0.04000000000000002,-9.8,-0.006934905372405373,-0.0028491054196699353,0.0030648730749537195,34.0625,0.0,179.75,0.0008544899999999994,-0.9561157199999998,-0.29302978999999996,0.0019531299999999982
120.0,-0.036457216835078445,0.03519055337655755,-0.05281894289373476,0.0,-0.04000000000000002,-9.8,-0.017026045498177392,0.017329949811577025,-0.008749321246882382,34.0625,0.0,179.75,0.0008544899999999994,-0.9561157199999998,-0.29302978999999996,0.0019531299999999982
121.0,-0.037227167610687395,0.035674280930654514,-0.053387539164789416,0.0,-0.04000000000000002,-9.8,-0.016432957912780363,-0.007200409709596102,0.005743505549615721,34.0625,0.0,179.75,0.0008544899999999994,-0.9561157199999998,-0.29302978999999996,0.0019531299999999982
122.0,-0.03832156757784361,0.03654102797566638,-0.053497030837268866,0.0,-0.04000000000000002,-9.8,-0.022448774438685662,-0.007730438420515488,0.013790113088329465,34.0625,0.0,179.75,0.0008544899999999994,-0.9561157199999998,-0.29302978999999996,0.0019531299999999982
123.0,-0.03807684303209798,0.03708572800768431,-0.05416217081565676,0.0,-0.04000000000000002,-9.8,-0.013406507644280797,-0.00299067477787561,0.018695469462899225,34.0625,0.0,179.75,0.0008544899999999994,-0.9561157199999998,-0.29302978999999996,0.0019531299999999982
124.0,-0.03532210037621068,0.037253101736972716,-0.05237933242615864,0.0,-0.04000000000000002,-9.8,4.502521411990819e-05,0.016108520771632114,0.02032037941247098,34.0625,0.0,179.75,0.0008544899999999994,-0.9561157199999998,-0.29302978999999996,0.0019531299999999982
125.0,-0.03496143999369807,0.03855895428424046,-0.049906156971713675,0.0,-0.04000000000000002,-9.8,-0.004675078361342669,-0.0181489650077059,-0.0018034146741222699,34.0625,0.0,179.75,0.0008544899999999994,-0.9561157199999998,-0.29302978999999996,0.0019531299999999982
126.0,-0.036082657081616516,0.036324542378652694,-0.050764092653790865,0.0,-0.04000000000000002,-9.8,0.007319368687734974,0.007806720970092457,0.0002782034129588766,34.0625,0.0,179.75,0.0008544899999999994,-0.9561157199999998,-0.29302978999999996,0.0019531299999999982
127.0,-0.03595447990557253,0.037881874166993845,-0.051212071140791196,0.0,-0.04000000000000002,-9.8,0.02428623521235384,0.01158791383492216,-0.0017296948195751525,34.0625,0.0,179.75,0.0008544899999999994,-0.9561157199999998,-0.29302978999999996,0.0019531299999999982
128.0,-0.03502810843913863,0.03970644576836045,-0.05214201571927897,0.0,-0.04000000000000002,-9.8,0.017765015869204218,0.011795817959644702,-0.0093015719755444,34.0625,0.0,179.75,0.0008544899999999994,-0.9561157199999998,-0.29302978999999996,0.0019531299999999982
129.0,-0.034503065035323105,0.04028585303585304,-0.05027858834713672,0.0,-0.04000000000000002,-9.799999999999999,0.0018285198224714362,0.005361358511560124,0.010648046509941672,34.0625,0.0,179.75,0.0008544899999999994,-0.9561157199999998,-0.2930297899999999,0.0019531299999999982
130.0,-0.03598870215805701,0.03903638431461012,-0.049621865365816975,0.0,-0.04000000000000002,-9.799999999999999,0.0025631038987893834,-0.0009857707816377172,0.0012415465918490113,34.0625,0.0,179.75,0.0008544899999999994,-0.9561157199999998,-0.2930297899999999,0.0019531299999999982
131.0,-0.03590895976783074,0.038629382042688495,-0.04986556264076425,0.0,-0.04000000000000002,-9.799999999999999,-0.000549211373304115,0.005139721249852298,0.0010862800114312212,34.0625,0.0,179.75,0.0008544899999999994,-0.9561157199999998,-0.29302978999999996,0.0019531299999999982
132.0,-0.03685455142397781,0.03815931901301958,-0.05065427910914383,0.0,-0.04000000000000002,-9.8,0.010021472617198096,-0.0013084440381851935,7.010166674578753e-05,34.0625,0.0,179.75,0.0008544899999999994,-0.9561157199999998,-0.29302978999999996,0.0019531299999999982
133.0,-0.03574136535218742,0.03810412445688201,-0.052103039058294,0.0,-0.04000000000000002,-9.8,-0.011043418080358768,0.013052547521850331,-0.005171990109555146,34.0625,0.0,179.75,0.0008544899999999994,-0.9561157199999998,-0.29302978999999996,0.0019531299999999982
134.0,-0.03375999766218289,0.03649890033656944,-0.05369630485135167,0.0,-0.04000000000000002,-9.8,-0.005804155088754465,0.015459276242314744,-0.0020821977767867465,34.0625,0.0,179.75,0.0008544899999999994,-0.9561157199999998,-0.29302978999999996,0.0019531299999999982
135.0,-0.03555121471198475,0.03747773800947579,-0.05476874795917458,0.0,-0.04000000000000002,-9.8,-0.003452635857032319,0.02299018402686457,-0.005437811047202305,34.0625,0.0,179.75,0.0008544899999999994,-0.9561157199999998,-0.29302978999999996,0.0019531299999999982
136.0,-0.035618846554070285,0.03837256863843752,-0.05420811654526534,0.0,-0.04000000000000002,-9.8,0.012217466781397582,0.004851466821419996,0.014634820499479707,34.0625,0.0,179.75,0.0008544899999999994,-0.9561157199999998,-0.29302978999999996,0.0019531299999999982
137.0,-0.03546370967741937,0.03795223325062035,-0.0530334987593052,0.0,-0.04000000000000002,-9.8,0.02313701923076923,0.003532102977667494,0.021725728908188587,34.0625,0.0,179.75,0.0008544899999999994,-0.9561157199999998,-0.29302978999999996,0.0019531299999999982
138.0,-0.03531870347394542,0.038844602977667494,-0.05250806451612902,0.0,-0.04000000000000002,-9.8,0.029705916563275432,0.02149309863523573,0.03573104063275434,34.0625,0.0,179.75,0.0008544899999999994,-0.9561157199999998,-0.29302978999999996,0.0019531299999999982
139.0,-0.03639813624995077,0.03843667779353264,-0.05281065126629641,0.0,-0.04000000000000002,-9.8,0.02101286020766867,-0.018718474905470874,-0.0052069717077277596,34.0625,0.0,179.75,0.0008544899999999994,-0.9561157199999998,-0.29302978999999996,0.0019531299999999982
140.0,-0.03554215900586869,0.039958180708180704,-0.05377613828823505,0.0,-0.04000000000000002,-9.8,0.017470071930757412,0.009523071015006495,0.006471275700106345,34.0625,0.0,179.75,0.0008544899999999994,-0.9561157199999998,-0.29302978999999996,0.0019531299999999982
141.0,-0.03471250367016497,0.03936588635378957,-0.0515963930782479,0.0,-0.04000000000000002,-9.799999999999999,0.014654653981770916,0.0005643214312569134,0.0026928338798298474,34.0625,0.0,179.75,0.0008544899999999994,-0.9561157199999998,-0.2930297899999999,0.0019531299999999982
142.0,-0.0345274677159758,0.03875490347466153,-0.05254261341257308,0.0,-0.04000000000000002,-9.799999999999999,-0.011360638269660446,-0.009829501815388914,-0.00011139943725629224,34.0625,0.0,179.75,0.0008544899999999994,-0.9561157199999998,-0.2930297899999999,0.0019531299999999982
143.0,-0.034438633051536285,0.03817281464055658,-0.0510772542869317,0.0,-0.04000000000000002,-9.799999999999999,0.02753855687323429,0.0015116603826281242,0.01378943637008153,34.0625,0.0,179.75,0.0008544899999999994,-0.9561157199999998,-0.29302978999999996,0.0019531299999999982
144.0,-0.03313380705316191,0.03808743138581849,-0.05136087299796976,0.0,-0.04000000000000002,-9.8,-0.0037924608993157357,0.017052503947665238,0.0026519851116625307,34.0625,0.0,179.75,0.0008544899999999994,-0.9561157199999998,-0.29302978999999996,0.0019531299999999982
145.0,-0.03188700278216409,0.038703765320700814,-0.053859096548612664,0.0,-0.04000000000000002,-9.8,0.0018568712873148364,0.0307501973832619,0.0005505583126550868,34.0625,0.0,179.75,0.0008544899999999994,-0.9561157199999998,-0.29302978999999996,0.0019531299999999982
146.0,-0.031049185412683578,0.03844070851808161,-0.05675972470813161,0.0,-0.04000000000000002,-9.8,0.0012586982111621858,0.016570203494284667,-0.017175804926168492,34.0625,0.0,179.75,0.0008544899999999994,-0.9561157199999998,-0.29302978999999996,0.0019531299999999982
147.0,-0.030454028190212767,0.03996523639303584,-0.05411846347069112,0.0,-0.04000000000000002,-9.8,0.006655442467863971,0.0006596752583085883,-0.023444737915937847,34.0625,0.0,179.75,0.0008544899999999994,-0.9561157199999998,-0.29302978999999996,0.0019531299999999982
148.0,-0.029530838630785768,0.03884740008801352,-0.05331549395430939,0.0,-0.04000000000000002,-9.799999999999999,0.023289021484420743,-0.00575577912304512,0.00932622815224613,34.0625,0.0,179.75,0.0008544899999999994,-0.9561157199999998,-0.2930297899999999,0.0019531299999999982
149.0,-0.030142787466954594,0.03888248140601393,-0.05384243325861516,0.0,-0.04000000000000002,-9.799999999999999,0.007066987011460834,0.039140061125782964,-0.001838225086506419,34.0625,0.0,179.75,0.0008544899999999994,-0.9561157199999998,-0.29302978999999996,0.0019531299999999982
150.0,-0.030878239217742146,0.03781266139700831,-0.05370376025056087,0.0,-0.04000000000000002,-9.799999999999999,0.01160194834837881,0.015272401668488395,-0.00704799709955712,34.0625,0.0,179.75,0.0008544899999999994,-0.9561157199999998,-0.29302978999999996,0.0019531299999999982
151.0,-0.030513235868074598,0.03782375330762429,-0.05408330021233246,0.0,-0.04000000000000002,-9.8,0.01719884058593736,0.016039874104390235,0.002976682815392493,34.0625,0.0,179.75,0.0008544899999999994,-0.9561157199999998,-0.29302978999999996,0.0019531299999999982
152.0,-0.03010021519698941,0.037169114040081795,-0.05537949505691439,0.0,-0.04000000000000002,-9.799999999999999,-0.004278897625671818,0.011200627329659589,0.008796221699447507,34.0625,0.0,179.75,0.0008544899999999994,-0.9561157199999998,-0.2930297899999999,0.0019531299999999982
153.0,-0.031763206327722476,0.03644379455669779,-0.054989356521614574,0.0,-0.04000000000000002,-9.799999999999999,-0.009348637473637473,0.019392469090049734,-0.019963448290061192,34.0625,0.0,179.75,0.0008544899999999994,-0.9561157199999998,-0.2930297899999999,0.0019531299999999982
154.0,-0.03166284700962122,0.03617530229627005,-0.05345781190136027,0.0,-0.04000000000000002,-9.799999999999999,0.004418693985226244,0.017797429944607365,0.006107182468069565,34.0625,0.0,179.75,0.0008544899999999994,-0.9561157199999998,-0.29302978999999996,0.0019531299999999982
155.0,-0.03158783555154525,0.036496625686141815,-0.051513619445071046,0.0,-0.04000000000000002,-9.799999999999999,0.026391258271298592,-0.003697000244379276,-0.007018326095947063,34.0625,0.0,179.75,0.0008544899999999994,-0.9561157199999998,-0.2930297899999999,0.0019531299999999982
156.0,-0.03182369445071059,0.037806625498157755,-0.05330271542973154,0.0,-0.04000000000000002,-9.799999999999999,0.029712378515301903,-0.003104703596135047,0.015659571443341604,34.0625,0.0,179.75,0.0008544899999999994,-0.9561157199999998,-0.2930297899999999,0.0019531299999999982
157.0,-0.03133296790141875,0.037125650591604026,-0.0523787408069731,0.0,-0.04000000000000002,-9.8,0.024618550119127315,-0.019333900374361154,0.01594061566522707,34.0625,0.0,179.75,0.0008544899999999994,-0.9561157199999998,-0.29302978999999996,0.0019531299999999982
158.0,-0.031339367015225515,0.03830828900547943,-0.053535640564776873,0.0,-0.04000000000000002,-9.8,0.0019293607450475304,-0.021180937082341866,0.0036702826310006332,34.0625,0.0,179.75,0.0008544899999999994,-0.9561157199999998,-0.29302978999999996,0.0019531299999999982
159.0,-0.03072307098035508,0.039531466105867774,-0.05322138821982733,0.0,-0.04000000000000002,-9.799999999999999,-0.005668337147590528,-0.019194028959247482,-0.0020824464730552143,34.0625,0.0,179.75,0.0008544899999999994,-0.9561157199999998,-0.2930297899999999,0.0019531299999999982
160.0,-0.029860670763506375,0.03949943483502277,-0.053441884424974946,0.0,-0.04000000000000002,-9.799999999999999,-0.02791547167929192,0.0071772730607928305,0.011190194539245007,34.0625,0.0,179.75,0.0008544899999999994,-0.9561157199999998,-0.29302978999999996,0.0019531299999999982
161.0,-0.030397557025873906,0.03993109899119265,-0.05363697519095541,0.0,-0.04000000000000002,-9.8,-0.01084299158286216,0.014025481163390892,-0.0002126550716886307,34.0625,0.0,179.75,0.0008544899999999994,-0.9561157199999998,-0.29302978999999996,0.0019531299999999982
162.0,-0.030185771228857877,0.0400227815455443,-0.05437311818860985,0.0,-0.04000000000000002,-9.799999999999999,0.005038528488832534,0.011475618581253986,0.007453663634968915,34.0625,0.0,179.75,0.0008544899999999994,-0.9561157199999998,-0.2930297899999999,0.0019531299999999982
163.0,-0.02967318183030984,0.03867159548741234,-0.05346083018611634,0.0,-0.04000000000000002,-9.799999999999999,0.025678819532877806,-0.013766785157263825,0.01430617812641746,34.0625,0.0,179.75,0.0008544899999999994,-0.9561157199999998,-0.29302978999999996,0.0019531299999999982
164.0,-0.030398663251420814,0.03908408708876972,-0.05257107980469061,0.0,-0.04000000000000002,-9.8,0.01606216147709384,0.006985131370537198,-0.004332736938746303,34.0625,0.0,179.75,0.0008544899999999994,-0.9561157199999998,-0.29302978999999996,0.0019531299999999982
165.0,-0.030052929640598754,0.039390678780116865,-0.05316395181301528,0.0,-0.04000000000000002,-9.8,-0.000785606606366231,0.010541262955740063,0.0009896489003538953,34.0625,0.0,179.75,0.0008544899999999994,-0.9561157199999998,-0.29302978999999996,0.0019531299999999982
166.0,-0.029150641025641043,0.03836071321151967,-0.05316176968193096,0.0,-0.04000000000000002,-9.799999999999999,0.00047090006767426095,-0.0009196532634032639,0.0006574155011655012,34.0625,0.0,179.75,0.0008544899999999994,-0.9561157199999998,-0.2930297899999999,0.0019531299999999982
167.0,-0.028526933416046334,0.03966422757350176,-0.05335507838935258,0.0,-0.04000000000000002,-9.799999999999999,-0.009173152116700502,-0.018223145302278365,0.006636747828784119,34.0625,0.0,179.75,0.0008544899999999994,-0.9561157199999998,-0.2930297899999999,0.0019531299999999982
168.0,-0.028620471710189468,0.038973119734208445,-0.05360156140902107,0.0,-0.04000000000000002,-9.799999999999999,-0.017588762044407204,0.009941954466904065,0.008625052003328212,34.0625,0.0,179.75,0.0008544899999999994,-0.9561157199999998,-0.29302978999999996,0.0019531299999999982
169.0,-0.02968961705856869,0.04044697394899007,-0.05177305893031697,0.0,-0.04000000000000002,-9.8,0.007984562060922951,0.004545700015710097,0.007652466680944503,34.0625,0.0,179.75,0.0008544899999999994,-0.9561157199999998,-0.29302978999999996,0.0019531299999999982
170.0,-0.030723297983378646,0.040069718364073206,-0.05122306792669695,0.0,-0.04000000000000002,-9.8,0.012231996833811352,-0.030221479629241724,0.010167589187246445,34.0625,0.0,179.75,0.0008544899999999994,-0.9561157199999998,-0.29302978999999996,0.0019531299999999982
171.0,-0.0307061485781244,0.03618558480050416,-0.05333937064279806,0.0,-0.04000000000000002,-9.8,-0.02021727852120997,-0.006987008707018787,-0.003352929972133602,34.0625,0.0,179.75,0.0008544899999999994,-0.9561157199999998,-0.29302978999999996,0.0019531299999999982
172.0,-0.031735712316357495,0.0376012446335027,-0.05447028240576627,0.0,-0.04000000000000002,-9.8,-0.025706014415691834,0.005990783410138249,0.01300710937807712,34.0625,0.0,179.75,0.0008544899999999994,-0.9561157199999998,-0.29302978999999996,0.0019531299999999982
173.0,-0.03025310173697272,0.0392258064516129,-0.05439702233250619,0.0,-0.04000000000000002,-9.8,0.008374689826302732,-0.006513647642679901,-0.007568238213399504,34.0625,0.0,179.75,0.0008544899999999994,-0.9561157199999998,-0.29302978999999996,0.0019531299999999982
174.0,-0.030908188585607958,0.03990074441687344,-0.052992555831265505,0.0,-0.04000000000000002,-9.8,0.019540942928039703,0.002698511166253102,0.00108560794044665,34.0625,0.0,179.75,0.0008544899999999994,-0.9561157199999998,-0.29302978999999996,0.0019531299999999982
175.0,-0.031246051439599846,0.03921800779865296,-0.051156169994879666,0.0,-0.04000000000000002,-9.8,0.017714856827760056,-0.019148056244830437,0.014166075859624245,34.0625,0.0,179.75,0.0008544899999999994,-0.9561157199999998,-0.29302978999999996,0.0019531299999999982
176.0,-0.03135042735042737,0.04030406869116547,-0.051802040253653155,0.0,-0.04000000000000002,-9.8,0.004047028240576629,-0.0016296427586750158,0.00017822679113001748,34.0625,0.0,179.75,0.0008544899999999994,-0.9561157199999998,-0.29302978999999996,0.0019531299999999982
177.0,-0.03196245331729204,0.04024512405157567,-0.05190650926134797,0.0,-0.04000000000000002,-9.799999999999999,-0.0004127592837270249,-0.008425356006001167,-0.0008649057036153808,34.0625,0.0,179.75,0.0008544899999999994,-0.9561157199999998,-0.2930297899999999,0.0019531299999999982
178.0,-0.03131388324936714,0.040892168763136505,-0.05229140035591648,0.0,-0.04000000000000002,-9.799999999999997,0.008428668106087462,-0.010287382868028029,-0.01075089784767204,34.0625,0.0,179.75,0.0008544899999999994,-0.9561157199999998,-0.29302978999999985,0.0019531299999999982
179.0,-0.03169715589070429,0.040681934552902296,-0.052431690173625645,0.0,-0.04000000000000002,-9.799999999999997,0.009350416608481123,-0.011986221663641017,-0.017819322254806123,34.0625,0.0,179.75,0.0008544899999999994,-0.9561157199999998,-0.2930297899999999,0.0019531299999999982
180.0,-0.03169642543836094,0.04155507574862413,-0.0526553661392371,0.0,-0.04000000000000002,-9.799999999999999,-0.0035212547309321504,0.0011305450821579863,-0.01877096917419498,34.0625,0.0,179.75,0.0008544899999999994,-0.9561157199999998,-0.29302978999999996,0.0019531299999999982
181.0,-0.030981573981574,0.04083781809588261,-0.053319956029633436,0.0,-0.04000000000000002,-9.799999999999997,-0.00500592597366791,0.021325873946841687,-0.013560297229652067,34.0625,0.0,179.75,0.0008544899999999994,-0.9561157199999998,-0.2930297899999999,0.0019531299999999982
182.0,-0.032223436062145755,0.03977130396485235,-0.0534806036257649,0.0,-0.04000000000000002,-9.799999999999999,-0.00896374011293366,0.003835590932365125,-0.003740681361649103,34.0625,0.0,179.75,0.0008544899999999994,-0.9561157199999998,-0.2930297899999999,0.0019531299999999982
183.0,-0.031021297698717067,0.04002250437734309,-0.052905990962442556,0.0,-0.04000000000000002,-9.799999999999999,-0.03198981238295755,0.02883006330586976,0.014090680824551793,34.0625,0.0,179.75,0.0008544899999999994,-0.9561157199999998,-0.29302978999999996,0.0019531299999999982
184.0,-0.029929957139634575,0.040707384013835626,-0.053054261598616426,0.0,-0.04000000000000002,-9.799999999999999,-0.026923605628242725,0.004847873900293256,-0.015542287014061209,34.0625,0.0,179.75,0.0008544899999999994,-0.9561157199999998,-0.2930297899999999,0.0019531299999999982
185.0,-0.028031976088427717,0.042063369426272645,-0.05346757744943226,0.0,-0.04000000000000002,-9.799999999999999,-0.0037843834592826524,0.009666492781412135,0.007411858974358974,34.0625,0.0,179.75,0.0008544899999999994,-0.9561157199999998,-0.2930297899999999,0.0019531299999999982
186.0,-0.02974842764762121,0.0420942690821723,-0.05347260546353287,0.0,-0.04000000000000002,-9.799999999999999,0.004359117445054944,-0.008624342167688941,-0.0023010004108794425,34.0625,0.0,179.75,0.0008544899999999994,-0.9561157199999998,-0.29302978999999996,0.0019531299999999982
187.0,-0.030060705759294485,0.04082536034753777,-0.05312995192531482,0.0,-0.04000000000000002,-9.8,-0.006688258817795107,-0.005603753745134794,-0.0027571030280203663,34.0625,0.0,179.75,0.0008544899999999994,-0.9561157199999998,-0.29302978999999996,0.0019531299999999982
188.0,-0.0315186990428926,0.04181526448461932,-0.05348220775640129,0.0,-0.04000000000000002,-9.799999999999999,-0.022043917104400974,0.0002733881262107071,0.00302075276873664,34.0625,0.0,179.75,0.0008544899999999994,-0.9561157199999998,-0.2930297899999999,0.0019531299999999982
189.0,-0.029903006939297278,0.04120325597341726,-0.05153097529710432,0.0,-0.04000000000000002,-9.799999999999999,-0.009197103299925881,0.003419835652698556,-0.014148930706390382,34.0625,0.0,179.75,0.0008544899999999994,-0.9561157199999998,-0.2930297899999999,0.0019531299999999982
190.0,-0.031301379400169735,0.03998252128695677,-0.051993775489743224,0.0,-0.04000000000000002,-9.799999999999999,-0.00993353924301505,-0.008099325349829382,-0.007035693641036383,34.0625,0.0,179.75,0.0008544899999999994,-0.9561157199999998,-0.29302978999999996,0.0019531299999999982
191.0,-0.03258268243852923,0.037924742931799385,-0.05320840382735542,0.0,-0.04000000000000002,-9.799999999999999,-0.02910795102075344,0.011501878078238966,-0.019454866789796223,34.0625,0.0,179.75,0.0008544899999999994,-0.9561157199999998,-0.2930297899999999,0.0019531299999999982
192.0,-0.03366591473043087,0.03960516768178058,-0.05259109707496803,0.0,-0.04000000000000002,-9.799999999999999,0.005084381344461987,-0.021000815380855707,-0.02407223992405444,34.0625,0.0,179.75,0.0008544899999999994,-0.9561157199999998,-0.2930297899999999,0.0019531299999999982
193.0,-0.03178652530265435,0.039922446057526706,-0.05197178090726477,0.0,-0.04000000000000002,-9.799999999999999,-0.006063450997926805,-0.009086499018454666,-0.0019482016079798332,34.0625,0.0,179.75,0.0008544899999999994,-0.9561157199999998,-0.29302978999999996,0.0019531299999999982
194.0,-0.03108184825926763,0.04108032972851521,-0.053168272587627415,0.0,-0.04000000000000002,-9.8,-0.016687122521295908,-0.004636301618408474,0.012138492248119264,34.0625,0.0,179.75,0.0008544899999999994,-0.9561157199999998,-0.29302978999999996,0.0019531299999999982
195.0,-0.030187796074892866,0.0406360073618138,-0.05357704929479121,0.0,-0.04000000000000002,-9.799999999999999,0.02700456465577433,0.005312496643141804,0.016806183288038123,34.0625,0.0,179.75,0.0008544899999999994,-0.9561157199999998,-0.2930297899999999,0.0019531299999999982
196.0,-0.02812709602225733,0.040619755692336335,-0.053940979719205515,0.0,-0.04000000000000002,-9.799999999999999,-0.02445898355676581,-0.003772571514506999,0.0024555109988577727,34.0625,0.0,179.75,0.0008544899999999994,-0.9561157199999998,-0.2930297899999999,0.0019531299999999982
197.0,-0.027924078161981405,0.04094542867526739,-0.053412886172966814,0.0,-0.04000000000000002,-9.799999999999999,-0.029731411901270773,-0.01128947217656895,0.006285802291346645,34.0625,0.0,179.75,0.0008544899999999994,-0.9561157199999998,-0.29302978999999996,0.0019531299999999982
198.0,-0.026976927418459695,0.04292913247147118,-0.05295387307584887,0.0,-0.04000000000000002,-9.8,-0.019044188758150452,0.0017514295740102192,-0.007102677648292568,34.0625,0.0,179.75,0.0008544899999999994,-0.9561157199999998,-0.29302978999999996,0.0019531299999999982
199.0,-0.026919396016170227,0.043306116822245846,-0.053598530501756295,0.0,-0.04000000000000002,-9.799999999999999,-0.015939436907178844,-0.015253317471059406,-0.014209043644527516,34.0625,0.0,179.75,0.0008544899999999994,-0.9561157199999998,-0.2930297899999999,0.0019531299999999982
200.0,-0.02642134209876147,0.04246986705051221,-0.05148995090930575,0.0,-0.04000000000000002,-9.799999999999999,-0.028014637692057046,0.007505218795541375,-0.01307290379871025,34.0625,0.0,179.75,0.0008544899999999994,-0.9561157199999998,-0.2930297899999999,0.0019531299999999982
201.0,-0.026173450205708285,0.04203394096942484,-0.05285291590130299,0.0,-0.04000000000000002,-9.799999999999999,-0.002716996265383362,0.015027423293552326,0.0037458061651610038,34.0625,0.0,179.75,0.0008544899999999994,-0.9561157199999998,-0.29302978999999996,0.0019531299999999982
202.0,-0.027729000390290727,0.040996489173908524,-0.052944402371821714,0.0,-0.04000000000000002,-9.799999999999999,0.0040571211942179684,0.010277524894460379,-0.0016924160069321358,34.0625,0.0,179.75,0.0008544899999999994,-0.9561157199999998,-0.2930297899999999,0.0019531299999999982
203.0,-0.02923934040869526,0.040421321510031194,-0.05111969347856444,0.0,-0.04000000000000002,-9.799999999999997,-0.012494617837359771,0.008327442047200111,0.00044148280035376827,34.0625,0.0,179.75,0.0008544899999999994,-0.9561157199999998,-0.29302978999999985,0.0019531299999999982
204.0,-0.028931218870735013,0.04088933691756272,-0.052539551622212896,0.0,-0.04000000000000002,-9.799999999999997,0.007791407741004515,-0.012229328131545874,0.01078214460270912,34.0625,0.0,179.75,0.0008544899999999994,-0.9561157199999998,-0.2930297899999999,0.0019531299999999982
205.0,-0.028792286342689585,0.04000944060419867,-0.05357136311269374,0.0,-0.04000000000000002,-9.799999999999999,0.007047905611413676,-0.006082662017641857,0.013247575117534794,34.0625,0.0,179.75,0.0008544899999999994,-0.9561157199999998,-0.29302978999999996,0.0019531299999999982
206.0,-0.02961807010194109,0.0407615323744356,-0.05359447004608294,0.0,-0.04000000000000002,-9.799999999999997,-0.01731892659312014,0.02496014290369129,-0.005910196434389983,34.0625,0.0,179.75,0.0008544899999999994,-0.9561157199999998,-0.2930297899999999,0.0019531299999999982
207.0,-0.030853512079318548,0.04117481085223021,-0.054686324428259894,0.0,-0.04000000000000002,-9.799999999999999,0.0016096358838294331,-0.024320862828927342,-0.00582584977746268,34.0625,0.0,179.75,0.0008544899999999994,-0.9561157199999998,-0.2930297899999999,0.0019531299999999982
208.0,-0.030013755062142176,0.04203901832934092,-0.05493358254648576,0.0,-0.04000000000000002,-9.799999999999999,-0.030491003172454786,-0.034948798960895734,0.0015928180242696368,34.0625,0.0,179.75,0.0008544899999999994,-0.9561157199999998,-0.29302978999999996,0.0019531299999999982
209.0,-0.02846589163524649,0.04326430737721061,-0.052480988545504675,0.0,-0.04000000000000002,-9.799999999999999,0.0014290201286169014,-0.011081263046988853,-0.003922438448648126,34.0625,0.0,179.75,0.0008544899999999994,-0.9561157199999998,-0.2930297899999999,0.0019531299999999982
210.0,-0.026318022031731725,0.04243899917287014,-0.050454169486427544,0.0,-0.04000000000000002,-9.799999999999999,0.013537730750432363,-0.016474746691480562,0.0022652666553876232,34.0625,0.0,179.75,0.0008544899999999994,-0.9561157199999998,-0.2930297899999999,0.0019531299999999982
211.0,-0.02581541375291377,0.04288861004586811,-0.05024907887811113,0.0,-0.04000000000000002,-9.799999999999999,0.01900310291187307,-0.010635344997744193,0.020163669495826753,34.0625,0.0,179.75,0.0008544899999999994,-0.9561157199999998,-0.29302978999999996,0.0019531299999999982
212.0,-0.026318869190845015,0.04223874355930808,-0.048639998889998884,0.0,-0.04000000000000002,-9.8,0.013272131234580832,0.0035104617324879413,0.02604790273011039,34.0625,0.0,179.75,0.0008544899999999994,-0.9561157199999998,-0.29302978999999996,0.0019531299999999982
213.0,-0.025313474607829463,0.040200559744914585,-0.05122446594624014,0.0,-0.04000000000000002,-9.8,0.00514698954719116,0.016359807866864317,0.012385914376841795,34.0625,0.0,179.75,0.0008544899999999994,-0.9561157199999998,-0.29302978999999996,0.0019531299999999982
214.0,-0.02559417620909558,0.04198444409533119,-0.05248662202492847,0.0,-0.04000000000000002,-9.799999999999999,0.015724154597642502,-0.0032448272493635407,-0.007843577513436385,34.0625,0.0,179.75,0.0008544899999999994,-0.9561157199999998,-0.2930297899999999,0.0019531299999999982
215.0,-0.024824383389907598,0.04233837589381943,-0.05352370803479674,0.0,-0.04000000000000002,-9.799999999999999,0.006450786976240605,-0.01589815804155522,-0.018678302404360872,34.0625,0.0,179.75,0.0008544899999999994,-0.9561157199999998,-0.2930297899999999,0.0019531299999999982
216.0,-0.02409817959817961,0.0412775548823936,-0.05321094675933386,0.0,-0.04000000000000002,-9.799999999999999,0.011431668689733205,-0.023022793738519544,-0.0033695191457288227,34.0625,0.0,179.75,0.0008544899999999994,-0.9561157199999998,-0.29302978999999996,0.0019531299999999982
217.0,-0.024636194450710594,0.04196305173321302,-0.053395894428152485,0.0,-0.04000000000000002,-9.8,0.003106436574178509,0.003136925238739754,0.008241044909391685,34.0625,0.0,179.75,0.0008544899999999994,-0.9561157199999998,-0.29302978999999996,0.0019531299999999982
218.0,-0.0241816207985563,0.04149269211970824,-0.053329460861718914,0.0,-0.04000000000000002,-9.8,-0.003913593127302805,-0.02860368378261523,0.02177716017181743,34.0625,0.0,179.75,0.0008544899999999994,-0.9561157199999998,-0.29302978999999996,0.0019531299999999982
219.0,-0.02441485732009927,0.041975573821339957,-0.051525434243176176,0.0,-0.04000000000000002,-9.8,-0.010953008684863524,-0.007902159584367244,0.015363775589330024,34.0625,0.0,179.75,0.0008544899999999994,-0.9561157199999998,-0.29302978999999996,0.0019531299999999982
220.0,-0.0247622518610422,0.04070673076923077,-0.05283607320099254,0.0,-0.04000000000000002,-9.8,-0.038695622673697264,0.006927535669975188,0.006153555366004962,34.0625,0.0,179.75,0.0008544899999999994,-0.9561157199999998,-0.29302978999999996,0.0019531299999999982
221.0,-0.024828126174900385,0.04105213737875028,-0.05309310380479734,0.0,-0.04000000000000002,-9.799999999999999,0.00042352221031656534,-0.014147768394240166,0.0014057389183397247,34.0625,0.0,179.75,0.0008544899999999994,-0.9561157199999998,-0.2930297899999999,0.0019531299999999982
222.0,-0.025115154111121866,0.039418856904744,-0.05362201765528378,0.0,-0.04000000000000002,-9.799999999999999,0.007969796080935194,-0.00037068596166378327,0.0070336130883005875,34.0625,0.0,179.75,0.0008544899999999994,-0.9561157199999998,-0.2930297899999999,0.0019531299999999982
223.0,-0.02593795339964696,0.038956980295689975,-0.054215842737012084,0.0,-0.04000000000000002,-9.799999999999999,0.010302552370344708,-0.005400426746192875,-0.005739035829761636,34.0625,0.0,179.75,0.0008544899999999994,-0.9561157199999998,-0.29302978999999996,0.0019531299999999982
224.0,-0.02492660744273649,0.03982917440981956,-0.054847489428134596,0.0,-0.04000000000000002,-9.799999999999999,0.02936821243272856,-0.03025970445325284,-0.003973043085946312,34.0625,0.0,179.75,0.0008544899999999994,-0.9561157199999998,-0.2930297899999999,0.0019531299999999982
225.0,-0.02595461885784468,0.0380163241776145,-0.054183049924985405,0.0,-0.04000000000000002,-9.799999999999999,0.02118224517418066,-0.017936924186924188,0.0005569027746447101,34.0625,0.0,179.75,0.0008544899999999994,-0.9561157199999998,-0.2930297899999999,0.0019531299999999982
226.0,-0.02663111798595671,0.03850974115490245,-0.05251418832063993,0.0,-0.04000000000000002,-9.799999999999999,0.037756463966141386,-0.030735841219712186,0.010746108729979699,34.0625,0.0,179.75,0.0008544899999999994,-0.9561157199999998,-0.29302978999999996,0.0019531299999999982
227.0,-0.027754568012632545,0.039843983973016237,-0.051666956699214756,0.0,-0.04000000000000002,-9.8,0.03352655409107022,-0.024524937428163234,0.010624098124098124,34.0625,0.0,179.75,0.0008544899999999994,-0.9561157199999998,-0.29302978999999996,0.0019531299999999982
228.0,-0.02869644334160465,0.0396322279870667,-0.051695089856380175,0.0,-0.04000000000000002,-9.799999999999999,0.003374783818332205,-0.026733213023535603,0.012426686217008799,34.0625,0.0,179.75,0.0008544899999999994,-0.9561157199999998,-0.2930297899999999,0.0019531299999999982
229.0,-0.0317040378975863,0.039158733739378906,-0.04842330250394766,0.0,-0.04000000000000002,-9.799999999999999,-0.005613438980374464,-0.006462891946762915,0.001203567937438906,34.0625,0.0,179.75,0.0008544899999999994,-0.9561157199999998,-0.2930297899999999,0.0019531299999999982
230.0,-0.03311362830717671,0.03759078913917624,-0.04899072880524493,0.0,-0.04000000000000002,-9.799999999999999,0.04054547043458334,0.002478457922006309,-0.007668283777154745,34.0625,0.0,179.75,0.0008544899999999994,-0.9561157199999998,-0.29302978999999996,0.0019531299999999982
231.0,-0.03541289355805485,0.03618993551251616,-0.05337129492371427,0.0,-0.04000000000000002,-9.8,0.012456358046075791,-0.03925394721765689,-0.005648658017609631,34.0625,0.0,179.75,0.0008544899999999994,-0.9561157199999998,-0.29302978999999996,0.0019531299999999982
232.0,-0.035807665252417305,0.035458435775961056,-0.05174779330830726,0.0,-0.04000000000000002,-9.799999999999999,-0.0033848908632626113,-0.0024965895489788142,-0.0010690699443257218,34.0625,0.0,179.75,0.0008544899999999994,-0.9561157199999999,-0.2930297899999999,0.0019531299999999982
233.0,-0.0350226009546544,0.03421993147546831,-0.05389442451339116,0.0,-0.04000000000000002,-9.799999999999997,0.0026300130238916665,-0.02229545997488041,0.007071770013174382,34.0625,0.0,179.75,0.0008544899999999994,-0.9561157199999998,-0.29302978999999985,0.0019531299999999982
234.0,-0.03332783273539173,0.035033352834508355,-0.05468158725669558,0.0,-0.04000000000000002,-9.799999999999997,0.008072188971623252,-0.025953677568085365,-0.012435637170832164,34.0625,0.0,179.75,0.0008544899999999994,-0.9561157199999998,-0.2930297899999999,0.0019531299999999982
235.0,-0.03500918400328608,0.03615140011649401,-0.05583971048210333,0.0,-0.04000000000000002,-9.799999999999999,-0.006256995041148869,-0.009678904639334344,-0.012413415103593246,34.0625,0.0,179.75,0.0008544899999999994,-0.9561157199999998,-0.29302978999999996,0.0019531299999999982
236.0,-0.03574814414842099,0.03635895443827558,-0.05404948904810482,0.0,-0.04000000000000002,-9.799999999999997,-0.009265237125055975,-0.005018507135818763,-0.012025284136502239,34.0625,0.0,179.75,0.0008544899999999994,-0.9561157199999998,-0.2930297899999999,0.0019531299999999982
237.0,-0.03565456411427459,0.03496148468577079,-0.05413762012489537,0.0,-0.04000000000000002,-9.8,0.017863721129808847,-0.005151137353634379,-0.005015183564892714,34.0625,0.0,179.75,0.0008544899999999994,-0.9561157199999998,-0.29302978999999996,0.0019531299999999982
238.0,-0.03467597186888643,0.033844615202595935,-0.05413791421531874,0.0,-0.04000000000000002,-9.8,0.023377829095160153,-0.0008629429397377585,-0.005353427874900556,34.0625,0.0,179.75,0.0008544899999999994,-0.9561157199999998,-0.29302978999999996,0.0019531299999999982
239.0,-0.03448768351508838,0.0331975092142012,-0.05303417888185292,0.0,-0.04000000000000002,-9.8,0.02257286112016072,-0.005519047074707589,-0.0016686494213212452,34.0625,0.0,179.75,0.0008544899999999994,-0.9561157199999998,-0.29302978999999996,0.0019531299999999982
240.0,-0.03415327103794121,0.03365954865176562,-0.05237565023497112,0.0,-0.04000000000000002,-9.8,0.01610187721020443,0.027877883410537024,-0.008193195678402558,34.0625,0.0,179.75,0.0008544899999999994,-0.9561157199999998,-0.29302978999999996,0.0019531299999999982
241.0,-0.03374839008205252,0.036124479708636845,-0.05360245261936848,0.0,-0.04000000000000002,-9.8,0.014066524794868734,0.01610004573872844,0.010364846322137116,34.0625,0.0,179.75,0.0008544899999999994,-0.9561157199999998,-0.29302978999999996,0.0019531299999999982
242.0,-0.03436494067825524,0.03663310183210795,-0.053025446299107826,0.0,-0.04000000000000002,-9.8,0.012891604544446529,0.005595964170263217,0.005149371865457771,34.0625,0.0,179.75,0.0008544899999999994,-0.9561157199999998,-0.29302978999999996,0.0019531299999999982
243.0,-0.03458773071777549,0.035583351667758514,-0.05121398272058532,0.0,-0.04000000000000002,-9.799999999999999,0.02765641155670616,0.006135709421395141,0.016618427293562592,34.0625,0.0,179.75,0.0008544899999999994,-0.9561157199999999,-0.2930297899999999,0.0019531299999999982
244.0,-0.03421093266658006,0.035925011751993405,-0.052638745392550715,0.0,-0.04000000000000002,-9.799999999999999,-0.0053768771931109426,-0.001225385441287542,0.0003530159885927111,34.0625,0.0,179.75,0.0008544899999999994,-0.9561157199999998,-0.29302978999999996,0.0019531299999999982
245.0,-0.03413923649458035,0.035555751843738645,-0.05378913076079148,0.0,-0.04000000000000002,-9.799999999999999,-0.009886649282039342,0.011531334497098164,0.00898132150236087,34.0625,0.0,179.75,0.0008544899999999994,-0.9561157199999998,-0.29302978999999996,0.0019531299999999982
246.0,-0.03347774156512723,0.034874373865782765,-0.053435604236880097,0.0,-0.04000000000000002,-9.799999999999999,-0.021013407200196288,0.006662491956316432,-0.025324814358727455,34.0625,0.0,179.75,0.0008544899999999994,-0.9561157199999999,-0.2930297899999999,0.0019531299999999982
247.0,-0.034834404281322916,0.03534114940187402,-0.0532655688678197,0.0,-0.04000000000000002,-9.799999999999999,0.0046731486796785324,0.010854169752972112,0.004211041952149922,34.0625,0.0,179.75,0.0008544899999999994,-0.9561157199999998,-0.2930297899999999,0.0019531299999999982
248.0,-0.03669500666641977,0.03525964547609349,-0.052527103162845805,0.0,-0.04000000000000002,-9.799999999999999,0.007707903179511871,0.010362087283804302,-0.005387257069182622,34.0625,0.0,179.75,0.0008544899999999994,-0.9561157199999998,-0.29302978999999996,0.0019531299999999982
249.0,-0.03705402978167181,0.03474254872174047,-0.05037978302023498,0.0,-0.04000000000000002,-9.8,0.013659871476320983,-0.009528328527147436,0.015987690146727372,34.0625,0.0,179.75,0.0008544899999999994,-0.9561157199999998,-0.29302978999999996,0.0019531299999999982
250.0,-0.03627673996414969,0.035728969253343346,-0.048704141876686396,0.0,-0.04000000000000002,-9.799999999999999,0.005095415637964988,-0.04036430630902826,0.010169870702640322,34.0625,0.0,179.75,0.0008544899999999994,-0.9561157199999998,-0.2930297899999999,0.0019531299999999982
251.0,-0.03601992992429921,0.03626121067385511,-0.04914744888730806,0.0,-0.04000000000000002,-9.799999999999997,-0.0032148102359043623,-0.020693708282101996,0.004558334484685592,34.0625,0.0,179.75,0.0008544899999999994,-0.9561157199999999,-0.29302978999999985,0.0019531299999999982
252.0,-0.03549135454031338,0.03787502221037668,-0.04904022568434882,0.0,-0.04000000000000002,-9.799999999999997,0.010512632102891491,-0.0060431940914232075,-0.012361031268823456,34.0625,0.0,179.75,0.0008544899999999994,-0.9561157199999998,-0.2930297899999999,0.0019531299999999982
253.0,-0.03451529575650905,0.03814218697367469,-0.05052464913249699,0.0,-0.04000000000000002,-9.799999999999999,0.009037527279733587,0.002279949945603533,-0.003478611943344731,34.0625,0.0,179.75,0.0008544899999999994,-0.9561157199999998,-0.29302978999999996,0.0019531299999999982
254.0,-0.03401671318570694,0.036973621066784285,-0.05263396726047183,0.0,-0.04000000000000002,-9.799999999999997,0.027691155763871822,-0.00035102954239629724,-0.010135479690426729,34.0625,0.0,179.75,0.0008544899999999994,-0.9561157199999998,-0.2930297899999999,0.0019531299999999982
255.0,-0.03465742795160225,0.035334317864770454,-0.05292499927050961,0.0,-0.04000000000000002,-9.799999999999997,0.009507845721623106,0.013143155805536943,-0.012475486668282767,34.06005620723363,0.0,179.75,0.0008544899999999994,-0.9561157199999998,-0.29302358456500494,0.0019531299999999982
256.0,-0.029319984830503763,0.04318061549250189,-0.049298076310085426,0.014511453950444144,-0.035137914913511,-9.799999999999997,0.0040145011056323295,0.23052304252914568,-1.6190958319234527,33.600782544944536,0.08415147265077139,179.76028517999063,0.0015082722159887796,-0.9572192050677883,-0.289257399428365,0.0015810388920056095
257.0,-0.058261374903731136,0.030098084243946797,-0.0756918088923699,0.021486141721765856,-0.010803980498230153,-9.799999999999997,-0.19884735414188429,0.10405985435789082,-8.016940989118408,28.47265509735706,0.1254858745742336,63.13717023976491,0.0014531996517731915,-0.9673821994186869,-0.2456861828800811,0.0002540849252654773
258.0,-0.07860089330235312,0.053395283340999716,-0.06557602711769789,-0.03381849206505981,0.0304271783106305,-9.799999999999997,-0.19268722860346232,-0.35295666108513035,6.114577813901985,31.250312669078347,-0.2016823239577719,-63.998486665669574,-0.002151203861073876,-0.9607550947388752,-0.269090438743539,-0.0009546749907975206
259.0,0.03509941291678839,0.029392146922933324,-0.06476604007572143,-0.05274750137101239,0.01687646966417486,-9.799999999999997,0.2159627753558625,-0.40585839883108416,-1.7134798896015386,30.247046952440126,-0.3107457508021481,16.120645354125685,-0.0029763992385787377,-0.9640006168560344,-0.2608278310823556,3.7786777658940654e-05
260.0,-0.007263125796992183,0.019312397997146038,-0.05768765721832643,-0.0689367201950068,0.001376811942118356,-9.799999999999995,0.10369993807362482,-0.1167003482659552,-1.355406110992068,29.004606804531903,-0.40459956563527644,97.98481450207387,-0.0036186584107166784,-0.9673722477209914,-0.25052254492942616,0.0009902771603716714
261.0,-0.010980791509996798,0.009398374554212809,-0.05321414563025162,-0.09239350824705547,0.008574826753693148,-9.799999999999994,-0.01830389801396909,-0.22402299105930085,2.8504682609817342,29.791623051508466,-0.5331771187791257,-29.162556706609337,-0.00487667531809099,-0.9658230686356495,-0.25724892335967536,0.0007992240166742174
262.0,-0.00792815220976767,0.0003127217761910569,-0.05143003222425402,-0.11889951910048628,0.014418749782376533,-9.799999999999994,0.016113777588558663,-0.1832522631579567,2.269126758797161,31.449810444698745,-0.6885499649195167,-106.6554267261978,-0.006192092229369334,-0.9622057770314476,-0.2712149125186104,0.0008991409300592223
263.0,-0.006835498185756166,-0.009711880820218878,-0.04953827826569357,-0.13031527522493647,0.016432455309180093,-9.799999999999994,0.010513158671607818,-0.13395064316462124,1.1771434566361996,32.941610697133555,-0.7553665317555329,-143.2382937810907,-0.006755283504507471,-0.9586766834157693,-0.28372444551873277,0.0009118818166879482
264.0,-0.009091849798091129,-0.011316277937847162,-0.0500723939116364,-0.13629575664926968,0.018507004574172058,-9.799999999999995,0.017914486808691725,-0.08692075975599978,0.5637528465845004,34.12853997511993,-0.790478586186717,-166.0199448233032,-0.007067410591417748,-0.9557512834696331,-0.2936520407355828,0.0008483865762222117
265.0,-0.008759951979727001,-0.01514056554571704,-0.05171990171967017,-0.13907585004359196,0.019816913687881438,-9.799999999999997,0.04376071719755393,-0.07457331937846487,0.28157860010153124,34.64605944944189,-0.806805797733217,-178.7171641924735,-0.007216297213517088,-0.954505982418924,-0.29793178093542383,0.0008023808466617029
266.0,-0.00826707276405705,-0.016798637678632787,-0.052152218313392854,-0.13999999999999999,0.02000000000000001,-9.799999999999997,0.0161331333959066,-0.04126107455074407,0.18744403481033908,34.9223161156404,-0.8124999999999999,-179.81330092797168,-0.007262101254971269,-0.9538320783072092,-0.30026391105915473,0.0008005944250745309
267.0,-0.008847815082166706,-0.017037171387906905,-0.05277665415595993,-0.13999999999999996,0.02000000000000001,-9.799999999999997,0.020785627293173858,-0.011737036584478501,0.06056438846760247,35.02868457129789,-0.8124999999999999,-179.8125,-0.0072631799999999915,-0.9535702127771137,-0.301161158832715,0.00079470777373921
268.0,-0.008317592229861183,-0.016232124994271496,-0.05198691862727574,-0.13999999999999996,0.02000000000000001,-9.799999999999999,0.016455398835137587,-0.002638452413093409,-0.0338576853663805,35.025196726812055,-0.8124999999999999,-179.8125,-0.0072631799999999915,-0.9535345059296749,-0.3012713698445719,0.0007934600000000006
269.0,-0.006868856040979298,-0.016754126163249908,-0.05238472116072018,-0.13999999999999996,0.02000000000000001,-9.799999999999999,0.014857815444599267,-0.0014493847343209404,-0.03690950484477808,35.01049457658975,-0.8124999999999999,-179.8125,-0.007263179999999992,-0.9535480005945713,-0.30122676634584833,0.0007934600000000007
270.0,-0.006744490610764083,-0.01779208474748919,-0.0506001602914819,-0.13999999999999996,0.02000000000000001,-9.799999999999997,0.011641714655376185,-0.026798958135094992,0.07448277766908903,35.006240307071955,-0.8124999999999999,-179.8125,-0.0072631799999999915,-0.9535462463300257,-0.3012318708594913,0.0007934600000000008
271.0,-0.007011774235233552,-0.01606339831529409,-0.05116155558786155,-0.13999999999999996,0.02000000000000001,-9.799999999999997,-0.005195724656635824,-0.020288781521366078,0.03853156371342907,35.002205141129025,-0.8124999999999999,-179.8125,-0.0072631799999999915,-0.9535500963709687,-0.3012169292237903,0.0007934600000000007
272.0,-0.006848633976492669,-0.016095230608275272,-0.05068582328607303,-0.13999999999999996,0.02000000000000001,-9.799999999999999,0.0029414460335710946,-0.02275935196435392,0.008779695362563527,35.000094506048384,-0.8124999999999999,-179.8125,-0.0072631799999999915,-0.9535521577016137,-0.3012087768699596,0.0007934600000000006
273.0,-0.006035356822068427,-0.01694767945369776,-0.04766642398418998,-0.13999999999999996,0.02000000000000001,-9.799999999999997,0.005680537899483494,0.008123413124616783,0.020217701573021742,35.0,-0.8124999999999999,-179.8125,-0.0072631799999999915,-0.9535522500000009,-0.3012085,0.0007934600000000007
274.0,-0.006582307330501844,-0.014867666330352906,-0.049345054987808945,-0.13999999999999996,0.02000000000000001,-9.799999999999999,-0.03411340237892958,0.008062477296950095,-0.0496428222716138,35.02084367245658,-0.8124999999999999,-179.8125,-0.007263179999999992,-0.9535095989230773,-0.3013136667692309,0.0007934600000000007
275.0,-0.006892501763469508,-0.015356317517607848,-0.04783454001195935,-0.13999999999999996,0.02000000000000001,-9.799999999999999,-0.024782688189946254,0.00840202584154197,-0.04787148335535432,34.94590570719603,-0.8124999999999999,-179.8125,-0.007263179999999992,-0.9536884315583123,-0.30072554790074446,0.0007934600000000006
276.0,-0.005830927137378751,-0.015578126174900377,-0.04928011504624407,-0.13999999999999996,0.02000000000000001,-9.799999999999999,-0.0007978748402135485,-0.004372626701255732,-0.07935747048650274,34.90843672456576,-0.8124999999999999,-179.8125,-0.007263179999999992,-0.9537778478759298,-0.3004314884665013,0.0007934600000000007
277.0,-0.005934337168208138,-0.014253834874802623,-0.04885308105872621,-0.13999999999999996,0.02000000000000001,-9.799999999999997,-0.009871454150688023,-0.01988266270020302,-0.008545755319948868,34.88970223325062,-0.8124999999999999,-179.8125,-0.007263179999999992,-0.9538225560347384,-0.3002844587493797,0.0007934600000000008
278.0,-0.00656827178198146,-0.014296190816352113,-0.05106620910451555,-0.13999999999999996,0.02000000000000001,-9.799999999999997,-0.005585223188549802,-0.01618464001276501,-0.036461846844911355,34.87828685651266,-0.8124999999999999,-179.8125,-0.007263179999999992,-0.9538714130122485,-0.30012143712174577,0.0007934600000000007
279.0,-0.006365076455802263,-0.013821379113717829,-0.05321926785132429,-0.13999999999999996,0.02000000000000001,-9.799999999999999,-0.0006209033741795839,0.0020242659166550304,-0.04654879730484569,34.80945980542755,-0.8124999999999999,-179.8125,-0.007263179999999992,-0.954028183707116,-0.29959061113159247,0.0007934600000000006
280.0,-0.00616338500209468,-0.013879439556858919,-0.0542879450298805,-0.13999999999999996,0.02000000000000001,-9.799999999999999,0.006873704252736511,0.000901875901875902,0.004154649114326538,34.79309838906613,-0.8124999999999999,-179.8125,-0.007263179999999992,-0.9541003141116217,-0.29937429887100736,0.0007934600000000006
281.0,-0.00625907425907426,-0.014546607514349458,-0.052052349084607145,-0.13999999999999996,0.02000000000000001,-9.8,0.008048336072529621,-0.0032443586879070748,0.017202756920498857,34.80179113001694,-0.8124999999999999,-179.8125,-0.007263179999999992,-0.9541014847034537,-0.2993965127258262,0.0007934600000000006
282.0,-0.006499527354366066,-0.01488571822442791,-0.05161512859899957,-0.13999999999999996,0.02000000000000001,-9.8,0.015403078104691008,0.022128431604238056,-0.11534473590925204,34.80613750049234,-0.8124999999999999,-179.8125,-0.007263179999999992,-0.9540877417065652,-0.2994224170080745,0.0007934600000000006
283.0,-0.00623133049745953,-0.013800454921422671,-0.051949988183859146,-0.13999999999999996,0.02000000000000001,-9.8,0.010198929654574817,0.0018109466698176362,-0.06511702902831935,34.80837468982631,-0.8124999999999999,-179.8125,-0.007263179999999992,-0.954097760379652,-0.2993899278486355,0.0007934600000000006
284.0,-0.006033188585607942,-0.013355148883374697,-0.052558002481389574,-0.13999999999999996,0.02000000000000001,-9.8,-0.0033692617866004967,-0.010332661290322582,-0.005808002481389577,34.81144540942928,-0.8124999999999999,-179.8125,-0.007263179999999992,-0.9540986756736967,-0.2993876216662534,0.0007934600000000006
285.0,-0.004834492315696791,-0.012279031257504208,-0.04894945669574961,-0.13999999999999996,0.02000000000000001,-9.8,0.004341743876570879,-0.027018567898022892,0.007704939766269112,34.8125,-0.8124999999999999,-179.8125,-0.007263179999999992,-0.954099133320719,-0.29938555986290355,0.0007934600000000006
286.0,-0.004573573701272713,-0.010732567737933248,-0.05117075812454973,-0.13999999999999996,0.02000000000000001,-9.8,-3.4394260786056036e-07,-0.02699408543784519,0.05383696119827103,34.8125,-0.8124999999999999,-179.8125,-0.007263179999999992,-0.9541004526008059,-0.29938045489919385,0.0007934600000000006
287.0,-0.004837266444966758,-0.009813910335242284,-0.0508805434073384,-0.13999999999999996,0.02000000000000001,-9.799999999999999,0.003074615724199491,0.0043512359345475905,0.08159261610744441,34.854044477028346,-0.8124999999999999,-179.8125,-0.007263179999999992,-0.9539932131769304,-0.29971632570870005,0.0007934600000000007
288.0,-0.004615765838970834,-0.0096165144255675,-0.04917417221176326,-0.13999999999999996,0.02000000000000001,-9.799999999999999,-0.00826885819406631,0.013222971151723753,0.009825956720467644,34.89778836754643,-0.8124999999999999,-179.8125,-0.007263179999999992,-0.9538898794916915,-0.3000194144672532,0.0007934600000000007
289.0,-0.005982151303431221,-0.010662288486169865,-0.05100963130262037,-0.13999999999999996,0.02000000000000001,-9.799999999999999,-0.013087371316104407,0.0023443817119838195,0.06606249192910223,34.93860552529907,-0.8124999999999999,-179.8125,-0.007263179999999992,-0.9537992100889071,-0.3003464709817064,0.0007934600000000006
290.0,-0.0067215647255969855,-0.011197429362751948,-0.051300861436950146,-0.13999999999999996,0.02000000000000001,-9.8,-0.008754923951496532,0.016472008754014802,0.046282416620118234,34.97232695619792,-0.8124999999999999,-179.8125,-0.007263179999999992,-0.9536698234315508,-0.300795205410208,0.0007934600000000006
291.0,-0.008143371433573653,-0.011841342269243094,-0.05082860988313563,-0.13999999999999996,0.02000000000000001,-9.799999999999999,0.0019445694999378196,-0.0062640915395790215,0.34222089806691997,35.07248088300989,-0.8124999999999999,-179.8125,-0.0072631799999999915,-0.9534188052449039,-0.30158807623423245,0.0007934600000000007
292.0,-0.007859564504665616,-0.01424178550412302,-0.051775497512437804,-0.13999999999999996,0.02000000000000001,-9.799999999999999,0.02757907849385943,0.015440779254648417,0.025872790186930172,35.20580911208168,-0.8124999999999999,-179.8125,-0.0072631799999999915,-0.9530813537026084,-0.30263743963226786,0.0007934600000000007
293.0,-0.008145938855586187,-0.0131608313081291,-0.05076734228097372,-0.13999999999999996,0.02000000000000001,-9.799999999999999,0.035433509076383415,0.006391812290682356,-0.03869300149560891,35.246344382343565,-0.8124999999999999,-179.8125,-0.0072631799999999915,-0.9529706995436114,-0.3029656689352407,0.0007934600000000006
294.0,-0.007865270316868178,-0.01288167711661634,-0.04932097040036676,-0.13999999999999996,0.02000000000000001,-9.799999999999999,-0.003011844819439908,-0.013277875449408158,0.031014540540656176,35.252620475862,-0.8124999999999999,-179.8125,-0.0072631799999999915,-0.9529437313437454,-0.30304142439081544,0.0007934600000000007
295.0,-0.007091197306411561,-0.012969696405210375,-0.05062090666715727,-0.13999999999999996,0.02000000000000001,-9.799999999999999,0.0006052127029272554,-0.01477620851003434,-0.04892210320957462,35.25534249599552,-0.8124999999999999,-179.8125,-0.007263179999999992,-0.9529328738674365,-0.30307038942575043,0.0007934600000000007
296.0,-0.007817900737255579,-0.013740237920681478,-0.05038515662205178,-0.13999999999999996,0.02000000000000001,-9.799999999999999,-0.003989250416921788,-0.019722505597001564,0.08379805608258228,35.29711134589537,-0.8124999999999999,-179.8125,-0.007263179999999992,-0.9528357641251807,-0.3034136297486793,0.0007934600000000006
297.0,-0.00751999255225062,-0.01343428614396357,-0.04792641050705566,-0.13999999999999996,0.02000000000000001,-9.8,0.004118462182978312,-0.02832579606773155,0.003708164595261368,35.336858974358975,-0.8124999999999999,-179.8125,-0.007263179999999992,-0.9527339348221673,-0.30375352690810986,0.0007934600000000006
298.0,-0.00862848262848263,-0.013511187736994196,-0.047459483169160585,-0.13999999999999996,0.02000000000000001,-9.8,-0.003074143598337147,-0.0032137665202181323,0.00994961579638999,35.35752688172043,-0.8124999999999999,-179.8125,-0.007263179999999992,-0.9526812534408606,-0.3039294841116231,0.0007934600000000006
299.0,-0.009756567804954906,-0.01284308164953327,-0.049648607664736694,-0.13999999999999996,0.02000000000000001,-9.8,0.011216471700342668,0.029658390444680768,-0.005732059159478513,35.36827956989247,-0.8124999999999999,-179.8125,-0.007263179999999992,-0.9526540646236564,-0.30402005253968256,0.0007934600000000006
300.0,-0.010175381070542364,-0.01288158257513097,-0.05090524439717987,-0.13999999999999996,0.02000000000000001,-9.8,0.013484678404033243,0.03293521554610264,-0.010295181968569066,35.373655913978496,-0.8124999999999999,-179.8125,-0.007263179999999992,-0.9526404702150544,-0.3040653367537123,0.0007934600000000006
301.0,-0.008363833746898267,-0.011924937965260552,-0.053626240694789065,-0.13999999999999996,0.02000000000000001,-9.8,0.018284739454094295,-0.009435096153846152,0.04673929900744417,35.375,-0.8124999999999999,-179.8125,-0.007263179999999992,-0.9526216947692318,-0.304134338049628,0.0007934600000000006
302.0,-0.008243478967269291,-0.011647686990428932,-0.05171874876915199,-0.13999999999999996,0.02000000000000001,-9.8,0.013021510299736107,-0.025152578995824966,0.045184707205876556,35.375,-0.8124999999999999,-179.8125,-0.007263179999999992,-0.9525977028684873,-0.30423175176674966,0.0007934600000000006
303.0,-0.008471300317066449,-0.013060678344952545,-0.05205347419157902,-0.13999999999999996,0.02000000000000001,-9.8,0.016378955945488202,0.00039537145761944087,0.0213666751595179,35.375,-0.8124999999999999,-179.8125,-0.007263179999999992,-0.9525857069181151,-0.3042804586253105,0.0007934600000000006
304.0,-0.009379452089129511,-0.01446670891832183,-0.05264124406059889,-0.13999999999999996,0.02000000000000001,-9.799999999999999,0.0004800754800754802,-0.005161952742597904,-0.033998931176350534,35.375,-0.8124999999999999,-179.8125,-0.007263179999999992,-0.952579708942929,-0.3043048120545909,0.0007934600000000007
305.0,-0.008665664085018926,-0.013124624479463196,-0.05105127847063329,-0.13999999999999996,0.02000000000000001,-9.799999999999997,0.0019469329953200921,0.0017482965063610224,0.020440849473107536,35.375,-0.8124999999999999,-179.8125,-0.007263179999999992,-0.9525767099553359,-0.3043169887692312,0.0007934600000000008
306.0,-0.008903551645487132,-0.013803007028813487,-0.05236186752315783,-0.13999999999999996,0.02000000000000001,-9.799999999999997,-0.0019033945445235767,-0.01392889144905274,0.11785845203183913,35.44657258064516,-0.8124999999999999,-179.8125,-0.007263179999999992,-0.9523989747580652,-0.30483713548387115,0.000785583870967742
307.0,-0.008544081366662015,-0.015944933202997724,-0.05181166503747148,-0.13999999999999996,0.02000000000000001,-9.799999999999997,-0.042135423939859425,-0.02488122876227715,0.10912007459386491,35.51733565493646,-0.8124999999999999,-179.8125,-0.007263179999999992,-0.9522243359420821,-0.30536628652492676,0.0007742470185728244
308.0,-0.007806695992179867,-0.01548142717497557,-0.051652003910068425,-0.13999999999999996,0.02000000000000001,-9.799999999999997,-0.029680626832844573,-0.020676777859237536,0.06338969330400782,35.60745815004887,-0.8124999999999999,-179.8125,-0.007263179999999992,-0.9519885760257817,-0.3061067345772239,0.0007523489931573796
309.0,-0.006721041055718477,-0.01458333333333334,-0.049887585532746824,-0.13999999999999996,0.02000000000000001,-9.799999999999997,-0.028220078812316716,-0.01070495784457478,0.09711212426686217,35.683769397605076,-0.8124999999999999,-179.8125,-0.007263179999999992,-0.9518110780935365,-0.30659764148216023,0.0007413999804496572
310.0,-0.006327773704789836,-0.014723879615008656,-0.048124821415143994,-0.13999999999999996,0.02000000000000001,-9.799999999999999,-0.03650364042879164,0.0004501190174073244,0.030521811437890064,35.722933085899314,-0.8124999999999999,-179.8125,-0.007263179999999992,-0.9517208525951559,-0.30684555606366065,0.0007359254740957959
311.0,-0.006536779081133922,-0.013542597187758486,-0.047359698097601315,-0.13999999999999996,0.02000000000000001,-9.799999999999997,-0.040655958624708624,0.00657844339799985,0.004022800116550115,35.74027828690127,-0.8124999999999999,-179.8125,-0.007263179999999992,-0.9516812618847761,-0.3069533931830399,0.0007334343499511235
312.0,-0.006312603391232425,-0.013788141965561329,-0.04596054684562749,-0.13999999999999996,0.02000000000000001,-9.799999999999999,-0.03194821391645988,0.005358456227911873,-0.014961680624483047,35.74785786290322,-0.8124999999999999,-179.8125,-0.007263179999999992,-0.9516641629731805,-0.306998835858382,0.0007324199999999994
313.0,-0.006810004623512689,-0.014353108361172883,-0.04730043354942548,-0.13999999999999996,0.02000000000000001,-9.799999999999999,-0.009058027965538047,0.01214019725234443,0.0040209867137790505,35.749936995967744,-0.8124999999999999,-179.8125,-0.007263179999999992,-0.9516602522832673,-0.3070066861794353,0.0007324199999999994
314.0,-0.0065375627956273125,-0.014696715470909026,-0.050048906290841765,-0.13999999999999996,0.02000000000000001,-9.8,-0.004103736765027088,-0.004498827785118107,0.013618986300437914,35.75,-0.8124999999999999,-179.8125,-0.007263179999999992,-0.9516463767741934,-0.30706196830645127,0.0007324199999999995
315.0,-0.007473082473082474,-0.015634093505061255,-0.050472531948338395,-0.13999999999999996,0.02000000000000001,-9.799999999999999,-0.010151631522599264,0.011249721380769767,-0.02883134450674773,35.75,-0.8124999999999999,-179.8125,-0.007263179999999992,-0.9516217638709672,-0.30716041189516086,0.0007324199999999994
316.0,-0.007739473787860887,-0.014390849294075109,-0.05222306949323077,-0.13999999999999996,0.02000000000000001,-9.799999999999999,0.0006670972396778854,0.016530285910326233,0.009518223152295734,35.75,-0.8124999999999999,-179.8125,-0.007263179999999992,-0.9516094574193541,-0.3072096336895157,0.0007324199999999994
317.0,-0.006996287762416797,-0.014386491644556168,-0.05079267618582133,-0.13999999999999996,0.02000000000000001,-9.799999999999999,-0.0037995158962900893,-0.005894286325233906,-0.0008085062898570954,35.75,-0.8124999999999999,-179.8125,-0.007263179999999992,-0.9516033041935476,-0.30723424458669313,0.0007324199999999994
318.0,-0.006743035190615838,-0.014147116324535688,-0.05010401392961877,-0.13999999999999996,0.02000000000000001,-9.799999999999999,-0.011394183773216032,-0.005190195808895405,-0.0032160694648093835,35.75,-0.8124999999999999,-179.8125,-0.007263179999999992,-0.9516002275806442,-0.3072465500352818,0.0007324199999999994
319.0,-0.006547720872317648,-0.014286819811013369,-0.05009108946608946,-0.13999999999999996,0.02000000000000001,-9.799999999999999,-0.0072331901968998745,0.009000394207047431,0.004623114061118093,35.75,-0.8124999999999999,-179.8125,-0.007263179999999992,-0.9515991199999991,-0.3072509799999995,0.0007324199999999994
320.0,-0.006136330085829307,-0.014618971977842954,-0.050949038568380386,-0.13999999999999996,0.02000000000000001,-9.8,0.0023815365825641584,-0.003211545714878832,0.014888221174600922,35.75,-0.8124999999999999,-179.8125,-0.007263179999999992,-0.9515991199999991,-0.3072509799999995,0.0007324199999999995
321.0,-0.005762217462269493,-0.014517147279244061,-0.04896242250999665,-0.13999999999999996,0.02000000000000001,-9.8,0.010105838855798207,-0.003464391809052319,-0.05630021904979631,35.742943548387096,-0.8124999999999999,-179.8125,-0.007263179999999992,-0.9516237310483864,-0.3071800995967739,0.0007363580645161288
322.0,-0.00794159260210249,-0.01544359225004387,-0.04997023886045737,-0.13999999999999996,0.02000000000000001,-9.8,0.005194678500479749,-0.006750224750680005,-0.004636035393384513,35.714213709677416,-0.8124999999999999,-179.8125,-0.007263179999999992,-0.9517374332661279,-0.3068060120564514,0.0007658935483870969
323.0,-0.008462487405645577,-0.015964709125999454,-0.051930378472261916,-0.13999999999999996,0.02000000000000001,-9.8,-0.01172939584262425,-0.0033140175561806673,-0.006273907237259216,35.69984879032258,-0.8124999999999999,-179.8125,-0.007263179999999992,-0.9517942843749987,-0.3066189682862902,0.0007806612903225811
324.0,-0.00748777212064153,-0.014958801055575257,-0.0511264795587116,-0.13999999999999996,0.02000000000000001,-9.8,0.0033998950126356477,0.01744821395616466,-0.006929196322162634,35.69266633064515,-0.8124999999999999,-179.8125,-0.007263179999999992,-0.9518227099294341,-0.3065254464012096,0.0007880451612903231
325.0,-0.0073028390740084315,-0.014066249163023363,-0.05053462375438181,-0.13999999999999996,0.02000000000000001,-9.8,0.014920601072314783,0.00845545653383355,-0.003822298473256135,35.68907510080645,-0.8124999999999999,-179.8125,-0.007263179999999992,-0.9518369227066519,-0.3064786854586693,0.0007917370967741942
326.0,-0.00799869776281067,-0.014865785871834266,-0.04934493284493284,-0.13999999999999996,0.02000000000000001,-9.8,0.008184846907125135,0.025948368387884516,0.004594017094017093,35.6875,-0.8124999999999999,-179.8125,-0.007263179999999992,-0.9518432599999986,-0.30645751999999993,0.0007934600000000006
327.0,-0.006869292557800624,-0.01413351131395487,-0.051787634408602144,-0.13999999999999996,0.02000000000000001,-9.8,0.01177291500502186,0.017241041888219306,-0.01993727598566308,35.686987967229896,-0.8124999999999999,-179.8125,-0.007263179999999992,-0.9518437600716833,-0.30645601986687143,0.0007934600000000006
328.0,-0.005181047062634978,-0.012690371343029232,-0.05221452370134787,-0.13999999999999999,0.02000000000000001,-9.799999999999997,-0.020917099474431367,0.03497217928122914,-0.3156127344262709,35.34376374735871,-0.8124999999999999,-179.8125,-0.007263179999999992,-0.9527273420394764,-0.30370899514016003,0.0008005584461608364
329.0,-0.005974879848431642,-0.010263462356715429,-0.052483331890987486,-0.13992730577010448,0.022471603816447083,-9.799999999999997,-0.05027405567607464,0.08230285763207588,-0.6415653277866122,35.08173818899057,-0.8124999999999999,-179.806593593821,-0.00731908607905497,-0.9534011835458627,-0.30159185831519586,0.0007859158655156753
330.0,0.008702740862739167,-0.010448285591686323,-0.05109420050770572,-0.1466733303044071,0.027281884857532305,-9.799999999999997,-0.004818435140412365,0.016742974367260917,0.3312910688255879,35.3136513525598,-0.8544354838709677,-179.7795928798598,-0.007783016246900755,-0.9527698315793831,-0.30355710928663016,0.0007316327806841048
331.0,0.022515978339410034,-0.00813052820749458,-0.05188692331596166,-0.1543525534526369,0.03350131797041275,-9.799999999999997,-0.077067585257977,-0.03756338921562327,0.4928990569964483,35.33254486260633,-0.902317043813192,-179.73923372928954,-0.008294193819165348,-0.9527118412735627,-0.3037364193135125,0.0005495545752240937
332.0,0.018397179050830385,-0.008032480167737548,-0.052690323727423535,-0.1540812462119332,0.02368178365826654,-9.799999999999995,-0.018721497615080587,0.061299538699228114,-0.7175689254395846,34.836978275396106,-0.9001286614009291,-179.80638124999786,-0.008184383718649808,-0.9540144037105002,-0.29959480638770375,0.0010959312806373294
333.0,0.01371513159307039,-0.005865468396068463,-0.051771207875855006,-0.15220191342854733,0.021840891829133274,-9.799999999999997,-0.04858706466947632,-0.005853094362472732,-0.21530930335696824,34.501223139460336,-0.8885723952165936,-179.84169868951506,-0.007960048916998416,-0.9548910906584107,-0.2968254698267184,0.0011964892977471074
334.0,0.008902091012346191,-0.00627098953651674,-0.05253599012602382,-0.15126451873153868,0.020843208295302673,-9.799999999999997,0.011719927456265922,-0.01404365304220865,-0.12176755490429059,34.430501392537984,-0.8827942621244258,-179.85954198446672,-0.007893387393528739,-0.9550964175486507,-0.29620624501104215,0.0012473368001684206
335.0,0.0063920238826353434,-0.007647547231923738,-0.05230486142245892,-0.15058387226899522,0.02023266405548544,-9.799999999999997,0.006700756000376846,-0.015191580154567636,-0.08225363743087624,34.383799083365766,-0.8785947117073742,-179.8692151166573,-0.007846432346533955,-0.9552293395162605,-0.2958021382474566,0.0012742281074574833
336.0,0.005014833466446369,-0.007854105825880022,-0.0508732929015187,-0.15010897994768982,0.019808195292066268,-9.799999999999999,-0.01168725949471917,0.003247789790128501,-0.05880209000168678,34.363481149771474,-0.8756538796861377,-179.8748910200523,-0.007814229432775883,-0.955287747822646,-0.2956251884737524,0.0012925155318221466
337.0,0.004451689309649768,-0.007792114644807156,-0.04963075731500549,-0.1500000000000002,0.02000000000000001,-9.8,-0.012713760804535387,0.004320269729836588,-0.01902553877140896,34.35765793996153,-0.875,-179.875,-0.007809546691104594,-0.9553058268060415,-0.29556935624365416,0.0012817400000000021
338.0,0.00516667333706876,-0.006912643580405029,-0.049634222664692224,-0.1500000000000002,0.02000000000000001,-9.8,-0.017591429325422236,-0.013374208306651723,0.03729078909189146,34.33701873048908,-0.875,-179.875,-0.0078125,-0.9553394771175862,-0.2954135215504683,0.0012817400000000021
339.0,0.0057694709037060775,-0.006677819578964222,-0.048931721764187946,-0.1500000000000002,0.02000000000000001,-9.8,-0.015605739213959819,-0.005363003281837828,0.059621387977267265,34.32375130072841,-0.875,-179.875,-0.0078125,-0.9553633574297613,-0.2953124102913631,0.0012817400000000021
340.0,0.006891859441287123,-0.004857440166493237,-0.050515808852957644,-0.1500000000000002,0.02000000000000001,-9.8,0.027530417033538777,0.00019911150244136767,-0.0070989754262386975,34.31711758584808,-0.875,-179.875,-0.0078125,-0.9553752975858487,-0.29526185466181054,0.0012817400000000021
341.0,0.00804890738813736,-0.005848074921956297,-0.05002341311134234,-0.1500000000000002,0.02000000000000001,-9.8,0.03043704474505723,0.017446019771071797,0.11109846514047866,34.41107895421436,-0.875,-179.84929435483872,-0.0078125,-0.9551602603251816,-0.29598917991155027,0.0012817400000000021
342.0,0.007479601275126773,-0.0048472986142080845,-0.0515097740448937,-0.1500000000000002,0.02000000000000001,-9.8,-0.012748170721635862,0.009072451604644632,0.0648716356556497,34.490171370967744,-0.875,-179.82988911290323,-0.0078125,-0.954989276330644,-0.296579914112903,0.0012817400000000021
343.0,0.007889124258791276,-0.004741547329996862,-0.050260610227441646,-0.1500000000000002,0.02000000000000001,-9.8,-0.016389694101712832,-0.003788436008291627,0.058938159138959084,34.530367943548384,-0.875,-179.8201864919355,-0.0078125,-0.9549027681653212,-0.29688004463709655,0.0012817400000000021
344.0,0.008103217960788204,-0.004724472688832731,-0.05040209541152568,-0.1500000000000002,0.02000000000000001,-9.8,-0.0039197347339907165,-0.016775686547164825,0.04716234097046727,34.55046622983871,-0.875,-179.8153351814516,-0.0078125,-0.9548595140826597,-0.2970301098991933,0.0012817400000000021
345.0,0.007973765387982354,-0.004374723337132286,-0.05064365556616465,-0.1500000000000002,0.02000000000000001,-9.8,-0.019442657729598415,-0.02335747626805932,-0.023403390869124803,34.54463447968362,-0.875,-179.81290952620964,-0.0078125,-0.9548664812249525,-0.2970019120389269,0.0012817400000000021
346.0,0.008843194728730634,-0.005252653231841578,-0.04953534360194089,-0.1500000000000002,0.02000000000000001,-9.8,-0.00278119238837241,-0.0062746884286946705,-0.03760968046868151,34.52230148883375,-0.875,-179.8125,-0.0078125,-0.9549112809627787,-0.2968470086253103,0.0012817400000000021
347.0,0.008182478060729886,-0.003933290261594112,-0.04939900820650038,-0.1500000000000002,0.02000000000000001,-9.8,0.03477171819393463,-0.019786409754541906,0.011669110098480547,34.53433622828784,-0.875,-179.8125,-0.0078125,-0.9548618037071954,-0.2970042411674939,0.0012817400000000021
348.0,0.007427628720066585,-0.004429542386046881,-0.05005355811119956,-0.1500000000000002,0.02000000000000001,-9.8,0.011894013171445745,0.0036037181537247644,-0.03311852916972563,34.54841811414392,-0.875,-179.8125,-0.0078125,-0.9548163924987585,-0.29715619897084367,0.0012817400000000021
349.0,0.005435524549485418,-0.0035089340194443316,-0.05001909856404832,-0.1500000000000002,0.02000000000000001,-9.8,0.02900448226416629,-0.016383304773624048,-0.025719850862384576,34.55545905707196,-0.875,-179.8125,-0.0078125,-0.9547936868945401,-0.29723217787251854,0.0012817400000000021
350.0,0.006542824309482166,-0.0027383379774641014,-0.04967208029939388,-0.1500000000000002,0.02000000000000001,-9.8,0.00039709224870845654,-0.0001659079699385755,-0.04058945396717244,34.559475806451616,-0.875,-179.8125,-0.0078125,-0.9547814405241927,-0.2972733932762096,0.0012817400000000021
351.0,0.006228243853508267,-0.0034818949724257763,-0.0510078074504965,-0.1500000000000002,0.02000000000000001,-9.8,0.03836837360869784,-0.0012931237435261436,-0.08257686688669386,34.561995967741936,-0.875,-179.8125,-0.0078125,-0.9547862417905133,-0.2972591627645767,0.0012817400000000021
352.0,0.005851714978863315,-0.003286194074302218,-0.04964053523889589,-0.1500000000000002,0.02000000000000001,-9.8,0.028999730383753385,0.010295057622653803,-0.025375795803768763,34.5625,-0.875,-179.8125,-0.0078125,-0.9548104492319494,-0.2971884899180745,0.0012817400000000021
353.0,0.005199583234865494,-0.002675436458702588,-0.04790398400882272,-0.1500000000000002,0.02000000000000001,-9.8,0.03999182101500649,0.01962272508517468,-0.012490607091161524,34.54711538461539,-0.875,-179.8125,-0.0078125,-0.95485033917925,-0.29703357664886365,0.0012817400000000021
354.0,0.006965791041395882,-0.0030153055949426913,-0.04870621627476465,-0.1500000000000002,0.02000000000000001,-9.8,0.04436096987130253,0.010394149840974438,-0.06895756713045019,34.52254962779156,-0.875,-179.8125,-0.0078125,-0.9549061478154314,-0.29685288880830296,0.0012817400000000021
355.0,0.006718342589310334,-0.0031133955650084685,-0.049854740241837,-0.1500000000000002,0.02000000000000001,-9.8,0.021101165859230376,-0.0016956162117452434,-0.007451553822521561,34.51026674937965,-0.875,-179.8125,-0.0078125,-0.9549340521335221,-0.29676254488802256,0.0012817400000000021
356.0,0.005923175390917328,-0.0026972507778959386,-0.04948830202056008,-0.1500000000000002,0.02000000000000001,-9.8,0.011366635156957738,0.009264839103548781,0.04360525227460711,34.50412531017369,-0.875,-179.8125,-0.0078125,-0.9549476293002479,-0.2967185761588092,0.0012817400000000021
357.0,0.006078513780126685,-0.0021592126511481347,-0.05102266819202302,-0.1500000000000002,0.02000000000000001,-9.799999999999999,0.014628539023700315,0.012615632575309994,0.03300553613053613,34.50105459057072,-0.875,-179.8125,-0.0078125,-0.9549538085210917,-0.29669834195037253,0.0012817400000000021
358.0,0.005626105525299076,-0.0018513184843830003,-0.050248306800726145,-0.1500000000000002,0.02000000000000001,-9.799999999999999,0.008035423358004003,-0.00978244425825071,-0.0011073435972629511,34.5,-0.875,-179.8125,-0.0078125,-0.9549560499999998,-0.29668942895161315,0.0012817400000000021
359.0,0.004739320043755529,-0.0018247493993461734,-0.05108468748992942,-0.1500000000000002,0.02000000000000001,-9.799999999999999,0.001248549837259515,-0.004394944213492601,-0.1866748758633839,34.45781637717121,-0.875,-179.8169665012407,-0.0078125,-0.9550185722034734,-0.29643961542617864,0.0012817400000000021
360.0,0.003985123411534702,-0.002738004267238138,-0.050370580024813885,-0.1500000000000002,0.02000000000000001,-9.799999999999999,0.01875634446198962,-0.012253388412662606,-0.16160217051094067,34.25798932250545,-0.875,-179.84699131513645,-0.0078125,-0.95551234609685,-0.2948088015498439,0.0012817400000000021
361.0,0.00449004154447703,-0.005282812617490038,-0.05035918114143921,-0.1500000000000002,0.02000000000000001,-9.799999999999999,0.025444200456801264,-0.014506230496653883,-0.06256141791676065,34.15318820963982,-0.875,-179.86200372208435,-0.0078125,-0.9557697335322968,-0.29395473287169605,0.0012817400000000021
362.0,0.0042748815924219166,-0.004416879939057358,-0.05186091999398451,-0.1500000000000002,0.02000000000000001,-9.799999999999999,-0.014705836977762381,-0.010072932080240547,-0.01628629477041775,34.10078765320701,-0.875,-179.8695099255583,-0.0078125,-0.9558984272500203,-0.29352769853262206,0.0012817400000000021
363.0,0.004400316529348788,-0.004998487623487625,-0.049923922851342194,-0.1500000000000002,0.02000000000000001,-9.799999999999999,0.005307550872067,-0.004059426236845591,0.0012057918559934683,34.0745873749906,-0.875,-179.87326302729525,-0.0078125,-0.9559627741088821,-0.29331425827084723,0.0012817400000000021
364.0,0.003882540398669432,-0.005883859196359197,-0.05072622941574553,-0.1500000000000002,0.02000000000000001,-9.799999999999999,-0.006713470221534739,-0.005022889297082845,-0.003444870821382919,34.062805474095796,-0.875,-179.875,-0.0078125,-0.9559929937194542,-0.2932380865473344,0.0012817400000000021
365.0,0.004218412065446406,-0.006379636532244494,-0.049369042876131836,-0.1500000000000002,0.02000000000000001,-9.8,0.008565130527929694,0.02018183176807006,-0.007939325960308335,34.0625,-0.875,-179.875,-0.0078125,-0.9559936500000017,-0.29325578461042184,0.0012817400000000021
366.0,0.004689851194013525,-0.005405040040315796,-0.05153431982516268,-0.1500000000000002,0.02000000000000001,-9.8,0.004282565263964847,0.011855028787260836,-0.006600081326928361,34.0625,-0.875,-179.875,-0.0078125,-0.9559936500000017,-0.29326584182133997,0.0012817400000000021
367.0,0.0038664506669189294,-0.005028330410484417,-0.05055458753871864,-0.1500000000000002,0.02000000000000001,-9.8,0.01043350564194737,0.021888412814206257,-0.012713073866819965,34.0625,-0.875,-179.875,-0.0078125,-0.9559936500000017,-0.29327087042679906,0.0012817400000000021
368.0,0.004198621227887618,-0.004281027375330185,-0.05014777275274153,-0.1500000000000002,0.02000000000000001,-9.8,0.007339797786760586,0.014457158508764908,-0.016712108780917313,34.0625,-0.875,-179.875,-0.0078125,-0.9559936500000017,-0.2932733847295286,0.0012817400000000021
369.0,0.003496332946450012,-0.005340265548707278,-0.04883939506123429,-0.1500000000000002,0.02000000000000001,-9.8,0.03420649938965821,0.0017772765248539185,0.004050893500360201,34.0625,-0.875,-179.875,-0.0078125,-0.9559936500000017,-0.29327393,0.0012817400000000021
370.0,0.0044544820099255596,-0.00478419665012407,-0.04921270161290322,-0.1500000000000002,0.02000000000000001,-9.8,0.02167581032878412,0.005648553815136476,0.011714872828784119,34.0625,-0.875,-179.875,-0.0078125,-0.9559936500000017,-0.29327393,0.0012817400000000021
371.0,0.004079559553349877,-0.0057061104218362295,-0.04785483870967741,-0.1500000000000002,0.02000000000000001,-9.8,0.01787860576923077,0.013361701302729527,-0.008192462779156327,34.0625,-0.875,-179.875,-0.0078125,-0.9559936500000017,-0.29327393,0.0012817400000000021
372.0,0.004237810673977429,-0.005192765448651247,-0.047766929480509084,-0.1500000000000002,0.02000000000000001,-9.8,-0.014706438730689185,0.008786029551548866,-0.006418531877851597,34.0625,-0.875,-179.875,-0.0078125,-0.9559936500000017,-0.29327393,0.0012817400000000021
373.0,0.00422324001440807,-0.005038419014648205,-0.04808205344993196,-0.1500000000000002,0.02000000000000001,-9.8,-0.01852068408308653,0.014867435138677658,0.006178334867525814,34.0625,-0.875,-179.875,-0.0078125,-0.9559936500000017,-0.29327393,0.0012817400000000021
374.0,0.004727547426558874,-0.005561044184743458,-0.04674011946690146,-0.1500000000000002,0.02000000000000001,-9.8,-0.004661047686704554,0.009119075432242055,-0.004345308372688705,34.0625,-0.875,-179.875,-0.0078125,-0.9559936500000017,-0.29327393,0.0012817400000000021
375.0,0.005661377748588392,-0.006433941121782298,-0.04456999464782246,-0.1500000000000002,0.02000000000000001,-9.8,-0.0035432521515327267,-0.018879169927372444,0.003878529558519984,34.0625,-0.875,-179.875,-0.0078125,-0.9559936500000017,-0.29327393,0.0012817400000000021
376.0,0.005600590018935196,-0.006607481747155458,-0.04908609969123693,-0.1500000000000002,0.02000000000000001,-9.8,-0.008755927909793418,-0.01965589203314512,-0.0350806851426963,34.0625,-0.875,-179.875,-0.0078125,-0.9559936500000015,-0.29327393,0.0012817400000000021
377.0,0.006065043268492653,-0.0061662638864649465,-0.04902363897553121,-0.1500000000000002,0.02000000000000001,-9.8,-0.004142582141080972,0.01937115548026567,-0.022918104117814173,34.0625,-0.875,-179.875,-0.0078125,-0.9559936500000017,-0.29327393,0.0012817400000000021
378.0,0.006351574053601166,-0.005263071459361505,-0.05187573077808818,-0.1500000000000002,0.02000000000000001,-9.8,-0.00021267211892758318,0.016915290441745737,-0.02535144117181031,34.0625,-0.875,-179.875,-0.0078125,-0.9559936500000017,-0.29327393,0.0012817400000000021
379.0,0.005878079973549175,-0.005154857222256277,-0.05174827725540354,-0.1500000000000002,0.02000000000000001,-9.8,-0.006936023159438189,-0.0023422959753636886,-0.011431140932807357,34.0625,-0.875,-179.875,-0.0078125,-0.9559936500000017,-0.29327393,0.0012817400000000021
380.0,0.005101115528014594,-0.0044943236322008435,-0.049741901395517416,-0.1500000000000002,0.02000000000000001,-9.799999999999999,-0.0029462017308336244,-0.003376570803892604,-0.0020038098138709477,34.0625,-0.875,-179.875,-0.0078125,-0.9559936500000017,-0.29327393000000007,0.0012817400000000021
381.0,0.004316946941946943,-0.004476610307255468,-0.04981632010462654,-0.1500000000000002,0.02000000000000001,-9.799999999999999,-0.0022697970152607246,-0.02708500756635837,0.025370363563407917,34.0625,-0.875,-179.875,-0.0078125,-0.9559936500000017,-0.29327393000000007,0.0012817400000000021
382.0,0.0039689273251318005,-0.004144412573783021,-0.04817735079913149,-0.1500000000000002,0.02000000000000001,-9.8,-0.02609337525460867,-0.02070101254808753,0.02378189594163352,34.087994276795,-0.875,-179.875,-0.0078125,-0.9559453810301778,-0.29342026140478694,0.0012817400000000021
383.0,0.003762897482330365,-0.003803997121504926,-0.05081794607288885,-0.1500000000000002,0.02000000000000001,-9.8,-0.03511134976568119,-0.016219131866081656,-0.005604921764846324,34.10750520291363,-0.875,-179.875,-0.0078125,-0.9559065116441211,-0.2935361073152969,0.0012817400000000021
384.0,0.00445569349282929,-0.005045879769149801,-0.0516762541424352,-0.1500000000000002,0.02000000000000001,-9.8,-0.004746855118375668,-0.013821931524438677,-0.020475591962812303,34.11726066597295,-0.875,-179.875,-0.0078125,-0.9558870769510928,-0.29359403027055186,0.0012817400000000021
385.0,0.005015537550234482,-0.005794388865701302,-0.050400800956472126,-0.1500000000000002,0.02000000000000001,-9.8,0.014484747867535981,0.009061569766767804,-0.010856263535357576,34.1221383975026,-0.875,-179.875,-0.0078125,-0.9558773596045786,-0.2936229917481794,0.0012817400000000021
386.0,0.006401417968665629,-0.005646690400592588,-0.05003911015565542,-0.1500000000000002,0.02000000000000001,-9.8,0.02693113401441315,0.013398602423706482,-0.01982455313864653,34.124577263267426,-0.875,-179.875,-0.0078125,-0.9558725009313216,-0.2936374724869931,0.0012817400000000021
387.0,0.005802165800149672,-0.007277039268974756,-0.05265483083225018,-0.1500000000000002,0.02000000000000001,-9.8,0.006685520180983891,-0.023851557268895977,0.0038591854494072226,34.125,-0.875,-179.875,-0.0078125,-0.9558715799999999,-0.2936401400000004,0.0012817400000000021
388.0,0.0051449286600496295,-0.005805521091811416,-0.05182692307692307,-0.1500000000000002,0.02000000000000001,-9.8,-0.009368699596774194,-0.030608328163771716,-0.02728704637096774,34.125,-0.875,-179.875,-0.0078125,-0.9558715799999999,-0.2936401400000004,0.0012817400000000021
389.0,0.004373579601402184,-0.006816291011855531,-0.051938167119618725,-0.1500000000000002,0.02000000000000001,-9.8,-0.020439108102918584,-0.03713256109929497,0.0017567124295954934,34.125,-0.875,-179.875,-0.0078125,-0.9558715799999999,-0.2936401400000004,0.0012817400000000021
390.0,0.0025969394845240324,-0.0068002851041027434,-0.0513169583697029,-0.1500000000000002,0.02000000000000001,-9.8,0.003821308831755306,-0.021143723917933725,0.017022897157725786,34.125,-0.875,-179.875,-0.0078125,-0.9558715799999999,-0.2936401400000004,0.0012817400000000021
391.0,0.0025248577695573017,-0.00656752003344095,-0.05034590164142713,-0.1500000000000002,0.02000000000000001,-9.8,0.010725645498383857,-0.01628293515995942,0.000996279146480759,34.125,-0.875,-179.875,-0.0078125,-0.9558715799999999,-0.2936401400000004,0.0012817400000000021
392.0,0.0035253046179164814,-0.006661692568040124,-0.051030722081710625,-0.1500000000000002,0.02000000000000001,-9.799999999999999,0.01781805170202673,-0.0008267948954733557,-0.004341715632038213,34.125,-0.875,-179.875,-0.0078125,-0.9558715799999999,-0.2936401400000004,0.0012817400000000021
393.0,0.003411122118718373,-0.005801049915514016,-0.05115339325953269,-0.1500000000000002,0.02000000000000001,-9.799999999999999,0.01598418635359322,-0.0049443951238956445,-0.008408795505569697,34.125,-0.875,-179.875,-0.0078125,-0.9558715799999999,-0.2936401400000004,0.0012817400000000021
394.0,0.0035821611617657405,-0.0060815285419863994,-0.05022083385454873,-0.1500000000000002,0.02000000000000001,-9.799999999999999,0.013512446479407976,-0.021945443849710238,-0.004668427450685514,34.125,-0.875,-179.875,-0.0078125,-0.9558715799999999,-0.2936401400000004,0.0012817400000000021
395.0,0.0037783606218849365,-0.007245417384199284,-0.04886746415730527,-0.1500000000000002,0.02000000000000001,-9.799999999999999,0.0048565773484526495,-0.0065745126590095295,-0.0028382459834072737,34.125,-0.875,-179.875,-0.0078125,-0.9558715799999999,-0.2936401400000004,0.0012817400000000021
396.0,0.003196872618634776,-0.00614131911393587,-0.049602466569967765,-0.1500000000000002,0.02000000000000001,-9.799999999999999,0.017021961130802007,-0.007086884121068039,0.002799239291174775,34.125,-0.875,-179.875,-0.0078125,-0.9558715799999999,-0.2936401400000004,0.0012817400000000021
397.0,0.0034606063972939284,-0.006751011463126294,-0.05009448841694869,-0.1500000000000002,0.02000000000000001,-9.799999999999999,0.009641234719848707,-0.008782322803447021,-0.008039529914529914,34.125,-0.875,-179.875,-0.0078125,-0.9558715799999999,-0.2936401400000004,0.0012817400000000021
398.0,0.0044917890246489196,-0.005954987182012339,-0.05292021353305658,-0.1500000000000002,0.02000000000000001,-9.799999999999999,0.0026575698339736014,-0.003742392607793426,0.011844523084442438,34.125,-0.875,-179.875,-0.0078125,-0.9558715799999999,-0.2936401400000004,0.0012817400000000021
399.0,0.004496436158930142,-0.00541629504743371,-0.052548665986557164,-0.1500000000000002,0.02000000000000001,-9.799999999999997,-0.012309707349503329,0.016091535400484608,-0.0012996932001957283,34.125,-0.875,-179.875,-0.0078125,-0.9558715799999999,-0.2936401400000004,0.0012817400000000021
400.0,0.004971086074360028,-0.00404799207973859,-0.05352483165205842,-0.1500000000000002,0.02000000000000001,-9.799999999999997,-0.009181913078195277,0.009446454359113843,-0.0032100104505842953,34.125,-0.875,-179.875,-0.0078125,-0.9558715799999999,-0.2936401400000004,0.0012817400000000021
401.0,0.0051468924404649025,-0.0035806150481012063,-0.05224900450616628,-0.1500000000000002,0.02000000000000001,-9.799999999999999,6.411061596951761e-05,-0.003345227663091469,0.0033912529967725265,34.125,-0.875,-179.875,-0.0078125,-0.9558715799999999,-0.2936401400000004,0.0012817400000000021
402.0,0.006061349446038903,-0.0036073438143731837,-0.050630550640179905,-0.1500000000000002,0.02000000000000001,-9.799999999999999,-0.019168423522660405,0.006549412378131685,0.024676347264515296,34.11592741935483,-0.875,-179.875,-0.0078125,-0.9558883156451616,-0.2935953475806454,0.0012817400000000021
403.0,0.006383558398483773,-0.004301228114420219,-0.050850465935925716,-0.1500000000000002,0.02000000000000001,-9.799999999999999,0.003673363996245557,-0.0065157385812176375,0.11204491850029283,34.09602578201368,-0.875,-179.875,-0.0078125,-0.9559114523387093,-0.29351035039833817,0.0012817400000000021
404.0,0.007248591909882234,-0.004453306550080744,-0.05293247344053793,-0.1500000000000002,0.02000000000000001,-9.799999999999999,0.003250518522695942,0.013073933235223559,-0.03506699114057986,34.07825482649072,-0.875,-179.875,-0.007830918024813898,-0.9560146161197267,-0.2932064253480525,0.0013001550074441689
405.0,0.008698540706605225,-0.0037622560697482656,-0.05256256494979178,-0.1500000000000002,0.02000000000000001,-9.8,0.0438648658219743,0.007529546271741902,-0.04138689315547732,34.069369348729225,-0.875,-179.875,-0.007853213528535987,-0.9560691058017987,-0.2930452542869294,0.0013224468585607933
406.0,0.008235008271298597,-0.003338609621387977,-0.05205996615680537,-0.1500000000000002,0.02000000000000001,-9.8,0.045593762620703956,0.028338407386924558,-0.016883233493332025,34.064926609848484,-0.875,-179.875,-0.007864361280397029,-0.9560963506428347,-0.29296466875636795,0.0013335927841191053
407.0,0.008102879199653397,-0.0022642228854507724,-0.0501439263707734,-0.1500000000000002,0.02000000000000001,-9.8,0.03466014055894388,0.010844990943846302,0.05434165138249425,34.062988758553274,-0.875,-179.875,-0.007869935156327551,-0.9561034501973296,-0.2929442774234188,0.0013391657468982614
408.0,0.007440270678564126,-0.004298084387574503,-0.05163409858727235,-0.1500000000000002,0.02000000000000001,-9.8,0.021600302518616773,0.039546908173338974,-0.06440981552844195,34.0625,-0.875,-179.875,-0.007872722094292812,-0.9560810389696328,-0.2930120447552088,0.0013419522282878396
409.0,0.006171748242507869,-0.004332665022571371,-0.051382806117457505,-0.1500000000000002,0.02000000000000001,-9.8,0.01177719840571037,0.03739132009163226,-0.045984374265461675,34.0625,-0.875,-179.875,-0.007873540000000009,-0.9560669709984644,-0.2930540979979517,0.0013427699999999983
410.0,0.007225659067490494,-0.005714167783886829,-0.05026397582068757,-0.1500000000000002,0.02000000000000001,-9.799999999999999,0.03243084922650479,0.0553200333312196,0.040316826520975846,34.08205034213099,-0.875,-179.875,-0.007873540000000009,-0.9559982734366712,-0.293273493324489,0.0013384746334310837
411.0,0.006553276183869318,-0.006197034264151852,-0.050994270788755694,-0.1500000000000002,0.02000000000000001,-9.799999999999999,0.016479072255932297,0.012787187881490693,0.1944295050719023,34.17812194525904,-0.875,-179.875,-0.007873540000000009,-0.955762160428013,-0.29403074408159935,0.0013150290909090913
412.0,0.0072448920601886286,-0.007338148468481458,-0.049951820494224225,-0.1500000000000002,0.02000000000000001,-9.799999999999999,0.01249580852939984,0.00853773116552773,0.13209698499882877,34.25292746008472,-0.875,-179.86987967229902,-0.007873540000000009,-0.9555641067168225,-0.2946992312292277,0.0012974001906158371
413.0,0.006900281618023555,-0.008003101289391613,-0.04992648256761159,-0.1500000000000002,0.02000000000000001,-9.8,0.023238669093003768,-0.01644523431317786,0.14844963714041334,34.319004052623,-0.875,-179.8724398361495,-0.007873540000000009,-0.955368371261637,-0.2953126152920332,0.00128858574046921
414.0,0.007643689196108553,-0.008205179676953871,-0.05083017676767676,-0.1500000000000002,0.02000000000000001,-9.8,0.00805960672392124,-0.03197513731787925,0.07524863409440022,34.35204234889215,-0.875,-179.87371991807476,-0.007873540000000009,-0.9552705035340443,-0.2956193073234359,0.0012841785153958963
415.0,0.008256447101139066,-0.008220741209404617,-0.050681141297961085,-0.1500000000000002,0.02000000000000001,-9.8,-0.0005425429194681579,-0.01924837943726759,0.04042866940205485,34.367950548835125,-0.875,-179.87435995903735,-0.007873540000000009,-0.9552234938173643,-0.29576646330981177,0.0012821091330645182
416.0,0.008002680746599312,-0.008054151622072035,-0.051503915872305586,-0.1500000000000002,0.02000000000000001,-9.8,0.005652561511729941,-0.01861244188984968,0.02022354298266514,34.37320788530466,-0.875,-179.87467997951865,-0.007873540000000009,-0.9552062940911419,-0.2958198052688171,0.0012817400000000021
417.0,0.00784355550583737,-0.008658215280885166,-0.05211975501362728,-0.1500000000000002,0.02000000000000001,-9.8,0.006156216948704389,0.0065106682590611396,-0.011387696782329251,34.375,-0.875,-179.875,-0.007873540000000009,-0.9552002,-0.2958373999999999,0.0012817400000000021
