time,linaccel_x,linaccel_y,linaccel_z,gravity_x,gravity_y,gravity_z,gyro_x,gyro_y,gyro_z,euler_x,euler_y,euler_z,quaternion_w,quaternion_y,quaternion_x,quaternion_z
0.0,-0.004264705882352941,-0.08455882352941181,0.002647058823529409,-0.33985294117647047,-9.789999999999997,0.28044117647058825,-0.022058823529411766,-0.015625,-0.030330882352941176,4.374080882352941,-1.9908088235294117,88.3033088235294,0.7167977726470589,0.051049627941176456,-0.6948673027941178,-0.027430818382352947
1.0,-0.009216440422322777,-0.07916063348416293,0.03031825037707391,-0.33995098039215677,-9.789999999999997,0.2710188536953242,-0.07850678733031674,-0.00969551282051282,-0.04600773001508295,4.374693627450981,-1.9706542232277524,88.35623114630468,0.7164603845233787,0.051014064903469075,-0.6952166855467572,-0.027459162230015082
2.0,-0.009396331609566906,-0.07919384292178411,0.02156496444731739,-0.3394432773109243,-9.79,0.27016879444085307,-0.008534158855850033,-0.01978021978021978,-0.04929349143503555,4.374868697478991,-1.9517089528118938,88.36807227698772,0.7164177877421621,0.05098184710148676,-0.6952627162164675,-0.027498936491435047
3.0,-0.008194478560655034,-0.07894654468625059,0.018867882879647593,-0.3397401960784313,-9.79,0.2700787707390646,-0.026204829688285566,0.016166056166056163,-0.0388766452093658,4.374938725490196,-1.9441308446455503,88.37176706259427,0.7164246529463425,0.050972520647360506,-0.6952567129010188,-0.02751382902933637
4.0,-0.008364858742992786,-0.07872876170699061,0.016998473207232974,-0.3398742884250473,-9.79,0.27003811487374074,-0.020083246517599837,0.009937568160730506,-0.02938769453546785,4.374970351043643,-1.9407084732155888,88.37343567544883,0.7164277533611335,0.050968308700335745,-0.6952540017262997,-0.027520554691614386
5.0,-0.007226803034940266,-0.07937277668494616,0.015092486806923617,-0.33993951612903217,-9.79,0.26985065136476394,-0.018390392874172948,-0.005531887962645498,-0.015740737798139632,4.375,-1.9382444168734492,88.37537414702233,0.7164232855088402,0.050964959060794075,-0.6952589269471161,-0.027525256404156352
6.0,-0.006731267522432914,-0.0791789441737386,0.01344698782033526,-0.339969758064516,-9.79,0.2699848790322577,-0.012514054997880518,-0.008201738025987762,-0.0014575277080028197,4.375,-1.9375,88.37506300403226,0.7164292141985888,0.05096414463709681,-0.6952529367489927,-0.027526921522177443
7.0,-0.006480721126807856,-0.07874185783955745,0.01577188100694183,-0.33999999999999986,-9.790000000000001,0.2699999999999997,0.0032492309015973737,0.008168116202059882,0.0006436739820200961,4.375,-1.9375,88.375,0.7164306600000001,0.05096436000000003,-0.6952514600000008,-0.027526860000000025
8.0,-0.005539305115210082,-0.07947465684868876,0.01486213923825446,-0.33999999999999986,-9.790000000000003,0.2699999999999997,-0.008629460164879425,0.012160962119661327,0.006525072707773341,4.375,-1.9375,88.375,0.7164306600000001,0.05096436000000003,-0.6952514600000008,-0.027526860000000025
9.0,-0.006825707554960939,-0.07935789955073252,0.015733555076557167,-0.33999999999999986,-9.790000000000001,0.2699999999999997,-0.018196274238970647,0.02365550750086715,0.008129339632575195,4.375,-1.9375,88.375,0.7164306600000001,0.05096436000000003,-0.6952514600000008,-0.027526860000000025
10.0,-0.006264876306922355,-0.07926676339543795,0.01650733053367029,-0.33999999999999986,-9.79,0.2699999999999997,-0.014970512951538575,0.0044832837043506275,-0.000495622042391358,4.375,-1.9375,88.375,0.7164306600000001,0.05096436000000003,-0.6952514600000008,-0.027526860000000025
11.0,-0.010730084402821138,-0.07842214417851776,0.020253873280148,-0.33999999999999986,-9.79,0.2699999999999997,-0.03036922104950201,0.03723313130750045,-0.008613596431461937,4.375,-1.9375,88.375,0.7164306600000001,0.05098135965181772,-0.6952514600000008,-0.027526860000000025
12.0,-0.008915497122833233,-0.07772926894616541,0.022144306367121155,-0.33999999999999986,-9.79,0.2699999999999997,-0.0353549475801687,0.008817661600813913,0.014038683587412126,4.375,-1.9375,88.375,0.7164306600000001,0.05100435918074755,-0.6952514600000008,-0.027526860000000025
13.0,-0.008888194690614047,-0.07951743496199142,0.020021453680727885,-0.33999999999999986,-9.79,0.2699999999999997,-0.06290694912166686,-0.005596196618122022,0.0017201639366457907,4.375,-1.9375,88.375,0.7164306600000001,0.05101585894521246,-0.6952514600000008,-0.027526860000000025
14.0,-0.00575144134319174,-0.07951748433715647,0.01617404981762465,-0.33999999999999986,-9.79,0.2699999999999997,-0.02149367319912005,-0.021329288403587714,-0.017261581916526388,4.375,-1.9375,88.375,0.7164306600000001,0.051021608827444914,-0.6952514600000008,-0.027526860000000025
15.0,-0.005562711100521783,-0.07937452065532445,0.0132894354015454,-0.33999999999999986,-9.79,0.2699999999999997,0.004333513158209087,0.0004934853031098412,-0.009479337572938841,4.375,-1.9375,88.375,0.7164306600000001,0.05102448376856114,-0.6952514600000008,-0.027526860000000025
16.0,-0.003572958212831296,-0.07837578685489843,0.016347620532707795,-0.33999999999999986,-9.79,0.2699999999999997,0.04457414757520522,0.0026326184245274676,-0.017883156123505144,4.375,-1.9375,88.3705334987593,0.7164437457766748,0.05102538999999995,-0.6952383749379655,-0.027526860000000025
17.0,-0.0035870074022613216,-0.08098321880966323,0.016946322873413855,-0.33999999999999986,-9.790000000000001,0.2650884495317375,-0.08635376508216447,0.009935636035284624,0.05135869008841151,4.375,-1.9375,88.37276674937965,0.7163147519414075,0.05102538999999995,-0.6953668654398469,-0.027526860000000025
18.0,-0.005362372108708746,-0.07853564422305997,0.022218681149968583,-0.33999999999999986,-9.790000000000001,0.2623829344432881,-0.0684665010766685,0.027449256829726286,0.021303064962280516,4.375,-1.9375,88.37388337468983,0.7162466982287685,0.05102538999999995,-0.6954351756231498,-0.027526860000000025
19.0,-0.0058620427439366055,-0.07863059313215398,0.02219871127831587,-0.33999999999999986,-9.79,0.2610301768990633,-0.056708131553670056,0.019326823020891698,-0.0008833696870247341,4.375,-1.9375,88.3744416873449,0.716212671372449,0.05102538999999995,-0.6954693307148013,-0.027526860000000025
20.0,-0.004400752357828322,-0.07867230156824329,0.021496496133072626,-0.33999999999999986,-9.79,0.2603537981269509,-0.02984339186293531,0.017514744765004912,-0.0019467657840771784,4.375,-1.9375,88.37472084367245,0.7161956579442894,0.05102538999999995,-0.695486408260627,-0.027526860000000025
21.0,-0.0039423116627851276,-0.0785718827940472,0.02067504707398049,-0.33999999999999986,-9.79,0.2600156087408948,-0.03588168352451976,-0.005464091637348661,0.0014614806315346117,4.375,-1.9375,88.375,0.7161867422996884,0.05102538999999995,-0.6954953559417285,-0.027526860000000025
22.0,-0.0032822900665642595,-0.0790700204813108,0.01868039554531491,-0.33999999999999986,-9.79,0.2599999999999999,-0.021078849046338964,0.0010400665642601127,0.015461489535330261,4.375,-1.9375,88.375,0.7161865200000006,0.05102538999999995,-0.6954956100000012,-0.027526860000000025
23.0,-0.005354562046809706,-0.07718134218654507,0.02430231405777713,-0.33999999999999986,-9.79,0.25999999999999984,-0.012306077911566984,0.014395147095865746,0.007872503840245775,4.375,-1.9375,88.375,0.7161865200000006,0.05102538999999995,-0.6954956100000012,-0.027526860000000025
24.0,-0.004990626496869994,-0.07969303841897493,0.020788969203706466,-0.33999999999999986,-9.790000000000001,0.26341311134235146,0.06217788261029351,0.03149375753596617,0.01367952065061196,4.375,-1.9375,88.375,0.7162292001248699,0.05102538999999995,-0.6954529298751302,-0.027526860000000025
25.0,-0.00514642199631794,-0.07946997818778515,0.017687052249259594,-0.33999999999999986,-9.790000000000001,0.2668678459937562,0.04501672499099496,0.014498306551668933,-0.003534072830785241,4.375,-1.9375,88.375,0.7162708639334023,0.05102538999999995,-0.695411266066597,-0.027526860000000025
26.0,-0.0051393752326699795,-0.07959634022036466,0.0181906443401956,-0.33999999999999986,-9.79,0.26859521331945857,0.01441809471835974,0.019978967983975787,-0.008486466458915405,4.375,-1.9375,88.375,0.7162916958376686,0.05102538999999995,-0.6953904341623303,-0.027526860000000025
27.0,-0.004542973906657571,-0.07851288785211782,0.017535342331388128,-0.33999999999999986,-9.79,0.26945889698230974,0.006909778205954065,0.019944121088762087,0.002797467375381007,4.375,-1.9375,88.375,0.7163021117898016,0.05102538999999995,-0.695380018210197,-0.027526860000000025
28.0,-0.004490529617220565,-0.07812220875436275,0.014738014557993753,-0.33999999999999986,-9.79,0.2698907388137354,0.008072474951051954,0.01758132173064535,0.019039862719948567,4.375,-1.9375,88.375,0.7163073197658683,0.05102538999999995,-0.6953748102341304,-0.027526860000000025
29.0,-0.0056926080192209235,-0.07828995824963564,0.017902182047343347,-0.33999999999999986,-9.79,0.2699999999999997,-0.02623924854267596,0.002394122454606327,0.010763365778486744,4.375,-1.9375,88.375,0.7163085899999992,0.05102538999999995,-0.6953735399999992,-0.027526860000000025
30.0,-0.006460861495135689,-0.0781251280081925,0.018519329237071183,-0.33999999999999986,-9.79,0.2699999999999997,-0.016779673899129544,0.015744207629288277,-0.0120345702124936,4.375,-1.9375,88.375,0.7163085899999994,0.05102538999999995,-0.6953735399999992,-0.027526860000000025
31.0,-0.006835141449052741,-0.07792073092677929,0.01747779057859704,-0.33999999999999986,-9.79,0.2699999999999997,-0.013238147241423451,0.011072308627752176,-0.009905533954173068,4.375,-1.9375,88.375,0.7163085899999992,0.05102538999999995,-0.6953735399999992,-0.027526860000000025
32.0,-0.0069029537890425005,-0.07851681707629286,0.016531233998975943,-0.33999999999999986,-9.79,0.2699999999999997,-0.011139612935227854,0.012277585765488992,-0.014261612743215565,4.375,-1.9375,88.375,0.7163085899999992,0.05102538999999995,-0.6953735399999992,-0.027526860000000025
33.0,-0.0058757907602860785,-0.07954595081181967,0.017470871942255925,-0.33999999999999986,-9.790000000000001,0.2699999999999997,-0.019759432345605604,-0.008161090051698794,0.00012227879358472481,4.375,-1.9375,88.375,0.7163085899999994,0.05102538999999995,-0.6953735399999992,-0.027526860000000025
34.0,-0.005658193350180864,-0.08029549658920106,0.019469294550980305,-0.33999999999999986,-9.790000000000003,0.2699999999999997,-0.011601116665014947,-0.002863951034801712,0.0015740104140858561,4.375,-1.9375,88.375,0.7163085899999994,0.05102538999999995,-0.6953735399999992,-0.027526860000000025
35.0,-0.006100602051434519,-0.07985742571395536,0.01813787308194177,-0.33999999999999986,-9.790000000000001,0.2699999999999997,-0.007715880913152635,0.0011385889987281764,0.010414021336075186,4.375,-1.9375,88.375,0.7163085899999994,0.05102538999999995,-0.6953735399999992,-0.027526860000000025
36.0,-0.006847684703433925,-0.07938182882414149,0.01579539542143601,-0.33999999999999986,-9.790000000000001,0.2699999999999997,0.002025274778876171,-0.000583295395421436,0.013659680671175857,4.375,-1.9375,88.375,0.7163085899999994,0.05102538999999995,-0.6953735399999992,-0.027526860000000025
37.0,-0.00630983350676379,-0.08053850156087408,0.015970343392299694,-0.33999999999999986,-9.790000000000003,0.2699999999999997,-0.005089099895941727,-0.01664119406867846,0.010235106659729447,4.375,-1.9375,88.375,0.7163085899999995,0.05102538999999995,-0.6953735399999992,-0.027526860000000025
38.0,-0.006967691907468184,-0.0804996598094933,0.015711058192587855,-0.33999999999999986,-9.790000000000001,0.2699999999999997,0.0003758354678620032,-0.011355546606099415,-0.009022114884335228,4.375,-1.9375,88.375,0.7163085899999994,0.05102538999999995,-0.6953735399999992,-0.027526860000000025
39.0,-0.005892794965180502,-0.07981798807332108,0.016333676859041073,-0.33999999999999986,-9.790000000000001,0.2699999999999997,0.0044315441647322495,0.0005332048447130398,-0.00039750385215720895,4.375,-1.9375,88.375,0.7163085899999994,0.05102538999999995,-0.6953735399999992,-0.027526860000000025
40.0,-0.005971169428650537,-0.07788840307949502,0.016778849270345498,-0.33999999999999986,-9.790000000000003,0.2699999999999997,0.008095804142122867,0.00969086950987635,-0.004184015179648145,4.375,-1.9375,88.375,0.7163085899999995,0.05102538999999995,-0.6953735399999992,-0.027526860000000025
41.0,-0.005443961405272198,-0.0782366052858453,0.019057999036837685,-0.33999999999999986,-9.790000000000001,0.2699999999999997,0.013949697076264346,0.001853759416748789,0.009744620922142629,4.375,-1.9375,88.375,0.7163085899999994,0.05102538999999995,-0.6953735399999992,-0.027526860000000025
42.0,-0.005883911383817561,-0.07861586127575705,0.018400367484479842,-0.33999999999999986,-9.79,0.2699999999999997,0.011636459040013227,-0.0045244230211541414,0.01569286997439878,4.375,-1.9375,88.375,0.7163085899999992,0.05102538999999995,-0.6953735399999992,-0.027526860000000025
43.0,-0.005605825871907994,-0.07872700976663508,0.017879414905342055,-0.33999999999999986,-9.79,0.2699999999999997,-0.0024518382258675846,-0.0067619456474079815,0.002648317692307901,4.375,-1.9375,88.375,0.7163085899999992,0.05102538999999995,-0.6953735399999992,-0.027526860000000025
44.0,-0.006377474690536565,-0.07945591663389787,0.01708082647932596,-0.33999999999999986,-9.79,0.2699999999999997,-0.0038373815318884065,0.00386808664960106,0.007645698908588914,4.375,-1.9375,88.375,0.7163085899999992,0.05102538999999995,-0.6953735399999992,-0.027526860000000025
45.0,-0.006297161619742265,-0.07979141680452165,0.01991478626660078,-0.33999999999999986,-9.789999999999997,0.26851417399804467,-0.007965575531099726,-0.010093623614288937,-0.0009490565438146081,4.375,-1.9487414467253177,88.3789100684262,0.716284725835777,0.05103589150537627,-0.6953974040078197,-0.02751540381231673
46.0,-0.009358258229225973,-0.07749903501516403,0.02493975200426813,-0.33999999999999986,-9.79,0.2676441837732158,0.03300057916993401,-0.018561176726499307,0.029893415276479793,4.375,-1.9617699169110459,88.37997922776148,0.7162971515469209,0.05104147043010747,-0.6953835003910067,-0.02749898069648095
47.0,-0.0098974913974914,-0.07749393438103114,0.02203067004679908,-0.33999999999999986,-9.79,0.2739833822091885,-0.002001571457216616,-0.018523764541909703,-0.003756766307169531,4.375,-1.981893022971652,88.34523154936461,0.7164841286990187,0.05106493473118273,-0.6951909574759004,-0.02748141583211143
48.0,-0.008752518986389958,-0.07654156327543424,0.018041488081810667,-0.33999999999999986,-9.79,0.27715298142717487,0.005706843559666142,0.004777908583352131,-0.00468003938266035,4.375,-1.991954576001955,88.32785771016617,0.7165853709624126,0.051076666881720356,-0.6950932319637566,-0.02747263339992667
49.0,-0.007375274814790947,-0.07736712257276773,0.016376764364667597,-0.33999999999999986,-9.79,0.27873778103616803,0.003955030744345261,0.021613569282420086,-0.01739058292737728,4.375,-1.9969853525171066,88.31917079056696,0.7166359920941094,0.05108253295698917,-0.6950443692076849,-0.027468242183834292
50.0,-0.00745840964590965,-0.07828033547993227,0.013711353834337713,-0.33999999999999986,-9.79,0.2795766129032257,-0.0074158130735751705,0.008149160007778957,-0.00753448989966127,4.375,-1.999149445564516,88.31470514112902,0.7166620484150898,0.05108513782258057,-0.6950191920794044,-0.027466404581653205
51.0,-0.008455709165386589,-0.07699244751664107,0.015825977785655213,-0.33999999999999986,-9.79,0.2799999999999999,0.003563243432195046,0.016906805112450275,-0.007705723935562646,4.375,-2.0,88.3125,0.7166743153945407,0.05108642999999992,-0.6950074108784119,-0.02746581999999998
52.0,-0.006273583047776599,-0.07714319685690652,0.019074830635314514,-0.3404096262160778,-9.79,0.2799999999999999,-0.014541638357162552,-0.010197144924967507,-0.0017429423175390915,4.366295442908346,-2.001536098310292,88.3125,0.7166738000204813,0.051082429344598015,-0.69500732,-0.027425817296466957
53.0,-0.005031332466816337,-0.07718946443341604,0.021728482315175872,-0.3453661034306197,-9.79,0.2799999999999999,-0.008480496597936114,-0.0176295898322108,-0.04513325775926583,4.306131592421915,-2.0330261136712746,88.3125,0.7166743000102405,0.05121782007552485,-0.69500732,-0.027099294777265748
54.0,0.0003186678912485371,-0.07737167212268017,0.0200103101423666,-0.3478443420378906,-9.789999999999997,0.2799999999999999,0.028474572722304574,-0.013821660810068068,-0.0074398425834917795,4.276049667178699,-2.0487711213517663,88.3125,0.7166745500051201,0.05127813277969794,-0.69500732,-0.026936033517665145
55.0,0.0012480436230436235,-0.07740811428714656,0.01772440910344137,-0.3490834613415261,-9.79,0.2799999999999999,0.018064781320829705,0.007296578869159514,0.0022969637888992723,4.261008704557091,-2.056643625192012,88.3125,0.7166746750025601,0.051308289131784486,-0.69500732,-0.026854402887864844
56.0,0.0011055689382302289,-0.07803620886282175,0.020200303728529545,-0.3497030209933438,-9.79,0.2799999999999999,-0.00044784684401619895,0.024253915886980403,-0.004902859237536656,4.253488223246287,-2.060579877112135,88.3125,0.7166747375012799,0.05132336730782776,-0.69500732,-0.02681358757296469
57.0,0.0014953580245918958,-0.07667949322183192,0.021890612299886508,-0.35000000000000026,-9.79,0.2799999999999999,0.02958450739448723,0.018178052905875486,-0.005477100184761475,4.25,-2.0625,88.3125,0.7166747999999998,0.051331031416330705,-0.69500732,-0.026794430000000022
58.0,0.0017490994668414024,-0.07658647803809093,0.02048877511377513,-0.3500000000000003,-9.789999999999997,0.2799999999999999,0.0006497576684068602,0.012399601966134224,0.004023882703318187,4.25,-2.0625,88.3125,0.7166747999999998,0.05133057000000006,-0.69500732,-0.026794430000000022
59.0,0.0017567589220815025,-0.07768717841298484,0.017128551779761466,-0.35000000000000026,-9.79,0.2799999999999999,-0.0042266851931670475,0.007849361100369165,0.0015537302079640788,4.25,-2.0625,88.3125,0.7166747999999998,0.05133057000000006,-0.69500732,-0.026794430000000022
60.0,0.002486642389868196,-0.07716348167961071,0.017656777810003625,-0.35000000000000026,-9.79,0.2799999999999999,-0.002223599653035137,0.024989028668464152,-0.015797195635905315,4.25,-2.0625,88.3125,0.7166747999999998,0.05133057000000006,-0.69500732,-0.026794430000000022
61.0,0.003980218937034754,-0.0768566033342308,0.016956000685058967,-0.3500000000000002,-9.79,0.2799999999999999,0.013224085412073185,0.010797889621218184,-0.004584837350185946,4.25,-2.0625,88.3125,0.7166747999999998,0.051330570000000054,-0.69500732,-0.026794430000000022
62.0,0.004247319735775239,-0.07774124150358774,0.017067147314013847,-0.3500000000000002,-9.790000000000001,0.2799999999999999,0.03478217043658209,0.013689480953472045,0.004146482191359454,4.25,-2.0625,88.3125,0.7166747999999998,0.051330570000000054,-0.6950073199999999,-0.026794430000000022
63.0,0.0033648058187109894,-0.07924444585142541,0.017672343489325143,-0.3500000000000002,-9.790000000000001,0.2799999999999999,0.017834022657196226,-0.006150127558454593,0.012327066571279396,4.25,-2.0625,88.3125,0.7166747999999998,0.05133057000000006,-0.69500732,-0.026794430000000022
64.0,0.004076403398114048,-0.07768735000293656,0.016823021084838526,-0.35000000000000026,-9.79,0.27968719452590407,-0.015410659278684388,0.009585405581720895,0.0076298089454637456,4.25,-2.0625,88.31396627565982,0.7166709816617789,0.05133057000000006,-0.6950111384946235,-0.026794430000000022
65.0,0.0018257080994666494,-0.07792969650684461,0.011345458315076712,-0.35000000000000026,-9.79,0.2816984359726292,0.061851121973561025,-0.00041563054247288535,0.02600032433960335,4.25,-2.0625,88.3006323313783,0.7168092387341152,0.05133057000000006,-0.6948728854569896,-0.02681362806451616
66.0,0.0017798595728262569,-0.08235446643960659,0.00231060636877665,-0.35000000000000026,-9.79,0.28656633957440386,0.07664041130295757,-0.028959416167738485,0.06898201200570978,4.25,-2.0625,88.26934532201669,0.7170143937591174,0.05133008531513654,-0.6946570709865594,-0.02682341642679904
67.0,0.000972607355732055,-0.07981441484209897,-0.004286262124971804,-0.3500000000000003,-9.789999999999997,0.29745745962831893,0.08844644186859521,-0.06481633799617972,0.09784589996245929,4.25,-2.0625,88.20137042220237,0.7173683787187501,0.051291301061516234,-0.6942933728067124,-0.026866755548498225
68.0,4.337563816379444e-05,-0.07973599154015618,-0.007438416422287391,-0.35000000000000026,-9.79,0.297599697556095,-0.01777274680763788,-0.006299298030347927,0.07279081598619241,4.25,-2.0625,88.20048359819796,0.7174089686335687,0.051273032708177436,-0.6942501755162592,-0.026893596645216858
69.0,-0.0023567992852116582,-0.0773087431946965,-0.00476985111662531,-0.35000000000000026,-9.79,0.2942885321376985,0.014209818039146695,0.007867626719843708,0.024935194819173355,4.25,-2.0625,88.21972141222778,0.7173037158383653,0.05127029683795965,-0.6943514125095773,-0.02690120192806749
70.0,-0.0010192909521869558,-0.07598841709566312,-0.0021775952742491018,-0.3500000000000003,-9.789999999999997,0.2938653105440538,-0.025400940011481056,0.035370709649642604,0.008420058516351248,4.25,-2.0625,88.22269128921151,0.7172896759494694,0.05126093652923497,-0.6943639069404604,-0.026909279616236445
71.0,-0.0020140765289116272,-0.07936464456342884,-0.003122079767180873,-0.35000000000000026,-9.79,0.28732747192490804,0.00173023817496765,0.046234628132159124,0.008089908339667606,4.25,-2.0625,88.26415050103964,0.7170892370174304,0.0512642638948904,-0.6945779522418637,-0.026886753386242628
72.0,-0.003223834467771034,-0.07816907438907317,0.0027784378429840636,-0.35000000000000026,-9.79,0.28322078940491907,0.00541466398970085,0.04055508679995244,-0.03480744283133547,4.25,-2.0625,88.2911237579825,0.7169916632294663,0.05126713201244276,-0.6946834665879518,-0.026870288948778534
73.0,-0.0007258672959202566,-0.08028064451463585,0.0036893895170255304,-0.35000000000000026,-9.79,0.281333176960524,-0.019672911879219053,0.018977964073053143,-0.022626271043459295,4.25,-2.0625,88.30357599189448,0.7169471389156403,0.05126853095329796,-0.6947318908922624,-0.026861895119550578
74.0,-0.0009463752959179051,-0.0795668061676728,0.006457322274366087,-0.35000000000000026,-9.79,0.28049537259936863,0.010971029585617933,0.01732480660622211,0.011573006114411985,4.25,-2.0625,88.30918563862713,0.7169288038548425,0.05126903047664895,-0.6947522607017145,-0.02685787993198375
75.0,-0.001297254716609555,-0.07798337862853989,0.007315294024971445,-0.35000000000000026,-9.79,0.2800358422939067,-0.04886614281775572,0.020485249517507582,-0.021245913584623265,4.25,-2.0625,88.31221198156682,0.7169182936149514,0.051269529999999924,-0.6947637738607275,-0.026855719994879713
76.0,-0.0007613533419985031,-0.07775453936744257,0.007218007798652961,-0.35000000000000026,-9.79,0.2799999999999999,-0.03187699397376817,0.0237706290125645,-0.018243136791523888,4.25,-2.0625,88.3125,0.7169189499999999,0.051269529999999924,-0.6947631800000005,-0.02685547000000004
77.0,-0.001540430895269605,-0.07736933317578477,0.006345819055496475,-0.35000000000000026,-9.79,0.2799999999999999,-0.02329896805703257,0.011901315530347789,-0.006433396352751193,4.25,-2.0625,88.3125,0.7169189499999999,0.051269529999999924,-0.6947631800000005,-0.02685547000000004
78.0,-0.0005477708786761856,-0.07756523970884012,0.0066855165877018116,-0.3500000000000002,-9.79,0.2799999999999999,0.011482970145821343,0.00284441827105719,-0.013482947275871314,4.25,-2.0625,88.3125,0.7169189499999999,0.051269529999999924,-0.6947631800000004,-0.02685547000000004
79.0,0.00014982167791741157,-0.07678697213296587,0.008521969763384957,-0.35000000000000026,-9.79,0.2799999999999999,-0.020636203099132337,0.003182321782738016,0.0026351264644708973,4.25,-2.0625,88.3125,0.7169189499999999,0.051269529999999924,-0.6947631800000004,-0.02685547000000004
80.0,0.0003387258769672926,-0.07757892070353048,0.009214862545247563,-0.35000000000000026,-9.79,0.2799999999999999,0.01622390483114989,0.015086916927447624,-0.0295961690927872,4.25,-2.0625,88.3125,0.7169189499999999,0.051269529999999924,-0.6947631800000004,-0.02685547000000004
81.0,0.003643389704948277,-0.07679600959311086,0.011013321521983099,-0.3500000000000002,-9.790000000000001,0.2799999999999999,-0.010708472268149579,0.012910734630180307,0.037787797974047355,4.25,-2.0625,88.3125,0.7169189499999999,0.051269529999999924,-0.6947631800000004,-0.02685547000000004
82.0,0.004024509380991061,-0.0778639215829717,0.011327564911760426,-0.3500000000000002,-9.790000000000003,0.2799999999999999,0.009437936371417172,0.014243736738475184,0.026650266362277627,4.25,-2.0625,88.3125,0.7169189499999999,0.051269529999999924,-0.6947631800000003,-0.02685547000000004
83.0,0.0032333289682815666,-0.07790075156828911,0.010958985865027433,-0.3500000000000002,-9.790000000000001,0.2799999999999999,-0.002636599344806914,0.034357159814986896,0.02593910176545079,4.25,-2.0625,88.3125,0.7169189499999999,0.051269529999999924,-0.6947631800000003,-0.02685547000000004
84.0,0.002365565528561725,-0.0769827082140758,0.011659011044623715,-0.3500000000000002,-9.790000000000001,0.2799999999999999,0.013234340712974649,0.029278452660005345,-0.003210091171743139,4.25,-2.0625,88.3125,0.7169189499999999,0.051269529999999924,-0.6947631800000003,-0.02685547000000004
85.0,0.0025905311033507417,-0.0776861832113363,0.01149795985673914,-0.3500000000000002,-9.790000000000003,0.2799999999999999,-0.0071655479657731416,0.022529644964437955,0.00042809297172068214,4.25,-2.0625,88.3125,0.7169189499999999,0.051269529999999924,-0.6947631800000003,-0.02685547000000004
86.0,0.002719115366588115,-0.07930977589969246,0.010948609753858729,-0.3500000000000002,-9.790000000000001,0.2799999999999999,-0.01861285066189239,0.016123362937004806,-0.005454250711389792,4.25,-2.0625,88.3125,0.7169027061290323,0.051273960322580595,-0.6947759779838709,-0.02685547000000004
87.0,0.0017834712653762147,-0.07991887387720366,0.016185658790676623,-0.3500000000000002,-9.79,0.2799999999999999,-0.0031052542624494233,-0.0029348932800234376,0.03031111812414588,4.25,-2.0625,88.3125,0.7167848151612903,0.051303249677419366,-0.6948920868055555,-0.02685547000000004
88.0,-0.0005004478932870629,-0.07813127009985858,0.02078477872927602,-0.3500000000000002,-9.790000000000001,0.2799999999999999,-0.060572535552904684,-0.035102386161386986,-0.004794832517086487,4.25,-2.0625,88.3125,0.7167258696774192,0.051317894354838745,-0.6949536411447131,-0.02685547000000004
89.0,0.001807144573170187,-0.07879610706507745,0.020433415618028437,-0.3500000000000002,-9.790000000000003,0.2799999999999999,-0.003660783734897269,-0.012208077985420469,-0.0013813554612180528,4.25,-2.0625,88.3125,0.7166963969354838,0.051325216693548434,-0.694984418314292,-0.02685547000000004
90.0,0.0027141862303936264,-0.07756922939101946,0.01898621873513285,-0.3500000000000002,-9.790000000000001,0.2799999999999999,0.0010962470503453306,0.002204363712804854,-0.009291744327903511,4.25,-2.0625,88.3125,0.7166816605645161,0.051328877862903285,-0.6949998068990815,-0.02685547000000004
91.0,0.0025380886989141713,-0.0771335090247468,0.01743485763945583,-0.3500000000000002,-9.79,0.2799999999999999,0.005132666935950955,-0.004175655925215597,-0.002983765789143768,4.25,-2.0625,88.3125,0.7166747999999998,0.05133057000000006,-0.6950071012544803,-0.02685547000000004
92.0,0.0022367862849409564,-0.07855907402082193,0.017962180483834425,-0.35000000000000026,-9.79,0.2799999999999999,-0.002249974775752121,-0.022233117261122905,0.010780902563697443,4.25,-2.0625,88.3125,0.7166747999999998,0.05133057000000006,-0.69500732,-0.02685547000000004
93.0,0.0020341479323659345,-0.0780672358266661,0.017313677802426514,-0.35000000000000026,-9.79,0.2799999999999999,-0.011681062724490794,-0.01654358136985283,0.007987011913179316,4.25,-2.0625,88.3125,0.7166747999999998,0.05133057000000006,-0.69500732,-0.02685547000000004
94.0,0.0014435890050809403,-0.07707781790342272,0.017430561709795588,-0.35000000000000026,-9.79,0.2799999999999999,0.006626847195143564,0.01612693212365591,0.007049443472074519,4.25,-2.0625,88.3125,0.7166747999999998,0.05133057000000006,-0.69500732,-0.02685547000000004
95.0,0.0033713929292987993,-0.07775075949375262,0.017996621745960728,-0.3500000000000002,-9.79,0.2799999999999999,0.01222462096338352,0.012026264762912037,0.011195979089950533,4.25,-2.0625,88.3125,0.7166747999999998,0.051330570000000054,-0.69500732,-0.02685547000000004
96.0,0.0034787196052271712,-0.07809411684282463,0.01840146235209439,-0.3500000000000002,-9.790000000000001,0.2799999999999999,0.008585759104984296,0.008254308074764906,0.0039891123832885315,4.25,-2.0625,88.3125,0.7166747999999998,0.051330570000000054,-0.6950073199999999,-0.02685547000000004
97.0,0.003724766868665813,-0.07807931648592845,0.01744957910231448,-0.3500000000000002,-9.790000000000001,0.2799999999999999,0.008469146833598139,-0.004305385645157228,0.00813094892077893,4.25,-2.0625,88.3125,0.7166747999999998,0.05133057000000006,-0.69500732,-0.02685547000000004
98.0,0.0031254107296182663,-0.07835355402460195,0.016435707665301162,-0.3500000000000002,-9.79,0.2799999999999999,0.011174709893225868,0.005609403951614935,0.004507471978999887,4.25,-2.0625,88.3125,0.7166747999999998,0.05133057000000006,-0.69500732,-0.02685547000000004
99.0,0.001631955698469832,-0.07873055304413093,0.01504102625339043,-0.3500000000000002,-9.790000000000001,0.2799999999999999,0.010988356348407568,-0.0053668373961549614,0.01167650298101363,4.25,-2.0625,88.3125,0.7166747999999998,0.051330570000000054,-0.6950073199999999,-0.02685547000000004
100.0,0.0023442697582777504,-0.07866591110694117,0.016334632640180147,-0.35000000000000026,-9.790000000000001,0.2799999999999999,0.0016850163550604738,-0.011888204525681921,0.004598827905102267,4.25,-2.0625,88.3125,0.7166747999999998,0.05133057000000006,-0.69500732,-0.02685547000000004
101.0,0.0022618562342088255,-0.07722891379802405,0.0160580716510119,-0.35000000000000026,-9.79,0.2799999999999999,-0.009479442749909764,-0.008569302533722813,0.003372256808042272,4.25,-2.0625,88.3125,0.7166747999999998,0.05133057000000006,-0.69500732,-0.02685547000000004
102.0,0.001817143647801603,-0.07781223265343451,0.017418506429043936,-0.3500000000000002,-9.790000000000001,0.2799999999999999,-0.014230973976411699,-0.0013996763058832583,-0.005802713785104774,4.25,-2.0625,88.3125,0.7166747999999998,0.051330570000000054,-0.6950073199999999,-0.02685547000000004
103.0,0.002239216985191124,-0.0783642816492979,0.019104918537102618,-0.35000000000000026,-9.790000000000001,0.2799999999999999,-0.012864604931754236,-0.011016748435199694,-0.014005817578036258,4.25,-2.0625,88.3125,0.7166747999999998,0.05133057000000006,-0.69500732,-0.02685547000000004
104.0,0.0019234160018499246,-0.0777463925433163,0.01973358036849843,-0.35000000000000026,-9.79,0.2799999999999999,0.001954463795360322,0.0037955654968369577,-0.0007479510946765116,4.25,-2.0625,88.3125,0.7166747999999998,0.05133057000000006,-0.69500732,-0.02685547000000004
105.0,0.002326497282922881,-0.07939535743190788,0.018905633186330383,-0.3500000000000002,-9.790000000000001,0.2799999999999999,-0.002034259224848455,0.00634363179888674,-0.003984513073352824,4.25,-2.0625,88.3125,0.7166747999999998,0.051330570000000054,-0.6950073199999999,-0.02685547000000004
106.0,0.0025657987325361222,-0.07908735244195766,0.017827154518005497,-0.3500000000000002,-9.790000000000003,0.2799999999999999,0.008821664004793504,0.021760546561812318,0.008023335280872044,4.25,-2.0625,88.3125,0.7166747999999998,0.051330570000000054,-0.6950073199999999,-0.02685547000000004
107.0,-3.0836325719452076e-05,-0.07739227143429828,0.02522471149417445,-0.3500000000000002,-9.790000000000001,0.2799999999999999,-0.00840134281550127,0.0395288164650893,-0.028018769404309037,4.25,-2.0625,88.3125,0.7166747999999998,0.05133057000000006,-0.69500732,-0.02685547000000004
108.0,0.00010054802820727156,-0.07760211431516403,0.02744594755850163,-0.3500000000000002,-9.79,0.2799999999999999,-0.04025569816023202,0.002213423431055815,-0.011181472946571392,4.25,-2.0625,88.3125,0.7166747999999998,0.05133057000000006,-0.69500732,-0.02685547000000004
109.0,0.000762399590140502,-0.07769946665578989,0.026096285671211906,-0.35000000000000026,-9.79,0.2799999999999999,-0.031148304389255796,-0.025802510474692262,-0.0170602205202647,4.25,-2.0625,88.3125,0.7166747999999998,0.05133057000000006,-0.69500732,-0.02685547000000004
110.0,0.0012240718033949128,-0.0783502536192581,0.025418069994815117,-0.35000000000000026,-9.79,0.2799999999999999,-0.012956436273712185,-0.005974876465233749,-0.03815419975024681,4.25,-2.0625,88.3125,0.7166747999999998,0.05133057000000006,-0.69500732,-0.02685547000000004
111.0,-0.0024167848280751514,-0.07822853770333608,0.0269554654574816,-0.35000000000000026,-9.79,0.2799999999999999,0.025482384718775848,-0.01566261009935405,-0.028463667828587183,4.25,-2.0625,88.3125,0.7166747999999998,0.05132613967741939,-0.69500732,-0.02685547000000004
112.0,-0.0034157285222581784,-0.07526972215551818,0.029691149742268386,-0.3500000000000002,-9.79,0.2799999999999999,0.039685578090397286,-0.01757406568313176,-0.05224562163541742,4.25,-2.0625,88.3125,0.7166747999999998,0.05130548865764831,-0.69500732,-0.026864106919875157
113.0,-0.0010468540954363013,-0.07675388773268585,0.028190568067324066,-0.3500000000000002,-9.790000000000001,0.2799999999999999,0.038144538024627125,0.03443517159291743,-0.046491717405397814,4.25,-2.0625,88.3125,0.7166747999999998,0.05131802932882418,-0.6950073199999999,-0.02689128781477629
114.0,-0.00022885065636756577,-0.0767452923637237,0.026482577743536392,-0.3500000000000002,-9.790000000000001,0.2799999999999999,0.02536362550528296,0.014575693638437522,-0.012968277860601934,4.25,-2.0625,88.3125,0.7166747999999998,0.05132429966441212,-0.69500732,-0.02690487826222686
115.0,0.000334279696630113,-0.07830836268310254,0.023644630993356293,-0.3500000000000002,-9.79,0.2799999999999999,0.03344673016889458,0.007067332706315536,0.002385617195629552,4.25,-2.0625,88.3125,0.7166747999999998,0.05132743483220609,-0.69500732,-0.026911673485952144
116.0,-0.00015584727447370508,-0.07835195709597376,0.021608020491475238,-0.3500000000000002,-9.790000000000001,0.2799999999999999,0.01935734011046186,-0.008055010806051388,0.0030372008324661814,4.25,-2.0625,88.3125,0.7166747999999998,0.05132914086368372,-0.6950073199999999,-0.026915071097814783
117.0,0.0002380914264369,-0.07692241496507884,0.021341025259859814,-0.35000000000000026,-9.790000000000001,0.2799999999999999,0.017041980016745888,-0.019624116489361024,-0.005966523793006622,4.25,-2.0625,88.3125,0.7166747999999998,0.05133057000000006,-0.69500732,-0.02691650000000001
118.0,0.0005014598651435281,-0.07897369447525532,0.020964477250117217,-0.35000000000000026,-9.79,0.2799999999999999,0.03621024599172362,-0.04743562744343181,0.024364552879771403,4.25,-2.0625,88.3125,0.7166747999999998,0.05133057000000006,-0.69500732,-0.02691650000000001
119.0,-0.0014796257332677723,-0.07740890009516438,0.03056404570686568,-0.35000000000000026,-9.79,0.2799999999999999,-0.013314980198434936,-0.03282584278942239,-0.006049044210789787,4.25,-2.0625,88.3125,0.7166747999999998,0.05133057000000006,-0.69500732,-0.02691650000000001
120.0,-0.0031305332573542777,-0.07641302462712452,0.03337773359430487,-0.35000000000000026,-9.79,0.2799999999999999,-0.0037246254728044536,-0.014876823084419337,-0.017097545855837996,4.25,-2.0625,88.3125,0.7166747999999998,0.05133057000000006,-0.69500732,-0.02691650000000001
121.0,-0.0038549888731340357,-0.07529456162117451,0.03383787023907992,-0.35000000000000026,-9.79,0.2799999999999999,0.009934543503091888,-0.009049563787467014,-0.001649659424357004,4.25,-2.0625,88.3125,0.7166747999999998,0.05133057000000006,-0.69500732,-0.02691650000000001
122.0,-0.003709368476505574,-0.0765118481428965,0.034879764612627526,-0.35000000000000026,-9.79,0.2799999999999999,-0.008393583343180116,-0.020157782405766277,-0.004585070367580448,4.25,-2.0625,88.3125,0.7166747999999998,0.05133057000000006,-0.69500732,-0.02691650000000001
123.0,-0.004405624547612914,-0.07697163335225207,0.0315732360212794,-0.3500000000000002,-9.79,0.2799999999999999,0.01818926398679175,0.0021604167029867713,0.0011032272269712782,4.25,-2.0625,88.3125,0.7166747999999998,0.051330570000000054,-0.69500732,-0.02691650000000001
124.0,-0.0013297964007905844,-0.07732350228800519,0.02989312082681994,-0.35000000000000026,-9.79,0.2799999999999999,0.053593479919663164,0.030554094680218424,0.01954482917928185,4.25,-2.0625,88.3125,0.7166747999999998,0.05133057000000006,-0.69500732,-0.02691650000000001
125.0,-0.0004293631261505403,-0.07712053250600975,0.02799955580511505,-0.35000000000000026,-9.79,0.2799999999999999,0.04936618440427602,0.004140334590493237,0.027845571271668573,4.25,-2.0625,88.3125,0.7166747999999998,0.05133057000000006,-0.69500732,-0.02691650000000001
126.0,-0.00022336642659884326,-0.0777649808932034,0.02619580767923247,-0.35000000000000026,-9.79,0.2799999999999999,0.02884717408799409,-0.011980701191105739,0.024794373725164312,4.25,-2.0625,88.3125,0.7166747999999998,0.05133057000000006,-0.69500732,-0.02691650000000001
127.0,-0.00013688482620264746,-0.07714609931756944,0.025670988517035594,-0.35000000000000026,-9.79,0.2799999999999999,0.016345210027868012,-0.019599221563294807,0.0024425497658079626,4.25,-2.0625,88.3125,0.7166747999999998,0.05133057000000006,-0.69500732,-0.02691650000000001
128.0,0.0010431387608806964,-0.0773422397494978,0.02477044930875577,-0.35000000000000026,-9.79,0.2799999999999999,-0.004465193464689432,-0.01759081812005199,0.0010890697004608298,4.25,-2.0625,88.3125,0.7166747999999998,0.05133057000000006,-0.69500732,-0.02691650000000001
129.0,0.0008289542143600417,-0.07696134335227726,0.02499411420395423,-0.3500000000000002,-9.79,0.2799999999999999,0.0005696471273913387,-0.0039842624369647,-0.0015923761056191466,4.25,-2.0625,88.3125,0.7166747999999998,0.051330570000000054,-0.69500732,-0.02691650000000001
130.0,0.0004926834027055151,-0.07811484181141437,0.02480788241415194,-0.3500000000000002,-9.790000000000001,0.2799999999999999,0.0032180677429360437,0.00719934413271432,-0.0023880560613943804,4.25,-2.0625,88.3125,0.7166747999999998,0.051330570000000054,-0.6950073199999999,-0.02691650000000001
131.0,0.0009746683142559834,-0.07747223945409429,0.02571543314255985,-0.3500000000000002,-9.790000000000001,0.2799999999999999,0.008523726411790602,-0.0015036545465460663,-2.8453433922996825e-05,4.25,-2.0625,88.3125,0.7166747999999998,0.05133057000000006,-0.69500732,-0.02691650000000001
132.0,0.0007317898022892822,-0.07790446650124071,0.025269510926118642,-0.3500000000000002,-9.79,0.2799999999999999,-0.003345873689265989,-0.0008148313055310976,0.003324986992715921,4.25,-2.0625,88.3125,0.7166747999999998,0.05133057000000006,-0.69500732,-0.02691650000000001
133.0,0.0004155620798440778,-0.07874615975422428,0.024782220900847345,-0.35000000000000026,-9.79,0.2799999999999999,-0.006421056108881291,-0.005295113080785558,0.0037106245767471054,4.25,-2.0625,88.3125,0.7166747999999998,0.05133057000000006,-0.69500732,-0.02691650000000001
134.0,0.0010166276448144293,-0.0784446075516575,0.025008795401615394,-0.35000000000000026,-9.79,0.2799999999999999,-0.0028285681251342025,-0.0038504722366747603,0.0013920568335728325,4.25,-2.0625,88.3125,0.7166747999999998,0.05133057000000006,-0.69500732,-0.02691650000000001
135.0,0.0010702284946236557,-0.07754176267281107,0.02444508448540708,-0.35000000000000026,-9.79,0.2799999999999999,-0.007072452636968766,-0.012282286066308244,-0.006327904985919099,4.25,-2.0625,88.3125,0.7166747999999998,0.05133057000000006,-0.69500732,-0.02691650000000001
136.0,0.0011784057405480404,-0.07782232514493831,0.025696300047073996,-0.3500000000000002,-9.79,0.2799999999999999,-0.00791907133669458,-0.019495457386692103,-0.0032112055171530977,4.25,-2.0625,88.3125,0.7166747999999998,0.051330570000000054,-0.69500732,-0.02691650000000001
137.0,0.0010731938456964472,-0.07517032315874667,0.025145857076788413,-0.35000000000000026,-9.79,0.2799999999999999,-0.012427827639033414,-0.002051486133822243,-0.007332469278033793,4.25,-2.0625,88.3125,0.7166747999999998,0.05133057000000006,-0.69500732,-0.02691650000000001
138.0,0.0006134412254989778,-0.07695760633891487,0.026315218506490635,-0.35000000000000026,-9.79,0.2799999999999999,-0.007046459410126813,-0.012776402801441824,-0.007204184144708338,4.25,-2.0625,88.3125,0.7166747999999998,0.05133057000000006,-0.69500732,-0.02691650000000001
139.0,0.0009470919190937401,-0.07592887997437295,0.025404029153151174,-0.3500000000000002,-9.790000000000001,0.2799999999999999,-0.00822185299759929,0.005610502000167712,-0.013471626948392688,4.25,-2.0625,88.3125,0.7166747999999998,0.051330570000000054,-0.6950073199999999,-0.02691650000000001
140.0,-0.00021006811433450345,-0.07776762351996484,0.02588562865045697,-0.3500000000000002,-9.790000000000003,0.2799999999999999,0.005947870490014091,0.006762310703517779,-0.009116756177109974,4.25,-2.0625,88.3125,0.7166747999999998,0.051330570000000054,-0.6950073199999999,-0.02691650000000001
141.0,3.5444610886858604e-05,-0.07689890020951415,0.026459983940212886,-0.3500000000000002,-9.790000000000001,0.2799999999999999,7.981453741079132e-05,0.01136437595529687,-0.015143055507909824,4.25,-2.0625,88.3125,0.7166747999999998,0.05133057000000006,-0.69500732,-0.02691650000000001
142.0,2.361322340510799e-06,-0.07751883054510525,0.027833166573281054,-0.3500000000000002,-9.79,0.2799999999999999,-0.01027275274153526,-0.0036304080284959572,0.002181096413991836,4.25,-2.0625,88.3125,0.7166747999999998,0.05133057000000006,-0.69500732,-0.02691650000000001
143.0,0.0013095031630411447,-0.07697691103843549,0.027484112531589135,-0.35000000000000026,-9.79,0.2799999999999999,0.003599198090613282,-0.014755847600052854,0.012463829943180878,4.25,-2.0625,88.3125,0.7166747999999998,0.05133057000000006,-0.69500732,-0.02691650000000001
144.0,0.0006339399269940374,-0.07856910068050807,0.025019091405472794,-0.35000000000000026,-9.79,0.2799999999999999,0.002442208906829094,-0.005270493639136327,0.013985006702960007,4.25,-2.0625,88.3125,0.7166747999999998,0.05133057000000006,-0.69500732,-0.02691650000000001
145.0,0.0013367410352972267,-0.07845988852964009,0.02565470699305899,-0.3500000000000002,-9.79,0.2799999999999999,-0.0011689839961171906,0.0014132703500468204,0.00707379887697428,4.25,-2.0625,88.3125,0.7166747999999998,0.051330570000000054,-0.69500732,-0.02691650000000001
146.0,0.0015940546794677565,-0.07768533327856937,0.02584456495871882,-0.3500000000000002,-9.790000000000001,0.2799999999999999,-0.0010188066794441057,-0.0005872714054895461,0.0038676706078419783,4.25,-2.0625,88.3125,0.7166747999999998,0.051330570000000054,-0.6950073199999999,-0.02691650000000001
147.0,0.0011247283125961414,-0.07822002679033435,0.027118151014945698,-0.3500000000000002,-9.790000000000001,0.2799999999999999,0.002893564450216503,0.00767037399387581,0.005218795541376186,4.25,-2.0625,88.3125,0.7166747999999998,0.05133057000000006,-0.69500732,-0.02691650000000001
148.0,0.0007596149341940098,-0.07861050573436917,0.025349575330230745,-0.3500000000000002,-9.79,0.2799999999999999,-0.019172629724948858,0.006236325285172968,-0.0002240143369175631,4.25,-2.0625,88.3125,0.7166747999999998,0.05133057000000006,-0.69500732,-0.02691650000000001
149.0,0.0017117533567952363,-0.07739058065074339,0.024214289786303245,-0.3500000000000002,-9.790000000000001,0.2799999999999999,0.0002837123527661047,0.010324698302556065,-0.00034463744141163507,4.25,-2.0625,88.3125,0.7166747999999998,0.051330570000000054,-0.6950073199999999,-0.02691650000000001
150.0,0.0021566050863060468,-0.07722286576761936,0.024752826474837373,-0.3500000000000002,-9.790000000000003,0.2799999999999999,0.017896798944333103,0.01179606403161102,0.016477004900522067,4.25,-2.0625,88.3125,0.7166747999999998,0.051330570000000054,-0.6950073199999999,-0.02691650000000001
151.0,-0.0016927180808554384,-0.07721005794991224,0.030988258821765605,-0.3500000000000002,-9.790000000000001,0.2799999999999999,-0.023293139396157084,-0.003645529591809509,-0.008394562065867998,4.25,-2.0625,88.3125,0.7166747999999998,0.05133057000000006,-0.69500732,-0.02691650000000001
152.0,0.000290353709188256,-0.07698700542144869,0.029946254346878715,-0.3500000000000002,-9.79,0.2799999999999999,-0.005598182601304351,0.0010094164636958594,0.018732186452985102,4.25,-2.0625,88.3125,0.7166747999999998,0.05133057000000006,-0.69500732,-0.02691650000000001
153.0,0.001202760847661992,-0.07728199378953801,0.029009835984341724,-0.35000000000000026,-9.79,0.2799999999999999,-0.014452021703582577,-0.00672578528896817,-0.003869215371719272,4.25,-2.0625,88.3125,0.7166747999999998,0.05133057000000006,-0.69500732,-0.02691650000000001
154.0,0.0016081442115521195,-0.0776524433047586,0.028487748377186473,-0.35000000000000026,-9.79,0.2799999999999999,0.018674743570685298,-0.026776003986835804,-0.012519285105214474,4.25,-2.0625,88.3125,0.7166747999999998,0.05133057000000006,-0.69500732,-0.02691650000000001
155.0,0.0018108358934971834,-0.07814724142345109,0.02536770353302612,-0.35000000000000026,-9.79,0.2799999999999999,0.015336981566820276,-0.019647757456477212,0.017413614471326166,4.25,-2.0625,88.3125,0.7166747999999998,0.05133057000000006,-0.69500732,-0.02691650000000001
156.0,0.0012449373809104108,-0.07793442518026072,0.025711515700939297,-0.3500000000000002,-9.79,0.2799999999999999,0.03035820522021606,-0.02062984490023755,0.015043618529290793,4.25,-2.0625,88.3125,0.7166747999999998,0.051330570000000054,-0.69500732,-0.02691650000000001
157.0,0.00017700018047056603,-0.0785268644078467,0.028692931429578718,-0.35000000000000026,-9.79,0.2799999999999999,-0.01522284311441834,-0.011434994134706588,-0.027504432414822085,4.25,-2.0625,88.3125,0.7166747999999998,0.05133057000000006,-0.69500732,-0.02691650000000001
158.0,0.0004522402926851628,-0.07755493639865335,0.026521187050801025,-0.35000000000000026,-9.79,0.2799999999999999,-0.007227396979636204,0.0014544080884228297,-0.0009292416908881374,4.25,-2.0625,88.3125,0.7166747999999998,0.05133057000000006,-0.69500732,-0.02691650000000001
159.0,0.00027400321085871047,-0.07566506900577828,0.024344262880239227,-0.35000000000000026,-9.79,0.2799999999999999,-0.003928718651108425,0.010524331060340446,-0.005174172256734392,4.25,-2.0625,88.3125,0.7166747999999998,0.05133057000000006,-0.69500732,-0.02691650000000001
160.0,-0.0007150129235004961,-0.07539745865803504,0.02418246010115393,-0.35000000000000026,-9.79,0.2799999999999999,-0.010873679522046788,-0.007861674395585024,0.0012651604154116057,4.25,-2.0625,88.3125,0.7166747999999998,0.05133057000000006,-0.69500732,-0.02691650000000001
161.0,-0.00036543877269683733,-0.07588090807042416,0.023923593879239057,-0.35000000000000026,-9.79,0.2799999999999999,-0.005106326804915514,-0.0005596050454921416,0.0014588625979755016,4.25,-2.0625,88.3125,0.7166747999999998,0.05133057000000006,-0.69500732,-0.02691650000000001
162.0,-0.0005795447831738154,-0.07672693637008152,0.024068811788569868,-0.35000000000000026,-9.79,0.2799999999999999,-0.011337725614439322,0.011528953237622592,0.005385729302059947,4.25,-2.0625,88.3125,0.7166747999999998,0.05133057000000006,-0.69500732,-0.02691650000000001
163.0,-4.834538918687515e-05,-0.07579510793608821,0.023231615347972447,-0.3500000000000002,-9.79,0.2799999999999999,0.0038499103286872664,0.009777920868902824,0.001776326799669277,4.25,-2.0625,88.3125,0.7166747999999998,0.051330570000000054,-0.69500732,-0.02691650000000001
164.0,0.001038335305918595,-0.07611155966440866,0.022888809146080442,-0.35000000000000026,-9.79,0.2799999999999999,0.0060054663170574065,-0.004099114802363744,0.012310394422620096,4.25,-2.0625,88.3125,0.7166747999999998,0.05133057000000006,-0.69500732,-0.02691650000000001
165.0,0.0005447692914641618,-0.07563258474771892,0.02371911015419742,-0.35000000000000026,-9.79,0.2799999999999999,-0.0032776687871958225,-0.014738369485155245,0.014075704123752444,4.25,-2.0625,88.3125,0.7166747999999998,0.05133057000000006,-0.69500732,-0.02691650000000001
166.0,0.00043623513216321244,-0.07762848035389017,0.022864099367933332,-0.35000000000000026,-9.79,0.2799999999999999,-0.0011583036396296572,0.011993554472732156,-0.002722272586101248,4.25,-2.0625,88.3125,0.7166747999999998,0.05133057000000006,-0.69500732,-0.02691650000000001
167.0,0.00023091838533403835,-0.07715909424760561,0.024747461870346602,-0.35000000000000026,-9.79,0.2799999999999999,0.010309545056785272,0.0056287536828586535,0.005583308151393821,4.25,-2.0625,88.3125,0.7166747999999998,0.05133057000000006,-0.69500732,-0.02691650000000001
168.0,-0.00022017409114183313,-0.07677723374295956,0.024955677163338467,-0.35000000000000026,-9.79,0.2799999999999999,0.008953573028673835,-0.001414090501792115,0.0058803763440860215,4.25,-2.0625,88.3125,0.7166747999999998,0.05133057000000006,-0.69500732,-0.02691650000000001
169.0,0.00043010752688172043,-0.07705477150537632,0.02514040898617513,-0.35000000000000026,-9.79,0.2799999999999999,0.005372843862007168,-0.0291088629672299,0.0031001984126984125,4.25,-2.0625,88.3125,0.7166747999999998,0.05133057000000006,-0.69500732,-0.02691650000000001
170.0,-0.00027649769585253445,-0.07639352918586789,0.025200652841781884,-0.35000000000000026,-9.79,0.2799999999999999,0.006475414426523296,-0.00595238095238095,0.0064184107782898105,4.25,-2.0625,88.3125,0.7166747999999998,0.05133057000000006,-0.69500732,-0.02691650000000001
171.0,0.00017424869037772266,-0.07772801828547794,0.02415513362085944,-0.35000000000000026,-9.79,0.2799999999999999,0.027043046139568316,0.0013785497656465407,0.002024391099491906,4.25,-2.0625,88.3125,0.7166747999999998,0.05133057000000006,-0.69500732,-0.02691650000000001
172.0,-0.0013875300326913228,-0.07711457717909331,0.025166804521643243,-0.35000000000000026,-9.79,0.2799999999999999,0.03162393162393162,-0.007503249438733309,-0.00484067903422742,4.25,-2.0625,88.3125,0.7166747999999998,0.05133057000000006,-0.69500732,-0.02691650000000001
173.0,-0.0008500175971559946,-0.07786695279515257,0.02424965599783499,-0.3500000000000002,-9.79,0.2799999999999999,0.011001335350971145,-0.006745364705822562,0.00164598524380002,4.25,-2.0625,88.3125,0.7166747999999998,0.051330570000000054,-0.69500732,-0.02691650000000001
174.0,0.0006054571512427912,-0.0791382895056152,0.024379052269270805,-0.35000000000000026,-9.79,0.2799999999999999,-0.00461197953393583,-0.02465404436007974,-0.0002010729182945624,4.25,-2.0625,88.3125,0.7166747999999998,0.05133057000000006,-0.69500732,-0.02691650000000001
175.0,0.0008019605264662497,-0.07939633369289976,0.023072782663053227,-0.35000000000000026,-9.79,0.2799999999999999,0.000606196612960401,-0.02215965146831432,-0.0022766757320607477,4.25,-2.0625,88.3125,0.7166747999999998,0.05133057000000006,-0.69500732,-0.02691650000000001
176.0,-0.000254106585402111,-0.07785821647424143,0.023180311927060118,-0.35000000000000026,-9.79,0.2799999999999999,0.011655455626579455,-0.009722815808598847,0.008988833349850518,4.25,-2.0625,88.3125,0.7166747999999998,0.05133057000000006,-0.69500732,-0.02691650000000001
177.0,0.00016096514047866795,-0.07793704474505722,0.02229676118626432,-0.35000000000000026,-9.79,0.2799999999999999,-0.0038208896982310087,-0.007125552809573362,0.014751073100936523,4.25,-2.0625,88.3125,0.7166747999999998,0.05133057000000006,-0.69500732,-0.02691650000000001
178.0,0.0004953116999487967,-0.0781726830517153,0.023715357782898117,-0.35000000000000026,-9.79,0.2799999999999999,-0.00790850614439324,-0.009097582245263696,0.005197332629288274,4.25,-2.0625,88.3125,0.7166747999999998,0.05133057000000006,-0.69500732,-0.02691650000000001
179.0,0.0005533390202546733,-0.07806596540211361,0.0256767147851561,-0.3500000000000002,-9.79,0.2799999999999999,0.006408360954773238,-0.004384567497565745,0.005274271979636204,4.25,-2.0625,88.3125,0.7166747999999998,0.051330570000000054,-0.69500732,-0.02691650000000001
180.0,0.000343473785600967,-0.07945016940100559,0.0244466203214055,-0.35000000000000026,-9.79,0.2799999999999999,-0.006618948202848915,0.00527544418580494,0.004236238332368025,4.25,-2.0625,88.3125,0.7166747999999998,0.05133057000000006,-0.69500732,-0.02691650000000001
181.0,0.0005144788282843546,-0.07857337099082537,0.02426716096715437,-0.35000000000000026,-9.79,0.2799999999999999,-0.0031834660369083286,-0.009506305124839465,0.007347453843603368,4.25,-2.0625,88.3125,0.7166747999999998,0.05133057000000006,-0.69500732,-0.02691650000000001
182.0,0.0010821451113326038,-0.07765451523006409,0.023856557850902894,-0.3500000000000002,-9.790000000000001,0.2799999999999999,0.011178777842628041,0.0036502642885167906,0.0007572499446945038,4.25,-2.0625,88.3125,0.7166747999999998,0.051330570000000054,-0.6950073199999999,-0.02691650000000001
183.0,-0.00030419444464752456,-0.07868636601732462,0.02284531309950956,-0.3500000000000002,-9.790000000000003,0.2799999999999999,0.006301692573263875,0.006683765677449681,0.000962920431772784,4.25,-2.0625,88.3125,0.7166747999999998,0.051330570000000054,-0.6950073199999999,-0.02691650000000001
184.0,0.0007901799610956738,-0.07818384525493005,0.02471541984146044,-0.3500000000000002,-9.790000000000001,0.2799999999999999,0.00035546940016567986,-0.01748526397004545,-0.0010900017700388408,4.25,-2.0625,88.3125,0.7166747999999998,0.05133057000000006,-0.69500732,-0.02691650000000001
185.0,0.0011417493796526052,-0.07808016239093893,0.02538663151364766,-0.3500000000000002,-9.790000000000001,0.2799999999999999,0.02025282595753622,-0.016250725406227486,0.014495445574521731,4.25,-2.0625,88.3125,0.7166747999999998,0.051330570000000054,-0.6950073199999999,-0.02691650000000001
186.0,0.0014619717200362358,-0.0785863321555309,0.02574095080546695,-0.3500000000000002,-9.790000000000001,0.2799999999999999,0.013182858591287311,-0.005187174659078925,0.006562428928453902,4.25,-2.0625,88.3125,0.7166747999999998,0.05133057000000006,-0.69500732,-0.02691650000000001
187.0,0.000546162358857468,-0.0809332845441066,0.024959765405134823,-0.35000000000000026,-9.79,0.2799999999999999,0.029526272808010578,-0.0003723434329573768,0.011799234555478053,4.25,-2.0625,88.3125,0.7166747999999998,0.05133057000000006,-0.69500732,-0.02691650000000001
188.0,-0.001698823086960444,-0.07764146017007618,0.03177228644866523,-0.3500000000000002,-9.790000000000001,0.2799999999999999,-0.015430021764569112,-0.021664449552066617,-0.02221237543818189,4.25,-2.0625,88.3125,0.7166747999999998,0.051330570000000054,-0.6950073199999999,-0.02691650000000001
189.0,3.652458074934685e-05,-0.07802548474764913,0.03127372026747678,-0.3500000000000002,-9.790000000000003,0.2799999999999999,-0.020124460173887852,0.010110503151606168,-0.004295873943376544,4.25,-2.0625,88.3125,0.7166747999999998,0.051330570000000054,-0.6950073199999999,-0.02691650000000001
190.0,7.549434032264426e-05,-0.0795278308233563,0.030621251392843503,-0.3500000000000002,-9.790000000000001,0.2799999999999999,-0.03638572124199075,0.014859491950412865,-0.009171870374393787,4.25,-2.0625,88.3125,0.7166747999999998,0.05133057000000006,-0.69500732,-0.02691650000000001
191.0,0.00089668214199952,-0.07816637316897461,0.029648823341071016,-0.3500000000000002,-9.79,0.2799999999999999,-0.025849350636356357,-0.0032349365644761055,0.0004703884175138078,4.25,-2.0625,88.3125,0.7166747999999998,0.05133057000000006,-0.69500732,-0.02691650000000001
192.0,0.0015183320119584428,-0.077149278198966,0.030000629717721307,-0.35000000000000026,-9.79,0.2799999999999999,-0.015701714587152932,0.005985479844903621,0.004067808726855293,4.25,-2.0625,88.3125,0.7166747999999998,0.05133057000000006,-0.69500732,-0.02691650000000001
193.0,0.001139218835563789,-0.07659857250218852,0.02780572588903756,-0.35000000000000026,-9.79,0.2799999999999999,-0.007900385029108364,0.006637030725301406,0.0039044518700313445,4.25,-2.0625,88.3125,0.7166747999999998,0.05133057000000006,-0.69500732,-0.02691650000000001
194.0,0.001347445005711135,-0.07735755888376855,0.02856987647209423,-0.35000000000000026,-9.79,0.2799999999999999,0.005512606652979635,0.00016424897347276386,0.009301341439698295,4.25,-2.0625,88.3125,0.7166747999999998,0.05133057000000006,-0.69500732,-0.02691650000000001
195.0,0.0015314173953286858,-0.07616903481822837,0.0292014368919611,-0.3500000000000002,-9.79,0.2799999999999999,-0.0012791049396392138,0.0035462961937256293,-0.015574673702193861,4.25,-2.0625,88.3125,0.7166747999999998,0.051330570000000054,-0.69500732,-0.02691650000000001
196.0,0.0017863740202449878,-0.07740911418330773,0.02712339989759346,-0.35000000000000026,-9.79,0.2799999999999999,-0.005947642187561542,0.021257145072669265,-0.008952911447871123,4.25,-2.0625,88.3125,0.7166747999999998,0.05133057000000006,-0.69500732,-0.02691650000000001
197.0,0.0014157361455748552,-0.07725475599669149,0.026971050454921437,-0.35000000000000026,-9.79,0.2799999999999999,-0.012339097394540944,0.004929500103391232,0.00482481648056245,4.25,-2.0625,88.3125,0.7166747999999998,0.05133057000000006,-0.69500732,-0.02691650000000001
198.0,0.0021131350222791433,-0.07744319485578591,0.026885108994370195,-0.3500000000000002,-9.790000000000001,0.2799999999999999,0.0063484613883774904,-0.014797917041876784,0.004462556323207663,4.25,-2.0625,88.3125,0.7166747999999998,0.051330570000000054,-0.6950073199999999,-0.02691650000000001
199.0,0.0007855901685896484,-0.07785066168800561,0.026486429305172816,-0.35000000000000026,-9.790000000000001,0.2799999999999999,-0.003253680692139979,-0.006808170710518526,0.0019950130406360895,4.25,-2.0625,88.3125,0.7166747999999998,0.05133057000000006,-0.69500732,-0.02691650000000001
200.0,0.00141430046063891,-0.07690651363970173,0.025987838308500395,-0.35000000000000026,-9.79,0.2799999999999999,-0.001979662926715151,0.013111371633988048,0.0016359473805330985,4.25,-2.0625,88.3125,0.7166747999999998,0.05133057000000006,-0.69500732,-0.02691650000000001
201.0,0.0004286124038985642,-0.07675550816393688,0.025696212100998796,-0.35000000000000026,-9.79,0.2799999999999999,0.007375953946908682,0.02080609784336371,-0.006831015845063711,4.25,-2.0625,88.3125,0.7166747999999998,0.05133057000000006,-0.69500732,-0.02691650000000001
202.0,0.0005246374477643989,-0.07735987232215119,0.0261773037345358,-0.35000000000000026,-9.79,0.2799999999999999,0.023439887249558165,0.002381120133624036,0.0008981219959367727,4.25,-2.0625,88.3125,0.7166747999999998,0.05133057000000006,-0.69500732,-0.02691650000000001
203.0,0.001589061699948797,-0.0774286354326677,0.026124551971326182,-0.35000000000000026,-9.79,0.2799999999999999,0.02745875736047107,-0.004825308819764465,-0.0011280721966205835,4.25,-2.0625,88.3125,0.7166747999999998,0.05133057000000006,-0.69500732,-0.02691650000000001
204.0,0.0013667274705581158,-0.07535538274449563,0.027155977982590902,-0.35000000000000026,-9.79,0.2799999999999999,0.007873003872247824,-0.01704559091781874,0.002964189708141321,4.25,-2.0625,88.3125,0.7166747999999998,0.05133057000000006,-0.69500732,-0.02691650000000001
205.0,0.0013274921726138013,-0.07850471741666878,0.025179489520116186,-0.3500000000000002,-9.79,0.2799999999999999,0.01770159191827621,-0.0026967299677671166,0.0025397363136158745,4.25,-2.0625,88.3125,0.7166747999999998,0.051330570000000054,-0.69500732,-0.02691650000000001
206.0,0.0015726042532295834,-0.07856879496025451,0.026189335133842022,-0.35000000000000026,-9.79,0.2799999999999999,0.006034615723603031,-0.0053966240724652274,0.010214440609444906,4.25,-2.0625,88.3125,0.7166747999999998,0.05133057000000006,-0.69500732,-0.02691650000000001
207.0,0.0009348704042153274,-0.07923827514368233,0.026719150610758902,-0.35000000000000026,-9.79,0.2799999999999999,-0.0010646764621182925,0.0015279276738780646,0.00942971232882738,4.25,-2.0625,88.3125,0.7166747999999998,0.05133057000000006,-0.69500732,-0.02691650000000001
208.0,0.001714915040817341,-0.0781272020879702,0.023503224498927847,-0.35000000000000026,-9.79,0.2799999999999999,-0.0005323382310591462,0.001976791457906774,-0.0012862779081669554,4.25,-2.0625,88.3125,0.7166747999999998,0.05133057000000006,-0.69500732,-0.02691650000000001
209.0,0.0014043325204086705,-0.07779848007624315,0.024765725152689738,-0.35000000000000026,-9.79,0.2799999999999999,0.0049631655618897815,0.007997594317663064,0.00025466850559394214,4.25,-2.0625,88.3125,0.7166747999999998,0.05133057000000006,-0.69500732,-0.02691650000000001
210.0,0.0019713360116585922,-0.07976253987947536,0.02539449663239987,-0.35000000000000026,-9.79,0.2799999999999999,0.004068044970262712,0.007832747449682934,0.024287831344282956,4.25,-2.0625,88.3125,0.7166747999999998,0.05133057000000006,-0.69500732,-0.02691650000000001
211.0,0.0020574533214009682,-0.07914280956351949,0.026051104930236355,-0.3500000000000002,-9.79,0.2799999999999999,0.007402234903185127,-0.006548033702151892,0.01081425680348208,4.25,-2.0625,88.3125,0.7166747999999998,0.051330570000000054,-0.69500732,-0.02691650000000001
212.0,0.002152796139608673,-0.07892872488101532,0.025328281993654167,-0.35000000000000026,-9.79,0.2799999999999999,-0.013327418528556319,-0.0028940540719196183,-0.0027969658910629294,4.25,-2.0625,88.3125,0.7166747999999998,0.05133057000000006,-0.69500732,-0.02691650000000001
213.0,0.002052693279970514,-0.07896483592535615,0.027114058518821225,-0.3500000000000003,-9.79,0.2799999999999999,-0.0027693918461452168,-0.0014785290520888414,-0.004142022168405365,4.25,-2.0625,88.3125,0.7166747999999998,0.05133057000000006,-0.69500732,-0.02691650000000001
214.0,0.0016439412429629246,-0.0790488339056061,0.026714326095638907,-0.35000000000000026,-9.79,0.2799999999999999,0.0004429056588132474,0.005011307356709922,-0.005080180594128241,4.25,-2.0625,88.3125,0.7166747999999998,0.05133057000000006,-0.69500732,-0.02691650000000001
215.0,0.0015189752297763933,-0.07990632139468731,0.024899901783098515,-0.35000000000000026,-9.79,0.2799999999999999,0.012959268049580714,0.0018676128437415456,-0.005856302534647325,4.25,-2.0625,88.3125,0.7166747999999998,0.05133057000000006,-0.69500732,-0.02691650000000001
216.0,0.0018541465255174933,-0.07788018343663504,0.025406058770978138,-0.35000000000000026,-9.79,0.2799999999999999,0.016899054966091256,-0.005792132234924573,-0.006423325778164488,4.25,-2.0625,88.3125,0.7166747999999998,0.05133057000000006,-0.69500732,-0.02691650000000001
217.0,0.0029079200369522946,-0.0786376723634788,0.02883710196613424,-0.35000000000000026,-9.79,0.2799999999999999,0.0039447391765940155,-0.002911817125526803,0.028290353239950015,4.25,-2.0625,88.3125,0.7166747999999998,0.05133057000000006,-0.69500732,-0.02691650000000001
218.0,-0.004405072554916468,-0.07708828404223825,0.03426884896812057,-0.34575442247658694,-9.79,0.2799999999999999,-0.07879498134034424,0.006868753247850541,-0.018541537030578394,4.277575442247659,-2.0349245577523414,88.3125,0.7166687033506766,0.05122437786680541,-0.6950134176482828,-0.02702269213319458
219.0,-0.004319161587631931,-0.07662354648762036,0.033000429446839445,-0.3427159209157128,-9.79,0.2799999999999999,-0.031899041538658475,0.007280530470079117,-0.02833094221255967,4.296045785639958,-2.0164542143600417,88.3125,0.7166402523204997,0.051151466191467175,-0.6950418733402706,-0.02709560380853276
220.0,-0.0030018747006260015,-0.07592314037130632,0.032675329930793,-0.34119667013527566,-9.79,0.2799999999999999,-0.018909710221454174,-0.0014640614418677637,-0.03354271124964901,4.305280957336108,-2.0072190426638916,88.3125,0.7166260268054112,0.05111501035379806,-0.6950561011862646,-0.02713205964620185
221.0,-0.0027207780430681568,-0.07557336619305664,0.03131857784218128,-0.3404370447450571,-9.790000000000001,0.2799999999999999,-0.020890861605306673,-0.00844382755461976,-0.026708692434052425,4.3098985431841825,-2.0026014568158166,88.3125,0.7166189140478669,0.05109678243496351,-0.6950632151092615,-0.027150287565036395
222.0,-0.002861785438773634,-0.07805059769198047,0.03113419472489816,-0.34005723204994787,-9.790000000000003,0.2799999999999999,-0.01081674145178078,0.00846978373723269,-0.011686805068163178,4.31220733610822,-2.0002926638917793,88.3125,0.7166153576690948,0.05108766847554623,-0.69506677207076,-0.027159401524453668
223.0,-0.002619758484215121,-0.07764392527679147,0.030335567705841386,-0.33999999999999986,-9.790000000000001,0.2799999999999999,0.015760984112819287,0.009519101025744336,-0.00633117568704725,4.3125,-2.0,88.3125,0.7166137700000001,0.051086429999999926,-0.6950683600000003,-0.027160639999999975
224.0,-0.003046710399301621,-0.0766704649425432,0.028831778348568423,-0.33999999999999986,-9.79,0.2799999999999999,0.011740489096220191,-0.017895899435924553,0.000505147083511705,4.3125,-2.0,88.3125,0.7166137700000001,0.05108642999999992,-0.6950683600000003,-0.027160639999999975
225.0,-0.002644706966163867,-0.07734444906113334,0.02831757888242554,-0.33999999999999986,-9.79,0.2799999999999999,-0.00941073343448079,-0.01032403778759873,-0.007843944635407486,4.3125,-2.0,88.3125,0.7166137700000001,0.05108642999999992,-0.6950683600000003,-0.027160639999999975
226.0,-0.0019304973223204318,-0.0766521293428353,0.02851627225453906,-0.33999999999999986,-9.79,0.2799999999999999,-0.005366392629456153,-0.00844235998317007,0.004456531119631001,4.3125,-2.0,88.3125,0.7166137700000001,0.05108642999999992,-0.6950683600000003,-0.027160639999999975
227.0,-0.0020672523041474654,-0.0779904313876088,0.02727606566820278,-0.33999999999999986,-9.79,0.2799999999999999,0.005525853654633896,0.012279285874295956,0.0036817356310803887,4.3125,-2.0,88.3125,0.7166137700000001,0.05108642999999992,-0.6950683600000003,-0.027160639999999975
228.0,-0.0011628264208909367,-0.07714810547875062,0.02915668202764979,-0.33999999999999986,-9.79,0.2799999999999999,0.013470462109575011,0.009729822708653354,0.0013504864311315926,4.3125,-2.0,88.3125,0.7166137700000001,0.051086429999999926,-0.6950683600000003,-0.027160639999999975
229.0,-0.0013712027733709382,-0.07838934321304758,0.03241147708863205,-0.33999999999999986,-9.790000000000001,0.2799999999999999,0.0034342984836275422,-0.003420995992923874,0.000579237071172555,4.3125,-2.0,88.3125,0.7166137700000001,0.05108642999999993,-0.6950683600000003,-0.027160639999999975
230.0,-0.0017614216237960291,-0.07811629120556274,0.0317154474733798,-0.33999999999999986,-9.790000000000001,0.2799999999999999,-0.002269321276914812,-0.005632718249327351,-0.0004309198865650478,4.3125,-2.0,88.3125,0.7166137700000001,0.051086429999999926,-0.6950683600000003,-0.027160639999999975
231.0,-0.0029573237151238213,-0.07743012140923297,0.030958530188302812,-0.33999999999999986,-9.79,0.2799999999999999,-0.01572009410619934,-0.008754489164986256,-0.011556185749734138,4.3125,-2.0,88.3125,0.7166137700000001,0.05108642999999992,-0.6950683600000003,-0.027160639999999975
232.0,-0.0027747654533533317,-0.07747660208842636,0.030457462408456953,-0.33999999999999986,-9.790000000000001,0.2799999999999999,-0.012798685706618657,-0.008027026555636183,-0.010508718215534032,4.3125,-2.0,88.3125,0.7166137700000001,0.051086429999999926,-0.6950683600000003,-0.027160639999999975
233.0,-0.00218845799549387,-0.07734582792593361,0.0315835699139059,-0.33999999999999986,-9.790000000000001,0.2799999999999999,0.0048405765015293815,-0.021772249836957875,-0.014310138677659488,4.3125,-2.0,88.3125,0.7166137700000001,0.051086429999999926,-0.6950683600000003,-0.027160639999999975
234.0,-0.0021968202193228207,-0.07730987853197789,0.029898077923637252,-0.33999999999999986,-9.79,0.2799999999999999,-0.0005047514107900421,-0.009597124389658207,-0.014211520951732969,4.3125,-2.0,88.3125,0.7166137700000001,0.05108642999999992,-0.6950683600000003,-0.027160639999999975
235.0,-0.0031937269791718283,-0.07614999618040069,0.03132687975901427,-0.33999999999999986,-9.79,0.2799999999999999,-0.007793289093082602,-0.0077466893365046325,-0.003490513715458434,4.3125,-2.0,88.3125,0.7166137700000001,0.05108642999999992,-0.6950683600000003,-0.027160639999999975
236.0,-0.003144242521843978,-0.07619243760632938,0.032435113266603914,-0.33999999999999986,-9.79,0.2799999999999999,-0.006968091119121946,-0.016285139023091026,-0.00946325080934212,4.3125,-2.0,88.3125,0.7166137700000001,0.05108642999999992,-0.6950683600000003,-0.027160639999999975
237.0,-0.001933723758320532,-0.07636104710701483,0.030010480670762944,-0.33999999999999986,-9.79,0.2799999999999999,0.006742931547619048,0.001027565764208909,-0.0010570676523297489,4.3125,-2.0,88.3125,0.7166137700000001,0.05108642999999992,-0.6950683600000003,-0.027160639999999975
238.0,-0.0005186036824389548,-0.07754899592262426,0.027847114674355564,-0.33999999999999986,-9.79,0.2799999999999999,-0.0049231183582634525,0.002122709623907733,-0.0007738364107761915,4.3125,-2.0,88.3125,0.7166137700000001,0.051086429999999926,-0.6950683600000003,-0.027160639999999975
239.0,-0.0022885357121872197,-0.07623669554195729,0.028346608412446607,-0.33999999999999986,-9.790000000000001,0.2799999999999999,-0.00021651549633602742,0.023610497957115156,-0.007693285812914977,4.3125,-2.0,88.3125,0.7166137700000001,0.05108642999999993,-0.6950683600000003,-0.027160639999999975
240.0,-0.0016422197250132204,-0.07642351930195662,0.030823329807861816,-0.33999999999999986,-9.790000000000001,0.2799999999999999,0.018780951161202188,0.006860932542305658,0.004609898312180504,4.3125,-2.0,88.3125,0.7166137700000001,0.051086429999999926,-0.6950683600000003,-0.027160639999999975
241.0,-0.0012622580959935534,-0.07876379498123944,0.029209267950525898,-0.33999999999999986,-9.79,0.2799999999999999,0.0013082083154961274,0.002288143162473874,-0.013316050587893362,4.3125,-2.0,88.3125,0.7166137700000001,0.05108642999999992,-0.6950683600000003,-0.027160639999999975
242.0,-0.0030378830802548413,-0.07846959910352297,0.028755339620424248,-0.33999999999999986,-9.79,0.2799999999999999,0.0008431162545222567,0.017997650210269195,-0.001727959769753133,4.3125,-2.0,88.3125,0.7166137700000001,0.05108642999999992,-0.6950683600000003,-0.027160639999999975
243.0,-0.0021773233486943166,-0.07885272657450076,0.027588933691756287,-0.33999999999999986,-9.79,0.2799999999999999,-0.005378944252432155,0.004429483486943164,-0.011936163914490528,4.3125,-2.0,88.3125,0.7166137700000001,0.05108642999999992,-0.6950683600000003,-0.027160639999999975
244.0,-0.002717693932411674,-0.07853926651305684,0.029539090501792133,-0.33999999999999986,-9.79,0.2799999999999999,0.01589251712109575,0.008061515937019969,-0.0112772217421915,4.3125,-2.0,88.3125,0.7166137700000001,0.05108642999999992,-0.6950683600000003,-0.027160639999999975
245.0,-0.0020904254001288336,-0.07766014444279272,0.030299348190542277,-0.33999999999999986,-9.79,0.2799999999999999,0.0016402662673636924,-0.010900181482582627,-0.020474536176766926,4.3125,-2.0,88.3125,0.7166137700000001,0.051086429999999926,-0.6950683600000003,-0.027160639999999975
246.0,-0.0066826934988355405,-0.07824123453578447,0.0353468067117586,-0.33999999999999986,-9.79,0.2799999999999999,0.005172411679508779,-0.005402087669094693,-0.017933760663908296,4.3125,-2.0,88.3125,0.7166137700000001,0.051086429999999926,-0.6950683600000003,-0.027160639999999975
247.0,-0.006080991177570263,-0.0778996373069929,0.03606378397660265,-0.33999999999999986,-9.79,0.2799999999999999,-0.012581060319825279,0.020712591001718537,-0.015478251605170178,4.3125,-2.0,88.3125,0.7166137700000003,0.05108642999999992,-0.6950683600000003,-0.027160639999999975
248.0,-0.0046852666605853395,-0.07679800738918845,0.03375582864282787,-0.33999999999999986,-9.79,0.2799999999999999,0.004824600563292354,0.006335723668132942,-0.0027099813566953913,4.3125,-2.0,88.3125,0.7166137700000001,0.05108642999999992,-0.6950683600000003,-0.027160639999999975
249.0,-0.004320381545522707,-0.07673701929480577,0.031009119702164866,-0.33999999999999986,-9.79,0.2799999999999999,-0.00028576993583134813,-0.012372702434177842,-0.00805639907668191,4.3125,-2.0,88.3125,0.7166137700000001,0.051086429999999926,-0.6950683600000003,-0.027160639999999975
250.0,-0.002943229274322227,-0.07809795813855794,0.03177667223401688,-0.33999999999999986,-9.79,0.2799999999999999,-0.012564841263441168,-0.00773096620148018,-0.005589073627831069,4.3125,-2.0,88.3125,0.7166137700000001,0.051086429999999926,-0.6950683600000003,-0.027160639999999975
251.0,-0.002523841979711037,-0.08021385362125029,0.030399344821565543,-0.33999999999999986,-9.79,0.2799999999999999,0.00024599718701981497,0.00023077906003819964,0.005141971122592401,4.3125,-2.0,88.3125,0.7166137700000001,0.05108642999999992,-0.6950683600000003,-0.027160639999999975
252.0,-0.002781559468774801,-0.07904608037696009,0.03161759302357383,-0.33999999999999986,-9.790000000000001,0.2799999999999999,0.007471152929038647,-0.0011618427344553648,-0.00040338065507160206,4.3125,-2.0,88.3125,0.7166137700000001,0.051086429999999926,-0.6950683600000003,-0.027160639999999975
253.0,-0.002871008662587192,-0.07902616193665901,0.03199766227661523,-0.33999999999999986,-9.790000000000001,0.2799999999999999,-0.00013409054900825152,0.001061248247756709,0.003180203533026113,4.3125,-2.0,88.3125,0.7166137700000001,0.051086429999999926,-0.6950683600000003,-0.027160639999999975
254.0,-0.0037478778969722917,-0.07809130866342656,0.03200837509338304,-0.33999999999999986,-9.79,0.2799999999999999,-0.0015370409935744084,-0.002062328710348937,-0.005363523593378828,4.3125,-2.0,88.3125,0.7166137700000001,0.05108642999999992,-0.6950683600000003,-0.027160639999999975
255.0,-0.0028640731367463256,-0.0776173425918931,0.030033140481646577,-0.33999999999999986,-9.790000000000001,0.2799999999999999,-0.010951159890626441,-0.020534527324502866,-0.005791682143066992,4.3125,-2.0,88.3125,0.7166137700000001,0.051086429999999926,-0.6950683600000003,-0.027160639999999975
256.0,-0.0029753198546325155,-0.0791058154744643,0.031025770313498915,-0.33999999999999986,-9.790000000000003,0.2799999999999999,0.003681651278775443,-0.010915563217939126,-0.005737313248333457,4.3125,-2.0,88.3125,0.7166137700000001,0.05108642999999993,-0.6950683600000003,-0.027160639999999975
257.0,-0.002231466623000267,-0.07934906768516364,0.03141814488908482,-0.33999999999999986,-9.790000000000001,0.2799999999999999,0.0075813272055106525,-0.014870536358186501,0.0002081647564621614,4.3125,-2.0,88.3125,0.7166137700000001,0.051086429999999926,-0.6950683600000003,-0.027160639999999975
258.0,-0.0017232521927085308,-0.0772344176751471,0.031080896241265407,-0.33999999999999986,-9.79,0.2799999999999999,0.012605477750860804,-0.021307405995913527,0.004090087482557758,4.3125,-2.0,88.3125,0.7166137700000001,0.05108642999999992,-0.6950683600000003,-0.027160639999999975
259.0,-0.002425886209001475,-0.0769428616793554,0.029772398965486786,-0.33999999999999986,-9.79,0.2799999999999999,-0.019762929327334575,-0.019262253945217387,-0.0002911057722899896,4.3125,-2.0,88.3125,0.7166137700000001,0.05108642999999992,-0.6950683600000003,-0.027160639999999975
260.0,-0.0013425041832950263,-0.07738734834364386,0.02846367171965509,-0.33999999999999986,-9.79,0.2799999999999999,-0.022151758159172308,-0.010027742519938147,0.005497955839397047,4.3125,-2.0,88.3125,0.7166137700000001,0.05108642999999992,-0.6950683600000003,-0.027160639999999975
261.0,-0.001932628303596046,-0.07851941785812752,0.029856020323762278,-0.33999999999999986,-9.79,0.2799999999999999,-0.009320411890976406,0.0016588138563945008,0.008462633916262948,4.3125,-2.0,88.3125,0.7166137700000001,0.05108642999999992,-0.6950683600000003,-0.027160639999999975
262.0,-0.0011995647721454177,-0.07789080901177675,0.03067242703533028,-0.33999999999999986,-9.79,0.2799999999999999,-0.001082869303635433,-0.0031770033282130057,0.005751168074756784,4.3125,-2.0,88.3125,0.7166137700000001,0.051086429999999926,-0.6950683600000003,-0.027160639999999975
263.0,-0.0013285206382240727,-0.07952168913003979,0.03140561873379253,-0.33999999999999986,-9.790000000000001,0.2799999999999999,-0.02526714612961036,0.0014449828014799397,-0.008698834144740103,4.3125,-2.0,88.3125,0.7166137700000001,0.05108642999999993,-0.6950683600000003,-0.027160639999999975
264.0,-0.0016453151066184366,-0.07902056334086771,0.03040823297554569,-0.33999999999999986,-9.790000000000001,0.2799999999999999,-0.012313798753095385,0.011416345038141994,-0.0032768561207768415,4.3125,-2.0,88.3125,0.7166137700000001,0.051086429999999926,-0.6950683600000003,-0.027160639999999975
265.0,-0.0015549444196686652,-0.07954556392849838,0.03123258230958545,-0.33999999999999986,-9.79,0.2799999999999999,-0.025220369438631665,-0.00040471870596740355,-0.00027559083880624,4.3125,-2.0,88.3125,0.7166137700000001,0.05108642999999992,-0.6950683600000003,-0.027160639999999975
266.0,-0.0013287888055718696,-0.07766261937285975,0.028649749558425648,-0.33999999999999986,-9.790000000000001,0.2799999999999999,-0.0005113120308080314,-0.0014680141253809388,0.00021501404564854508,4.3125,-2.0,88.3125,0.7166137700000001,0.051086429999999926,-0.6950683600000003,-0.027160639999999975
267.0,-0.0020490590213215207,-0.07756351654766899,0.03134881231121488,-0.33999999999999986,-9.790000000000001,0.2799999999999999,-0.012150017254523318,-0.008280090011999225,-0.003015092823565896,4.3125,-2.0,88.3125,0.7166137700000001,0.051086429999999926,-0.6950683600000003,-0.027160639999999975
268.0,-0.002475770777198593,-0.07745534564149054,0.03170561537880418,-0.33999999999999986,-9.79,0.2799999999999999,-0.026304174261604193,-0.011389799312855897,-0.010366435961359282,4.3125,-2.0,88.3125,0.7166137700000001,0.05108642999999992,-0.6950683600000003,-0.027160639999999975
269.0,-0.0013748499576104018,-0.07562186799627306,0.03247034826622348,-0.33999999999999986,-9.790000000000001,0.2799999999999999,-0.007848371148212505,-0.011308789336288013,-0.016848291405404045,4.3125,-2.0,88.3125,0.7166137700000001,0.051086429999999926,-0.6950683600000003,-0.027160639999999975
270.0,-0.00243857705253792,-0.07652061141749136,0.03160767797335753,-0.33999999999999986,-9.790000000000001,0.2799999999999999,-0.0007959853692931437,-0.012014801734196234,0.0021125286444561957,4.3125,-2.0,88.3125,0.7166137700000001,0.051086429999999926,-0.6950683600000003,-0.027160639999999975
271.0,-0.00249110238137208,-0.07655221475158017,0.030622717886731654,-0.33999999999999986,-9.79,0.2799999999999999,-0.009346630971267407,-0.02915983344245507,-0.0009763903578353609,4.3125,-2.0,88.3125,0.7166137700000001,0.05108642999999992,-0.6950683600000003,-0.027160639999999975
272.0,-0.0016250849890458564,-0.07831706999739786,0.02948585299623112,-0.33999999999999986,-9.790000000000001,0.2799999999999999,0.00309819828469022,-0.021743391577060935,-0.013612707278839616,4.3125,-2.0,88.3125,0.7166137700000001,0.051086429999999926,-0.6950683600000003,-0.027160639999999975
273.0,-0.001848665580593985,-0.07778430511250235,0.030875097021545197,-0.33999999999999986,-9.790000000000003,0.2799999999999999,-0.0045586465920915715,-0.010647681451612902,-0.0054777524799133415,4.3125,-2.0,88.3125,0.7166137700000001,0.05108642999999993,-0.6950683600000003,-0.027160639999999975
274.0,-0.0008383994217089439,-0.077215790842872,0.031193762154347437,-0.33999999999999986,-9.790000000000001,0.2799999999999999,-0.010509095903131984,-0.013727132634849286,-0.00035918295597993886,4.3125,-2.0,88.3125,0.7166137700000001,0.051086429999999926,-0.6950683600000003,-0.027160639999999975
275.0,-0.0008553076217607699,-0.07897591897494342,0.031239682216446643,-0.33999999999999986,-9.79,0.2799999999999999,-0.0012370408311102822,-0.012803196453753368,-0.0020464609576366665,4.3125,-2.0,88.3125,0.7166137700000001,0.05108642999999992,-0.6950683600000003,-0.027160639999999975
276.0,-0.001206583662390882,-0.0781506739011942,0.029234672457429677,-0.33999999999999986,-9.79,0.2799999999999999,-0.016735801921571525,-0.0015807896951306518,6.383909363430365e-05,4.3125,-2.0,88.3125,0.7166137700000001,0.05108642999999992,-0.6950683600000003,-0.027160639999999975
277.0,-0.0011459025784598107,-0.07740784315407104,0.029799942094557094,-0.33999999999999986,-9.79,0.2799999999999999,-0.00413275878936649,0.007381410871834259,0.0014376165732175098,4.3125,-2.0,88.3125,0.7166137700000001,0.05108642999999992,-0.6950683600000003,-0.027160639999999975
278.0,-0.0012764595395643784,-0.0772734919650242,0.03068280308401278,-0.33999999999999986,-9.79,0.2799999999999999,0.011969873764228601,0.0031786726658198433,-0.0075062342451455355,4.3125,-2.0,88.3125,0.7166137700000001,0.05108642999999992,-0.6950683600000003,-0.027160639999999975
279.0,-0.0013289219740832644,-0.077143802434125,0.030316199929103175,-0.33999999999999986,-9.79,0.2799999999999999,0.010000393871361613,0.01744850131946906,-0.007041927606443735,4.3125,-2.0,88.3125,0.7166137700000001,0.051086429999999926,-0.6950683600000003,-0.027160639999999975
280.0,-0.0013259905380476507,-0.07661560027609735,0.03233751288960174,-0.33999999999999986,-9.790000000000001,0.2799999999999999,0.008573933851564734,0.014733290976019692,0.0055169916751090725,4.3125,-2.0,88.3125,0.7166137700000001,0.05108642999999993,-0.6950683600000003,-0.027160639999999975
281.0,-0.001443845243422187,-0.07698035518157145,0.03242195664961399,-0.33999999999999986,-9.790000000000001,0.2799999999999999,0.011855451308782879,0.00774266955355004,0.008270848628133133,4.3125,-2.0,88.3125,0.7166137700000001,0.051086429999999926,-0.6950683600000003,-0.027160639999999975
282.0,-0.002179207272544131,-0.07673993142118471,0.03071446408635728,-0.33999999999999986,-9.79,0.2799999999999999,0.0022039180999387244,0.008231490749834218,0.004616439714436806,4.3125,-2.0,88.3125,0.7166137700000001,0.05108642999999992,-0.6950683600000003,-0.027160639999999975
283.0,-0.0018280640124902418,-0.07680843364139239,0.027539456951474417,-0.33999999999999986,-9.790000000000001,0.2799999999999999,-0.007262379546389328,0.006775850047845684,0.0052083398911300805,4.3125,-2.0,88.3125,0.7166137700000001,0.051086429999999926,-0.6950683600000003,-0.027160639999999975
284.0,-0.00195755479170339,-0.07533944467527888,0.02991668188075514,-0.33999999999999986,-9.790000000000001,0.2799999999999999,-0.007333026690757388,-0.008364027101013152,0.0001448125466915126,4.3125,-2.0,88.3125,0.7166137700000001,0.051086429999999926,-0.6950683600000003,-0.027160639999999975
285.0,-0.0018588022420320145,-0.07756668623513213,0.03169194959624959,-0.33999999999999986,-9.79,0.2799999999999999,-0.0007099962594327345,-0.0007795662856849065,-0.007376988520707947,4.3125,-2.0,88.3125,0.7166137700000001,0.05108642999999992,-0.6950683600000003,-0.027160639999999975
286.0,-0.0012371859805373393,-0.07649528055252963,0.03297258444952959,-0.33999999999999986,-9.790000000000001,0.2799999999999999,0.005147692752177494,0.0053176708438901175,-0.0023008812595735366,4.3125,-2.0,88.3125,0.7166137700000001,0.051086429999999926,-0.6950683600000003,-0.027160639999999975
287.0,-0.0014882228401274476,-0.07713851122748958,0.032500612625141395,-0.33999999999999986,-9.790000000000003,0.2799999999999999,0.004246727634037642,0.013961236194949371,-0.013653434369773223,4.3125,-2.0,88.3125,0.7166137700000001,0.05108642999999993,-0.6950683600000003,-0.027160639999999975
288.0,-0.0016880564227078274,-0.07708723551855705,0.03133756173298319,-0.33999999999999986,-9.790000000000001,0.2799999999999999,-0.003173106304609947,-0.007718945625423252,-0.018502087359397453,4.3125,-2.0,88.3125,0.7166137700000001,0.051086429999999926,-0.6950683600000003,-0.027160639999999975
289.0,-0.0010645800315884414,-0.07787940213472444,0.030548327255821177,-0.33999999999999986,-9.790000000000001,0.2799999999999999,0.0006407369352442363,0.01235717160990847,-0.019747453154823166,4.3125,-2.0,88.3125,0.7166137700000001,0.051086429999999926,-0.6950683600000003,-0.027160639999999975
290.0,-0.0004195168966752528,-0.0775064290100817,0.030556285290254365,-0.33999999999999986,-9.790000000000003,0.2799999999999999,-0.0061214864340424086,0.014527710312857166,-0.0080632500511762,4.3125,-2.0,88.3125,0.7166137700000001,0.05108642999999993,-0.6950683600000003,-0.027160639999999975
291.0,-0.0009366798100144511,-0.0784164290798059,0.03250441157795179,-0.33999999999999986,-9.790000000000001,0.2799999999999999,-0.0011914622927194684,0.005548906690049316,-0.004592435110981951,4.3125,-2.0,88.3125,0.7166137700000001,0.051086429999999926,-0.6950683600000003,-0.027160639999999975
292.0,-0.0010042400090654981,-0.07738979622564696,0.03307582701686351,-0.33999999999999986,-9.79,0.2799999999999999,0.0023796850867307965,-0.006151795354246934,0.0021262590313976815,4.3125,-2.0,88.3125,0.7166137700000001,0.05108642999999992,-0.6950683600000003,-0.027160639999999975
293.0,-0.0007176537986955753,-0.07694042582659714,0.03235716594058743,-0.33999999999999986,-9.79,0.2799999999999999,0.0034112347124642204,-5.895459276606795e-05,0.015250287493809439,4.3125,-2.0,88.3125,0.7166137700000001,0.05108642999999992,-0.6950683600000003,-0.027160639999999975
294.0,-0.0002689693451856329,-0.0783301593597072,0.031017376587511455,-0.33999999999999986,-9.79,0.2799999999999999,-0.0024567473957677554,0.012787605291984586,0.011027853323596315,4.3125,-2.0,88.3125,0.7166137700000001,0.05108642999999992,-0.6950683600000003,-0.027160639999999975
295.0,-0.00037906426011264716,-0.07912938428059396,0.02977230542754738,-0.33999999999999986,-9.79,0.2799999999999999,0.007538482462877623,0.011673747119815668,-0.00411226318484383,4.3125,-2.0,88.3125,0.7166137700000001,0.05108642999999992,-0.6950683600000003,-0.027160639999999975
296.0,-0.004412068178815059,-0.07832879368795731,0.03672393742876964,-0.33999999999999986,-9.79,0.2799999999999999,-0.011903503759724493,0.010047207537411427,-0.032737320994995295,4.3125,-2.0,88.3125,0.7166137700000001,0.051086429999999926,-0.6950683600000003,-0.027160639999999975
297.0,-0.0041344532459384655,-0.08057614162187393,0.034827008706452514,-0.33999999999999986,-9.790000000000001,0.2799999999999999,0.005058977396975405,-0.01533263755532919,0.0004275947907096504,4.3125,-2.0,88.3125,0.7166137700000001,0.05108642999999993,-0.6950683600000003,-0.027160639999999975
298.0,-0.002462771937869386,-0.07921536215758315,0.03456532206956011,-0.33999999999999986,-9.790000000000001,0.2799999999999999,-0.01971193475261317,0.0043504502955560905,0.009862414906875562,4.3125,-2.0,88.3125,0.7166137700000001,0.051086429999999926,-0.6950683600000003,-0.027160639999999975
299.0,-0.004782333229559373,-0.07687086592262159,0.03656197491086813,-0.33999999999999986,-9.79,0.2799999999999999,-0.003175539828943554,-0.015881930510184064,0.0018110077606574432,4.3125,-2.0,88.3125,0.7166137700000001,0.05108642999999992,-0.6950683600000003,-0.027160639999999975
300.0,-0.00363230540250081,-0.07752224032343358,0.03530158774159432,-0.33999999999999986,-9.790000000000001,0.2799999999999999,0.021557574290783164,0.010095971366916295,0.010570017570495215,4.3125,-2.0,88.3125,0.7166137700000001,0.051086429999999926,-0.6950683600000003,-0.027160639999999975
301.0,-0.0026824378209174184,-0.0759697569983453,0.03310084589993349,-0.33999999999999986,-9.790000000000003,0.2799999999999999,0.007104229393050272,-0.008089371236416983,0.028616824602105045,4.3125,-2.0,88.3125,0.7166137700000001,0.05108642999999993,-0.6950683600000003,-0.027160639999999975
302.0,-0.0016836303329864721,-0.07592644380853278,0.033760893600416245,-0.33999999999999986,-9.790000000000001,0.2799999999999999,-0.006371536810613945,0.017265137226847034,0.010755398022892819,4.3125,-2.0,88.3125,0.7166137700000001,0.051086429999999926,-0.6950683600000003,-0.027160639999999975
303.0,-0.0022219434947062418,-0.07742502745982192,0.03386053352575857,-0.33999999999999986,-9.79,0.2799999999999999,6.743980001816877e-05,0.026175691373280147,-0.005177976551789637,4.3125,-2.0,88.3125,0.7166137700000001,0.05108642999999992,-0.6950683600000003,-0.027160639999999975
304.0,-0.001983187569165717,-0.07789702153841069,0.034172530267743605,-0.33999999999999986,-9.79,0.2799999999999999,0.010581644967213385,0.004422541107146986,0.0031378782435624256,4.3125,-2.0,88.3125,0.7166137700000001,0.05108642999999992,-0.6950683600000003,-0.027160639999999975
305.0,-0.0014441233916390002,-0.07823979960523925,0.036447793303932746,-0.33999999999999986,-9.79,0.2799999999999999,0.006607293834547346,-0.024983502169945326,-0.0023079541606791866,4.3125,-2.0,88.3125,0.7166137700000001,0.05108642999999992,-0.6950683600000003,-0.027160639999999975
306.0,-0.0021201246110520307,-0.07738204660482886,0.03479117432746466,-0.33999999999999986,-9.79,0.2799999999999999,0.014351833901985111,0.02017279105862775,-0.0028456744308558825,4.3125,-2.0,88.3125,0.7166137700000001,0.05108642999999992,-0.6950683600000003,-0.027160639999999975
307.0,-0.0010474614990744024,-0.07841558206761802,0.03291730186494862,-0.33999999999999986,-9.79,0.2799999999999999,-0.005216511410324208,0.03270871630866343,-0.006616538464766914,4.3125,-2.0,88.3125,0.7166137700000001,0.051086429999999926,-0.6950683600000003,-0.027160639999999975
308.0,-0.0014955437652423376,-0.07846421032988984,0.03139464683621216,-0.33999999999999986,-9.790000000000001,0.2799999999999999,-0.0016306193659445909,0.01843842596090084,0.00547288292528906,4.3125,-2.0,88.3125,0.7166137700000001,0.05108642999999993,-0.6950683600000003,-0.027160639999999975
309.0,-0.0012815660454475897,-0.07740542825762287,0.031832756085796825,-0.33999999999999986,-9.790000000000001,0.2799999999999999,0.0038889913922965217,0.003962876574920466,0.0015523656817945557,4.3125,-2.0,88.3125,0.7166137700000001,0.051086429999999926,-0.6950683600000003,-0.027160639999999975
310.0,-0.0015931639751047473,-0.07888704592604645,0.031181355001423768,-0.33999999999999986,-9.79,0.2799999999999999,-0.0006396696904364804,0.008357846377578002,0.00592851259000122,4.3125,-2.0,88.3125,0.7166137700000001,0.05108642999999992,-0.6950683600000003,-0.027160639999999975
311.0,-0.0025833425734804933,-0.07875137536036572,0.031207022653997732,-0.33999999999999986,-9.790000000000001,0.2799999999999999,-0.004303065454359359,-0.006194385864280718,-0.003768514056396172,4.3125,-2.0,88.3125,0.7166137700000001,0.051086429999999926,-0.6950683600000003,-0.027160639999999975
312.0,-0.0011328623537377653,-0.07708353456624231,0.03177606959897544,-0.33999999999999986,-9.790000000000001,0.2799999999999999,-0.0037400288423812414,0.010071460202139428,0.0007623890280196253,4.3125,-2.0,88.3125,0.7166137700000001,0.051086429999999926,-0.6950683600000003,-0.027160639999999975
313.0,-0.0020093563109627108,-0.07709090983808073,0.03203498820450565,-0.33999999999999986,-9.79,0.2799999999999999,0.005777425834657884,-0.00784771739038941,0.0047250790799990856,4.3125,-2.0,88.3125,0.7166137700000001,0.05108642999999992,-0.6950683600000003,-0.027160639999999975
314.0,-0.0028795101447286666,-0.07782922508033069,0.03373237985494101,-0.33999999999999986,-9.790000000000001,0.2799999999999999,-0.02522578641062805,-0.009664576101108683,0.001318772738924274,4.3125,-2.0,88.3125,0.7166137700000001,0.051086429999999926,-0.6950683600000003,-0.027160639999999975
315.0,-0.0032409387352155296,-0.0772446398554619,0.03534994708147675,-0.33999999999999986,-9.790000000000003,0.2799999999999999,-0.001087728175397271,-0.002404092323447162,0.0036236244677972044,4.3125,-2.0,88.3125,0.7166137700000001,0.05108642999999993,-0.6950683600000003,-0.027160639999999975
316.0,-0.002772914737014632,-0.07743605561971847,0.034831581241050555,-0.33999999999999986,-9.790000000000001,0.2799999999999999,0.011162691583477224,0.005643037084894525,-0.0004969806901388586,4.3125,-2.0,88.3125,0.7166137700000001,0.051086429999999926,-0.6950683600000003,-0.027160639999999975
317.0,-0.002538373552681565,-0.07715148324331468,0.033607448425086325,-0.33999999999999986,-9.79,0.2799999999999999,0.003083216680706275,-0.008877445575871694,-0.0008380665394843334,4.3125,-2.0,88.3125,0.7166137700000001,0.05108642999999992,-0.6950683600000003,-0.027160639999999975
318.0,-0.0034229980628860727,-0.07701420955245737,0.032952440353327006,-0.33999999999999986,-9.790000000000001,0.2799999999999999,-0.012447745994717749,-0.014615111781749481,-0.004264787594740278,4.3125,-2.0,88.3125,0.7166137700000001,0.051086429999999926,-0.6950683600000003,-0.027160639999999975
319.0,-0.0024588108594000256,-0.07707968542138996,0.033164392219674266,-0.33999999999999986,-9.790000000000001,0.2799999999999999,-0.0058542493414448955,-0.007626776320982267,0.004453627708006204,4.3125,-2.0,88.3125,0.7166137700000001,0.051086429999999926,-0.6950683600000003,-0.027160639999999975
320.0,-0.0020733510551232655,-0.07646181552340661,0.03360299124717754,-0.33999999999999986,-9.79,0.2799999999999999,-0.01762174254562128,-0.0079909458467637,0.0036653575337018286,4.3125,-2.0,88.3125,0.7166137700000001,0.05108642999999992,-0.6950683600000003,-0.027160639999999975
321.0,-0.0036655397748734607,-0.07723645211654201,0.03353990288165329,-0.33999999999999986,-9.790000000000001,0.2799999999999999,-0.011323682092703114,-0.01334002097445712,-0.0018520070530415587,4.3125,-2.0,88.3125,0.7166137700000001,0.051086429999999926,-0.6950683600000003,-0.027160639999999975
322.0,-0.0031678953354654046,-0.07584684869011943,0.035360581241133865,-0.33999999999999986,-9.790000000000001,0.2799999999999999,-0.04993667463570128,-0.011862342796496353,-0.007966454115358465,4.3125,-2.0,88.3125,0.7166137700000001,0.051086429999999926,-0.6950683600000003,-0.027160639999999975
323.0,-0.005386168714797747,-0.07789301715309777,0.0386110151049667,-0.33999999999999986,-9.79,0.2778225806451612,-0.029578993055555555,0.0009517609126984119,-0.007395773329493087,4.3125,-2.0,88.32258064516128,0.7165906354838708,0.05108642999999992,-0.6950914939516126,-0.027160639999999975
324.0,-0.004952388297113312,-0.08136098834915599,0.03171172450118775,-0.33999999999999986,-9.790000000000001,0.27222699629825475,-0.15755534255831716,-0.023305301375353596,-0.06524585442320767,4.3125,-2.0,88.34979838709677,0.7164612176969857,0.051086429999999926,-0.6952219448711,-0.02716012361713377
325.0,-0.007859062523100369,-0.07899887945446168,0.01846879851077259,-0.33999999999999986,-9.790000000000003,0.2869355585029255,0.11834049267043095,0.02593633565261027,-0.03527238709961732,4.314581165452653,-2.0,88.26090985952132,0.717028824046203,0.051047304422476535,-0.6946345156821679,-0.02721982980024222
326.0,-0.007443460880318514,-0.07984450326584275,0.008381271200645336,-0.33999999999999986,-9.79,0.2989516502192046,0.10273696187773747,-0.0072740731316616285,0.005941824534257813,4.3457986472424555,-2.0,88.18993073621228,0.7174828402489073,0.05094085946930276,-0.6941898946152774,-0.027347747158185616
327.0,-0.0013401780208044177,-0.08097819921356655,0.019480454148709768,-0.33999999999999986,-9.79,0.2981855025289572,-0.03041075293209901,-0.042778291606153394,0.0036954586380966476,4.330661420395421,-2.0,88.18720327133195,0.7174701373018729,0.050858593766909446,-0.6942063106140903,-0.027352639788770214
328.0,0.0014670077637913403,-0.07847549073581553,0.016085993203387144,-0.33999999999999986,-9.79,0.2891607956193173,-0.0513381889660495,-0.06090842503694767,0.00548621218195155,4.32158071019771,-2.0,88.21727855098855,0.71720018886263,0.050814999625390204,-0.694479100112993,-0.027319643765352838
329.0,0.006363207335501821,-0.0778138345352185,0.016452344525055246,-0.33999999999999986,-9.79,0.28478928199791875,-0.06289451448871974,-0.010355719657553688,0.034436756174366735,4.323491968002081,-2.0,88.24800031767789,0.7170373929559057,0.05084796805338989,-0.6946432817143898,-0.02732448802460378
330.0,0.0077055370704564256,-0.0775099349575156,0.01982086529062336,-0.34459677419354834,-9.79,0.28205645161290316,-0.09354077961688848,0.018853097507331378,0.05006177038687119,4.31843497983871,-2.017641129032258,88.2824451380273,0.7168663390221774,0.05124357065260545,-0.6947944989008992,-0.027287468923852365
331.0,0.020022530672732283,-0.07997407095592579,0.021471667109771952,-0.35253904249871976,-9.79,0.28038050435227846,-0.0834600106714522,0.022868863607270862,0.04324295985712316,4.3287963429659495,-2.056951644905274,88.30049676256203,0.7167223812238384,0.05183147783270312,-0.6948875983444587,-0.027304640283738784
332.0,0.01994314343810312,-0.08019500694198275,0.021753009423372334,-0.3524630696364568,-9.79,0.2799180747567843,-0.08478865724329435,0.03896573996120367,0.0548563492678916,4.378665434587813,-2.060733886968766,88.30849875930521,0.7166645854655558,0.05220385071318781,-0.6949112243527114,-0.02758384332064575
333.0,0.017610800937413844,-0.0799222941037457,0.01939174199456458,-0.35139282514080916,-9.79,0.2799590373783921,-0.03331980939087794,0.029148173175390917,0.03228069673382173,4.410098846326164,-2.062625008000512,88.31150744416873,0.7166657548295521,0.05234310519530361,-0.694900206047323,-0.027779800531290637
334.0,0.017122858245061687,-0.07917086449364025,0.01749535871040164,-0.35085770289298535,-9.79,0.279979518689196,-0.008593387445779163,0.015530121967508151,0.016770701364589566,4.4256139392921146,-2.063570568516385,88.3125,0.7166673240276791,0.05241102101452527,-0.6948937124579044,-0.02787711269492573
335.0,0.016617864734410008,-0.07856576698824357,0.01911446282934317,-0.35044649257552507,-9.79,0.27998975934459797,-0.016373216620355017,0.0003210845692635505,0.014529993939463241,4.43355734767025,-2.0634920634920633,88.3125,0.7166702928807751,0.052433169683169925,-0.6948889428216938,-0.027926942756233045
336.0,0.01530714025250967,-0.07940577135894511,0.019599474118204615,-0.3500645161290325,-9.79,0.2799999999999999,-0.02623576345610685,0.02949841990879972,-0.006935911888435302,4.437096774193548,-2.0625,88.3125,0.7166734370471464,0.05243213805459062,-0.6948861587841184,-0.027950646992555863
337.0,0.01574882346812629,-0.07836349562103984,0.019762516215429855,-0.3500000000000002,-9.790000000000001,0.2799999999999999,-0.008569334541629026,0.014447541019796482,-0.000344706924766759,4.4375,-2.0625,88.3125,0.7166747999999998,0.052429200000000044,-0.6948852499999993,-0.02795410000000003
338.0,0.016665975009497392,-0.07830209520506086,0.01944701493153627,-0.35000000000000026,-9.790000000000001,0.2799999999999999,-0.002516677196372826,0.010488348673669953,-0.004359698375534744,4.4375,-2.0625,88.3125,0.7166747999999998,0.05242920000000005,-0.6948852499999993,-0.02795410000000003
339.0,0.016374090522438607,-0.07901577184810793,0.021003424219150038,-0.35000000000000026,-9.79,0.2799999999999999,0.010627067229076853,-0.0033731513655583627,-0.022389916825644583,4.4375,-2.0625,88.3125,0.7166747999999998,0.05242920000000005,-0.6948852499999993,-0.02795410000000003
340.0,0.016755170395421445,-0.07937467481789802,0.019573198491155054,-0.3500000000000002,-9.790000000000001,0.2799999999999999,0.013029640348595214,-0.01188438963319459,-0.00985809866024974,4.4375,-2.0625,88.3125,0.7166747999999998,0.052429200000000044,-0.6948852499999993,-0.02795410000000003
341.0,0.01471969302809574,-0.0778508714880333,0.01803590010405828,-0.3500000000000002,-9.790000000000003,0.2799999999999999,0.016998894380853277,0.0009328661550468261,0.01110496878251821,4.4375,-2.0625,88.3125,0.7166747999999998,0.052429200000000044,-0.6948852499999993,-0.02795410000000003
342.0,0.015322905827263276,-0.07880576873048906,0.018695369406867855,-0.3500000000000002,-9.790000000000001,0.2799999999999999,0.008401892559833507,0.009018722359521331,0.005926443808532777,4.4375,-2.0625,88.3125,0.7166747999999998,0.05242920000000005,-0.6948852499999993,-0.02795410000000003
343.0,0.016472896846043316,-0.07943060613943807,0.017560450320433418,-0.3500000000000002,-9.79,0.2799999999999999,0.01898689258047999,-0.007377649588928529,0.006161426589366236,4.4375,-2.0625,88.3125,0.7166747999999998,0.05242920000000005,-0.6948852499999993,-0.02795410000000003
344.0,0.017251065358505534,-0.08004292403746098,0.01729080983763607,-0.35000000000000026,-9.79,0.2799999999999999,0.01768397048378838,-0.0009008963670449101,0.013791398778554086,4.4375,-2.0625,88.3125,0.7166747999999998,0.05242920000000005,-0.6948852499999993,-0.02795410000000003
345.0,0.017220745998711665,-0.07768795525494275,0.01569014997605009,-0.35000000000000026,-9.79,0.2799999999999999,-0.0009622551327155924,0.0008827984345836843,0.011383212396561121,4.4375,-2.0625,88.3125,0.7166747999999998,0.05242920000000005,-0.6948852499999993,-0.027954100000000034
346.0,0.015948282228524173,-0.08017168114143919,0.013929482256095164,-0.35000000000000026,-9.79,0.2799999999999999,-0.015678388032218677,-0.0007950431904564969,0.002226165551518374,4.4375,-2.0625,88.3125,0.7166747999999998,0.05242920000000005,-0.6948852499999993,-0.027954100000000034
347.0,0.014147544736684087,-0.07992165825977299,0.01443648227030036,-0.3500000000000002,-9.79,0.2799999999999999,-0.039039617072693156,-0.004367033840733272,0.0053278976058755275,4.4375,-2.0625,88.3125,0.7166747999999998,0.052429200000000044,-0.6948852499999993,-0.02795410000000003
348.0,0.015946722172613392,-0.08029381560231105,0.01694157826743633,-0.3500000000000002,-9.790000000000001,0.2799999999999999,-0.0017736405235292407,-0.0002546192773690973,-0.013040798236356621,4.4375,-2.0625,88.3125,0.7166747999999998,0.052429200000000044,-0.6948852499999993,-0.02795410000000003
349.0,0.01530637132203871,-0.07958099589048555,0.0170074671734204,-0.3500000000000002,-9.790000000000001,0.2799999999999999,-0.023983371517968095,0.004260436561687659,-0.017257255507756475,4.4375,-2.0625,88.3125,0.7166747999999998,0.05242920000000005,-0.6948852499999993,-0.02795410000000003
350.0,0.015601774370696781,-0.07946035681621051,0.01609697955445214,-0.3500000000000002,-9.79,0.2799999999999999,-0.020260964992855013,0.029820490458263182,0.001814290592895956,4.4375,-2.0625,88.3125,0.7166747999999998,0.05242920000000005,-0.6948852499999993,-0.02795410000000003
351.0,0.015473583895506083,-0.07760931072220115,0.016424380275905336,-0.3500000000000002,-9.790000000000001,0.2799999999999999,-0.04192328646665083,0.00401514397242784,0.018690103753183748,4.4375,-2.0625,88.3125,0.7166747999999998,0.052429200000000044,-0.6948852499999993,-0.02795410000000003
352.0,0.015681001360762035,-0.07719704034259184,0.017807642279676628,-0.35000000000000026,-9.790000000000001,0.2799999999999999,-0.010914049367645881,-0.009469490414632194,0.007700749919955173,4.4375,-2.0625,88.3125,0.7166747999999998,0.05242920000000005,-0.6948852499999993,-0.02795410000000003
353.0,0.014812404946770198,-0.07681392079564556,0.01722067858000481,-0.35000000000000026,-9.79,0.2799999999999999,0.008086809863523572,-0.0057915870387416956,0.001313954564556151,4.4375,-2.0625,88.3125,0.7166747999999998,0.05242920000000005,-0.6948852499999993,-0.02795410000000003
354.0,0.01466018470343393,-0.07734212408949011,0.016576320239334037,-0.3500000000000002,-9.790000000000001,0.2799999999999999,0.01204088351977107,-0.01708323848855359,0.0009826596644120704,4.4375,-2.0625,88.3125,0.7166747999999998,0.052429200000000044,-0.6948852499999993,-0.02795410000000003
355.0,0.015647437565036428,-0.07635275754422477,0.015952133194588977,-0.3500000000000002,-9.790000000000003,0.2799999999999999,0.013051996618106139,0.00932256438605619,0.0032823068418314253,4.4375,-2.0625,88.3125,0.7166747999999998,0.052429200000000044,-0.6948852499999993,-0.02795410000000003
356.0,0.01607285830064837,-0.07792379732650284,0.01580737212839191,-0.3500000000000002,-9.790000000000001,0.2799999999999999,0.007037784909549347,-0.016833504887737133,0.0075399567507804365,4.4375,-2.0625,88.3125,0.7166747999999998,0.05242920000000005,-0.6948852499999993,-0.02795410000000003
357.0,0.015773568198190993,-0.07776360261746579,0.013922969362843197,-0.3500000000000002,-9.790000000000001,0.2799999999999999,-0.004568996137837188,0.0075542616365164485,-0.014913257674297607,4.4375,-2.0625,88.3125,0.7166747999999998,0.052429200000000044,-0.6948852499999993,-0.02795410000000003
358.0,0.016967214426964354,-0.07800652037272018,0.014222234615319011,-0.3500000000000002,-9.790000000000003,0.2799999999999999,-0.01806132745813065,-0.0078254232206101,-0.007890943518534314,4.4375,-2.0625,88.3125,0.7166747999999998,0.052429200000000044,-0.6948852499999993,-0.02795410000000003
359.0,0.017201089003284473,-0.07968224041528829,0.01620841179257106,-0.3500000000000002,-9.790000000000001,0.2799999999999999,-0.012282484748836395,0.008623058420912433,-0.00041724595281554403,4.4375,-2.0625,88.3125,0.7166747999999998,0.05242920000000005,-0.6948852499999993,-0.02795410000000003
360.0,0.016558400901226008,-0.07838170293397087,0.016324809434266806,-0.3500000000000002,-9.79,0.2799999999999999,-0.005344546224574286,0.0022141046527038746,0.006750274005902322,4.4375,-2.0625,88.3125,0.7166747999999998,0.05242920000000005,-0.6948852499999993,-0.02795410000000003
361.0,0.016965304668975292,-0.07799109960594328,0.01629639975435425,-0.35000000000000026,-9.79,0.2799999999999999,0.03464162266935058,-0.009803307475136896,0.006701749906176967,4.4375,-2.0625,88.3125,0.7166747999999998,0.05242920000000005,-0.6948852499999993,-0.02795410000000003
362.0,0.01568810961278572,-0.07911649689842445,0.014504508616420308,-0.35000000000000026,-9.79,0.2799999999999999,0.008860140819504253,0.004339195741314328,0.002400104426355418,4.4375,-2.0625,88.3125,0.7166747999999998,0.05242920000000005,-0.6948852499999993,-0.027954100000000034
363.0,0.014891913082437286,-0.07837765616999487,0.015404025857654895,-0.35000000000000026,-9.79,0.2799999999999999,0.0008770561315924229,0.009589613735279057,-0.005335841493855607,4.4375,-2.0625,88.3125,0.7166747999999998,0.05242920000000005,-0.6948852499999993,-0.027954100000000034
364.0,0.015358742959549419,-0.07826748911930363,0.01543834805427548,-0.35000000000000026,-9.79,0.2799999999999999,-0.005099326356886839,-0.015040462589605733,0.011558739759344596,4.4375,-2.0625,88.3125,0.7166747999999998,0.05242920000000005,-0.6948852499999993,-0.027954100000000034
365.0,0.016814171188923314,-0.07732017865536836,0.014392685066270476,-0.3500000000000002,-9.79,0.2799999999999999,-0.009455834681616343,-0.022808779434014922,0.013491166713358177,4.4375,-2.0625,88.3125,0.7166747999999998,0.052429200000000044,-0.6948852499999993,-0.02795410000000003
366.0,0.015224121884784239,-0.07724627884381322,0.016208439307328792,-0.35000000000000026,-9.79,0.2799999999999999,-0.007405588711775914,0.007103044758798988,0.0061312940421629596,4.4375,-2.0625,88.3125,0.7166747999999998,0.05242920000000005,-0.6948852499999993,-0.02795410000000003
367.0,0.015685537644901083,-0.07797541796773354,0.015076825900464191,-0.35000000000000026,-9.79,0.2799999999999999,0.018746642408064937,-0.0028008841746199626,0.007145908157794229,4.4375,-2.0625,88.3125,0.7166747999999998,0.05242920000000005,-0.6948852499999993,-0.02795410000000003
368.0,0.016354329046175835,-0.07786005874973566,0.014352278715060403,-0.3500000000000002,-9.790000000000001,0.2799999999999999,0.014702242900182311,-0.001100664837049836,0.0027371344574090815,4.4375,-2.0625,88.3125,0.7166747999999998,0.052429200000000044,-0.6948852499999993,-0.02795410000000003
369.0,0.01668714916210482,-0.07723776106969628,0.01519969286495468,-0.35000000000000026,-9.790000000000001,0.2799999999999999,0.024424214128022544,-0.006086686745201825,-0.013928411777951885,4.4375,-2.0625,88.3125,0.7166747999999998,0.05242920000000005,-0.6948852499999993,-0.02795410000000003
370.0,0.013131964932108019,-0.07589789448757969,0.019293699908456682,-0.35000000000000026,-9.79,0.2799999999999999,0.008952995076052114,0.020760962448494964,-0.04145526678471691,4.4375,-2.0625,88.3125,0.7166747999999998,0.05242920000000005,-0.6948852499999993,-0.02795410000000003
371.0,0.0105377566596024,-0.0771878585341124,0.020808644309067058,-0.35000000000000026,-9.79,0.2799999999999999,0.017124557013832507,0.019894090095215224,-0.05448204367461651,4.4375,-2.0625,88.3125,0.7166747999999998,0.05239769548387095,-0.6948852499999993,-0.02798560451612904
372.0,0.009105563877676264,-0.0773852119091453,0.023779618173478748,-0.35000000000000026,-9.79,0.2799999999999999,0.022718184484898846,-0.002152729337953062,-0.01866247281017052,4.4375,-2.0625,88.3125,0.7166747999999998,0.0523819432258064,-0.6948852499999993,-0.028001356774193544
373.0,0.009844145102209621,-0.07719676828547795,0.020459007838040104,-0.35000000000000026,-9.79,0.2799999999999999,0.020773114094686677,-0.00966117216117216,0.022455314063176968,4.4375,-2.0625,88.3125,0.7166747999999998,0.05237406709677413,-0.6948852499999993,-0.028009232903225795
374.0,0.010122230815779204,-0.07771373116131179,0.018338473802183487,-0.3500000000000003,-9.789999999999997,0.2799999999999999,0.017189901552300747,-0.009037400771271738,0.010225411069665102,4.4375,-2.0625,88.3125,0.7166747999999998,0.05237012903225799,-0.6948852499999993,-0.028013170967741925
375.0,0.011671211815976495,-0.07674381998003757,0.017596605407783364,-0.3500000000000002,-9.79,0.2799999999999999,-0.010334034701618817,0.01854932426554584,0.013057474277459569,4.4375,-2.0625,88.3125,0.7166747999999998,0.052368159999999914,-0.6948852499999993,-0.028015139999999987
376.0,0.010865847843472122,-0.07865094555321286,0.016309292259682272,-0.3500000000000002,-9.79,0.2799999999999999,0.005015622043029828,0.016363132188299098,0.01604518635541408,4.4375,-2.0625,88.3125,0.7166747999999998,0.052368159999999914,-0.6948852499999993,-0.028015139999999987
377.0,0.009498464116308517,-0.07952516555694436,0.01772965893066039,-0.35000000000000026,-9.79,0.2799999999999999,0.022205071646194893,0.013605913252367673,-0.0008179726185039175,4.4375,-2.0625,88.3125,0.7166747999999998,0.052368159999999914,-0.6948852499999993,-0.028015139999999987
378.0,0.009414050606541356,-0.0812620787462141,0.01770303511049149,-0.35000000000000026,-9.79,0.2799999999999999,0.024412137637613573,-0.0060341149463968066,-0.0008972675592519587,4.4375,-2.0625,88.3125,0.7166747999999998,0.052368159999999914,-0.6948852499999993,-0.028015139999999987
379.0,0.010844203537223108,-0.08033266391344128,0.017110257023662638,-0.35000000000000026,-9.79,0.2799999999999999,0.008904766626375562,0.01862578221399612,-0.017299894078466924,4.4375,-2.0625,88.3125,0.7166747999999998,0.052368159999999914,-0.6948852499999993,-0.028015139999999987
380.0,0.011404121863799287,-0.07880579825456874,0.016141183915972395,-0.35000000000000026,-9.79,0.2799999999999999,-0.012322420412964434,-0.0038377109350635277,-0.007375946713805321,4.4375,-2.0625,88.3125,0.7166747999999998,0.052368159999999914,-0.6948852499999993,-0.028015139999999987
381.0,0.011992383512544808,-0.0791530313324668,0.016776303221867746,-0.35000000000000026,-9.79,0.2799999999999999,0.002580857482571192,0.0008739790115798174,-0.012520932108885737,4.4375,-2.0625,88.3125,0.7166747999999998,0.052368159999999914,-0.6948852499999993,-0.028015139999999987
382.0,0.013262992831541226,-0.07819513125763125,0.016075651610933876,-0.3500000000000002,-9.79,0.2799999999999999,0.014638883042360865,-0.002946327026468156,-0.005992698917346094,4.4375,-2.0625,88.3125,0.7166747999999998,0.052368159999999914,-0.6948852499999993,-0.028015139999999987
383.0,0.012624679979518695,-0.07831487553664972,0.017502151522312822,-0.35000000000000026,-9.79,0.2799999999999999,0.003821967682854781,-0.006695997774626806,-0.001988034926542991,4.4375,-2.0625,88.3125,0.7166747999999998,0.052368159999999914,-0.6948852499999993,-0.028015139999999987
384.0,0.011921658986175122,-0.07763542035921067,0.01743643162393163,-0.35000000000000026,-9.79,0.2799999999999999,0.0009989254696915993,-0.002003912865808027,-0.006514370765882863,4.4375,-2.0625,88.3125,0.7166747999999998,0.052368159999999914,-0.6948852499999993,-0.028015139999999987
385.0,0.012057603686635951,-0.07741076228878647,0.017746751792114705,-0.35000000000000026,-9.79,0.2799999999999999,0.002554363479262673,0.016018825204813108,0.003248707917306707,4.4375,-2.0625,88.3125,0.7166747999999998,0.052368159999999914,-0.6948852499999993,-0.028015139999999987
386.0,0.011242313212963671,-0.07913599821208228,0.016631713085375175,-0.3500000000000002,-9.790000000000001,0.2799999999999999,0.03536701102968951,-0.0026615080414326836,0.023573771016427016,4.4375,-2.0625,88.3125,0.7166747999999998,0.052368159999999914,-0.6948852499999993,-0.028015139999999987
387.0,0.009019006068847427,-0.07719165502001965,0.026372308155590822,-0.35000000000000026,-9.79,0.2799999999999999,-0.04323719340988643,-0.020887205633619566,-0.023495372556302616,4.4375,-2.0625,88.3125,0.7166747999999998,0.052368159999999914,-0.6948852499999993,-0.028015139999999987
388.0,0.009806482041080141,-0.07730806509321513,0.02426910338655118,-0.35000000000000026,-9.79,0.2799999999999999,0.0035670151742170503,-0.005659296621213265,0.02867090051140322,4.4375,-2.0625,88.3125,0.7166747999999998,0.052368159999999914,-0.6948852499999993,-0.028015139999999987
389.0,0.009799833112111352,-0.07736996972142543,0.022343887671423358,-0.3500000000000002,-9.790000000000001,0.2799999999999999,0.026788995035079387,0.0038711353782591323,0.029612911884213576,4.4375,-2.0625,88.3125,0.7166747999999998,0.052368159999999914,-0.6948852499999993,-0.028015139999999987
390.0,0.011396892362507292,-0.07752067034458368,0.01975309302926007,-0.35000000000000026,-9.790000000000001,0.2799999999999999,0.009819018686894533,0.007968203777839243,-0.0005192749046674053,4.4375,-2.0625,88.3125,0.7166747999999998,0.052368159999999914,-0.6948852499999993,-0.028015139999999987
391.0,0.010531704937304577,-0.07795306998903509,0.018042230117119563,-0.35000000000000026,-9.79,0.2799999999999999,0.02666412635520336,-0.0046183876363620775,-0.00838135774684617,4.4375,-2.0625,88.3125,0.7166747999999998,0.052368159999999914,-0.6948852499999993,-0.028015139999999987
392.0,0.008732049789151769,-0.07597201496330006,0.015691494220890688,-0.3500000000000002,-9.790000000000001,0.2799999999999999,0.010019270513709901,0.006629757306949033,-0.0332650073723825,4.4375,-2.0625,88.3125,0.7166747999999998,0.052368159999999914,-0.6948852499999993,-0.028015139999999987
393.0,0.009028083266311677,-0.07638846523894649,0.013961978549257431,-0.35000000000000026,-9.790000000000001,0.2799999999999999,0.018562502640367493,0.008291197137857517,-0.004583732564839484,4.4375,-2.0625,88.3125,0.7166747999999998,0.052368159999999914,-0.6948852499999993,-0.028015139999999987
394.0,0.009596047556472899,-0.07656836213200027,0.014911270231964827,-0.35000000000000026,-9.79,0.2799999999999999,0.010485925937969707,-0.010954107266338992,-0.0062373257397158295,4.4375,-2.0625,88.3125,0.7166747999999998,0.052368159999999914,-0.6948852499999993,-0.028015139999999987
395.0,0.010067758579725285,-0.07800436561935001,0.01623052655518837,-0.35000000000000026,-9.79,0.2799999999999999,0.02421178081948113,-0.009155762147437487,-0.012571690940577517,4.4375,-2.0625,88.3125,0.7166747999999998,0.052368159999999914,-0.6948852499999993,-0.028015139999999987
396.0,0.01028077755288994,-0.07918828702803729,0.01591675211134109,-0.35000000000000026,-9.79,0.2799999999999999,0.023993297357631387,0.019894823640921454,-0.0070612797134649375,4.4375,-2.0625,88.3125,0.7166747999999998,0.052368159999999914,-0.6948852499999993,-0.028015139999999987
397.0,0.009633985190436806,-0.07841992595218401,0.01559309149631731,-0.35000000000000026,-9.79,0.2799999999999999,0.014144351392335263,0.0017468194887549724,0.019248616526842333,4.4375,-2.0625,88.3125,0.7166747999999998,0.052368159999999914,-0.6948852499999993,-0.028015139999999987
398.0,0.010140038724716147,-0.07863555530491013,0.015727235130460943,-0.3500000000000003,-9.789999999999997,0.2799999999999999,-0.010482402342281373,0.0251513271674562,0.010185798744266485,4.4375,-2.0625,88.3125,0.7166747999999998,0.052368159999999914,-0.6948852499999993,-0.028015139999999987
399.0,0.00901915087600572,-0.07896666102714489,0.016395875629746606,-0.35000000000000026,-9.79,0.2799999999999999,0.009817731831340704,-0.0056082694187532915,0.010745815004887586,4.4375,-2.0625,88.3125,0.7166747999999998,0.052368159999999914,-0.6948852499999993,-0.028015139999999987
400.0,0.010768819631144464,-0.07915481080483064,0.017391526880487757,-0.3500000000000002,-9.79,0.2799999999999999,-0.0036127750557326498,-0.005339677564195015,-0.010710361423236555,4.4375,-2.0625,88.3125,0.7166747999999998,0.052368159999999914,-0.6948852499999993,-0.028015139999999987
401.0,0.01231233320266901,-0.07747559088628628,0.01739536021443743,-0.35000000000000026,-9.79,0.2799999999999999,0.020481288883423997,0.022783790250160554,-0.005827710953553762,4.4375,-2.0625,88.3125,0.7166747999999998,0.052368159999999914,-0.6948852499999993,-0.028015139999999987
402.0,0.013206771910004335,-0.07588404704100764,0.015959353917279626,-0.3500000000000003,-9.79,0.2799999999999999,0.020931297874300914,0.0008873459108536454,-0.013860167229540246,4.4375,-2.0625,88.3125,0.7166747999999998,0.052368159999999914,-0.6948852499999993,-0.028015139999999987
403.0,0.01429336264497886,-0.0766116979321137,0.01566596916106105,-0.35000000000000026,-9.79,0.2799999999999999,0.013977896098591168,0.0006725435472006401,-0.004479241446186019,4.4375,-2.0625,88.3125,0.7166747999999998,0.052368159999999914,-0.6948852499999993,-0.028015139999999987
404.0,0.014637200715730601,-0.07528721577353253,0.015996587051088647,-0.35000000000000026,-9.79,0.2799999999999999,-0.01396489299653135,-0.02007428450200132,-0.002924914581899973,4.4375,-2.0625,88.3125,0.7166747999999998,0.052368159999999914,-0.6948852499999993,-0.028015139999999987
405.0,0.013946432599658415,-0.07662192623684558,0.014213320169973401,-0.35000000000000026,-9.79,0.2799999999999999,-0.0012755047092244667,-0.002014067361849621,0.002523783200446507,4.4375,-2.0625,88.3125,0.7166747999999998,0.052368159999999914,-0.6948852499999993,-0.028015139999999987
406.0,0.013580226225387522,-0.07742363371395629,0.014290942032877523,-0.35000000000000026,-9.79,0.2799999999999999,-0.01623488518649809,-0.013736756075465753,0.00475158801771705,4.4375,-2.0625,88.3125,0.7166747999999998,0.052368159999999914,-0.6948852499999993,-0.028015139999999987
407.0,0.01320122887864824,-0.07749143329788491,0.016004568907794718,-0.35000000000000026,-9.79,0.2799999999999999,-0.025350545511835833,-0.014212848083815826,0.001160443499153177,4.4375,-2.0625,88.3125,0.7166747999999998,0.052368159999999914,-0.6948852499999993,-0.028015139999999987
408.0,0.013024932057190127,-0.07902611367127496,0.016965063610224908,-0.35000000000000026,-9.79,0.2799999999999999,0.00410512426641459,-0.01954438930245382,-0.026296329118909764,4.4375,-2.0625,88.3125,0.7166747999999998,0.052368159999999914,-0.6948852499999993,-0.028015139999999987
409.0,0.012864941510102808,-0.07897254716609556,0.016635708377643867,-0.35000000000000026,-9.79,0.2799999999999999,-0.016165957698215765,0.014705187285832446,-0.027027945173106464,4.4375,-2.0625,88.3125,0.7166747999999998,0.052368159999999914,-0.6948852499999993,-0.028015139999999987
410.0,0.012186813186813193,-0.08016369293788649,0.015775670565993154,-0.35000000000000026,-9.79,0.2799999999999999,0.01241174819803852,0.025249615975422426,-0.009086243058017252,4.4375,-2.0625,88.3125,0.7166747999999998,0.052368159999999914,-0.6948852499999993,-0.028015139999999987
411.0,0.012872723010600228,-0.07877967725418297,0.016145739709475408,-0.3500000000000002,-9.79,0.2799999999999999,0.012914631002885424,0.027044883229846807,0.004713562213887395,4.4375,-2.0625,88.3125,0.7166747999999998,0.052368159999999914,-0.6948852499999993,-0.028015139999999987
412.0,0.01242253662050749,-0.07943080124869928,0.015570329384455302,-0.35000000000000026,-9.79,0.2799999999999999,0.016414629692627872,0.015251290722804772,-0.0010691612302889623,4.4375,-2.0625,88.3125,0.7166747999999998,0.052368159999999914,-0.6948852499999993,-0.028015139999999987
413.0,0.012571746541699721,-0.07751831813694458,0.015082856247983724,-0.3500000000000003,-9.79,0.2799999999999999,0.004258709688031359,0.01778853354848412,-0.0055622142718103965,4.4375,-2.0625,88.3125,0.7166747999999998,0.052368159999999914,-0.6948852499999993,-0.028015139999999987
414.0,0.012450885677797755,-0.07740804244316211,0.01614936857064199,-0.35000000000000026,-9.79,0.2799999999999999,-0.01895470222794462,0.01319017248143809,-0.002346863959726538,4.4375,-2.0625,88.3125,0.7166747999999998,0.052368159999999914,-0.6948852499999993,-0.028015139999999987
415.0,0.012153094824010544,-0.07931909566326839,0.013711199483832162,-0.35000000000000026,-9.79,0.2799999999999999,0.006254028771263423,-0.008860287518586165,-0.0023077468837094228,4.4375,-2.0625,88.3125,0.7166747999999998,0.052368159999999914,-0.6948852499999993,-0.028015139999999987
416.0,0.012845618091585843,-0.07922474434167981,0.014451293330325594,-0.35000000000000026,-9.79,0.2799999999999999,-0.009475042766373412,0.0025750291375291378,0.00401251973832619,4.4375,-2.0625,88.3125,0.7166747999999998,0.052368159999999914,-0.6948852499999993,-0.028015139999999987
417.0,0.013567970336115506,-0.07961237217083991,0.013353438228438232,-0.35000000000000026,-9.79,0.2799999999999999,-0.00805637994398075,0.0042651820625610945,0.0006027238890142115,4.4375,-2.0625,88.3125,0.7166747999999998,0.052368159999999914,-0.6948852499999993,-0.028015139999999987
