time,linaccel_x,linaccel_y,linaccel_z,gravity_x,gravity_y,gravity_z,gyro_x,gyro_y,gyro_z,euler_x,euler_y,euler_z,quaternion_w,quaternion_y,quaternion_x,quaternion_z
0.0,0.02838709677419357,-0.06161290322580645,0.04580645161290323,-0.37,-9.790000000000001,0.04000000000000002,-0.015120967741935484,-0.005040322580645161,-0.0020161290322580645,349.5625,-2.1875,89.6875,0.7059936500000009,-0.036743159999999934,-0.7043456999999996,0.06433104999999995
1.0,0.025667493796526067,-0.0633068651778329,0.04337138130686519,-0.37,-9.79,0.04000000000000002,0.04111352357320099,0.014986559139784946,-0.01477460711331679,349.5625,-2.1875,89.6875,0.705993650000001,-0.036743159999999934,-0.7043456999999995,0.06433104999999995
2.0,0.024978376462247445,-0.06335129386742289,0.04038993264799717,-0.37,-9.79,0.04000000000000002,0.05113656504785537,0.018510723147819923,-0.015672633817795108,349.5625,-2.1875,89.6875,0.705993650000001,-0.036743159999999934,-0.7043456999999995,0.06433104999999995
3.0,0.024645822994210108,-0.06251017369727047,0.04095616211745244,-0.37,-9.79,0.04000000000000002,0.018487386269644336,0.00810070306038048,-0.007851530190239868,349.5625,-2.1875,89.6875,0.705993650000001,-0.03674315999999994,-0.7043456999999995,0.06433104999999995
4.0,0.024869586651064295,-0.06383620795899672,0.0428384911423413,-0.37,-9.790000000000001,0.04000000000000002,-0.002831244226925808,-0.006832993142826649,0.015146084982193202,349.5625,-2.1875,89.6875,0.7059936500000009,-0.03674315999999993,-0.7043456999999995,0.06433104999999995
5.0,0.024396291764658063,-0.06439208941134018,0.039632044738704464,-0.37,-9.79,0.04000000000000002,-0.003691896827302654,-0.0174481042717255,0.014662012314197538,349.5625,-2.1875,89.6875,0.705993650000001,-0.03674315999999993,-0.7043456999999995,0.06433104999999995
6.0,0.0251460367011876,-0.06347892311758076,0.04113115884577903,-0.37,-9.79,0.04000000000000002,-0.030754136999259267,-0.023023059580031483,0.007175919308463533,349.5625,-2.1875,89.6875,0.705993650000001,-0.03674315999999993,-0.7043456999999995,0.06433104999999995
7.0,0.025565574181859316,-0.06257196776226433,0.039385678678472646,-0.37,-9.79,0.04000000000000002,-0.023883582147272313,-0.012860785373142291,0.0048596718130407,349.5625,-2.1875,89.6875,0.705993650000001,-0.03674315999999993,-0.7043456999999995,0.06433104999999995
8.0,0.025412299617944795,-0.06340128845169168,0.038398954763874116,-0.37,-9.79,0.04000000000000002,-0.012771755853913111,-0.013858302315963605,0.004431206674150223,349.5625,-2.1875,89.6875,0.705993650000001,-0.03674315999999993,-0.7043456999999995,0.06433104999999995
9.0,0.025720998759305225,-0.06368323511166253,0.040078086228287846,-0.37,-9.79,0.04000000000000002,-0.04274242013027295,0.009784041563275434,-0.012768494106699753,349.5625,-2.1875,89.6875,0.705993650000001,-0.03674315999999993,-0.7043456999999995,0.06433104999999995
10.0,0.026235835401157995,-0.06536820325731617,0.0374703587183426,-0.37,-9.79,0.04000000000000002,-0.003883340841506166,0.0043089834672495955,-0.00967695778683682,349.5625,-2.1875,89.6875,0.705993650000001,-0.03674315999999993,-0.7043456999999995,0.06433104999999995
11.0,0.025687516676005245,-0.06472308345848278,0.037777282937174986,-0.37,-9.79,0.04000000000000002,-0.004715223610539363,-0.0072968009903006,-0.0136679233823322,349.5625,-2.1875,89.6875,0.7059936500000009,-0.03674315999999993,-0.7043456999999995,0.06433104999999995
12.0,0.025973798660583275,-0.06515640060020912,0.036910314855684266,-0.37,-9.79,0.04000000000000002,-0.024802798297205164,-0.015713672672569654,0.0017030846798016409,349.5625,-2.1875,89.6875,0.7059936500000009,-0.03674315999999993,-0.7043456999999995,0.06433104999999995
13.0,0.025639579982972296,-0.0653264520483563,0.03786924871290116,-0.37000000000000005,-9.79,0.04000000000000002,-0.004061486373205938,-0.008601723169881339,0.0007895076004467263,349.5625,-2.1875,89.6875,0.705993650000001,-0.03674315999999993,-0.7043456999999995,0.06433104999999995
14.0,0.02485307212154248,-0.06415528951624164,0.03923254865437488,-0.37000000000000005,-9.79,0.04000000000000002,0.001165030573686921,0.00235581059592506,-0.005299887579901887,349.5625,-2.1875,89.6875,0.705993650000001,-0.03674315999999993,-0.7043456999999995,0.06433104999999995
15.0,0.025898613757614812,-0.06254772387544238,0.040863652223888956,-0.37,-9.79,0.04000000000000002,0.010444307731882523,-0.003993006285540104,-0.010358308093008275,349.5625,-2.1875,89.6875,0.7059936500000009,-0.03674315999999993,-0.7043456999999995,0.06433104999999995
16.0,0.02500998085623477,-0.06287631931385182,0.039904610871409785,-0.37,-9.79,0.04000000000000002,-0.0016119232172253119,-0.018064751361772692,0.0050228090528314905,349.5625,-2.1875,89.6875,0.70596796591067,-0.03674315999999993,-0.7043713882977669,0.06433104999999995
17.0,0.025307409782956106,-0.06223705078595817,0.03840240624215652,-0.37,-9.79,0.04000000000000002,-0.026306843665064267,-0.021759190197015377,0.0032517019054480035,349.5625,-2.1875,89.6875,0.7059419247295283,-0.0367505438709677,-0.7043969391488836,0.06433104999999995
18.0,0.0249440041979064,-0.061849801285545306,0.04741327778476581,-0.37,-9.79,0.03557603686635946,-0.04874333595067206,-0.004704654447760587,0.006234145883599578,349.5625,-2.1875,89.71566180235534,0.7057142739597461,-0.036778356451612884,-0.7045983336041393,0.06433104999999995
19.0,0.019355584466406537,-0.06087625752961341,0.06262112941977666,-0.37000000000000005,-9.79,0.0277000418935903,-0.10556959191519545,0.016974000570189437,-0.03774663324448704,349.5625,-2.1875,89.76511951310337,0.7054148440913094,-0.03680896694525905,-0.7048844083563217,0.06431720937438902
20.0,0.020372381203026375,-0.06138766050257985,0.07361285399188622,-0.37000000000000005,-9.79,0.018366149979053215,-0.11863417160796193,0.0056253977876961755,-0.025685881658663916,349.5625,-2.1875,89.82308395010008,0.7050865127714607,-0.036839067343597286,-0.7052209793394515,0.06429263033235577
21.0,0.019536466756159793,-0.0629726263771204,0.07280714739936903,-0.37,-9.79,0.013699204021784674,-0.0726275396581393,0.00020273731536413686,-0.0318836036004838,349.5625,-2.1875,89.85206616859841,0.7049108453038442,-0.03685411754276641,-0.7054125807813885,0.06428034081133915
22.0,0.021397937679155172,-0.06260554481938457,0.07292095081181968,-0.37,-9.79,0.011365731043150404,-0.020645767076893508,0.0010229276374567739,-0.04208697509133253,349.5625,-2.1875,89.86655727784759,0.7048234240430508,-0.036861411896383214,-0.7055079844179123,0.06427419605083085
23.0,0.022689240216945745,-0.062071215436199825,0.07216475678761057,-0.37,-9.79,0.010337243401759535,0.0012030233503633626,0.016200344830190044,-0.044512558796995574,349.5625,-2.1875,89.87292277614858,0.7047864206057545,-0.03686430530303034,-0.7055497918914961,0.06427112367057669
24.0,0.022710399490381294,-0.06182965238311232,0.07041902024657617,-0.37,-9.79,0.010000000000000005,-0.006788611642360991,0.01791106045178951,-0.022958399858682765,349.5625,-2.1875,89.875,0.7047737190272171,-0.036865230000000034,-0.7055649025806457,0.06427001999999996
25.0,0.022313101050874216,-0.061539986201796806,0.07015914690004177,-0.37,-9.79,0.010000000000000005,-0.003394805853182544,-0.005286881288442161,-0.0168910462875083,349.5625,-2.1875,89.875,0.7047729499999993,-0.036865230000000034,-0.7055664100000006,0.06427001999999996
26.0,0.022269579882483122,-0.06233938104905846,0.06936015239241042,-0.37000000000000005,-9.789999999999997,0.010000000000000005,-0.05357183139441203,-0.013298574185670958,-0.02692177893790797,349.5625,-2.1875,89.875,0.7047729499999993,-0.036865230000000034,-0.7055664100000008,0.06427001999999996
27.0,0.021716262232391276,-0.06296015096015095,0.06734662470146338,-0.37000000000000005,-9.79,0.019766749379652615,0.039251295299682396,-0.11535015164047423,-0.07120563128627644,349.56200372208434,-2.1875,89.83777915632754,0.7050593772357321,-0.03684003059553351,-0.7052751354392057,0.06430055038213393
28.0,0.02869195320808224,-0.06247187937510518,0.06779820895949923,-0.37000000000000005,-9.789999999999997,0.020513873223550656,-0.07503043551430648,-0.7605173947915884,0.0022717425943232436,349.1155265433491,-2.1875,89.82413151364764,0.7048493404702615,-0.03958662646589972,-0.7050604067371986,0.06703264253222042
29.0,0.028402536531568795,-0.06399658406110018,0.06457443631637176,-0.37000000000000005,-9.79,0.02041822693435598,-0.05973448594416336,-0.28944254670061126,0.02577547900128545,348.66159391683584,-2.1875,89.81730769230768,0.7046221336222279,-0.04244720307165955,-0.7048408767556962,0.06987260094352955
30.0,0.02800241335725208,-0.06330723398465332,0.06360663350985929,-0.37000000000000005,-9.789999999999997,0.02037040378975864,-0.041044685601137214,-0.1335205565044275,-0.00013273017305275546,348.4346276035792,-2.1875,89.81389578163771,0.7045085301982111,-0.04387749137453946,-0.7047311117649451,0.07129258014918412
31.0,0.028175430304462578,-0.06366681347326508,0.06102878483523644,-0.37000000000000005,-9.79,0.020346492217459967,-0.023850835544383928,-0.09322326419100616,0.0005293094002771417,348.32114444695094,-2.1875,89.81218982630273,0.7044517284862027,-0.04459263552597942,-0.7046762292695694,0.0720025697520114
32.0,0.027181023277797485,-0.06300521342456826,0.06271896920284017,-0.37,-9.79,0.020029325513196493,-0.00017869675127739695,-0.029902378087861965,-0.0050737792673276536,348.2644183773216,-2.1875,89.8125,0.7044143767790818,-0.044950995083088974,-0.7046578903519065,0.07235661047898337
33.0,0.02802855209306824,-0.062264882071333676,0.06670398418785516,-0.37,-9.79,0.01872952853598016,-0.07505715610554319,0.07548347709638033,0.017642259174517238,348.25,-2.1875,89.82838089330025,0.7043059334888341,-0.04501438422332508,-0.7047608951265514,0.07240802028287842
34.0,0.028571131377583006,-0.06390395625879497,0.07047279244053437,-0.37,-9.79,0.009042183622828787,-0.08893371413532702,0.0403526133364843,0.03385953204501592,348.25,-2.1875,89.88495657568238,0.7039153096476432,-0.04496615807940449,-0.7051784191761793,0.07230236739950374
35.0,0.02916061692960758,-0.06399159910502261,0.0785094230546884,-0.37,-9.79,0.0041985111662531036,-0.020702450515145618,0.06302446830542564,0.05272196874694273,348.25,-2.1875,89.91324441687345,0.7037199977270477,-0.04494204500744419,-0.7053871812009931,0.07224954095781641
36.0,0.029529439978451442,-0.0645925737460597,0.07895198199880821,-0.37,-9.79,0.0017766749379652612,-0.010700170667002091,0.023781154748246318,0.02081662953476169,348.25,-2.1875,89.92738833746898,0.7036223417667501,-0.044929988471464045,-0.7054915622134001,0.07222312773697273
37.0,0.029359515874344197,-0.06577694599885026,0.07816285968627279,-0.37000000000000005,-9.79,0.0005657568238213402,-0.021422386688060464,0.022227238920462127,0.02236253438289078,348.25,-2.1875,89.93446029776675,0.7035735137866013,-0.04492396020347397,-0.7055437527196036,0.0722099211265509
38.0,0.028404323693995925,-0.06608946555525638,0.07649085912353341,-0.37000000000000005,-9.79,0.0,-0.01230858788497316,0.015525840303903518,0.04327649051650742,348.25,-2.1875,89.9375,0.7035522500000007,-0.04492187000000002,-0.7055664100000006,0.07220459000000004
39.0,0.03029925621984677,-0.0644538418787248,0.07892741147163623,-0.37,-9.79,0.01140478668054111,0.07351782244268912,0.02632281369233437,0.027595581366474317,348.25,-2.1875,89.8693418314256,0.7039846382622275,-0.044861407814776266,-0.7051274123725293,0.07221830804370452
40.0,0.0333533771389571,-0.0671777863817566,0.07420876296786805,-0.3785052248977736,-9.789999999999997,0.0054843106505840485,0.15551839188262756,3.0640608788603543,0.02586800070507474,350.1027941844616,-2.214760336210813,89.92704654042885,0.7045741841402005,-0.03306152495918277,-0.7059410109590951,0.06078287212044381
41.0,0.036378293949834835,-0.06697226614465779,0.06772637233612468,-0.3819560308407981,-9.789999999999997,0.060748895816384915,0.3324692175319493,1.5294094246703072,-0.015299093878926279,352.0353282429289,-2.22520335058013,89.58995261542385,0.7075763949998071,-0.020934462544588982,-0.7042881600895616,0.04900352849883532
42.0,0.032800583925064054,-0.06466648497848723,0.0631862555717769,-0.3811393057429796,-9.79,0.10247122210174081,0.23829594796441061,0.7053969166362288,-0.011544341660870764,353.01363186339995,-2.2063516752900645,89.33328275932482,0.7096118391128065,-0.014940517240036429,-0.702927396818974,0.04302593279780478
43.0,0.027549795684616393,-0.059294470777084794,0.07239345346827057,-0.3807309431940704,-9.79,0.12293784430149073,-0.05194189884657879,0.26713389372444196,0.011566296523782979,353.50278367363546,-2.1969258376450322,89.20313331514629,0.7106201179658327,-0.011967293987263872,-0.7022453122233832,0.04006039974133414
44.0,0.03118222973195019,-0.06092560532976352,0.056091332578272875,-0.37613269042877007,-9.790906713164773,0.07980476319470295,-0.5022546277426077,-4.800322652935287,-0.09817713030491673,351.60394196759364,-2.183494523007346,89.46651809118677,0.7080292241077861,-0.02404513131486264,-0.7033027343821445,0.051746048535768176
45.0,-0.008062114382438161,-0.06945561584897164,0.02238095465668287,-0.3378445452061244,-9.795614646904966,0.058755726495675925,-0.2050080395744966,-2.6001384374227188,-0.1233028513584529,348.24101642457447,-1.967636578343126,89.59374386310058,0.7052772741204468,-0.04747166100472524,-0.7026895985966319,0.072414539089797
46.0,-0.03324738251250348,-0.04484776644454064,-0.02466471322015676,-0.3190611933837739,-9.797015760177048,0.08751552481592803,0.5396608537359545,-1.5858350236815455,0.03799557813544708,346.4618738098577,-1.8594462751720817,89.42396213191324,0.7052548794484312,-0.059708870113932555,-0.7008869292591693,0.08356245722605846
47.0,-0.03144759067074578,-0.07444277407512048,0.03676994812920576,-0.2972813700016528,-9.798527765196784,0.01576898920867105,-0.30332976908319376,0.24118342061890463,-0.13069310279319118,345.610452481597,-1.7322667743513964,89.87226461862454,0.7020046173643091,-0.06665897138926853,-0.7032045831936451,0.08840646459844681
48.0,-0.04021859783017538,-0.07121903977714845,0.04057711409545259,-0.29937303024930056,-9.799006689921839,0.024894017775149026,0.07120958732481045,1.4702513575497447,-0.17620807979844658,346.5414675224027,-1.745410850122516,89.82161618028002,0.7030732622664883,-0.060744197649701,-0.7034672247695137,0.08276935418025082
49.0,-0.02184917934851651,-0.06166027340706969,0.05693471472614201,-0.30531691741634287,-9.799341369621523,0.041945825676713906,0.02322350396256714,1.5823789948789948,-0.08025359152458138,347.87023284265604,-1.7823960776954588,89.71282227310176,0.7046396983083594,-0.05212092313223623,-0.7034915747990673,0.07467994607243952
50.0,-0.02614974687943472,-0.05946573437500155,0.061810830612658824,-0.30239069926491846,-9.79967068481076,0.01961361694246982,0.011979688690698374,0.6996097313141126,-0.224146898693383,349.2896161459454,-1.766404575811007,89.84489111568746,0.7047158817972694,-0.04369892234266062,-0.7048862067412416,0.06591136005504794
51.0,-0.029073068792751428,-0.06238396877408621,0.04716581082478946,-0.29598691290789325,-9.799865119080316,0.010514004501011585,0.11421696668537476,0.3030193930651321,-0.10147443814284159,350.04171855496384,-1.7256805757466944,89.89438658724443,0.7048308346475634,-0.03971314583566593,-0.7055161236168045,0.061274606786453176
52.0,-0.032958982474148586,-0.06284134364466572,0.03492183603546146,-0.2931746318847904,-9.799936978453104,0.016383825052096606,0.07343774759368163,0.1283242126615983,-0.027406739619366,350.4234084378885,-1.7076259705953976,89.8458620960968,0.7053336225822883,-0.0376655667622872,-0.7053863977673063,0.058993445207190326
53.0,-0.03354793064422339,-0.059847001377694664,0.028903812525141372,-0.29136281725015434,-9.799981566820275,0.01791292385996287,0.023872862462926255,0.049286343471165325,-0.004712524125288928,350.5718557010715,-1.6962007359515785,89.83018911256454,0.7055180729345614,-0.03693518604461349,-0.7053323147184399,0.05810468901379566
54.0,-0.04058851636246917,-0.06004562050451552,0.03596440451700443,-0.290308136735676,-9.799999999999997,0.017009527144336976,0.0064322244167724415,0.0650565218263521,-0.030359508815891216,350.62119570767857,-1.6895462205103513,89.83344002130112,0.7055886471556622,-0.036733809987744497,-0.7052996705184851,0.0578121648709531
55.0,-0.039737292277614855,-0.061776942815249244,0.03407074780058651,-0.28999999999999954,-9.799999999999997,0.013690127077223859,-0.049629994501466275,0.04966626955034213,-0.003491950757575758,350.6245723362659,-1.6875,89.85270039100683,0.7054966113679133,-0.0367449499120234,-0.7053920587402245,0.057799395112414415
56.0,-0.03698906993977234,-0.06174064559486643,0.03229488892567718,-0.28999999999999954,-9.799999999999999,0.011925708699902254,-0.04392043114219721,0.01824967531059818,0.004069857245057232,350.625,-1.6875,89.86308651026391,0.7054467870842502,-0.03674315999999993,-0.7054418829649313,0.05780028999999995
57.0,-0.036856430131176496,-0.06111981876517515,0.030663573495096665,-0.28999999999999954,-9.8,0.010801564027370484,-0.02040086577271151,0.00632115821981522,0.004980367130593132,350.625,-1.6875,89.8700513196481,0.70541110580019,-0.03674315999999993,-0.7054775642244009,0.05780028999999995
58.0,-0.03565785991670488,-0.05981122762080097,0.02789417043241186,-0.28999999999999954,-9.8,0.0102394916911046,-0.013485366199010841,0.0018137467587909838,-0.017037916233090526,350.625,-1.6875,89.87353372434018,0.7053927267937444,-0.03674315999999993,-0.7054959432160309,0.05780028999999995
59.0,-0.036617071923913766,-0.05807931108087195,0.030310345611724396,-0.28999999999999954,-9.8,0.009920595533498763,-0.0660974748131681,-0.04718673328275956,-0.03593619813459173,350.6235111662531,-1.6875,89.88095533498759,0.7053493748387101,-0.036749460665012355,-0.7055388108734493,0.05780029007940442
60.0,-0.030514861894089265,-0.05950202113183381,0.0417536227430218,-0.29022119815668157,-9.799999999999997,-0.021892236795462598,-0.3489106980266092,-1.9484602672139255,-0.07022511624366788,349.34960120524636,-1.6934907834101383,90.09595001772419,0.7032408522211981,-0.04455476142928039,-0.7064000981786602,0.06544493107196026
61.0,-0.033425228794436185,-0.060569770564053174,0.051352877968805395,-0.2901105990783405,-9.799999999999997,-0.04646609913918531,-0.15183650708869248,-0.9696368150799309,-0.09597208721932257,348.1745899622765,-1.6904953917050691,90.25702050717697,0.7015342577957216,-0.051891419953927626,-0.7069034382973223,0.07253782601985113
62.0,-0.036380366864719293,-0.0635872745453872,0.052865481172654966,-0.2859724877914572,-9.799999999999997,-0.03271547614638612,0.01503112318591375,-0.594994828233875,-0.10394608400747062,347.5644555492654,-1.6663689043262948,90.18445031136412,0.7016241390134123,-0.05577415260575534,-0.7061804254100961,0.07628692069649273
63.0,-0.03440854571523806,-0.061657160845894586,0.058447628923796464,-0.28798624389572836,-9.799999999999997,-0.020631931621580155,-0.15971458729041782,-0.3186512602707836,-0.14158997748760627,347.2232560004391,-1.6769344521631475,90.10079370406916,0.7019049917647704,-0.05764073089965187,-0.7055593798824673,0.07839762091276252
64.0,-0.02852933489235849,-0.06233726528647086,0.06691612215420592,-0.288993121947864,-9.799999999999997,-0.027813484421211912,-0.1757785095261022,-0.1513309030882454,-0.0326126066098081,347.03203742949995,-1.6822172260815735,90.14446478007427,0.7015006080598047,-0.058657501054044284,-0.7057794087042604,0.07954058650228693
65.0,-0.024029923695306467,-0.06216912140178869,0.06905197254198216,-0.2894896485315354,-9.799999999999997,-0.028556511795859427,-0.15176956128448665,-0.0248136152084154,-0.02249913600983353,346.9651258576071,-1.6846714010592199,90.13195301215696,0.7014707695772426,-0.05889155255928015,-0.7057409593521298,0.07992977805759502
66.0,-0.020164474828653942,-0.061613911465680835,0.06134980761094144,-0.2897448242657675,-9.799999999999999,-0.028657167790081865,-0.06615504841010379,-0.009068273846198738,-0.015309139872625369,346.94848432986277,-1.6860857005296102,90.12402296732066,0.7014662132238649,-0.05890126555744455,-0.7057194629115002,0.08002216838363618
67.0,-0.018542814712169564,-0.061358842993923635,0.05774718449113609,-0.28999999999999954,-9.799999999999999,-0.029521169354838728,-0.028240677333419277,-0.003136793761793762,-0.01307772298825726,346.9408707157258,-1.6875,90.12484248991936,0.7014344607212253,-0.05889942195060475,-0.7057391735332654,0.0800620308215725
68.0,-0.016528851524819275,-0.06211374221656478,0.0543021747517715,-0.28999999999999954,-9.8,-0.030115927419354864,-0.0014468352547989645,0.0015745350359765682,0.0007470701901145455,346.9381930443548,-1.6875,90.1267326108871,0.7014112122154519,-0.05890083727318539,-0.7057571394405235,0.08007458226310475
69.0,-0.016036603181764482,-0.06189860497925012,0.051037176085563164,-0.28999999999999954,-9.8,-0.030000000000000027,0.0058605037435682595,0.010663149574439897,0.005760379853121788,346.9375,-1.6875,90.125,0.7014166464076257,-0.058898929999999905,-0.7057495099999993,0.08007811999999992
70.0,-0.017216737563511768,-0.06325624286108154,0.047847522549135435,-0.28999999999999954,-9.8,-0.030000000000000027,0.023381742585371616,0.007637904210484855,-0.005948011441963054,346.9375,-1.6875,90.125,0.701416020000001,-0.058898929999999905,-0.7057495099999993,0.08007811999999992
71.0,-0.015916061089448194,-0.06233655815510651,0.04813592008350071,-0.28999999999999954,-9.8,-0.030000000000000027,0.013885350200874393,-0.005362189333963527,-0.011356449889716017,346.9375,-1.6875,90.125,0.701416020000001,-0.058898929999999905,-0.7057495099999993,0.08007811999999992
72.0,-0.01697981521167006,-0.062399019663132535,0.04673355609444317,-0.28999999999999954,-9.799999999999999,-0.030000000000000027,-0.00013996000639145915,-0.020701157041882846,-0.007898003374313858,346.9375,-1.6875,90.125,0.701416020000001,-0.058898929999999905,-0.7057495099999993,0.0800781199999999
73.0,-0.014537054007820144,-0.06260645772238513,0.04697595918866078,-0.28999999999999954,-9.799999999999999,-0.030000000000000027,-0.01895180382453568,0.0011646199902248314,-0.007112773399315738,346.9375,-1.6875,90.125,0.701416020000001,-0.058898929999999905,-0.7057495099999993,0.0800781199999999
74.0,-0.014375175272022185,-0.06102167313670816,0.04444931784128968,-0.28999999999999954,-9.8,-0.030000000000000027,0.015797236060365687,0.008728421510183805,-0.007991715642677436,346.9375,-1.6875,90.125,0.701416020000001,-0.058898929999999905,-0.7057495099999993,0.08007811999999992
75.0,-0.014433632921370898,-0.06035834742443348,0.044677396203523234,-0.28999999999999954,-9.8,-0.030000000000000027,0.009316693402391281,0.0077751521322631184,0.0032355511426811335,346.9375,-1.6875,90.125,0.701416020000001,-0.058898929999999905,-0.7057495099999993,0.08007811999999992
76.0,-0.01484096348301796,-0.06087113245911499,0.042914729429305035,-0.28999999999999954,-9.8,-0.030000000000000027,-0.0008794654110872383,0.012607818777049674,0.005359488117866622,346.9375,-1.6875,90.125,0.701416020000001,-0.058898929999999905,-0.7057495099999993,0.08007811999999992
77.0,-0.014226444595858933,-0.06152549780336002,0.04225404115649026,-0.28999999999999954,-9.8,-0.030000000000000027,0.015399099161514055,0.03509484291736159,0.00527627387320506,346.9375,-1.6875,90.125,0.701416020000001,-0.058898929999999905,-0.7057495099999993,0.08007811999999992
78.0,-0.016365781230931953,-0.0624642842614815,0.03957929260057763,-0.28999999999999954,-9.8,-0.030000000000000027,0.020689284769962984,0.01917025993572794,0.00422147673188789,346.9375,-1.6875,90.125,0.701416020000001,-0.058898929999999905,-0.7057495099999993,0.08007811999999992
79.0,-0.014756372659598473,-0.062022088126926826,0.04257052221971576,-0.28999999999999954,-9.799999999999999,-0.030000000000000027,-0.024661687438905178,0.009320719602977668,-0.003622159090909091,346.9375,-1.6875,90.125,0.701416020000001,-0.058898929999999905,-0.7057495099999993,0.0800781199999999
80.0,-0.0044005188360027115,-0.062303848033686715,0.04201230825625986,-0.2897580645161286,-9.799999999999999,-0.02862903225806454,-0.023985620394390554,0.29386631513647643,0.03930244402774644,346.95766129032256,-1.6875,90.13054435483872,0.7014425994354847,-0.058807868870967665,-0.7057578787903223,0.07995260451612898
81.0,-0.023946186702498075,-0.06337363078132713,0.046145111944507086,-0.2956387330528283,-9.799999999999997,-0.029239714820009373,-0.11467401457019488,1.290662029794656,0.17008029562843072,347.9045698924731,-1.7239656381486674,90.15862771739131,0.7019945170856712,-0.05266210915030384,-0.7062800981352266,0.07415005458158015
82.0,-0.019916942653126747,-0.060650088741650565,0.06338185875270612,-0.3121549466901115,-9.799999999999997,-0.019990584420115427,-0.174820955362252,0.5404528101549111,0.1523663037031176,348.6246940699727,-1.8251358041489607,90.10811140323105,0.7027725739255992,-0.04711323121694297,-0.7063523935909646,0.06976753692006304
83.0,-0.014277066709674886,-0.0623818907502523,0.08536218285405814,-0.3217226346353781,-9.799999999999997,-0.039149739912892535,-0.23784707065804153,0.21200210249831425,0.11670358571876685,348.947763701653,-1.8853501601389964,90.22994768597525,0.7022112335805908,-0.04452678410798273,-0.7072971919518856,0.0677494379614978
84.0,-0.008728278734905405,-0.0623953860956959,0.1045388394138093,-0.32650647860801146,-9.799999999999997,-0.05005874092418823,-0.17110578408385016,0.11880187050158927,0.08874501075260131,349.1039221734071,-1.9154573381340143,90.30650610105214,0.7018451261451344,-0.04327031253786233,-0.707846437427556,0.06676282156139404
85.0,-0.007467194578370818,-0.06195141513221519,0.11027895754809572,-0.3289059610781991,-9.799999999999997,-0.05555608417177156,-0.059384167243538,0.04688591121233309,0.04208836688374483,349.18137136896166,-1.9305109271315233,90.34461204750187,0.7016612418200474,-0.0426449224130844,-0.7081207986406937,0.06627343572021313
86.0,-0.006381347855589552,-0.06257307513542466,0.11340995023806769,-0.32991815117958556,-9.799999999999999,-0.0582642505945347,0.008261489219601882,-0.03017281560252191,0.018324994029134616,349.19082009308295,-1.9368981704381318,90.36287404619132,0.701552467534615,-0.04252285951182504,-0.7082417906550831,0.06620811130564186
87.0,-0.005596788516143356,-0.06220492947912302,0.11203718503718499,-0.3299999999999996,-9.8,-0.05991691104594335,-0.022959108543785963,-0.0067962055865281685,0.010584319354480645,349.1878360215054,-1.9375,90.37402248289345,0.7014823898289351,-0.04253920300097752,-0.70830818710655,0.06622173793255129
88.0,-0.00523485564614597,-0.06208486943164362,0.10964518098389062,-0.3299999999999996,-9.8,-0.06000000000000005,0.010346569872779548,0.009508177754145496,0.002512345405490567,349.1875,-1.9375,90.375,0.7014770500000005,-0.0425415,-0.7083129900000007,0.06622313999999997
89.0,-0.005180266471612164,-0.06177437409725564,0.10902454538720788,-0.3299999999999996,-9.799999999999999,-0.06000000000000005,0.0020227549442613227,0.025538463853190623,0.007052603375800897,349.1875,-1.9375,90.375,0.7014770500000005,-0.0425415,-0.7083129900000007,0.06622313999999997
90.0,-0.004511969464093923,-0.06070108283026554,0.10880755805340545,-0.3299999999999996,-9.799999999999999,-0.06000000000000005,-0.002819267689159661,0.014893921752898042,0.006077480347950076,349.1875,-1.9375,90.375,0.7014770500000005,-0.0425415,-0.7083129900000007,0.06622313999999997
91.0,-0.004732411531054406,-0.06121414503315886,0.10591870738658424,-0.3299999999999996,-9.8,-0.06000000000000005,-0.007698155416660196,0.010086438984189355,0.010260784518808144,349.1875,-1.9375,90.375,0.7014770500000005,-0.0425415,-0.7083129900000007,0.06622313999999997
92.0,-0.005379814636494946,-0.061452799873899525,0.11090235927641867,-0.3299999999999996,-9.8,-0.06000000000000005,0.005052180433729456,0.003396875664551253,-0.005401701025335383,349.1875,-1.9375,90.375,0.7014770500000005,-0.0425415,-0.7083129900000007,0.06622313999999997
93.0,-0.0055472274175030565,-0.06244053610320286,0.11025832914193144,-0.3299999999999996,-9.8,-0.06000000000000005,0.00546450135210046,0.00035935982359076293,0.0023091816678534,349.1875,-1.9375,90.375,0.7014770500000005,-0.0425415,-0.7083129900000007,0.06622313999999997
94.0,-0.005550325682382136,-0.06183143060113663,0.11197472584647403,-0.3299999999999996,-9.8,-0.06000000000000005,0.01925987928239814,0.004480446550068038,0.009380675053029697,349.1875,-1.9375,90.375,0.7014770500000005,-0.0425415,-0.7083129900000007,0.06622313999999997
95.0,-0.005212158808933005,-0.06196914271992315,0.11092687905226926,-0.3299999999999996,-9.8,-0.06000000000000005,-0.011444909149123508,-0.020504232370127273,-0.012525514288001279,349.1875,-1.9375,90.375,0.7014770500000005,-0.0425415,-0.7083129900000007,0.06622313999999997
96.0,-0.004907568238213401,-0.06262344913151363,0.11017307692307687,-0.3299999999999996,-9.8,-0.06000000000000005,0.010321029776674939,0.0030823511166253106,-0.005497828784119106,349.1875,-1.9375,90.375,0.7014770500000005,-0.0425415,-0.7083129900000007,0.06622313999999997
97.0,-0.004739143920595535,-0.06287251861042183,0.11102698511166251,-0.3299999999999996,-9.8,-0.06000000000000005,0.008882599255583127,0.007046758684863524,-0.02425946029776675,349.1875,-1.9375,90.375,0.7014770500000005,-0.0425415,-0.7083129900000007,0.06622313999999997
98.0,-0.004525419234771474,-0.06321309433282638,0.1091889908348675,-0.3299999999999996,-9.8,-0.06000000000000005,0.011096526554870728,-0.001648516919474906,0.00956742025534299,349.1875,-1.9375,90.375,0.7014770500000005,-0.0425415,-0.7083129900000007,0.06622313999999997
99.0,-0.005190749319618989,-0.06158669604978787,0.10580541353157767,-0.3299999999999996,-9.8,-0.06000000000000005,-0.006874193298247018,-0.004949568633434724,-0.006894329574561757,349.1875,-1.9375,90.375,0.7014770500000005,-0.0425415,-0.7083129900000007,0.06622313999999997
100.0,-0.004628686609956122,-0.06154259961335923,0.103525950289738,-0.3299999999999996,-9.799999999999999,-0.06000000000000005,0.020684856246770918,0.003610355132207369,0.01419491885152655,349.1875,-1.9375,90.375,0.7014770500000005,-0.0425415,-0.7083129900000007,0.06622313999999997
101.0,-0.004369957941237859,-0.06039148965267589,0.100139437392299,-0.3299999999999996,-9.799999999999999,-0.06000000000000005,0.016502576219017427,0.011115065706636985,0.011162704216814517,349.1875,-1.9375,90.375,0.7014770500000005,-0.0425415,-0.7083129900000007,0.06622313999999997
102.0,-0.004610537283274017,-0.06232353638961338,0.09753746063163338,-0.3299999999999996,-9.799999999999999,-0.06000000000000005,0.03484092830801988,-0.016286449776954457,0.00979196004885391,349.1875,-1.9375,90.375,0.7014770500000005,-0.0425415,-0.7083129900000007,0.06622313999999997
103.0,-0.004893875837424225,-0.06337237583205324,0.10060409751538782,-0.3299999999999996,-9.799999999999999,-0.06000000000000005,0.0015688220829349862,-0.0006492555383684423,-0.024134898479656546,349.1875,-1.9375,90.375,0.7014770500000005,-0.0425415,-0.7083129900000008,0.06622313999999997
104.0,-0.0037236128566773734,-0.06321844598054274,0.10211222245496439,-0.3299999999999996,-9.799999999999999,-0.06000000000000005,0.013757425929804962,-0.00826507441930829,0.01298683115719406,349.1875,-1.9375,90.375,0.7014770500000005,-0.0425415,-0.7083129900000007,0.06622313999999997
105.0,-0.003973243378485315,-0.06247188183680118,0.10361231846110878,-0.3299999999999996,-9.799999999999999,-0.06000000000000005,0.04394799448982917,0.0027559036505609086,0.006462868169017363,349.1875,-1.9375,90.375,0.7014770500000005,-0.0425415,-0.7083129900000007,0.06622313999999997
106.0,-0.004858022689675916,-0.0611667771073013,0.10209045557936688,-0.3299999999999996,-9.8,-0.06000000000000005,0.010351591872509211,0.011495768596323033,0.0026071479763516052,349.1875,-1.9375,90.375,0.7014770500000005,-0.0425415,-0.7083129900000007,0.06622313999999997
107.0,-0.00500973287465223,-0.06028074009324008,0.10252593710053387,-0.3299999999999996,-9.799999999999999,-0.06000000000000005,0.04344167677080983,-0.0013949592074592072,0.0202549005094368,349.1875,-1.9375,90.375,0.7014770500000005,-0.0425415,-0.7083129900000008,0.06622313999999997
108.0,-0.0061678752980456955,-0.06056897976503205,0.10103538049489533,-0.3299999999999996,-9.8,-0.06000000000000005,0.041980668738887714,-0.022778822428438712,0.01829740421681596,349.1875,-1.9375,90.375,0.7014770500000005,-0.0425415,-0.7083129900000007,0.06622313999999997
109.0,-0.0060249658748293,-0.06104305843090311,0.09916940395712506,-0.3299999999999996,-9.8,-0.06000000000000005,0.06243123658718579,-0.01718578218196129,0.015433354326149916,349.1875,-1.9375,90.375,0.7014770500000005,-0.0425415,-0.7083129900000007,0.06622313999999997
110.0,-0.006619902903201552,-0.06119761975797353,0.09817463355236505,-0.3299999999999996,-9.799999999999999,-0.06000000000000005,0.02074788017653522,0.0014505244148844566,-0.004518037676856615,349.1875,-1.9375,90.375,0.7014770500000005,-0.0425415,-0.7083129900000007,0.06622313999999997
111.0,-0.0059178918982509005,-0.06091890913456989,0.09582428948089716,-0.3299999999999996,-9.799999999999999,-0.06000000000000005,-0.004157697628853976,0.01479163937865811,-0.0032360659848302926,349.1875,-1.9375,90.375,0.7014770500000005,-0.0425415,-0.7083129900000007,0.06622313999999997
112.0,-0.005295211833778433,-0.06159581820364858,0.09657783389000868,-0.3299999999999996,-9.799999999999999,-0.06000000000000005,0.07583231931851533,-0.0044565752275819905,-0.021366933285670277,349.1875,-1.9375,90.375,0.7014770500000005,-0.0425415,-0.7083129900000007,0.06622313999999997
113.0,-0.004954782784419883,-0.06250273046845625,0.0965736897511091,-0.3299999999999996,-9.799999999999999,-0.06000000000000005,0.022635557067260698,0.011651075738777352,0.0008191111643732606,349.1875,-1.9375,90.375,0.7014770500000005,-0.0425415,-0.7083129900000008,0.06622313999999997
114.0,-0.004803500263177683,-0.06235519587938941,0.09623039326265131,-0.3299999999999996,-9.799999999999999,-0.06000000000000005,0.01505076744492067,-0.006586256485450033,0.0001890414692834047,349.1875,-1.9375,90.375,0.7014770500000005,-0.0425415,-0.7083129900000007,0.06622313999999997
115.0,-0.005400051113760792,-0.06074597758871951,0.09619053527118043,-0.3299999999999996,-9.799999999999999,-0.06000000000000005,0.003207289182591601,-0.0036138760433115265,0.002524494434776693,349.1875,-1.9375,90.375,0.7014770500000005,-0.0425415,-0.7083129900000007,0.06622313999999997
116.0,-0.006083400246706699,-0.061411450332821284,0.09569700460829492,-0.3299999999999996,-9.8,-0.06000000000000005,5.2776104943443296e-05,-0.013849431818181818,-0.00727528379998138,349.1875,-1.9375,90.375,0.7014770500000005,-0.0425415,-0.7083129900000007,0.06622313999999997
117.0,-0.006485156868221387,-0.061687060699157456,0.09350954824745146,-0.3299999999999996,-9.799999999999999,-0.06000000000000005,0.00635113374528697,0.014469926075268816,-0.004505379253363124,349.1875,-1.9375,90.375,0.7014770500000005,-0.0425415,-0.7083129900000008,0.06622313999999997
118.0,-0.005424885374482151,-0.061031702392589475,0.09277627950006981,-0.3299999999999996,-9.799999999999999,-0.06000000000000005,-0.0064468671449518225,0.02295160526637341,0.009981547909975328,349.1875,-1.9375,90.375,0.7014770500000005,-0.0425415,-0.7083129900000007,0.06622313999999997
119.0,-0.005378773332402366,-0.06088379474468183,0.09088914781455103,-0.3299999999999996,-9.799999999999999,-0.06000000000000005,-0.004893040427314621,0.017413932673509287,-0.01617858088372201,349.1875,-1.9375,90.375,0.7014770500000005,-0.0425415,-0.7083129900000007,0.06622313999999997
120.0,-0.0057682790999323275,-0.061486956256109476,0.09058294091661026,-0.3299999999999996,-9.8,-0.06000000000000005,-0.0008136772501691853,-0.00022603614463493488,0.0037573754370629382,349.1875,-1.9375,90.375,0.7014770500000005,-0.0425415,-0.7083129900000007,0.06622313999999997
121.0,-0.005759643582224229,-0.0605494257086999,0.09214378900669223,-0.3299999999999996,-9.8,-0.06000000000000005,-0.03260189910895556,0.0017613518873599511,-0.0018858032088878859,349.1875,-1.9375,90.375,0.7014770500000005,-0.0425415,-0.7083129900000007,0.06622313999999997
122.0,-0.005964935602032378,-0.061963373655913964,0.09235826046713144,-0.3299999999999996,-9.8,-0.06000000000000005,-0.0012148931377762018,-0.0064325193735475985,-0.0008970804900744415,349.1875,-1.9375,90.375,0.7014770500000005,-0.0425415,-0.7083129900000007,0.06622313999999997
123.0,-0.005299962986379695,-0.062283707470710936,0.08898689082576602,-0.3299999999999996,-9.799999999999999,-0.06000000000000005,-0.024365608882320935,0.002538735498589706,-0.011915979385022778,349.1875,-1.9375,90.375,0.7014770500000005,-0.0425415,-0.7083129900000007,0.06622313999999997
124.0,-0.004708216604852378,-0.06224091545992122,0.08879140602082344,-0.3299999999999996,-9.799999999999999,-0.06000000000000005,0.0002713964738519387,-0.00634806207390614,-0.021177340654049852,349.1875,-1.9375,90.375,0.7014770500000005,-0.0425415,-0.7083129900000007,0.06622313999999997
125.0,-0.005368011961491137,-0.061579751124737875,0.09143638992206637,-0.3299999999999996,-9.799999999999999,-0.06000000000000005,8.917218233539873e-05,-0.0039189402496042185,-0.015569173694625068,349.1875,-1.9375,90.375,0.7014770500000005,-0.0425415,-0.7083129900000007,0.06622313999999997
126.0,-0.005703919255195134,-0.06087684112816514,0.0914769635222211,-0.3299999999999996,-9.8,-0.06000000000000005,-0.011236135875038137,0.017450522114701217,-0.004586382162212688,349.1875,-1.9375,90.375,0.7014770500000005,-0.0425415,-0.7083129900000007,0.06622313999999997
127.0,-0.005098154293147072,-0.062026885862225295,0.09327816430079308,-0.3299999999999996,-9.799999999999999,-0.06000000000000005,-0.01391823551188019,-0.0013306552485656976,-0.008647052273677213,349.1875,-1.9375,90.375,0.7014770500000005,-0.0425415,-0.7083129900000008,0.06622313999999997
128.0,-0.004856584275939116,-0.06232239445142669,0.0920241049273307,-0.3299999999999996,-9.799999999999999,-0.06000000000000005,-0.017124944947525592,0.001124189430641043,-0.0034811962231317073,349.1875,-1.9375,90.375,0.7014770500000005,-0.0425415,-0.7083129900000007,0.06622313999999997
129.0,-0.004584619681393876,-0.06271454710164386,0.09238426090038993,-0.3299999999999996,-9.799999999999999,-0.06000000000000005,-0.015401802498576693,-0.01806383580577129,-0.009681044761689924,349.1875,-1.9375,90.375,0.7014770500000005,-0.0425415,-0.7083129900000007,0.06622313999999997
130.0,-0.001334808560615013,-0.06087270435657531,0.09378697288374706,-0.3299999999999996,-9.799999999999999,-0.060078201368523994,-0.03213882891302246,0.0936393803329287,0.00605617500778791,349.1879887585533,-1.9375,90.375,0.7014770500000005,-0.0425281363245357,-0.7083230125219946,0.06620882172043008
131.0,-0.008312053537859992,-0.06198217911121136,0.10042088019507374,-0.3299999999999995,-9.799999999999997,-0.06800223432481502,0.037310001826130854,1.6392992088556606,0.018600284124477673,350.12829737466836,-1.9232142857142858,90.40725806451613,0.7017623686359451,-0.036810453701438345,-0.7088116820720571,0.060427262924731176
132.0,-0.014323368387884524,-0.06167709709645193,0.11061366590398847,-0.32999999999999957,-9.799999999999997,-0.056463994786575475,0.09365616462390657,0.5660020982601628,-0.013542774429871205,351.1914368337755,-1.8980990783410139,90.33992575524834,0.7027342816067594,-0.03037488339449798,-0.7086628406955272,0.053993106838709684
133.0,-0.013842460722916138,-0.06018915429921122,0.12003125274472522,-0.32999999999999957,-9.799999999999997,-0.04502516627374314,0.021552575086730686,-0.6122222759319533,0.026419935219745463,351.08320655730523,-1.9007217403090269,90.2692275835065,0.703150793014006,-0.031029655226660756,-0.7082085657462458,0.05468005025047439
134.0,-0.007946570612604772,-0.06153077535999736,0.11240257275930901,-0.3299999999999995,-9.799999999999997,-0.04219000249171029,-0.12538573591704524,-0.35146511194898294,0.010052305379629856,350.71599843994295,-1.9191108701545134,90.257597662721,0.7030632864336888,-0.033293151103066465,-0.7080245133178933,0.05695153170392735
135.0,-0.006903392833184107,-0.06190908269466143,0.10240852000624297,-0.32999999999999957,-9.799999999999997,-0.04076997680792749,-0.043784021428708346,-0.16381906623842107,0.010738518281212778,350.532379107557,-1.9283054350772568,90.25178270232824,0.7029947153136187,-0.03445252510187535,-0.7079794268422313,0.058091060717555085
136.0,-0.00587105125530173,-0.06195454134733071,0.10263052728422746,-0.3299999999999996,-9.799999999999999,-0.03981355983253518,0.04953656071421726,-0.1478225515523902,0.02050462780420086,350.4111924339628,-1.933349146110057,90.24786715761573,0.7029736632236294,-0.03521068087582246,-0.7079186349280278,0.05884127521361627
137.0,-0.007545692917163364,-0.06927392106227528,0.0984505549276217,-0.3299999999999996,-9.799999999999997,-0.03966566597751282,0.005580903111233552,-0.04045719441648066,-0.009249113293717717,350.3301424565975,-1.9364326375711576,90.23792535189328,0.7029611508594709,-0.035677080662823546,-0.7078531328970639,0.0593412189436722
138.0,-0.0055167801024204495,-0.05707040311638289,0.1045567707649436,-0.32999999999999957,-9.799999999999997,-0.02193665105557258,-0.16209817618286868,0.0551547727819845,0.012421796351818616,350.2895429378036,-1.9375,90.12104798587707,0.7036632173696036,-0.035724457492012085,-0.7071324107912238,0.059577752408412496
139.0,-0.004014499533126157,-0.05865005981821099,0.09309461216644052,-0.32999999999999957,-9.799999999999997,-0.022419938431012105,-0.0893885309066836,-0.01987801439102143,-0.032996702019594114,350.2687634043857,-1.9375,90.12856834777725,0.7036172940953588,-0.035713895138967916,-0.7071694468887688,0.059637631815154434
140.0,-0.0023075308027312117,-0.0615575873382355,0.07281685642535124,-0.32999999999999957,-9.799999999999997,-0.020887388570344764,0.032940066780284785,-0.0104115374374462,0.0013967033645919946,350.25837363767675,-1.9375,90.12476804485637,0.7036290096380995,-0.03570776369851622,-0.707146676650641,0.059668943649512696
141.0,-0.0012318904013656057,-0.06131054770137579,0.06031215805138529,-0.3299999999999996,-9.799999999999997,-0.020121113640011096,-0.021600153101793085,0.01545955386192206,-0.0018060585999620671,350.2531787543222,-1.9375,90.12286789339592,0.7036322658674365,-0.03570469797829037,-0.7071379235319741,0.05968459956669182
142.0,-0.0008781099233752718,-0.06089476318859772,0.052264656844196386,-0.3299999999999996,-9.8,-0.019742790811339207,0.006375847936965912,0.006932352761485826,-0.0065146046179800085,350.25064149560114,-1.9375,90.12224882392474,0.7036331462365586,-0.03570392920821114,-0.7071350279985344,0.05969198671401514
143.0,-0.0023940891747863654,-0.061732816589411266,0.046919229692870434,-0.3299999999999996,-9.8,-0.0201108870967742,-0.011795580430344023,0.0009765625,0.0002098286783022733,350.25,-1.9375,90.12547253024194,0.7036115191544472,-0.03570557,-0.7071554502798151,0.05969228771673386
144.0,-0.0013913261123198687,-0.06140877755179262,0.045435497666572074,-0.3299999999999996,-9.799999999999999,-0.02000000000000001,0.014046327117428184,0.008858748778103616,0.027237696291741553,350.25,-1.9375,90.125,0.703613399335288,-0.035705570000000006,-0.7071532006842629,0.05969237999999999
145.0,-0.0005221537697474222,-0.062085131688897274,0.04797923465928799,-0.3299999999999996,-9.799999999999999,-0.02000000000000001,-0.02818272598185287,0.010981793743890517,0.0054932371976791836,350.25,-1.9375,90.125,0.7036132799999995,-0.03570557,-0.7071533200000009,0.05969237999999999
146.0,-0.0021108752719704855,-0.062153956973480896,0.047545564910289155,-0.3299999999999996,-9.799999999999999,-0.02000000000000001,-0.0028923962570554657,-0.005723820869990225,0.011882203276258945,350.25,-1.9375,90.125,0.7036132799999995,-0.03570557,-0.7071533200000009,0.05969237999999999
147.0,-0.001277034457478006,-0.06293820259042032,0.0453213587487781,-0.3299999999999996,-9.799999999999999,-0.02000000000000001,-0.005387799364613881,-0.005794461754643206,0.020310208944281524,350.25,-1.9375,90.125,0.7036132799999995,-0.035705570000000006,-0.7071533200000009,0.05969237999999999
148.0,-0.0021320928175766886,-0.06094478773914256,0.046532607177768456,-0.3299999999999996,-9.799999999999999,-0.02000000000000001,-0.03637005495624447,-0.0013296305509007125,0.0018365720860680536,350.25,-1.9375,90.125,0.7036132799999995,-0.035705570000000006,-0.7071533200000009,0.05969237999999999
149.0,-0.0013044907601359214,-0.06078298829306892,0.04629637387701903,-0.3299999999999996,-9.799999999999999,-0.02000000000000001,-0.07307144930002793,0.03393958122410743,0.046703761768025875,350.25,-1.9375,90.125,0.7036132799999995,-0.03570557,-0.7071533200000009,0.05969237999999999
150.0,-0.0016895437671647351,-0.06145779377432601,0.04257979363826137,-0.3299999999999996,-9.8,-0.02000000000000001,-0.02459379498189982,0.044556590782649244,0.02110675642681691,350.25,-1.9375,90.125,0.7036132799999995,-0.03570557,-0.7071533200000009,0.05969237999999999
151.0,-0.0006304054368570498,-0.06116282284024218,0.04265979540173087,-0.3299999999999996,-9.799999999999999,-0.02000000000000001,-0.013100676205514913,0.012833895495185819,0.0092923429616978,350.25,-1.9375,90.125,0.7036132799999995,-0.035705570000000006,-0.7071533200000009,0.05969237999999999
152.0,-0.001194968114322953,-0.061329212006631335,0.0395043845043845,-0.3299999999999996,-9.799999999999999,-0.02000000000000001,0.011701739121093959,0.016589235137622234,-0.0023491853128949896,350.25,-1.9375,90.125,0.7036132799999995,-0.035705570000000006,-0.7071533200000009,0.05969237999999999
153.0,-0.0005488409440022343,-0.060841257308999225,0.03979059470994954,-0.3299999999999996,-9.799999999999999,-0.02000000000000001,-0.008198029568997314,0.002198227399840302,-0.00646293111010853,350.25,-1.9375,90.125,0.7036132799999995,-0.03570557,-0.7071533200000009,0.05969237999999999
154.0,-0.0004255489134521393,-0.06017217459959394,0.039639202195653804,-0.3299999999999996,-9.8,-0.02000000000000001,0.002063595007143393,0.0029887115572599446,-0.004191280829385668,350.25,-1.9375,90.125,0.7036132799999995,-0.03570557,-0.7071533200000009,0.05969237999999999
155.0,0.0002227094142416723,-0.060696509136025256,0.039348137077975784,-0.3299999999999996,-9.8,-0.02000000000000001,0.00573092901721934,-0.012983001541469284,0.0010060965580118808,350.25,-1.9375,90.125,0.7036132799999995,-0.03570557,-0.7071533200000009,0.05969237999999999
156.0,2.5821960297766825e-05,-0.06186584987593052,0.0403534429280397,-0.3299999999999996,-9.8,-0.02000000000000001,-0.0031676488833746897,0.007926876550868486,-0.0050107591501240695,350.25,-1.9375,90.125,0.7036132799999995,-0.03570557,-0.7071533200000009,0.05969237999999999
157.0,0.00012003722084367252,-0.061781172456575675,0.041105614143920596,-0.3299999999999996,-9.8,-0.02000000000000001,-0.001654582816377171,0.010596308933002481,0.004647274348635235,350.25,-1.9375,90.125,0.7036132799999995,-0.03570557,-0.7071533200000009,0.05969237999999999
158.0,0.0005292268215655313,-0.062136767802090376,0.038358128430709085,-0.3299999999999996,-9.799999999999999,-0.02000000000000001,0.01870682241145951,0.00890847643619821,0.005429449582675389,350.25,-1.9375,90.125,0.7036132799999995,-0.035705570000000006,-0.7071533200000009,0.05969237999999999
159.0,0.00010572570350796153,-0.06156737952907307,0.03852862504878635,-0.3299999999999996,-9.799999999999999,-0.02000000000000001,-0.011267477761933407,-0.015608091924876197,0.00935564211773889,350.25,-1.9375,90.125,0.7036132799999995,-0.035705570000000006,-0.7071533200000009,0.05969237999999999
160.0,-4.166319791319791e-05,-0.0596985003124116,0.037313227654961534,-0.3299999999999996,-9.799999999999999,-0.02000000000000001,-0.00015888849054171688,-0.0058426704344043045,0.008167544401163351,350.25,-1.9375,90.125,0.7036132799999995,-0.03570557,-0.7071533200000009,0.05969237999999999
161.0,-9.651280619022546e-05,-0.06042697803988126,0.03816472416472417,-0.3299999999999996,-9.799999999999999,-0.02000000000000001,-0.012109395980363723,0.005435290515935677,-0.0006305522434554697,350.25,-1.9375,90.125,0.7036132799999995,-0.035705570000000006,-0.7071533200000009,0.05969237999999999
162.0,-0.000685973524683202,-0.060980238399593226,0.035640674737448946,-0.3299999999999996,-9.799999999999999,-0.02000000000000001,0.008321852878304493,0.005478191163675034,0.006415493109041496,350.25,-1.9375,90.125,0.7036132799999995,-0.035705570000000006,-0.7071533200000009,0.05969237999999999
163.0,-0.0003576495189398416,-0.061096179805857215,0.035308118404892605,-0.3299999999999996,-9.799999999999999,-0.02000000000000001,-0.0024831351444254664,0.005152340938631261,0.015212878519330132,350.25,-1.9375,90.125,0.7036132799999995,-0.03570557,-0.7071533200000009,0.05969237999999999
164.0,0.00029550377937474694,-0.061627548079160974,0.03618871451129517,-0.3299999999999996,-9.799999999999999,-0.02000000000000001,-0.004022836482513902,-0.009996270530544724,0.012774770032834549,350.25,-1.9375,90.125,0.7036132799999995,-0.035705570000000006,-0.7071533200000009,0.05969237999999999
165.0,0.00015031205353785982,-0.06264568764568763,0.036357169712008426,-0.32999999999999957,-9.799999999999997,-0.02000000000000001,-0.026625357169712007,0.0013077228551018867,-0.00936489585683134,350.25,-1.9375,90.125,0.7036132799999995,-0.035705570000000006,-0.707153320000001,0.05969237999999999
166.0,0.0008968522516909612,-0.06294179834502413,0.035407789343273224,-0.32999999999999957,-9.799999999999997,-0.02000000000000001,-0.004738311643553579,0.005499262442306797,0.0036628134410392477,350.25,-1.9375,90.125,0.7036132799999995,-0.035705570000000006,-0.707153320000001,0.05969237999999999
167.0,0.0014672366597444637,-0.0632775108750655,0.03739436133296696,-0.3299999999999996,-9.8,-0.02000000000000001,-0.011143569493432915,0.012542115012076315,0.005256324674573894,350.25,-1.9375,90.125,0.7036132799999995,-0.03570557,-0.7071533200000009,0.05969237999999999
168.0,0.0003365959973660285,-0.06296847007773126,0.036633905232240305,-0.3299999999999996,-9.8,-0.02000000000000001,0.00652789732524384,0.019591806187799946,0.006716639384433349,350.25,-1.9375,90.125,0.7036132799999995,-0.03570557,-0.7071533200000009,0.05969237999999999
169.0,-0.0001591702320110228,-0.06215383425685194,0.03539173267477119,-0.3299999999999996,-9.799999999999999,-0.02000000000000001,-0.011780650555364395,-0.007387014794663076,0.007100377365725961,350.25,-1.9375,90.125,0.7036132799999995,-0.035705570000000006,-0.7071533200000009,0.05969237999999999
170.0,0.0003236406904461015,-0.06126264537867034,0.035816589700044435,-0.3299999999999996,-9.799999999999999,-0.02000000000000001,-0.0015984142317388935,-0.010948517172502604,0.004038947236137663,350.25,-1.9375,90.125,0.7036132799999995,-0.03570557,-0.7071533200000009,0.05969237999999999
171.0,0.001910412255105283,-0.06388657102522866,0.03541469525964844,-0.3299999999999996,-9.799999999999999,-0.02000000000000001,-0.008615707371885831,0.005454440850512651,0.009827973362052446,350.25,-1.9375,90.125,0.7036132799999995,-0.03570557,-0.7071533200000009,0.05969237999999999
172.0,0.0014004154447702834,-0.061806648996165114,0.034623580720354916,-0.3299999999999996,-9.8,-0.02000000000000001,-0.001566318426197459,0.023261969884953757,0.009266674186029025,350.25,-1.9375,90.125,0.7036132799999995,-0.03570557,-0.7071533200000009,0.05969237999999999
173.0,0.001665468268290849,-0.0630844659372885,0.03452022708474322,-0.3299999999999996,-9.8,-0.02000000000000001,-0.021502762190766224,0.014686195860591025,-0.001957853973983007,350.25,-1.9375,90.125,0.7036132799999995,-0.03570557,-0.7071533200000009,0.05969237999999999
174.0,0.0008425093052109181,-0.06233949126590253,0.03374826696600891,-0.3299999999999996,-9.8,-0.02000000000000001,-0.016422289488065695,0.002772623601756667,-0.005197378786088464,350.25,-1.9375,90.125,0.7036132799999995,-0.03570557,-0.7071533200000009,0.05969237999999999
175.0,8.607320099255581e-05,-0.060839604503918995,0.03274106896687544,-0.3299999999999996,-9.8,-0.02000000000000001,0.0032713401349994103,0.012695535591200915,-0.004110786167237781,350.25,-1.9375,90.125,0.7036132799999995,-0.03570557,-0.7071533200000009,0.05969237999999999
176.0,-0.00039757786748638934,-0.06216529605311501,0.03175209442566209,-0.3299999999999996,-9.799999999999999,-0.02000000000000001,0.025945117663190607,0.016111982257564827,-0.00038155461467329565,350.25,-1.9375,90.125,0.7036132799999995,-0.035705570000000006,-0.7071533200000009,0.05969237999999999
177.0,-5.486833820969589e-05,-0.06235560088015551,0.030573317684295075,-0.3299999999999996,-9.799999999999999,-0.02000000000000001,-0.014400269952523801,0.020307852170966038,0.0011584782757899032,350.25,-1.9375,90.125,0.7036132799999995,-0.035705570000000006,-0.7071533200000009,0.05969237999999999
178.0,0.0002757756283817445,-0.06185754109484441,0.02946547898142554,-0.3299999999999996,-9.8,-0.02000000000000001,-0.0034425307178772057,-0.004522792877136047,0.005983765672754473,350.25,-1.9375,90.125,0.7036132799999995,-0.03570556999999999,-0.7071533200000009,0.05969237999999999
179.0,-0.0014750154116155794,-0.061306394715368945,0.039522806054972874,-0.3299999999999996,-9.8,-0.02000000000000001,-0.028746995005635993,-0.012182031359202945,0.004631987803095107,350.25,-1.9375,90.125,0.7036132799999995,-0.03570557,-0.7071533200000009,0.05969237999999999
180.0,-0.0034644749589847206,-0.06144529168808524,0.05975559901966628,-0.3299999999999996,-9.799999999999999,-0.021720430107526893,-0.143768028752818,-0.012791399049591697,-0.03918123010260689,350.2612414467253,-1.9375,90.13233137829911,0.7035626861388076,-0.03573659373411535,-0.7072129826392963,0.05966326547409577
181.0,-0.0017202008882549985,-0.06469712827061941,0.0826859362455096,-0.3299999999999996,-9.799999999999999,-0.05174731182795702,-0.22384597874809894,-0.06114714391574433,-0.050900798007490256,350.25562072336265,-1.9375,90.32070197947213,0.7024593276661786,-0.035847089608993146,-0.7083123039002932,0.05958331951124139
182.0,-0.0004680408907776233,-0.06373814229908141,0.09406753387957861,-0.3299999999999996,-9.799999999999999,-0.0668413978494624,-0.1269509050068038,-0.019066127789137674,-0.03145226004592875,350.2528103616813,-1.9375,90.41639937683284,0.7019022341556704,-0.03590233754643205,-0.7088668867888561,0.0595433465298142
183.0,0.0004702139258590871,-0.06319553396871945,0.09770978551018876,-0.3299999999999996,-9.8,-0.0743884408602151,-0.056625116315136476,-0.0031224739642078357,-0.016881276905218436,350.2514051808407,-1.9375,90.4642480755132,0.7016236874004165,-0.0359299615151515,-0.7091441782331376,0.05952336003910061
184.0,0.0013177682532521241,-0.06301444657493044,0.0974531402737048,-0.3299999999999996,-9.8,-0.07816196236559145,-0.028454559553349877,0.005701673998044966,-0.0124581148018648,350.25070259042036,-1.9375,90.48817242485337,0.7014844140227894,-0.03594377349951122,-0.7092828239552783,0.059513366793743805
185.0,0.0009082673598802631,-0.0618924115758793,0.09972899065540194,-0.3299999999999996,-9.8,-0.0799949596774194,-0.013267218332742527,-0.014359719022017407,-0.0018585958732128091,350.25,-1.9375,90.49990549395162,0.7014163583921382,-0.03594970999999998,-0.7093502823588707,0.059509279999999914
186.0,0.0008703667704708288,-0.06381707597524454,0.0983963794327998,-0.3299999999999996,-9.8,-0.08000000000000004,0.017342473690028323,0.0028459111705729807,-0.01243972815252732,350.25,-1.9375,90.5,0.701416020000001,-0.03594970999999998,-0.7093505899999998,0.059509279999999914
187.0,0.0003445750688206463,-0.06381890718831404,0.0957859030783068,-0.3299999999999996,-9.799999999999999,-0.08000000000000004,-0.013315378689988472,-0.0023705627243608514,-0.018252723689768435,350.25,-1.9375,90.5,0.701416020000001,-0.03594970999999999,-0.7093505899999998,0.059509279999999914
188.0,0.001738044358231663,-0.062343696770335674,0.09473166121657275,-0.3299999999999996,-9.799999999999999,-0.08000000000000004,0.0035470252952042765,0.01103556231027615,0.010259494234520246,350.25,-1.9375,90.5,0.701416020000001,-0.03594970999999999,-0.7093505899999998,0.059509279999999914
189.0,-0.00031018929041821844,-0.06399456688530569,0.08621155119594245,-0.3299999999999996,-9.8,-0.08000000000000004,0.028430234062388066,-0.012108454616258984,-0.0075470026562638425,350.25,-1.9375,90.47644649257552,0.7014755213210448,-0.03594970999999998,-0.7092910840092164,0.059509279999999914
190.0,0.0022156170803413265,-0.06329528651484945,0.08284463888522162,-0.3299999999999996,-9.8,-0.08000000000000004,0.08343554713872091,0.015995183854184893,0.018147901641658144,350.25,-1.9375,90.45596518177163,0.7015402738863287,-0.03594970999999998,-0.7092263286175113,0.059509279999999914
191.0,0.0007037944134718334,-0.06163219218057926,0.08051835261512683,-0.3299999999999996,-9.799999999999999,-0.08000000000000004,0.03769487680778003,-0.01572296431167399,0.01386299632267374,350.25,-1.9375,90.4457245263697,0.7015726501689705,-0.035949709999999996,-0.7091939509216587,0.059509279999999914
192.0,0.001483373257566806,-0.06123887223887222,0.0822997432674852,-0.3299999999999996,-9.799999999999999,-0.08000000000000004,0.016525835275835274,-0.002714243641662997,0.007817373039147231,350.25,-1.9375,90.44060419866872,0.7015888383102915,-0.03594970999999999,-0.7091777620737324,0.059509279999999914
193.0,0.0015113112693757856,-0.061587650700553914,0.08035306986919888,-0.3299999999999996,-9.799999999999999,-0.08000000000000004,-0.01920050155937253,0.016176308010985428,0.0007436839594097654,350.25,-1.9375,90.43804403481823,0.701596932380952,-0.03594970999999998,-0.7091696676497693,0.059509279999999914
194.0,0.001267924727602147,-0.061180646414517384,0.07575804661288532,-0.3299999999999996,-9.8,-0.08000000000000004,0.008426256762950312,-0.0003008136576684965,-0.006672301153147927,350.25,-1.9375,90.4375,0.7015991199999996,-0.03594970999999998,-0.7091674799999997,0.059509279999999914
195.0,0.0013417312973764586,-0.06250439479874964,0.07435740155901446,-0.3299999999999996,-9.799999999999999,-0.08000000000000004,-0.0165198348918107,-0.001311208392861619,-0.0010916432917440983,350.25,-1.9375,90.4375,0.7015991199999996,-0.035949709999999996,-0.7091674799999996,0.059509279999999914
196.0,0.0014204118014601885,-0.061577454579470704,0.0765428491759137,-0.3299999999999996,-9.799999999999999,-0.08000000000000004,0.005159850510152927,0.03387169645990211,0.008021272102673312,350.2525601638505,-1.9375,90.4375,0.7015991199999996,-0.035947209641577035,-0.7091674799999996,0.05950577949820782
197.0,0.0010079101150901363,-0.06210555221169164,0.08785746777213999,-0.3299999999999996,-9.8,-0.08291363163371486,-0.10866792041349793,-0.1148553767310271,-0.029303762199183632,350.215379977867,-1.9375,90.45779136316338,0.7014644746722167,-0.03623908983119435,-0.7092650356295528,0.05977732804254827
198.0,0.0015731725783754923,-0.06289888698421475,0.0955986589430918,-0.3299999999999996,-9.799999999999999,-0.09177939646201866,-0.06374983555004367,-0.10588606242872632,-0.02141449572510967,350.16817385990123,-1.9375,90.52438077444582,0.7010669050584932,-0.03653542701237137,-0.7096186234843755,0.06002132724708062
199.0,0.000615295214670865,-0.06245117294544972,0.10224913772780578,-0.3299999999999996,-9.799999999999997,-0.09621227887617056,-0.1077330650041368,-0.06928166569815894,-0.01487344456907412,350.14457080091836,-1.9375,90.5777145807713,0.7008289815615045,-0.03668359560295988,-0.7098340788389619,0.0601433268493468
200.0,0.0006057903248329888,-0.06293868520195262,0.10179905566742192,-0.3299999999999996,-9.799999999999999,-0.09842872008324652,-0.009435325268441819,-0.06839572043461221,-0.011056590319727676,350.1327692714269,-1.9375,90.60438148393403,0.7007100198130101,-0.03675767989825413,-0.709941806516255,0.06020432665047988
201.0,0.0013121117522782453,-0.06320600020860165,0.10163961212218237,-0.3299999999999996,-9.799999999999999,-0.09953694068678448,-0.003644855513026694,-0.03823159529942829,-0.0048077567377125124,350.1267885015609,-1.9375,90.61771493551541,0.700650538938763,-0.036794800182101975,-0.7099956703549015,0.06023493594172743
202.0,0.000491581681037627,-0.0623317186344389,0.10060951516386035,-0.3299999999999996,-9.799999999999997,-0.09999999999999988,0.011286293724530964,-0.005372971069814474,0.01789525033724901,350.125,-1.9375,90.62374755620723,0.7006250061681325,-0.0368042,-0.7100195536608014,0.060241700000000065
203.0,0.000539278714651849,-0.06233608693905997,0.0977235305652193,-0.3299999999999996,-9.799999999999999,-0.0999999999999999,-0.0017165968886073005,-0.0017016952356008084,0.011209588116071324,350.125,-1.9375,90.625,0.7006225599999996,-0.036804199999999995,-0.7100219699999999,0.060241700000000065
204.0,0.0006841531589365002,-0.06293862951430956,0.09505049590682413,-0.3299999999999996,-9.799999999999999,-0.0999999999999999,0.022487195667319493,-0.019276754148545645,0.002158028010463163,350.125,-1.9375,90.625,0.7006225599999996,-0.036804199999999995,-0.7100219699999999,0.060241700000000065
205.0,0.0010358082510225023,-0.0630560999477706,0.09634466694168184,-0.3299999999999996,-9.799999999999999,-0.09999999999999988,0.010362018685321526,-0.014936920726521112,-0.0012545217046902172,350.125,-1.9375,90.625,0.7006225599999996,-0.0368042,-0.7100219699999999,0.060241700000000065
206.0,0.0009548542721388171,-0.060613244349402254,0.09417165672822868,-0.32999999999999957,-9.799999999999997,-0.09999999999999988,0.0046457247347955095,-0.012262993786826238,0.004229307310674667,350.125,-1.9375,90.625,0.7006225599999996,-0.0368042,-0.7100219699999999,0.060241700000000065
207.0,-0.00033701065959130486,-0.06044639947865753,0.0916859842666294,-0.32999999999999957,-9.799999999999997,-0.0999999999999999,0.004070078666852861,0.022241423451100868,-0.007703765768281898,350.125,-1.9375,90.625,0.7006225599999996,-0.036804199999999995,-0.7100219699999999,0.060241700000000065
208.0,-0.0012110040497137272,-0.05970837048256401,0.08909357309357308,-0.3299999999999996,-9.799999999999999,-0.0999999999999999,0.01914850382592318,-0.018639962188349287,-0.001434497402239338,350.125,-1.9375,90.625,0.7006225599999996,-0.036804199999999995,-0.7100219699999999,0.060241700000000065
209.0,-0.0017131220034445841,-0.06011066711066709,0.08824948170109456,-0.3299999999999996,-9.799999999999997,-0.09999999999999988,0.044108825762051565,0.004957296287941448,0.016501307831952992,350.125,-1.9375,90.625,0.7006225599999996,-0.0368042,-0.7100219699999999,0.060241700000000065
210.0,-0.0022495228785551365,-0.059520142939497755,0.08682268806462351,-0.3299999999999996,-9.799999999999999,-0.0999999999999999,0.0023818811117198198,-0.0013550517582775652,0.004798796633474052,350.125,-1.9375,90.625,0.7006225599999996,-0.036804199999999995,-0.7100219699999999,0.060241700000000065
211.0,-0.002187811292650002,-0.060915985448243504,0.08668113875371936,-0.3299999999999996,-9.799999999999999,-0.0999999999999999,-0.003330076061930901,0.000987307942953104,-0.004305758086000021,350.125,-1.9375,90.625,0.7006225599999996,-0.036804199999999995,-0.7100219699999999,0.060241700000000065
212.0,-0.004688910652018501,-0.06083804331601633,0.08942672844327873,-0.3299999999999996,-9.799999999999999,-0.09999999999999988,-0.055652970870607485,0.026078097346001774,-0.018716088342126496,350.125,-1.9375,90.625,0.7006225599999996,-0.0368042,-0.7100219699999999,0.060241700000000065
213.0,-0.00437671339052538,-0.06027510106247466,0.09294165206283042,-0.3299999999999996,-9.799999999999999,-0.0999999999999999,-0.017435666576742948,0.01049562435538302,-0.02829414838942553,350.125,-1.9375,90.625,0.7006225599999996,-0.036804199999999995,-0.7100219699999999,0.060241700000000065
214.0,-0.0029866097775948564,-0.05979478888774728,0.09325810569590612,-0.3299999999999996,-9.8,-0.0999999999999999,-0.004094335038442421,0.003779565717249421,-0.01832369340450055,350.125,-1.9375,90.625,0.7006225599999996,-0.036804199999999995,-0.7100219699999999,0.060241700000000065
215.0,-0.0024670799376732833,-0.06100733457095086,0.0941995409955581,-0.3299999999999996,-9.799999999999999,-0.0999999999999999,0.023005049459029033,0.005925859349338298,-0.012472899518721438,350.125,-1.9375,90.625,0.7006225599999996,-0.036804199999999995,-0.7100219699999999,0.060241700000000065
216.0,-0.0023737983999216855,-0.06187600966084199,0.09348211714978294,-0.3299999999999996,-9.799999999999997,-0.09999999999999988,0.051233726617344426,0.014645881929067975,-0.010919272187268833,350.125,-1.9375,90.625,0.7006225599999996,-0.0368042,-0.7100219699999999,0.060241700000000065
217.0,-0.0029000579718581796,-0.06306988883471713,0.09099271592091568,-0.3299999999999996,-9.799999999999999,-0.0999999999999999,0.0024880903002651167,0.015924705713987714,-0.013866037708389425,350.125,-1.9375,90.625,0.7006225599999996,-0.036804199999999995,-0.7100219699999999,0.060241700000000065
218.0,-0.00233836645491172,-0.06431906352405833,0.09087352917633873,-0.3299999999999996,-9.799999999999999,-0.0999999999999999,-0.027881265023564715,-0.0038397563241475835,-0.025202249623425484,350.125,-1.9375,90.625,0.7006225599999996,-0.036804199999999995,-0.7100219699999999,0.060241700000000065
219.0,-0.001528339578893262,-0.06116849319834394,0.09246205696085329,-0.3299999999999996,-9.799999999999997,-0.09999999999999988,-0.0020828914305081863,-0.014405414838732124,-0.015857556622482,350.125,-1.9375,90.625,0.7006225599999996,-0.0368042,-0.7100219699999999,0.060241700000000065
220.0,-0.003026307293519619,-0.06218853836475406,0.0910709018686871,-0.3299999999999996,-9.799999999999999,-0.0999999999999999,0.0545184737559557,0.002915758344260992,0.005490989644817279,350.125,-1.9375,90.625,0.7006225599999996,-0.036804199999999995,-0.7100219699999999,0.060241700000000065
221.0,-0.002202303206877112,-0.06185673252548553,0.08944551936054101,-0.3299999999999996,-9.799999999999999,-0.0999999999999999,-0.03546986869386966,0.0005872779991099686,0.00390629638643601,350.125,-1.9375,90.625,0.7006225599999996,-0.036804199999999995,-0.7100219699999999,0.060241700000000065
222.0,-0.0011222810116647383,-0.060861368744132324,0.08990149492352187,-0.3299999999999996,-9.799999999999999,-0.09999999999999988,-0.011094397464462462,-0.012219989844719021,-0.005099073778358805,350.125,-1.9375,90.625,0.7006225599999996,-0.0368042,-0.7100219699999999,0.060241700000000065
223.0,0.00018327636761676202,-0.06193192506685523,0.09152394845431674,-0.3299999999999996,-9.799999999999999,-0.0999999999999999,0.02761036950598217,0.011135662645878706,-0.012382043092653349,350.125,-1.9375,90.625,0.7006225599999996,-0.036804199999999995,-0.7100219699999999,0.060241700000000065
224.0,-0.0011866478055994186,-0.0654327415416125,0.0959389121183476,-0.3299999999999996,-9.799999999999999,-0.09741935483870956,0.11121129934133966,-0.025795011719910912,0.010547363143129271,350.125,-1.9375,90.5922379032258,0.7007790850806449,-0.03680616782258062,-0.7098679062903226,0.060261880322580674
225.0,-0.008498178904428909,-0.0589897031731709,0.11377358025039479,-0.32671554252199403,-9.799999999999999,-0.06359726295210162,-0.05319258614369502,-0.12221068372152041,-0.04939454446762914,350.13721896383186,-1.9164833822091887,90.3808574657869,0.7020324976918377,-0.036884414722629516,-0.7086180365615835,0.06034868173509286
226.0,-0.003918271264925095,-0.060779231100307154,0.11724935482187528,-0.318266293167593,-9.799999999999997,-0.06084533345005179,-0.08245030802731212,-0.19782526730912323,-0.1017629581690577,350.14555339140077,-1.8634384893713252,90.36378573818955,0.7021136683933428,-0.03741416457845487,-0.7085178780617258,0.060323400939765966
227.0,-0.0071961835308007715,-0.06445608671339893,0.11316035678532668,-0.3138105659386351,-9.799999999999997,-0.07682540377292421,-0.4856899633978203,-0.09999706669463981,-0.038922168234088964,350.1088837338236,-1.8359531156534046,90.45040459930006,0.7015418514400731,-0.03794159886791754,-0.7090436835616545,0.060493042043685566
228.0,-0.010608017323713042,-0.06726030142121558,0.10955040171772536,-0.3115827023241562,-9.798014888337468,-0.11795116342492361,-0.4274758749991583,-0.009831039550793855,0.04041794814102003,350.08468380239566,-1.822210428794444,90.68559311850859,0.7000717174222699,-0.03828209455058408,-0.7104686802001821,0.06056510696228942
229.0,-0.013583377944475684,-0.06718918266775753,0.11694408175679236,-0.3115472490917845,-9.798005999777782,-0.12477120039325144,0.04223381036392593,-0.02221882494812201,-0.03856791078444906,350.0725838366817,-1.8153390853649638,90.7242067493572,0.69981094392249,-0.03839269903071604,-0.7107123268996368,0.0606486768229538
230.0,-0.011862521365650879,-0.06196255133087099,0.11751181830527038,-0.31412688418947454,-9.799002999888891,-0.06036127505939736,0.26118641228776035,-0.003236875065233273,-0.013122072919858188,350.06615201120496,-1.8329075774971297,90.32737848934887,0.7022382766065567,-0.038208081939600444,-0.7082926486652481,0.06088125009818267
231.0,-0.016989277052589527,-0.06231131899716394,0.12271233669235594,-0.3164110588496723,-9.799501499944444,-0.042609621641398254,-0.36659324065438653,0.01626342332438866,-0.15586742788987612,350.04976173020526,-1.8483793424317618,90.23053746325894,0.7028175353133892,-0.038105574705958135,-0.7077170417134618,0.06100998945207639
232.0,-0.020452116532159875,-0.06345282469897297,0.12490455544295216,-0.3122671130025487,-9.79975074997222,-0.06578672675422792,-0.35758486568398695,-0.044608390977101856,-0.19413605998599376,350.0852730938417,-1.8245745685765846,90.36804854590122,0.7019494491009761,-0.03835961552746589,-0.7085830372594684,0.060765796600427247
233.0,-0.01948290060525256,-0.06079726157729286,0.13054301510157307,-0.31228906926006117,-9.799937409725564,-0.07858078236159603,-0.29630891371307233,-0.2633448050956025,-0.08641101728976368,350.03777677320875,-1.8252777753812146,90.44712656545829,0.7014623967922199,-0.03863114618186563,-0.7090367591059016,0.06095646415077473
234.0,-0.014888525984126617,-0.06282276205245028,0.10735402889185387,-0.31627212249714665,-9.799999999999997,-0.06749873502226653,-0.1787785063479424,0.03991828074846701,-0.03216838435847974,349.9108654731379,-1.8511469522067365,90.38698842850565,0.7017911277506432,-0.039097212344052765,-0.7086163647223416,0.061791473438884775
235.0,-0.013105273157756097,-0.06154921821505088,0.08323356611486152,-0.31818568904013667,-9.8,-0.059602965526021574,-0.04631863362702492,0.040110925373833275,-0.04796154349597724,349.8576504785044,-1.8634456845400929,90.35577709266472,0.7020244249596891,-0.03922315972041346,-0.7083457248301535,0.06216843936460368
236.0,-0.010018788874163409,-0.06168461996360483,0.07290768721375829,-0.3191180461329717,-9.8,-0.055189587601720436,-0.007565818829641493,0.02310413087860399,-0.02172110789873304,349.83145250739733,-1.8694276053748853,90.33691072375171,0.7021614315524255,-0.03928597299024704,-0.7081900726519719,0.06235660025185829
237.0,-0.008481092989425421,-0.060356926189967006,0.06718337393318366,-0.31974963890226304,-9.8,-0.05196429526713585,0.008241860170432706,0.0019369046144637504,-0.004168489293592186,349.81702757334676,-1.8734051516610497,90.32157425239393,0.7022667115093508,-0.039307582768339525,-0.7080756279559957,0.062460145265225336
238.0,-0.006941324602094635,-0.06220045511200557,0.06362709784145787,-0.3200000000000002,-9.8,-0.05028161802355346,0.007452347918008688,0.01990764034208363,0.005849227948603599,349.81185995903735,-1.875,90.31339605734766,0.7023221644956482,-0.03931379673323089,-0.7080166231233999,0.06250215635432668
239.0,-0.0064297462278731805,-0.06203748026744904,0.061482124073175035,-0.3200000000000002,-9.799999999999999,-0.04999999999999995,0.012250355870283029,0.0006994097069539327,-0.0012734728850753827,349.8125,-1.875,90.3125,0.7023315400000006,-0.03930663999999996,-0.7080078099999999,0.0625
240.0,-0.0062089497968790385,-0.062366014607429784,0.061995924759712454,-0.3200000000000002,-9.799999999999999,-0.04999999999999995,0.011495935559411107,-0.00226951190790941,0.015243406437475116,349.8125,-1.875,90.3125,0.7023315400000005,-0.03930663999999996,-0.7080078099999999,0.0625
241.0,-0.007573181818759343,-0.06410253938453729,0.060513894476433475,-0.3200000000000002,-9.8,-0.049672299027137684,0.06258360526050433,-0.008923808299458663,0.02869259021704391,349.8125,-1.875,90.3094278033794,0.7023430408294935,-0.03930663999999996,-0.7079968094879672,0.0625
242.0,-0.012859811595503588,-0.0606931027695856,0.07092643008511895,-0.3200000000000002,-9.8,-0.03959421402969789,0.011442532276949548,0.009498989347454488,-0.02002390458425838,349.8125,-1.875,90.2172139016897,0.7027699546889398,-0.039276124999999995,-0.7075701427278549,0.0625
243.0,-0.012748765571346223,-0.06223915063431192,0.06964706709061547,-0.3200000000000002,-9.799999999999999,-0.03447452636968767,0.014535179202517911,-0.003917101044117173,-0.02591237167850071,349.8125,-1.875,90.16808275729646,0.702991779602534,-0.0392598831451613,-0.7073479492671537,0.0625
244.0,-0.013615340752437533,-0.06181361246280599,0.0717565736235091,-0.3200000000000002,-9.799999999999999,-0.01772113415258577,0.07204337161494419,0.023869284277550404,0.03303293928293928,349.8125,-1.875,90.05934379800307,0.7036416681077184,-0.039197125766129035,-0.7066993484238999,0.06253002774193545
245.0,-0.013724543825350283,-0.06215494518921938,0.06890310070753618,-0.3200000000000002,-9.799999999999999,-0.015796050947260633,-0.10179624223223013,-0.01068477473467393,0.017059273611692967,349.8125,-1.875,90.06797835061442,0.703683587279666,-0.03920660110887098,-0.7066570888087236,0.06254651838709673
246.0,-0.01095578285259918,-0.061601580167345085,0.06346290678207203,-0.3200000000000002,-9.799999999999999,-0.01742439516129033,-0.07578448996312426,-0.016657499594220977,-0.003200069119213318,349.8125,-1.875,90.09356098790322,0.7036057435937504,-0.0392251211995968,-0.7067342538155235,0.06255476370967737
247.0,-0.010431287828284702,-0.06386100255265517,0.056234981616842455,-0.3200000000000002,-9.799999999999999,-0.018548387096774203,-0.0079975586447135,-0.001309858280361109,0.011381703963966542,349.8125,-1.875,90.10918598790323,0.7035536603931456,-0.0392353348387097,-0.7067859977721764,0.06255888637096768
248.0,-0.010343036466092657,-0.06370083205550331,0.05598760716448971,-0.3200000000000002,-9.8,-0.01911290322580646,0.0061321212546936715,-0.01860547386947138,0.010862232803728295,349.8125,-1.875,90.11709299395162,0.7035273572933471,-0.03924047241935487,-0.706812146628023,0.06256094770161284
249.0,-0.009309429213195214,-0.06198654350914122,0.05523612678323741,-0.3200000000000002,-9.8,-0.019838709677419367,0.006493237658984553,-0.019535318743048348,0.0010201071741966546,349.8125,-1.875,90.12367691532258,0.703497362741936,-0.03924474859879035,-0.7068420180594746,0.06256103999999994
250.0,-0.010135990184353988,-0.06326397469149886,0.05467203245757922,-0.3200000000000002,-9.799999999999999,-0.02000000000000001,0.0017690802371716236,-0.02157691889547699,-0.016372676161336912,349.8125,-1.875,90.125,0.7034912100000006,-0.03924561000000003,-0.7068481399999988,0.06256103999999996
251.0,-0.009854947427275693,-0.06193530944493095,0.05341569846278095,-0.3200000000000002,-9.799999999999999,-0.02000000000000001,0.01017528397992428,-0.004378974613843454,-0.0027999635019491506,349.8125,-1.875,90.125,0.7034912100000006,-0.03924561000000003,-0.7068481399999988,0.06256103999999994
252.0,-0.00921035212554852,-0.06063514851899151,0.052263680496899154,-0.3200000000000002,-9.799999999999999,-0.02000000000000001,0.010624242486240054,-0.0004370059173435638,0.004183144799893911,349.8125,-1.875,90.125,0.7034912100000006,-0.03924561000000003,-0.7068481399999988,0.06256103999999994
253.0,-0.009932959621567188,-0.0605100820638662,0.05045025856270556,-0.3200000000000002,-9.8,-0.02000000000000001,0.014872475041246978,-0.013697301085622875,-0.002737381814413086,349.8125,-1.875,90.125,0.7034912100000005,-0.03924561000000003,-0.7068481399999988,0.06256103999999994
254.0,-0.009908047088459094,-0.059667351926033785,0.05005999680716724,-0.3200000000000002,-9.8,-0.016836628511966708,0.08166730691948686,-0.007074276893567861,-0.0012756387980254013,349.8125,-1.875,90.10054630593132,0.7036111210093651,-0.03923036662851198,-0.7067297541519246,0.06256103999999994
255.0,-0.013849763367485796,-0.06250859481309533,0.053204396962298894,-0.3200000000000002,-9.8,-0.01350676378772113,-0.06148319621488033,0.012462791663331465,-0.0974057034439286,349.8125,-1.875,90.08051508844953,0.7037549140998958,-0.039208516347554644,-0.7065872354422474,0.06256103999999994
256.0,-0.013867926038581611,-0.06358292643880573,0.06067729928760105,-0.3200000000000002,-9.8,-0.01675338189386057,0.0032648283038501542,-0.0020221323941407195,-0.054404716641319135,349.8125,-1.875,90.10275754422477,0.7036230620499482,-0.03922706317377733,-0.7067491922372523,0.06256103999999994
257.0,-0.012512126791002966,-0.062672356519651,0.06286470423437122,-0.3200000000000002,-9.8,-0.018376690946930292,0.009371247898823341,-0.0015693788521572083,-0.030366130032818378,349.8125,-1.875,90.11387877211239,0.7035571360249744,-0.03923633658688868,-0.7068301706347548,0.06256103999999994
258.0,-0.012119106699751865,-0.06283705875290159,0.0622470883694869,-0.3200000000000002,-9.8,-0.01918834547346515,0.029686874649803886,0.009579864724245577,-0.014540455154886736,349.8125,-1.875,90.1194393860562,0.7035241730124875,-0.03924097329344435,-0.7068706598335059,0.06256103999999994
259.0,-0.01229103345492524,-0.06094518811486811,0.06276209034202009,-0.3200000000000002,-9.8,-0.019693028095733624,0.0027897626639171898,0.0063422897775135025,-0.009318358657832513,349.8125,-1.875,90.12298387096774,0.7035039442872013,-0.039243768002081195,-0.7068946039906339,0.06256103999999994
260.0,-0.011184538579699876,-0.06070932662767337,0.061763459322935116,-0.3200000000000002,-9.8,-0.02000000000000001,0.016694699229981486,0.010243855606758834,-0.0056509847399464335,349.8125,-1.875,90.125,0.7034912100000006,-0.03924561000000003,-0.7069091799999991,0.06256103999999994
261.0,-0.01197017780386369,-0.061296914437580736,0.062027411509696,-0.3200000000000002,-9.8,-0.02000000000000001,-0.011761265205210208,-0.01366360233940218,0.003693617476007746,349.8125,-1.875,90.125,0.7034912100000005,-0.03924561000000003,-0.7069091799999991,0.06256103999999994
262.0,-0.015962516261253067,-0.06120388826017353,0.06568432129955301,-0.3200000000000002,-9.8,-0.017252861602497407,0.03965686839795521,-0.0005727961268771091,-0.023554415947820186,349.8125,-1.875,90.09898543184184,0.7035557382830384,-0.03922884146722168,-0.706825342747138,0.06256103999999994
263.0,-0.017877039768343664,-0.06111062899361033,0.06806300432223307,-0.3200000000000002,-9.8,-0.011559433282638283,0.06618389325604956,0.0003959840705564828,-0.025192220380857985,349.8125,-1.875,90.05889097894823,0.7037391415162091,-0.039196513713759706,-0.7066220286192264,0.06256830908188585
264.0,-0.0159646335554468,-0.06342923627395274,0.07256110159394176,-0.3200000000000002,-9.8,-0.014906267509805497,-0.09265862448544956,0.0041202122881436555,-0.08647751552344722,349.8125,-1.875,90.08599015448652,0.703642316045946,-0.039217184377971684,-0.7067341021756177,0.06256467454094289
265.0,-0.014912760326110499,-0.06275292458858928,0.07498014757116442,-0.3200000000000002,-9.8,-0.017453133754902754,-0.08148556224272477,-0.002208417041412043,-0.05520952389075587,349.8125,-1.875,90.10549507724326,0.7035667630229732,-0.039231397188985856,-0.7068216410878084,0.06256285727047142
266.0,-0.014659089089890345,-0.062093952613463524,0.07352741535259744,-0.3200000000000002,-9.8,-0.018726566877451382,-0.040147857800368204,0.00625450252141199,-0.05121618106139438,349.8125,-1.875,90.11524753862163,0.7035289865114869,-0.03923850359449294,-0.7068654105439038,0.06256194863523568
267.0,-0.013761546466020978,-0.060949361642519795,0.07296778195789641,-0.3200000000000002,-9.8,-0.019449131513647654,-0.046814903846153846,0.00392469783078524,-0.02630022812775154,349.8125,-1.875,90.12093672456575,0.7035080817468987,-0.03924258081389581,-0.7068899151861034,0.06256149431761782
268.0,-0.013134551712595425,-0.060691915199784584,0.07030838906151078,-0.3200000000000002,-9.799999999999999,-0.019945409429280407,-0.02536953553838634,0.0033976072054896196,-0.008332552593088493,349.8125,-1.875,90.12462779156327,0.7034929062679907,-0.03924536765756827,-0.7069072111166244,0.06256103999999994
269.0,-0.013011444590789031,-0.06057424544108335,0.07012689924539559,-0.3200000000000002,-9.799999999999999,-0.02000000000000001,-0.01519717471708399,0.023907240327310567,-0.003344315998777498,349.8125,-1.875,90.125,0.7034912100000006,-0.03924561000000003,-0.7069091799999991,0.06256103999999994
270.0,-0.012654915843781617,-0.060335005785057794,0.06793643349366552,-0.3200000000000002,-9.799999999999999,-0.02000000000000001,-0.008527896834348446,0.011575595970106897,-0.00280623058003391,349.8125,-1.875,90.125,0.7034912100000006,-0.03924561000000003,-0.7069091799999991,0.06256103999999994
271.0,-0.013290454169486435,-0.062333728099857114,0.06471672682156551,-0.3200000000000002,-9.799999999999999,-0.02000000000000001,0.03043790886532822,-0.006153775659824047,0.0086149569516505,349.8125,-1.875,90.125,0.7034912100000006,-0.03924561000000003,-0.7069091799999991,0.06256103999999996
272.0,-0.013342497556207242,-0.0617251767050154,0.06255687457703585,-0.3200000000000002,-9.799999999999999,-0.02000000000000001,-0.016248167155425222,0.007810208944281525,0.020731175746296713,349.8125,-1.875,90.125,0.7034912100000006,-0.03924561000000003,-0.7069091799999991,0.06256103999999994
273.0,-0.012959206398007133,-0.06202070962769452,0.060571077530689896,-0.3200000000000002,-9.8,-0.02000000000000001,-0.020595802588843692,-0.02527703297937754,0.018032494977490425,349.8125,-1.875,90.125,0.7034912100000005,-0.03924561000000003,-0.7069091799999991,0.06256103999999994
274.0,-0.01278233272753955,-0.06163566498754454,0.05758082412514643,-0.3200000000000002,-9.8,-0.02000000000000001,-0.025480903775811425,0.008003543063661103,0.007573939796437519,349.8125,-1.875,90.125,0.7034912100000005,-0.03924561000000003,-0.7069091799999991,0.06256103999999994
275.0,-0.012782644341437272,-0.0619269748634993,0.056786418576220854,-0.3200000000000002,-9.8,-0.02000000000000001,-0.016647671180709683,0.020890971671408718,0.000360277512983028,349.8125,-1.875,90.125,0.7034912100000005,-0.03924561000000003,-0.7069091799999991,0.06256103999999994
276.0,-0.012042423757304096,-0.06303898182982468,0.055028896181861825,-0.3200000000000002,-9.8,-0.02000000000000001,-0.012882214039862325,-0.007550228127751539,-0.00011006163451532879,349.8125,-1.875,90.125,0.7034912100000005,-0.03924561000000003,-0.7069091799999991,0.06256103999999994
277.0,-0.011622023253656973,-0.06256714934966753,0.05733819065660896,-0.3200000000000002,-9.8,-0.02000000000000001,0.02477689093193776,-0.011796796682332581,-0.004663079578532232,349.8125,-1.875,90.125,0.7034912100000006,-0.03924561000000003,-0.7069091799999991,0.06256103999999994
278.0,-0.010372365985269215,-0.0614059632124148,0.05836968766001023,-0.3200000000000002,-9.8,-0.02000000000000001,0.005334495253850093,0.004441391941391943,-0.003567982197014455,349.8125,-1.875,90.125,0.7034912100000006,-0.03924561000000003,-0.7069091799999991,0.06256103999999994
279.0,-0.010064594903304584,-0.06171538855409821,0.057755563432982784,-0.3200000000000002,-9.8,-0.02000000000000001,-0.0057849856236953014,0.022893772893772892,0.002232758281145378,349.8125,-1.875,90.125,0.7034912100000006,-0.03924561000000003,-0.7069091799999991,0.06256103999999994
280.0,-0.011052660601047704,-0.06041332860687698,0.059183110796014,-0.3200000000000002,-9.8,-0.02000000000000001,0.02488134625231399,0.004775197920359212,-0.012087912087912087,349.8125,-1.875,90.125,0.7034912100000006,-0.03924561000000003,-0.7069091799999991,0.06256103999999994
281.0,-0.012250896057347674,-0.060616093583835504,0.060092796092796066,-0.3200000000000002,-9.8,-0.02000000000000001,0.04679241009886172,-0.008452971759423373,-0.00802906770648706,349.8125,-1.875,90.125,0.7034912100000006,-0.03924561000000003,-0.7069091799999991,0.06256103999999994
282.0,-0.01188698040310944,-0.06176059066381645,0.05911310195181162,-0.3200000000000002,-9.799999999999999,-0.02000000000000001,0.00876690513787288,-0.014739158690771595,-0.012195421066388807,349.8125,-1.875,90.125,0.7034912100000006,-0.03924561000000003,-0.7069091799999991,0.06256103999999994
283.0,-0.011283598122307805,-0.0630053888763566,0.05702679399453592,-0.3200000000000002,-9.799999999999999,-0.02000000000000001,-0.016889293502196725,0.0025764110441529797,-0.013747184714926648,349.8125,-1.875,90.125,0.7034877100716848,-0.03924561000000003,-0.7069091799999991,0.06256103999999994
284.0,-0.013144280450732071,-0.060744629922049265,0.05735086597989822,-0.3200000000000002,-9.799999999999999,-0.02000000000000001,0.06391112247967086,0.015238267556815944,0.009131370421693003,349.8125,-1.875,90.125,0.7034579606810036,-0.03924561000000003,-0.7069091799999991,0.06256103999999994
285.0,-0.012463268302339084,-0.062465038746093125,0.050887299922567124,-0.3200000000000002,-9.799999999999999,-0.02000000000000001,0.05035005192007479,0.007811146067194454,0.0343509944557128,349.8125,-1.875,90.125,0.703443085985663,-0.03924561000000003,-0.7069091799999991,0.06256103999999996
286.0,-0.011891683778961108,-0.06209108016709122,0.048840672293789765,-0.3200000000000002,-9.799999999999999,-0.02000000000000001,-0.012619639052369555,0.01567666484501162,-0.002613584657999681,349.8125,-1.875,90.125,0.7034356486379927,-0.03924561000000003,-0.7069091799999991,0.06256103999999994
287.0,-0.010841999495315582,-0.061793152685996916,0.04777968647398714,-0.3200000000000002,-9.799999999999999,-0.02000000000000001,-0.0138226024421935,0.019588745987435506,-0.0045210847570019445,349.8125,-1.875,90.125,0.7034319299641576,-0.03924561000000003,-0.7069091799999991,0.06256103999999994
288.0,-0.01197478646273483,-0.06161202576812529,0.04442864135643685,-0.3200000000000002,-9.799999999999999,-0.02000000000000001,-0.008683050976717474,0.014850696598428453,0.012153471027447916,349.8125,-1.875,90.125,0.7034301799999998,-0.03924561000000003,-0.7069091799999991,0.06256103999999996
289.0,-0.01450653118346908,-0.061532506652391086,0.04967147793628293,-0.3200000000000002,-9.799999999999997,-0.018123167155425227,0.11461820157053668,0.009901120384991354,0.021212976960449277,349.8125,-1.875,90.10544965786902,0.7035385268230694,-0.039230336021505385,-0.7068017870772239,0.06256008453567935
290.0,-0.015352432513722838,-0.06179607489284908,0.04897917136626813,-0.3307135874877811,-9.798514173998043,-0.020391006842619755,-0.052285886156853895,0.21804928942025717,0.05709827806602,349.89216764418376,-1.9277859237536656,90.10593841642229,0.7035583323753667,-0.03801273359726295,-0.7068965319843598,0.06205509599217984
291.0,-0.006847432137754719,-0.05901590345138732,0.03671167005037973,-0.3356793743890518,-9.79925708699902,-0.025034213098729243,-0.13689046168884877,0.07540181592600947,-0.028794223249868408,349.9813660801564,-1.9659090909090908,90.12958211143695,0.703408607558651,-0.037084585911534684,-0.7071494580083085,0.06140090694770281
292.0,-2.9471411272085062e-05,-0.06140899242788986,0.023297059424286195,-0.3381622678396871,-9.799628543499509,-0.03800097751710653,0.03435466545571264,0.016641271282881783,-0.016695869078361854,350.02596529814275,-1.9849706744868034,90.19180718475073,0.7029783615212613,-0.03665299989125122,-0.7076278583589923,0.06103591024804497
293.0,0.0043244627303365875,-0.061712316350797325,0.0151079627522213,-0.3394037145650048,-9.799814271749753,-0.04448435972629517,0.05497082283989482,0.010634014466916492,-0.005813204484289581,350.0482649071359,-1.9945014662756597,90.22291972140762,0.7027632385025664,-0.03643720688110949,-0.7078670585343343,0.06085341189821606
294.0,0.005177871638873084,-0.06285029307275936,0.007957207182562263,-0.3400244379276636,-9.799907135874877,-0.04778470185728245,0.022185435857875076,0.0006890746821385987,-0.001379231763161409,350.0594147116325,-1.999266862170088,90.23908693792765,0.7026522911549979,-0.03632978768786658,-0.7079900146508421,0.060762192581561625
295.0,0.006977010110736642,-0.0626614049016703,0.004868971288100442,-0.33999999999999986,-9.8,-0.04933467741935478,0.004076917868782637,0.006588427859153365,-0.01308927939011518,350.0625,-2.0,90.24684979838709,0.702597891476815,-0.03631388951108873,-0.7080468539163296,0.06073234888608875
296.0,0.00730021082271925,-0.06263988805689574,0.0031235588356435737,-0.33999999999999986,-9.799999999999999,-0.04999999999999994,0.02850683472862397,-0.008862700476581675,-0.016463479046230613,350.0625,-2.0,90.25,0.7025756800000005,-0.03631592000000001,-0.7080688499999989,0.060729980000000044
297.0,0.006907933016803986,-0.06338981739586577,0.003923320407191375,-0.33999999999999986,-9.799999999999999,-0.04999999999999995,0.01872916649882376,0.000311878701495637,-0.020957330080313953,350.0625,-2.0,90.25,0.7025756800000005,-0.036315920000000015,-0.708068849999999,0.060729980000000044
298.0,0.006262899510883383,-0.0633301444299428,0.0035001217420572257,-0.33999999999999986,-9.799999999999999,-0.04999999999999995,0.02009659317497019,0.009011398407819778,-0.015038218390032904,350.0625,-2.0,90.25,0.7025756800000005,-0.036315920000000015,-0.708068849999999,0.060729980000000044
299.0,0.006564825855148437,-0.06199307502533307,0.0030391615552905872,-0.33999999999999986,-9.799999999999999,-0.04999999999999994,0.022803271996820383,-0.014902883854496757,-0.011492181653471975,350.0625,-2.0,90.25,0.7025756800000005,-0.03631592000000001,-0.7080688499999989,0.060729980000000044
300.0,0.005693063209192241,-0.06431577025125411,0.004252929865833092,-0.33999999999999986,-9.799999999999999,-0.04975422427035325,0.08494800450445611,-0.017071257595451146,0.02275690259561227,350.0625,-2.0,90.25,0.7025826806758836,-0.036315920000000015,-0.7080618493241158,0.060731480215053806
301.0,0.0018396889848502748,-0.06284459089297798,0.01717289699547765,-0.33999999999999986,-9.799999999999999,-0.04366743471582181,-0.029816442518055417,0.04127192252192252,0.009224858922439568,350.0625,-2.0,90.21875,0.7028051103379414,-0.036310012903225816,-0.7078399119201226,0.0607622346236559
302.0,0.00041785544204899026,-0.06278501158339866,0.019226686396041245,-0.33999999999999986,-9.8,-0.041672427035330264,-0.02805146242646242,0.023485620562233467,-0.010372160321757097,350.0625,-2.0,90.20211693548387,0.7029109112980025,-0.036312966451612916,-0.7077338648310292,0.06077761182795696
303.0,-0.000352091904511259,-0.060636584293842354,0.023011869402998448,-0.33999999999999986,-9.799999999999999,-0.038876291719033645,-0.01048787122375832,0.006087309867551803,0.020368942773176642,350.0625,-2.0,90.19380040322581,0.7029747888259321,-0.03631444322580646,-0.7076698642385835,0.060785300430107485
304.0,0.0022139833732575673,-0.06264478286050865,0.021061164418019265,-0.33999999999999986,-9.799999999999999,-0.03532524263371038,0.07197991580552064,-0.004409913003663004,0.06171795134748763,350.0625,-2.0,90.18964213709677,0.7030828729613536,-0.03629352225806452,-0.7075828857483244,0.06078914473118274
305.0,-8.403592375366567e-05,-0.06224968277690052,0.02330706021129409,-0.33999999999999986,-9.799999999999999,-0.03234772116324537,-0.02386642675201143,-0.020775498862696445,0.03841564391589593,350.0625,-2.0,90.18756300403226,0.7031755815805236,-0.036273216612903225,-0.7075110672904452,0.060791019999999946
306.0,-0.00017069892473118293,-0.06157136814798103,0.024241888487856245,-0.33999999999999986,-9.799999999999999,-0.031045332355816246,-0.00432022614482292,-0.008021279795473344,0.014398991465523724,350.0625,-2.0,90.1875,0.7032150943487301,-0.03626324838709677,-0.7074819842198197,0.060791019999999946
307.0,0.0004265371941620638,-0.06157348524264494,0.024439442603009214,-0.33999999999999986,-9.8,-0.030361375855327492,-0.011642423166063906,0.0037006784405327585,-0.010009641384023537,350.0625,-2.0,90.1875,0.7032350199163009,-0.03625807967741934,-0.7074672888841038,0.060791019999999946
308.0,0.0003098565968948382,-0.06392189599841133,0.02122079191547845,-0.33999999999999986,-9.8,-0.030075604838709698,0.0007130247899140964,-0.00054181387753188,-0.014503610432736992,350.0625,-2.0,90.1875,0.7032446396673395,-0.03625549532258064,-0.7074602842489928,0.060791019999999946
309.0,0.0003896087725432159,-0.06266987700702581,0.01938185551296895,-0.33999999999999986,-9.799999999999999,-0.030000000000000027,-0.0050016941666265295,-0.009794061875227328,-0.01765606199789342,350.0625,-2.0,90.1875,0.703247070000001,-0.03625487999999999,-0.7074585000000007,0.060791019999999946
310.0,-8.669559137821378e-06,-0.0631289831685253,0.017944029493457185,-0.33999999999999986,-9.799999999999999,-0.030000000000000027,-0.01906412251755644,-0.01621837088798587,-0.004625177400931823,350.0625,-2.0,90.1875,0.7032470700000009,-0.03625487999999999,-0.7074585000000007,0.060791019999999946
311.0,0.0007378799949039281,-0.06376181039448468,0.016346799460222987,-0.33999999999999986,-9.799999999999999,-0.030000000000000027,-0.03274154666584427,-0.012839670013187181,0.00040031219791885784,350.0625,-2.0,90.1875,0.7032470700000009,-0.03625487999999999,-0.7074585000000007,0.060791019999999946
312.0,0.00011139577268609517,-0.063064568048439,0.01640701055217185,-0.33999999999999986,-9.8,-0.030000000000000027,-0.014549753561850334,-0.02380081835726997,-0.0032792923921956176,350.0625,-2.0,90.1875,0.7032470700000009,-0.03625487999999999,-0.7074585000000007,0.060791019999999946
313.0,0.000370755588497524,-0.06349951392693326,0.015214297351394132,-0.33999999999999986,-9.8,-0.030000000000000027,-0.02187494964712707,-0.02968640902108644,-0.0028564625338818885,350.0625,-2.0,90.1875,0.7032470700000009,-0.03625487999999999,-0.7074585000000007,0.060791019999999946
314.0,0.001076780298554492,-0.0636095996297609,0.014287314388120843,-0.33999999999999986,-9.8,-0.030000000000000027,-0.008285668744338101,-0.019658058115719405,0.005503121430540785,350.0625,-2.0,90.1875,0.7032470700000009,-0.03625487999999999,-0.7074585000000007,0.060791019999999946
315.0,0.0006264794793020598,-0.06271546979006655,0.013244153471976057,-0.33999999999999986,-9.8,-0.030000000000000027,0.001471309548426484,-0.0003842399759738484,0.009668434164401905,350.0625,-2.0,90.1875,0.7032470700000009,-0.03625487999999999,-0.7074585000000007,0.060791019999999946
316.0,0.0006078161310016148,-0.06327372213360115,0.01209598275828115,-0.33999999999999986,-9.8,-0.030000000000000027,-0.004499634130430502,-0.004018334096459097,0.005746767793138761,350.0625,-2.0,90.1875,0.7032470700000009,-0.03625487999999999,-0.7074585000000007,0.060791019999999946
317.0,0.0011985653235653234,-0.062163574776477985,0.011342850250108318,-0.33999999999999986,-9.8,-0.030000000000000027,-0.004313199121666863,0.0020545930324156127,-0.006577220942140297,350.0625,-2.0,90.1875,0.7032470700000009,-0.03625487999999999,-0.7074585000000007,0.060791019999999946
318.0,0.0013266842924100986,-0.06257385088030248,0.011915231497892793,-0.33999999999999986,-9.8,-0.030000000000000027,0.012630069862932764,0.0020976419413919413,-0.004778182726771436,350.0625,-2.0,90.1875,0.7032470700000009,-0.03625487999999999,-0.7074585000000007,0.060791019999999946
319.0,0.0023556104513765804,-0.06294847177911692,0.01303134846784041,-0.33999999999999986,-9.8,-0.030000000000000027,0.004698931500846822,0.0017208639814486589,-0.0005489735958485956,350.0625,-2.0,90.1875,0.7032470700000009,-0.03625487999999999,-0.7074585000000007,0.060791019999999946
320.0,0.001800896012589561,-0.0641810418524128,0.011634274551613265,-0.33999999999999986,-9.799999999999999,-0.030000000000000027,0.02125353924749086,0.01572842899707819,0.0073251359415673935,350.0625,-2.0,90.1875,0.703247070000001,-0.03625487999999999,-0.7074585000000007,0.060791019999999946
321.0,0.0004872966415305125,-0.06315751844481682,0.015557832064888524,-0.33999999999999986,-9.799999999999999,-0.030000000000000027,0.005268519003398035,0.007988283977447283,-0.0029208687537820594,350.0625,-2.0,90.1875,0.7032470700000009,-0.03625487999999999,-0.7074585000000007,0.060791019999999946
322.0,0.00021592654657170794,-0.06309337615789228,0.015105024903412007,-0.33999999999999986,-9.799999999999999,-0.030000000000000027,0.003705328050086115,0.0018677559000139649,0.004887221873108969,350.0625,-2.0,90.1875,0.7032470700000009,-0.03625487999999999,-0.7074585000000007,0.060791019999999946
323.0,-0.000384286412512219,-0.06384408602150536,0.01376277172648141,-0.33999999999999986,-9.799999999999999,-0.030000000000000027,-0.01814570677977936,-0.002503432946981334,0.015688094947167528,350.0625,-2.0,90.1875,0.703247070000001,-0.03625487999999999,-0.7074585000000007,0.060791019999999946
324.0,-0.001198760245131213,-0.0648856492969396,0.013958742198661559,-0.33999999999999986,-9.799999999999999,-0.030000000000000027,-0.003069515330100008,-0.004741662906985487,0.009268877124219865,350.0625,-2.0,90.1875,0.7032470700000009,-0.03625487999999999,-0.7074585000000007,0.060791019999999946
325.0,-0.0007021770828027332,-0.0633562513189204,0.013805909112133103,-0.33999999999999986,-9.8,-0.030000000000000027,-0.01825946440991804,-0.009608104023101421,0.009072681553942936,350.0625,-2.0,90.1875,0.7032470700000009,-0.03625487999999999,-0.7074585000000007,0.060791019999999946
326.0,-0.0009938896806742801,-0.06229824534712022,0.016260153416793644,-0.33999999999999986,-9.8,-0.030000000000000027,0.02637379002046341,-0.009924379712523572,0.009349398812685754,350.0625,-2.0,90.1875,0.7032470700000009,-0.03625487999999999,-0.7074585000000007,0.060791019999999946
327.0,-0.0027647845275316665,-0.06196145466280742,0.0200951151981329,-0.33999999999999986,-9.799999999999999,-0.030000000000000027,0.03417201078491401,-0.01516311544277205,0.011328307055414235,350.0625,-2.0,90.1875,0.703247070000001,-0.03625487999999999,-0.7074585000000007,0.060791019999999946
328.0,-0.0020823697056787586,-0.06336895200995096,0.026522104557484383,-0.33999999999999986,-9.799999999999999,-0.030000000000000027,0.02017834316221413,-0.011444865112919223,0.0007852622576868156,350.0625,-2.0,90.1875,0.7032470700000009,-0.03625487999999999,-0.7074585000000007,0.060791019999999946
329.0,-0.0013391091507636774,-0.06388409001104109,0.02655042956811949,-0.33999999999999986,-9.799999999999999,-0.030000000000000027,0.006318837972063779,-0.011758265003582381,-0.0027260915463308798,350.0625,-2.0,90.1875,0.7032470700000009,-0.03625487999999999,-0.7074585000000007,0.060791019999999946
330.0,-0.0013021888505759475,-0.06349891685375554,0.03910135742393806,-0.33999999999999986,-9.8,-0.024282878411910687,-0.030579724934563648,-0.026511436592081754,-0.05659622635429087,350.0625,-2.0,90.14630893300247,0.7034404442531024,-0.0362461579751861,-0.7072413765062034,0.060801680843672413
331.0,-0.0015834667124989704,-0.06299944858009371,0.05085155704510543,-0.33999999999999986,-9.8,-0.03849627791563273,-0.04964455347519864,-0.002673871827097633,-0.05474485192227127,350.0625,-2.0,90.21156947890819,0.7029570090967746,-0.03633387994044665,-0.7077046970818855,0.060810402630272896
332.0,-0.00022138365738781933,-0.06064037638855535,0.05909241365640948,-0.33999999999999986,-9.8,-0.044570719602977635,-0.0005050606117203427,0.01927517505040918,-0.029667423280846796,350.0625,-2.0,90.23179280397022,0.7027870201935488,-0.03638888835732011,-0.7078651133796524,0.060832210669975115
333.0,-0.0012000218535078053,-0.06040207405035708,0.061898564148304,-0.33999999999999986,-9.8,-0.04760794044665008,0.013565707907539332,0.06981128479567605,-0.019160634717346477,350.0625,-2.0,90.24190446650124,0.7027020257419359,-0.036416392565756836,-0.7079453215285358,0.06084311468982623
334.0,-0.0008279836708556791,-0.059732330104858705,0.06220923717281677,-0.33999999999999986,-9.8,-0.0491265508684863,-0.05464360041623309,0.025668374289602173,-0.03330565116465221,350.0625,-2.0,90.25341191066997,0.7026401421538464,-0.036430144669975205,-0.7080038425955335,0.060848566699751784
335.0,-0.0012812374929960777,-0.06038105338989834,0.06271007764348033,-0.33999999999999986,-9.8,-0.050064516129032205,-0.009618636436404388,0.012477487392940044,-0.01694749059473305,350.0625,-2.0,90.28625930521092,0.702528035389578,-0.03643729328535982,-0.7081159796327543,0.0608509595533498
336.0,-0.0016930481069398861,-0.06023407107980468,0.06308336668534378,-0.33999999999999986,-9.8,-0.04999999999999995,-0.014176063595613545,0.01111597494596974,-0.021179360441847435,350.0625,-2.0,90.3,0.7024901108287838,-0.03643799000000002,-0.708154176828784,0.06085204999999992
337.0,-0.0009427779556551665,-0.06062692107580245,0.06321962298887376,-0.33999999999999986,-9.8,-0.04999999999999995,0.02338153115744817,0.005931946890258545,-0.01405286960697991,350.0625,-2.0,90.30725806451612,0.7024689070272947,-0.03643799000000002,-0.7081755018014888,0.06085204999999992
338.0,-0.0007494549978290869,-0.062028927866271774,0.062410473198324386,-0.33999999999999986,-9.799999999999999,-0.04999999999999995,0.03373941585318081,-0.018949678107619054,-0.009819407959366335,350.0625,-2.0,90.3108870967742,0.7024583051265503,-0.03643799000000002,-0.7081861642878411,0.06085204999999993
339.0,-0.0014156704269542456,-0.06312364507457507,0.061102258931668395,-0.33999999999999986,-9.799999999999999,-0.04999999999999995,0.034921817107731845,-0.013716464363983223,-0.0036612548481695204,350.0625,-2.0,90.3125,0.7024536099999994,-0.03643799000000002,-0.7081909199999998,0.06085204999999993
340.0,-0.0009977313052885373,-0.061782394807758996,0.06058517102910961,-0.33999999999999986,-9.799999999999999,-0.04999999999999995,0.0025490657343870144,-0.0003751172626367729,-0.00226390130745945,350.0625,-2.0,90.3125,0.7024536099999994,-0.03643799000000002,-0.7081909199999998,0.06085204999999992
341.0,0.0001701890179712758,-0.06358834780810585,0.052456317204301064,-0.33999999999999986,-9.8,-0.04999999999999995,0.01946571993194977,0.01205679820851192,-0.026019387618429955,350.0625,-2.0,90.3125,0.7024536099999994,-0.03643799000000002,-0.7081909199999998,0.06085204999999992
342.0,0.0007327759605985411,-0.06331131100082711,0.059237231182795676,-0.33999999999999986,-9.8,-0.04999999999999995,-0.01140499285660576,0.020613832571997892,-0.0033228238495375574,350.0625,-2.0,90.3125,0.7024536099999994,-0.03643799000000002,-0.7081909199999998,0.06085204999999992
343.0,0.0012086293324261583,-0.06526474325622347,0.056428362382934416,-0.33999999999999986,-9.8,-0.04999999999999995,0.026893560393820536,0.040069454519530937,0.0077954748409109105,350.0625,-2.0,90.3125,0.7024536099999994,-0.03643799000000002,-0.7081909199999998,0.06085204999999992
344.0,0.0027015928920195308,-0.06439315016409189,0.05361124229568556,-0.33999999999999986,-9.8,-0.04999999999999995,0.041726867045545506,0.01670254092291683,0.01777776805010806,350.0625,-2.0,90.3125,0.7024536099999994,-0.03643799000000002,-0.7081909199999998,0.06085204999999992
345.0,0.0030282158008484747,-0.0634596023773313,0.05084780477067156,-0.33999999999999986,-9.8,-0.04999999999999995,-0.014418824541743376,0.02105288336468422,0.010889504372448571,350.0625,-2.0,90.3125,0.7024536099999994,-0.03643799000000002,-0.7081909199999998,0.06085204999999992
346.0,0.003952014080265901,-0.0610719572404991,0.0511611901871397,-0.33999999999999986,-9.8,-0.04999999999999995,0.01732188080880849,-0.00983055347304014,0.014428219435820568,350.0625,-2.0,90.3125,0.7024536099999994,-0.03643799000000002,-0.7081909199999998,0.06085204999999992
347.0,0.004331677803061779,-0.06245430139290699,0.0504054638851725,-0.33999999999999986,-9.8,-0.04999999999999995,-0.03218367365089529,0.001796402810970969,-0.00691004422794225,350.0625,-2.0,90.3125,0.7024536099999994,-0.03643799000000002,-0.7081909199999998,0.06085204999999992
348.0,0.002616251132380165,-0.06254196699357986,0.05117255504352277,-0.33999999999999986,-9.8,-0.04999999999999995,0.032495372011501045,-0.005471365552010714,-0.007221631415179802,350.0625,-2.0,90.3125,0.7024536099999994,-0.03643799000000002,-0.7081909199999998,0.06085204999999992
349.0,0.003340383630706212,-0.06298810508487926,0.052746327149552935,-0.33999999999999986,-9.8,-0.04999999999999995,0.047606246799795186,0.003925297372878017,-0.013621671786994367,350.0625,-2.0,90.3125,0.7024536099999994,-0.03643799000000002,-0.7081909199999998,0.06085204999999992
350.0,0.003010811768876285,-0.06268322895742248,0.051561827956989235,-0.33999999999999986,-9.8,-0.04999999999999995,0.018263322698806574,-0.000488708200401749,-0.003800674012367561,350.0625,-2.0,90.3125,0.7024536099999994,-0.03643799000000002,-0.7081909199999998,0.06085204999999992
351.0,0.004478454341357569,-0.06370557668138312,0.0520116545640739,-0.33999999999999986,-9.799999999999999,-0.04999999999999994,0.03767312436667275,-0.01721562207953337,-0.004111387604331153,350.0625,-2.0,90.3125,0.7024536099999994,-0.03643799000000002,-0.7081909199999998,0.06085204999999993
352.0,0.0031972404835308066,-0.062823602472796,0.05140028945069268,-0.33999999999999986,-9.799999999999999,-0.04999999999999995,0.02856936969840196,-0.002876490389091194,0.0038353909195643064,350.0625,-2.0,90.3125,0.7024637883821332,-0.03643799000000002,-0.708180741617866,0.06085204999999993
353.0,0.004330870301799022,-0.0608676565153542,0.05125061298757318,-0.33999999999999986,-9.8,-0.04999999999999995,0.036667219068363704,0.01590196532334442,0.001505964890663447,350.0625,-2.0,90.3125,0.7024902037071954,-0.03643799000000002,-0.7081543262928044,0.06085204999999992
354.0,0.003738415821662439,-0.062344590546463574,0.050065710679654485,-0.33999999999999986,-9.8,-0.04999999999999995,0.026030102109706688,0.02105907157936294,0.010268841460308683,350.0625,-2.0,90.3125,0.7025034113697266,-0.03643799000000002,-0.7081411186302735,0.06085204999999992
355.0,0.0023815163908816354,-0.06208674641348936,0.04732798315108408,-0.33999999999999986,-9.8,-0.04999999999999995,-0.0016652731012772645,-0.000820852173609719,0.0050384145857611,350.0625,-2.0,90.3125,0.7025100152009922,-0.03643799000000002,-0.7081345147990081,0.06085204999999992
356.0,0.002503074910983339,-0.06065725394965768,0.04557503751884605,-0.33999999999999986,-9.799999999999999,-0.05555229716520036,-0.20605013410684586,0.023111079289539226,-0.031632796617187875,350.0625,-2.0,90.34231427174976,0.7022990077520115,-0.036458513479960916,-0.7083417040661709,0.06084536831867051
357.0,0.009203150358717478,-0.06578023987805462,0.04583962794056445,-0.3390322580645161,-9.798870967741934,-0.07390518084066476,0.04640886594905845,-0.03449750005746364,0.01022268357726214,350.04637096774195,-1.9929435483870968,90.43022971652003,0.7016667058822095,-0.03652503690127079,-0.7089641024462363,0.060872827949657905
358.0,0.009599983243098317,-0.06383013888695158,0.057222740026784305,-0.339516129032258,-9.799435483870965,-0.07227517106549367,0.006568213706664602,-0.03752531012626704,-0.007390453993126118,350.0221774193548,-1.9964717741935483,90.40362292277614,0.7017756585862663,-0.036481513450635404,-0.7088620105779562,0.0609884467167645
359.0,0.009592460801115114,-0.06431516397260256,0.06291705357714023,-0.3397580645161289,-9.799717741935481,-0.07146016617790811,0.010952536094342187,-0.03853352039851498,-0.01639019332056164,350.0100806451612,-1.998235887096774,90.3903195259042,0.7018301349382947,-0.036459751725317714,-0.7088109646438163,0.06104625610031779
360.0,0.010022076239306623,-0.06458556260783029,0.0651450445718621,-0.3398790322580644,-9.79985887096774,-0.07105266373411534,-0.00071489741818792,-0.02095819152778559,-0.006146965579891675,350.0040322580645,-1.999117943548387,90.38366782746823,0.701857373114309,-0.03644887086265887,-0.7087854416767463,0.061075160792094435
361.0,0.009096082107923106,-0.06373183687200296,0.0652906589879387,-0.33993951612903217,-9.79992943548387,-0.07067540322580644,0.023396686940202978,-0.007723014479585706,-0.002996879285922979,350.0010080645161,-1.9995589717741935,90.37941028225805,0.7018776893699601,-0.03644278907258067,-0.7087661023437488,0.0610898219405243
362.0,0.008599620355036825,-0.06294576936464273,0.06615156116552359,-0.33999999999999986,-9.799999999999999,-0.06999999999999998,0.019239257906807257,-0.013669612231239579,0.0006150592573317655,350.0,-2.0,90.375,0.7019043000000005,-0.03643799000000002,-0.7087402299999989,0.061096190000000106
363.0,0.008666981763755962,-0.06350851299238396,0.06556613279193924,-0.33999999999999986,-9.799999999999999,-0.06999999999999998,0.022523086232763653,-0.01564721121172734,0.0026838305064111516,350.0,-2.0,90.375,0.7019043000000005,-0.03643799000000002,-0.7087402299999989,0.061096190000000106
364.0,0.009262771278900314,-0.06474184954830116,0.06741209865403414,-0.33999999999999986,-9.799999999999999,-0.06999999999999998,-0.011668047454337777,-0.013267153992960445,-0.0012945611735934316,350.0,-2.0,90.375,0.7019043000000005,-0.03643799000000002,-0.708740229999999,0.061096190000000106
365.0,0.0085171629445823,-0.0646762538536732,0.06455137604331151,-0.33999999999999986,-9.8,-0.06999999999999998,-0.022995737461463266,0.0023634295811715165,0.008221717798330702,350.0,-2.0,90.375,0.7019043000000005,-0.03643799000000002,-0.708740229999999,0.061096190000000106
366.0,0.00944724227385518,-0.06417029475900442,0.06470120873749904,-0.33999999999999986,-9.799999999999999,-0.06937438905180834,-0.0081306042747575,-0.0101682927287766,0.011962013121287314,350.0,-2.0,90.375,0.7019124139393944,-0.03643417127077227,-0.708729252170087,0.061096190000000106
367.0,0.008168817113341048,-0.06371097905736302,0.06449562376142759,-0.33999999999999986,-9.8,-0.06452590420332355,0.011161596137776548,-0.01721984387014304,0.0032879075160877967,350.0,-2.0,90.375,0.7020028601955041,-0.0364045761192571,-0.7086087333431077,0.061096190000000106
368.0,0.006684904834586158,-0.06429097339964925,0.06337560344398922,-0.33999999999999986,-9.8,-0.06210166177908115,-0.02404079002044175,0.0057976463031418814,-0.0009382422717327764,350.0,-2.0,90.375,0.702048083323559,-0.03638977854349952,-0.7085484739296181,0.061096190000000106
369.0,0.0069373479451523175,-0.06400475478389109,0.06146091083734163,-0.33999999999999986,-9.799999999999999,-0.06088954056695996,-0.032328217438128984,-0.009619887136796606,0.0010916605723447553,350.0,-2.0,90.375,0.7020706948875866,-0.03638237975562073,-0.7085183442228732,0.061096190000000106
370.0,0.007132445684734969,-0.0646698711884716,0.060942614227603796,-0.33999999999999986,-9.799999999999999,-0.06028347996089936,0.010084340412449152,-0.0066011966701352755,-0.0027575195897581433,350.0,-2.0,90.375,0.7020820006696002,-0.036378680361681334,-0.7085032793695007,0.061096190000000106
371.0,0.007395882603348785,-0.06427420340239018,0.06197479148929459,-0.33999999999999986,-9.8,-0.06000000000000005,-0.020054004863935923,-0.0003478463090846027,-0.010468092245293728,350.0,-2.0,90.375,0.7020874000000009,-0.036376950000000005,-0.7084960899999994,0.061096190000000106
372.0,0.007295756077949108,-0.06345604030681423,0.06253005963642669,-0.33999999999999986,-9.8,-0.06000000000000005,-0.023115582036546525,0.0027364566581528083,-0.007168879629410652,350.0,-2.0,90.375,0.702087400000001,-0.036376950000000005,-0.7084960899999992,0.061096190000000106
373.0,0.0065338445590136535,-0.06266651294421843,0.06169643561000219,-0.33999999999999986,-9.799999999999999,-0.06000000000000005,-0.013088025316904738,0.00679230274256614,-0.01523589005297512,350.0,-2.0,90.375,0.702087400000001,-0.036376950000000005,-0.7084960899999992,0.061096190000000106
374.0,0.0068592976460757436,-0.061433451975530524,0.06109259708163843,-0.33999999999999986,-9.799999999999999,-0.06000000000000005,-0.010927565933134676,0.0048013322119477815,-0.0056476371085989975,350.0,-2.0,90.375,0.7021134896774198,-0.036376950000000005,-0.7084960899999992,0.061096190000000106
375.0,0.007424104468199163,-0.06192136308453945,0.06279680257307728,-0.33999999999999986,-9.799999999999999,-0.06000000000000005,-0.017355794055277016,-0.010656919579509979,-0.0017212479897833694,350.0,-2.0,90.375,0.702131949354839,-0.036376950000000005,-0.7084960899999992,0.061096190000000106
376.0,0.007419049364613883,-0.0613674547898338,0.0626001955034213,-0.33999999999999986,-9.799999999999999,-0.06000000000000005,0.007742813721896384,-0.023005063233137828,-0.009870631720430107,350.0,-2.0,90.375,0.7021411791935486,-0.036376950000000005,-0.7084960899999992,0.061096190000000106
377.0,0.007303274682306943,-0.06201185239491689,0.06520130742913,-0.33999999999999986,-9.799999999999999,-0.06000000000000005,-0.004303366324535679,0.004547745601173022,-0.014448924731182797,350.0,-2.0,90.36794354838709,0.7021457941129032,-0.036376950000000005,-0.7084891995161287,0.061096190000000106
378.0,0.006999633431085045,-0.06375961516082483,0.06438834630870921,-0.33999999999999986,-9.799999999999999,-0.06000000000000005,-0.024092723752501977,0.008234981584275939,-0.008393991760927245,350.0,-2.0,90.37147177419354,0.7021481015725808,-0.036376950000000005,-0.708492644758064,0.061096190000000106
379.0,0.0060042366907286275,-0.06290702532234788,0.0648863645315258,-0.33999999999999986,-9.8,-0.06000000000000005,-0.07491614708096563,0.019470604160624322,-0.012200446562845756,350.0,-2.0,90.37323588709677,0.70214844,-0.036376950000000005,-0.7084943673790316,0.061096190000000106
380.0,0.005845242123467931,-0.06422843934739095,0.06683009575549895,-0.33999999999999986,-9.799999999999999,-0.06273704789833823,-0.10113892184204684,0.0399591000397452,-0.008086759510650639,350.0,-2.0,90.3814493218475,0.7020357964809384,-0.036390315552297166,-0.7085902131665441,0.06109189463343116
381.0,0.006058458342732535,-0.06344943284761831,0.07433376357065871,-0.33999999999999986,-9.799999999999999,-0.07169110459433042,-0.08381256190605989,0.064201859967989,0.018579326839155468,350.0,-2.0,90.41048272543989,0.7017770988856303,-0.036415137292277626,-0.7088266715832725,0.06106254296187684
382.0,0.005698760021340667,-0.06258305135724489,0.07802137647298935,-0.33999999999999986,-9.799999999999999,-0.07616813294232652,-0.03395802226447388,0.032620963266124556,0.0008843754811496754,350.0,-2.0,90.42521994134898,0.7016477500879763,-0.036427548162267856,-0.7089451161192577,0.06104786712609968
383.0,0.0054789010272881244,-0.06339411842637648,0.07974615348808894,-0.33999999999999986,-9.799999999999999,-0.07840664711632457,-0.036330067781680686,0.03126998449579095,-0.004886153273250047,350.0,-2.0,90.43236803519062,0.7015830756891493,-0.036433753597262974,-0.7090041230596293,0.0610405292082111
384.0,0.005754338851113046,-0.06364991281120312,0.07852320081352337,-0.33999999999999986,-9.799999999999999,-0.07952590420332359,-0.0514311629230984,0.0027472751263073834,-0.0012023818475431374,350.0,-2.0,90.43594208211144,0.7015507384897358,-0.03643685631476053,-0.7090336265298152,0.061036860249266814
385.0,0.005445595623014979,-0.0627853669627863,0.08283198163843324,-0.33999999999999986,-9.799999999999999,-0.08000000000000004,-0.04438004871472613,-0.005102413267735849,-0.007596547717515459,350.0,-2.0,90.4375,0.7015380899999998,-0.03643799000000002,-0.709045410000001,0.06103515999999994
386.0,0.006687532002048134,-0.06369654091428284,0.08006671643768416,-0.33999999999999986,-9.799999999999999,-0.08000000000000004,-0.03680672486116034,-0.010758590647703552,-0.010361267316912478,350.0,-2.0,90.4375,0.7015380899999998,-0.03643799000000002,-0.709045410000001,0.06103515999999994
387.0,0.00794158395368073,-0.0642022426498233,0.07755133844649972,-0.33999999999999986,-9.799999999999999,-0.08000000000000004,-0.014673154466501241,-0.0024336298781863306,-0.014337896646364388,350.0,-2.0,90.4375,0.7015380899999998,-0.03643799000000002,-0.709045410000001,0.06103515999999994
388.0,0.006916493228993232,-0.06277002231639327,0.07532014625159784,-0.33999999999999986,-9.799999999999999,-0.08000000000000004,0.013770955467024016,0.0018939296031029898,-0.0003445115592293022,350.0,-2.0,90.4375,0.7015380899999998,-0.03643799000000002,-0.709045410000001,0.06103515999999994
389.0,0.006966183122433124,-0.06189645312125149,0.0757434950801886,-0.33999999999999986,-9.8,-0.08000000000000004,-0.008910487054388265,-0.002249547467541419,-0.012492059631676565,350.0,-2.0,90.4375,0.7015380899999998,-0.03643799000000002,-0.709045410000001,0.06103515999999994
390.0,0.006712396147157825,-0.061916908854800015,0.07668742219103315,-0.33999999999999986,-9.799999999999999,-0.08000000000000004,0.015449093783229553,0.004344587499378063,-0.004099661104957205,350.0,-2.0,90.4375,0.7015380899999998,-0.03643799000000002,-0.709045410000001,0.06103515999999994
391.0,0.0057700637777671985,-0.06318787017294478,0.07822644663954245,-0.33999999999999986,-9.799999999999999,-0.08000000000000004,0.01516119626374802,0.0008972918698484421,-0.012288382323288438,350.0,-2.0,90.4375,0.7015380899999998,-0.03643799000000002,-0.709045410000001,0.06103515999999994
392.0,0.0066902428069977446,-0.06410013856041778,0.07765788833217815,-0.33999999999999986,-9.799999999999999,-0.08000000000000004,0.014008948007804532,0.007916077696710822,0.010279506108827245,350.0,-2.0,90.4375,0.7015380899999998,-0.03643799000000002,-0.709045410000001,0.06103515999999994
393.0,0.006456651450512792,-0.06406026338717717,0.07737244367733051,-0.33999999999999986,-9.799999999999999,-0.08000000000000004,0.014673328446950256,0.005801065892995359,0.004442981188286918,350.0,-2.0,90.4375,0.7015380899999998,-0.03643799000000002,-0.709045410000001,0.06103515999999994
394.0,0.005736025910375937,-0.0630444686111513,0.07715957644105209,-0.33999999999999986,-9.799999999999999,-0.08000000000000004,-0.0030534161262826404,0.02236737882463388,0.007568294328043967,350.0,-2.0,90.4375,0.7015380899999998,-0.03643799000000002,-0.709045410000001,0.06103515999999994
395.0,0.00587765751273816,-0.06329329451910094,0.07844964018955952,-0.33999999999999986,-9.799999999999999,-0.08000000000000004,0.016304642098492906,-0.005366862360309942,0.014988685149975471,350.0,-2.0,90.4375,0.7015380899999998,-0.03643799000000002,-0.709045410000001,0.06103515999999994
396.0,0.006085230741480744,-0.06213920309081598,0.08269752480941994,-0.33999999999999986,-9.8,-0.08000000000000004,0.011967457525673252,0.00895583680991947,0.01437244431196044,350.0,-2.0,90.4375,0.7015380899999998,-0.03643799000000002,-0.709045410000001,0.06103515999999994
397.0,0.00612538357699648,-0.06224017828050086,0.09359605895896214,-0.33999999999999986,-9.799999999999999,-0.08000000000000004,0.0013801386785257759,0.1254537744961132,0.010592258324113162,350.0097751710655,-2.0,90.4375,0.7015380899999998,-0.03640028262952104,-0.7090535247996098,0.06100079378299116
398.0,0.004788799014605468,-0.06431213365487558,0.09502556538443632,-0.33999999999999986,-9.799999999999999,-0.07579156327543424,0.0441028729335181,0.08450202071673846,0.016725794926399765,350.1488081810662,-2.0,90.42410049627792,0.7016747574739459,-0.0356412765827506,-0.7090295969084892,0.06025465707015563
399.0,0.0036834813931588125,-0.06204316360163132,0.09344950725797499,-0.33999999999999986,-9.799999999999999,-0.06757320099255584,0.047090208178917854,-0.11813205415775979,0.029377165453274325,350.12480731633957,-2.0,90.39854218362282,0.7018628688176177,-0.03575808417847204,-0.708828309099406,0.06039781224475526
400.0,0.0038089705992931802,-0.06350620112414467,0.0883973677532145,-0.33999999999999986,-9.8,-0.06346401985111666,0.05721224340175953,-0.07989394468099104,0.017810505606624557,350.09466172268594,-2.0,90.38576302729527,0.7019655792400747,-0.03589593898501765,-0.7087163434206708,0.06055897386431314
401.0,0.003915115798180314,-0.062361070381231655,0.08596714978569817,-0.33999999999999986,-9.799999999999999,-0.06140942928039707,0.060249419599217986,-0.029556557353936384,0.00870048969847357,350.07958892585907,-2.0,90.3793734491315,0.7020353494587477,-0.03594644836347659,-0.7086603605813032,0.06063955467409208
402.0,0.0034702656214752985,-0.06267369257086998,0.08477976257613354,-0.33999999999999986,-9.799999999999999,-0.060382133995037265,0.057983947336265884,-0.021590351013234074,-0.005348557692307692,350.0717470533499,-2.0,90.37617866004962,0.702070234568084,-0.035972881408033515,-0.7086321155741316,0.06068091902326307
403.0,0.003901385912474622,-0.063458434374765,0.08221370262801717,-0.33999999999999986,-9.799999999999999,-0.06000000000000005,0.0047984252810361686,-0.009988723893713813,-0.027844874379652607,350.06363407258067,-2.0,90.375,0.7020834062641914,-0.03600922769160982,-0.7086188676108873,0.06072438099798391
404.0,0.0017514474772539288,-0.06392137566734339,0.08107928227686292,-0.33999999999999986,-9.799999999999999,-0.06000000000000005,0.0030936889051808385,0.017105256974208585,0.003500086942627262,350.0625,-2.0,90.375,0.7020862490620358,-0.0360118911265509,-0.7086181600000001,0.060729980000000044
