time,linaccel_x,linaccel_y,linaccel_z,gravity_x,gravity_y,gravity_z,gyro_x,gyro_y,gyro_z,euler_x,euler_y,euler_z,quaternion_w,quaternion_y,quaternion_x,quaternion_z
0.0,0.00046153846153846283,-0.26061538461538464,-0.021076923076923083,-0.08000000000000004,-9.799999999999999,-0.27738461538461556,0.11057692307692307,-0.2846153846153846,0.06057692307692308,318.29615384615386,-0.5,91.61826923076923,0.651259200923077,-0.24911358184615384,-0.67255296,0.24794170615384614
1.0,0.000153846153846155,-0.2604167684167684,-0.018454212454212457,-0.08000000000000004,-9.799999999999999,-0.26579487179487177,0.07455738705738704,-0.011538461538461539,0.0817002442002442,318.1668396418396,-0.5,91.53942307692307,0.6514345305722423,-0.2496037733137974,-0.6719007657142857,0.24873648882376864
2.0,0.00568805388160227,-0.2611924399205504,-0.015190054185445893,-0.08000000000000004,-9.8,-0.26718397731300936,-0.04984406914130417,-0.10459943282523927,0.031558169173376546,318.17922159765476,-0.5,91.54915366891173,0.6514838053604534,-0.24947297897780246,-0.6719715500987498,0.24859443944981763
3.0,0.005278763769086351,-0.26106440847086,-0.01572361258812872,-0.08000000000000004,-9.799999999999997,-0.26783929523284333,0.011660069321359639,0.04272132288261321,-0.027600896713799936,318.20744626938176,-0.5,91.5562717121588,0.6515187477713862,-0.24935568081397969,-0.6720130641201577,0.24848480029351266
4.0,0.006568577450991603,-0.26239931695082575,-0.013179116178075599,-0.08000000000000004,-9.8,-0.2721495821787183,-0.14950396031301336,0.006334690283701731,-0.0425411404989969,318.2294094851847,-0.5,91.5799676231388,0.6514045197357706,-0.24929320780809566,-0.6722208244923449,0.2483032770698256
5.0,0.007272682225856003,-0.26085674644467566,-0.002004030193416252,-0.08000000000000004,-9.8,-0.29060188626265615,-0.15249801793766413,-0.04531180318121005,-0.0794796673438713,318.2389603257189,-0.5,91.69312306955388,0.6507707632452964,-0.24946528357250233,-0.6728870231098556,0.24799385576135974
6.0,0.00521802685694465,-0.2620049386386535,0.010762515897791652,-0.08000000000000004,-9.8,-0.304520506086583,-0.14583952727813287,0.09083265199940538,-0.05891783525758552,318.28692675040884,-0.5,91.77814322052095,0.6503576791994943,-0.2493946544082718,-0.6734823282845248,0.24753131828394698
7.0,0.008315427202003683,-0.2637109011926909,0.038587750554451905,-0.0767937438905181,-9.79960899315738,-0.3200552424798001,-0.2103959169515881,0.04138653143595911,-0.04695667091608818,318.49330659801524,-0.47409579667644186,91.86983265462715,0.6502437574453468,-0.24868502615503935,-0.6743449031321089,0.2461605842740171
8.0,0.00682028400550773,-0.2624852509035651,0.05745823779642717,-0.0732355816226784,-9.79690127077224,-0.3391661261042114,-0.2796411228383132,0.04010250790947981,-0.046391801919897654,318.5680098658279,-0.42858015640273706,91.97725503699098,0.6497383575552386,-0.2489071338852513,-0.6749652657775241,0.24555510752359336
9.0,-0.0025217576388231974,-0.26521599974773746,0.06866127455617567,-0.07081133919843592,-9.79328934506354,-0.36351547472645307,-0.22569805757891084,0.23168879875760728,-0.09536852000756788,318.62926702968815,-0.39977394916911047,92.10744312269416,0.6490831473912904,-0.24908345703351145,-0.675767173778419,0.24489618982554479
10.0,-0.010014781004635324,-0.2656829218301642,0.08452054362564246,-0.06129276637341148,-9.79148338220919,-0.37574056774824205,-0.07317681234824835,0.059539118421467536,-0.20264979070097436,318.8010246438763,-0.3455522971652004,92.18597312222117,0.6490163578033457,-0.24884052212497645,-0.6763437249771385,0.2437301738773926
11.0,-0.01829303046069436,-0.2647899520701289,0.09476287326963706,-0.05408030618358398,-9.790580400782016,-0.37905914963894927,-0.05629444155393687,0.004828091989089647,-0.18870132615173588,318.84475985055417,-0.293743890518084,92.22440890762462,0.648909130894389,-0.2491844713720615,-0.6764575642315452,0.24335718451934146
12.0,-0.02219332326102618,-0.26794716040982947,0.08795809653405906,-0.0466539962378932,-9.791729218362281,-0.3706718787521012,0.06257341611302328,0.21553110366805409,-0.24516557397142402,318.87686099528236,-0.25475341191066997,92.16861236042183,0.6492947446636017,-0.24941094106365314,-0.676015889101937,0.24332898143693973
13.0,-0.01904717046307838,-0.2640353441578076,0.07261536099104385,-0.042843127151204675,-9.795955334987593,-0.3451734889792253,-0.028323106971650164,-0.07009083097447269,-0.1899270970215543,318.9280150810545,-0.25017156482630276,92.02022357892443,0.650282215661054,-0.24893990271832667,-0.6752419660207423,0.24333249531316412
14.0,-0.02168084329605532,-0.26358521240148447,0.05296846678584451,-0.04095785389818299,-9.798138957816377,-0.3242903735218705,0.08343169248191686,-0.062310410446913767,-0.0644538458898094,318.96418080161595,-0.2480696533808933,91.90276866950254,0.6510567203481683,-0.24856686814091727,-0.6746061405028105,0.24339832746756992
15.0,-0.01917291492759756,-0.2617787653149255,0.03629926155472461,-0.040274793884575374,-9.799230769230768,-0.30560536821254797,0.015460665909417207,-0.0897637061675173,0.02848321250376401,318.9199136714973,-0.24826302729528535,91.7860617541061,0.651605852563117,-0.24865849763896716,-0.6738279511292617,0.2439668313829944
16.0,-0.019331555988814062,-0.2604173214778052,0.026738361101264332,-0.040009925558312676,-9.799776674937963,-0.2963458682894163,0.0022688221276930933,-0.05804011456733231,0.01954955886407499,318.897521872169,-0.2491315136476427,91.72770829640788,0.651873814770112,-0.2487069109838958,-0.6734385667118736,0.24425930318889563
17.0,-0.020392825140809017,-0.26140344982078845,0.01956893241167435,-0.04000000000000002,-9.8,-0.2920215693804399,0.020109286994367637,0.11301623303891448,-0.0016241039426523295,318.8974194348438,-0.25,91.7008268529186,0.6520240054830706,-0.24865280195100506,-0.673288429561892,0.2443214833165321
18.0,-0.017450636840757816,-0.2590862615207372,0.019497727854582703,-0.04000000000000002,-9.8,-0.28551411290322554,0.10684483806963646,-0.1909797227022529,-0.0037242383512544807,318.8378306211597,-0.25,91.65984122983872,0.6521706896616583,-0.2488206408615754,-0.672956785198253,0.2446792708761359
19.0,-0.020136968766001035,-0.2606371607782897,0.010745967741935487,-0.04000000000000002,-9.8,-0.2823387096774192,0.023835525473630312,-0.03800843253968253,-0.015544994879672298,318.78850446428567,-0.25,91.63961693548387,0.6521996522615845,-0.24906739232270866,-0.6727543758275727,0.24502544492959527
20.0,-0.01988031233998977,-0.25886440732206856,0.009210669482846903,-0.04000000000000002,-9.8,-0.2810080645161289,0.044959877432155654,-0.027196740591397844,-0.027661770353302608,318.76718810003837,-0.25,91.6313004032258,0.6522133382378067,-0.2491758929406681,-0.6726718660320654,0.24517611820468488
21.0,-0.023251728110599088,-0.2617030689964156,-0.007327588965693803,-0.04000000000000002,-9.8,-0.2796169354838708,0.12902275745647723,0.06798285090245776,0.008266529057859705,318.80446098550306,-0.25,91.62512600806451,0.6523558225060002,-0.24895298437355984,-0.6726608089837747,0.2449886506346005
22.0,-0.02192324308755761,-0.258469982078853,-0.023817524321556573,-0.04000000000000002,-9.8,-0.2708568548387095,0.14548731118791602,0.010191652265745008,0.004637296786994369,318.87162628408214,-0.25,91.57919606854838,0.6527780634278991,-0.2485185892432316,-0.6724889725614436,0.24472810136064688
23.0,-0.030923599979963936,-0.2567421497584541,-0.044555588948997096,-0.04007480130902291,-9.799999999999997,-0.25851829125759695,0.23200780502126048,0.2556395783243171,0.040344321166989466,319.08796171650636,-0.24625993454885461,91.50762987961664,0.6536475692369597,-0.24709217783752416,-0.6725602066699223,0.2436299886333316
24.0,-0.028343016029599554,-0.2591055744245114,-0.06377082853614119,-0.04288766545951866,-9.799999999999997,-0.23105019040491787,0.3151989793537571,0.2343729966271378,-0.025648324166335217,319.3350134544886,-0.26064802216128335,91.3409899518449,0.6551126355689121,-0.24511316570327277,-0.6722336717500288,0.24258186967558548
25.0,-0.021713974613259093,-0.25959815011548143,-0.08008579342069458,-0.047606567443288436,-9.799999999999997,-0.21361849915046105,0.2273665816364356,0.02457903412242783,-0.024293717030206607,319.26253561506326,-0.2784342662563759,91.23455973278331,0.6555577480588904,-0.24504964487859834,-0.6715817466838732,0.24323581208622808
26.0,-0.030027854242113423,-0.2590027040899988,-0.07943805800066987,-0.04896457404422483,-9.799999999999997,-0.2057028987687788,0.29886789263273394,0.05058021766605262,-0.02896893512800653,319.3490254940235,-0.26421713312818795,91.1742985155852,0.6560266362068645,-0.24446989519635573,-0.6714754175304443,0.24284389273918255
27.0,-0.01685050379239846,-0.25650758305247956,-0.07492637618359815,-0.04934437210860142,-9.799999999999997,-0.19472970002721318,0.2296312311165072,0.22411211605018383,0.016371072407946243,319.3947821486013,-0.2767439101826073,91.11961117231164,0.6564852770724307,-0.24398753701240472,-0.6712617515119789,0.24268762355048035
28.0,-0.013581017122090682,-0.2602101007616514,-0.07563225605048834,-0.059997316744087766,-9.799999999999997,-0.2018423033690402,0.23535702190786473,0.05853035570030124,-0.05116011171986554,319.4165966291479,-0.34266771776715044,91.1719331733886,0.6562530459198695,-0.24321255820125964,-0.6718506452508684,0.2424708641854575
29.0,-0.007627671718863289,-0.2609411922521143,-0.07108599569568957,-0.06539345856462933,-9.799999999999997,-0.20598614927720202,0.17208572707275177,-0.059164101705152045,-0.054438695214479686,319.386036821453,-0.36583514278664053,91.17970154095525,0.656052265998481,-0.24311505531194866,-0.6720099217794442,0.24265141138614427
30.0,-0.0011861554031522476,-0.25999416932704966,-0.06842296525645927,-0.06798801479025882,-9.799999999999997,-0.2081736235071616,0.046114018308421365,0.047763464128350606,0.019310642022773862,319.28744523751067,-0.40396956946746565,91.18430792021282,0.6558114706933627,-0.2434259405862732,-0.6719563755331799,0.24311777287110264
31.0,0.0014709343951980697,-0.2600197661151378,-0.07296904311210059,-0.06931658804029069,-9.799999999999997,-0.20924306175358098,-0.0014830614103054536,-0.042414260879373084,0.015703708108161123,319.2700614544408,-0.42375897828211995,91.18683326958222,0.6557526606314596,-0.24342113333497112,-0.6719930891501589,0.24319650661700276
32.0,0.00531938491615911,-0.2595412061057222,-0.07899387171967817,-0.0699902248289345,-9.799999999999999,-0.21000488758553304,-0.09405324178509662,-0.009256452552823521,0.010415844236408752,319.2572110685014,-0.4330400782013685,91.18890518084066,0.6556824369718774,-0.2435466405279346,-0.6719831544278139,0.24333127504880042
33.0,-0.002946368147981052,-0.2586953342356567,-0.08011032784419879,-0.06999999999999998,-9.799999999999999,-0.21000000000000033,-0.10862547230994812,-0.00025994670651928887,-0.04722670642529513,319.37429834949995,-0.4099156891495601,91.1875,0.6559372972396045,-0.24287138106308753,-0.6722243941591662,0.2426488320771861
34.0,0.0003401101586585455,-0.2604498176554627,-0.08171694300323332,-0.06999999999999998,-9.799999999999999,-0.21000000000000033,-0.06779941748439733,0.022688941602752085,-0.016113964160839163,319.2780888130686,-0.42454789833822093,91.1875,0.6557537473636924,-0.24333445515764357,-0.6720450731401891,0.24313242119743944
35.0,0.00025442232498684096,-0.2586517078351755,-0.08361529532295661,-0.06999999999999998,-9.799999999999999,-0.2100000000000003,-0.06944561444939469,0.010507001818745771,-0.008010456025829008,319.23277889784947,-0.43102394916911047,91.1875,0.6556661483815978,-0.2435543416507822,-0.6719600517140152,0.24336180507514638
36.0,0.0010347018572825016,-0.2580553824535679,-0.0780365558500639,-0.06999999999999998,-9.8,-0.2100000000000003,-0.05945019362358071,0.03309183256259869,-0.004674767017256936,319.20900537634407,-0.4342619745845552,91.20040322580645,0.6555702612564779,-0.2437284784777639,-0.6719482982238659,0.24350384149081472
37.0,0.00021493157380254123,-0.25823888074291296,-0.07660648357019323,-0.06999999999999998,-9.8,-0.2100000000000003,-0.05360362503759681,0.010434525152267086,0.0030967142736295964,319.19724462365593,-0.43588098729227764,91.22620967741935,0.6554472741841864,-0.24387911313757138,-0.6720050191774578,0.24358153620155665
38.0,-0.004025607847857485,-0.2568401841598459,-0.07312484491315134,-0.06999999999999998,-9.799999999999999,-0.21161771786230169,-0.12466249079895188,0.4326653410984778,-0.027088471549664827,319.28331126624937,-0.42642633606162733,91.24633485796821,0.6555412428584958,-0.24343687593310775,-0.6722633817751942,0.24306425010694982
39.0,-0.004570691265082214,-0.2586976152959543,-0.07182497744191291,-0.06436950146627561,-9.799999999999997,-0.23215783253818895,-0.05610386957469588,-0.07804126029142577,-0.02841175547791159,319.59317689412177,-0.3850423469164442,91.36403375351978,0.6555336611146094,-0.24220763950056837,-0.6734252091867172,0.24105296712764399
40.0,-0.012374675657355005,-0.2578897505760169,-0.05399685596661402,-0.05686217008797649,-9.799999999999997,-0.23259256391177455,0.04902622898436422,0.1698658462810861,-0.06685786285061833,319.6508843527681,-0.34675504442596405,91.35765273283928,0.6556535515771557,-0.24231349160884508,-0.6733843433228869,0.2407286209856582
41.0,-0.014459772182960682,-0.2582142356820679,-0.05656385148614024,-0.05642097430734888,-9.799999999999997,-0.2237613758412991,-0.07195159977765975,-0.3496722766668715,-0.0916705243292757,319.34889848355783,-0.32761139318072396,91.30972730527375,0.6553087344292949,-0.2441066067869787,-0.6724043661398331,0.2425589361076952
42.0,-0.01569258770438357,-0.25719683558296935,-0.061096945904360433,-0.058049196831093816,-9.799999999999997,-0.2245419782432303,-0.045221641622700835,-0.12274755466408091,-0.06717787809205719,319.1714250482305,-0.3180395675581039,91.312121717153,0.6548992805210991,-0.24524144653865054,-0.6720235181505612,0.24359392192481516
43.0,-0.01595289922284114,-0.2585041441026965,-0.061219648810660963,-0.05886330809296629,-9.8,-0.22754301608357969,-0.0507138346184854,-0.11739828538490826,-0.035242514301903234,319.0796942284966,-0.31359970674486803,91.31309323700692,0.6546392208936742,-0.24585059399843198,-0.6718722954792128,0.2441203844286351
44.0,-0.019268047214378626,-0.25819507855396195,-0.05474897184041058,-0.0509189675744699,-9.799999999999997,-0.20419130913830913,0.35501145788732325,-0.39921576579585843,-0.07466655231861705,319.0962363041841,-0.2863195418419822,91.1783780552411,0.6554973494832389,-0.2458473642069171,-0.6709592596011391,0.24431637313052731
45.0,-0.01915759680818187,-0.25898339535638537,-0.05716977128000679,-0.0496530321743317,-9.799999999999997,-0.16673585308032074,-0.03404048693723166,0.019165380129366055,-0.04728209749925889,318.854996253829,-0.2671517064048621,90.97019864300516,0.6562304436361603,-0.24691907041735425,-0.669181661049949,0.24612313302183933
46.0,-0.023903908643982116,-0.257713415509925,-0.05638012602792552,-0.049723001402524517,-9.799999999999999,-0.15216186009817673,0.05872764917263261,-0.1463439459564402,0.03143089376513925,318.7121288805962,-0.25756778868630203,90.88412736676017,0.6563392082200568,-0.24766712688206904,-0.6684272047809601,0.24712637867013115
47.0,-0.03806726570191938,-0.25695098578875664,-0.03826838802676358,-0.05084716378369954,-9.799999999999999,-0.14872681938600602,-0.09628121669632578,-0.08401091667061643,0.09727816689665053,318.587247235997,-0.26864884570003783,90.86533877298581,0.6561850587213236,-0.2482531582585028,-0.6680770075626913,0.2478937642428996
48.0,-0.04233850096840981,-0.26184675471404084,-0.037439175237649995,-0.04510100124668846,-9.799999999999997,-0.18891460183886555,-0.24585603913433066,0.2875185316208063,-0.1602557781089294,318.6809541462828,-0.24990121106881275,91.10200961557192,0.6550572908309751,-0.24841980287534918,-0.6695082926900158,0.24682230095403662
49.0,-0.012924543344687107,-0.26036624117856577,-0.025081572524989427,-0.04677089733742959,-9.799999999999997,-0.22282295910416516,-0.1219170331249026,0.12104671655507693,-0.1368562501043545,318.8714507424127,-0.26404639462142965,91.2957065208695,0.6543729293206504,-0.24756067985936706,-0.6710564182123689,0.24529859124079303
50.0,-0.020778467908902705,-0.25823312669876475,-0.01260730324685444,-0.03957389563841178,-9.799999999999997,-0.22305737398023523,-0.003102200121835458,-0.006145885826811491,-0.054380612375002274,318.9365238995849,-0.2247651327945858,91.30242363021114,0.6544719615215024,-0.24769816640199233,-0.671043228343645,0.24496054876815437
51.0,-0.022797048362265766,-0.26115799861662403,-0.014536547759549167,-0.039149230697617804,-9.799999999999997,-0.22543935696530382,-0.05245848121023436,0.02257079059323099,-0.08642265090371681,318.9337753118784,-0.20512450188116388,91.32942211287232,0.6543669417573246,-0.2479071362205321,-0.6710839650826499,0.2449378982502398
52.0,-0.02428623615887857,-0.2570968707804444,-0.019476663574924034,-0.03768273068610095,-9.799999999999997,-0.22388455303462335,-0.013145179344599495,-0.3427838322981297,-0.035147286965335575,318.78896176121924,-0.19480815467842116,91.30802004910721,0.6541533063671183,-0.2487521144329155,-0.6706647024482417,0.2457783180432022
53.0,-0.02315865373592866,-0.2603489532454385,-0.03160671025331594,-0.03884136534305048,-9.799999999999997,-0.2403756566014631,-0.01773322368531805,-0.26502256670468033,-0.05024909390881947,318.4885725212037,-0.20728243530662885,91.396203312215,0.6529755336550591,-0.2506663652412717,-0.6705410850898383,0.2472967422224499
54.0,-0.024151340073824436,-0.2613484225612295,-0.035223569721884604,-0.0374382217044711,-9.799999999999997,-0.2448082629936265,0.04706140934174155,-0.13820050716415666,-0.03870246668754131,318.35567115639935,-0.19786257916373468,91.43019486231148,0.6525251867098806,-0.2515731530895815,-0.6703864359713927,0.24798303621532425
55.0,-0.030596348283396906,-0.2599412614347616,-0.021550238880041483,-0.03367267878967446,-9.799999999999999,-0.24788067108625605,-0.01727898966704936,-0.008179789637420845,-0.028711899559275583,318.3181868264138,-0.19268128958186734,91.46844237250471,0.6523139987848594,-0.2519386062497686,-0.6704346218423017,0.2480831769315211
56.0,-0.028283285804229476,-0.25724730565534604,-0.01919943705788675,-0.03168993740972558,-9.799999999999999,-0.2525681271064034,-0.12103093403948001,0.00031457168253027235,-0.00046016814192067004,318.3055419243732,-0.19009064479093368,91.48681113662457,0.6521649428986329,-0.25209033644250206,-0.6705287088615974,0.24806278296203843
57.0,-0.028551849931484026,-0.26010535720899225,-0.03735248694492797,-0.030736639383726547,-9.8,-0.25821954742416936,-0.10112391670678864,-0.034131953446168664,-0.04239576774934262,318.23319043739116,-0.1887953223954668,91.50613426354579,0.6518338001108476,-0.25262078989794823,-0.6705052915372023,0.24844064840567015
58.0,-0.03408463238735266,-0.25780348693594957,-0.03666413729906749,-0.028095592419136013,-9.799999999999999,-0.2594088939466888,0.03746862665299713,0.2602217892743591,-0.14411737030222224,318.3644827478331,-0.16464871390846353,91.51072419245415,0.6520778841691917,-0.25218056104259023,-0.67070266388658,0.24770455764775573
59.0,-0.03369759586291844,-0.2598487366128495,-0.03926454146212211,-0.024028766931992754,-9.799999999999999,-0.26536435786435775,0.07432163210893049,0.2998043818860351,-0.133021153913291,318.6073076229326,-0.14375610948191592,91.54382425929805,0.6524028114091328,-0.25112121498446305,-0.6713026762987782,0.24628653391222272
60.0,-0.041029939370665174,-0.26066382240071756,-0.03777122854743823,-0.018359296617361145,-9.799999999999999,-0.25625289853515654,0.1078649103472692,0.5386273770472358,-0.21412223948766285,319.08834673950605,-0.11004492819008947,91.50106845719245,0.6537110861561795,-0.24858371930116455,-0.6719396616258158,0.2436191231049948
61.0,-0.043322429362751935,-0.26116429608589464,-0.03676119960150268,-0.018352385041250814,-9.8,-0.25260940972543466,0.07622267207009661,0.426284170118311,-0.1828813915960687,319.4153037027395,-0.08425633506278668,91.4682761640801,0.6545817438614531,-0.24672592696783008,-0.6724354232605538,0.24181656759308015
62.0,-0.04126918959177024,-0.26062123054422737,-0.033886112153541925,-0.01901490219804477,-9.8,-0.25110309195949154,0.042955646070890606,0.3128699676436409,-0.08706116550809578,319.60804247636975,-0.07136203849913528,91.45159649937875,0.6550646550362051,-0.24564527183224943,-0.6727508740076292,0.24076458836167242
63.0,-0.04064925755248336,-0.25851759250077244,-0.035481147194185186,-0.019412143181133823,-9.8,-0.250382924278866,-0.01721597974647223,0.23510658214241403,-0.018498232546525824,319.7300679627013,-0.06563275434243176,91.44331107960141,0.6553712911001817,-0.2449662569529738,-0.6729558372476729,0.2401116321740015
64.0,-0.0406870158399815,-0.2593113209022866,-0.033300341035111855,-0.018699431681741784,-9.8,-0.25160681981909866,-0.05930749270593354,0.12526423618459748,-0.013572489743358543,319.7668176309881,-0.06305831265508685,91.45902505403026,0.6553642339195136,-0.24480739782091965,-0.6730951032404728,0.2398901337622068
65.0,-0.042795120823216556,-0.25938358809062134,-0.02723449774080095,-0.014297606659729456,-9.8,-0.2560093652445368,-0.04639312040243447,0.11442262077380039,-8.349132969576309e-05,319.79421836884393,-0.0625,91.51242195629553,0.6551668527513199,-0.24475521412385914,-0.6733883418807824,0.23963756887365917
66.0,-0.04402044827643162,-0.2592587547178904,-0.020423403173953324,-0.013237203310044108,-9.8,-0.25817898022892805,0.006940078221061144,0.030795684302959852,-0.004852634206875861,319.8052127224032,-0.0625,91.53947710718003,0.6550539434777609,-0.24474755565193976,-0.6735293516479874,0.23953350203295948
67.0,-0.040881191880151296,-0.2587256395197235,-0.015598286328400116,-0.01620897543894423,-9.8,-0.25925078043704464,0.03049576875722796,0.09681105259694844,-0.032732256683571055,319.8098644257177,-0.0625,91.53303540458847,0.6550312600952553,-0.24472699945935453,-0.6735583247000815,0.23950777236568596
68.0,-0.047904615791192276,-0.2595797989731392,-0.015777258121691007,-0.01484890459292125,-9.8,-0.2613747698711276,-0.002486932364663897,-0.2034527192370585,-0.037374548794944215,319.77252211238294,-0.06597394540942927,91.52844388095428,0.654950757328472,-0.24490408730763763,-0.673512244814508,0.23967815907789228
69.0,-0.044105793847729335,-0.25906149157814085,-0.011655538530148314,-0.017455669778250433,-9.8,-0.2659553349875928,-0.016852207077233092,-0.15707235337503286,-0.06435910062015682,319.5673387096774,-0.09649503722084367,91.54683770530545,0.6544288802615303,-0.24611997124486976,-0.673153292123695,0.2408782402751585
70.0,-0.04245612273031628,-0.2592966146756468,-0.01322110953562567,-0.018889125211705868,-9.8,-0.26813895781637687,0.043440441726732046,-0.19999169177596596,-0.03426071576273189,319.44445564516127,-0.11175558312655087,91.55466885265272,0.6541753410985072,-0.24675068384824123,-0.6729453292070093,0.24150628804080498
71.0,-0.044399159084642946,-0.26037574835558697,-0.014002968805388163,-0.01956745047067629,-9.8,-0.26748387096774173,0.06592144974201425,-0.1424999815372799,0.011381497646618614,319.3614803039702,-0.11938585607940447,91.55858442632635,0.6540156598921576,-0.2471451569663043,-0.6728032573429589,0.24189919762042605
72.0,-0.04419045604932702,-0.2584956058726219,-0.012760456613279198,-0.019796526054590584,-9.799999999999999,-0.2637419354838708,0.05166301272652078,-0.09148546765734265,0.008101084903000226,319.29666757134,-0.12320099255583127,91.56116625310173,0.6538925611339945,-0.24746081772022344,-0.672689837639733,0.24221273437344898
73.0,-0.04368828013384465,-0.25892522229114967,-0.015005538480336875,-0.02000000000000001,-9.799999999999999,-0.26182133995037205,0.04726450884464997,-0.08957027725298894,0.001212453121475299,319.2654708824442,-0.125,91.5625,0.6538330979367242,-0.2476129484581267,-0.6726349678471613,0.24239010033808916
74.0,-0.04129169016467403,-0.2589378830175201,-0.017066170388751044,-0.02000000000000001,-9.799999999999997,-0.26074937965260536,0.03736426963493496,-0.07288255049721784,-0.005291810004511617,319.25571931218985,-0.125,91.5625,0.6538185674361037,-0.2476536337250312,-0.6726179790672295,0.24244920423154448
75.0,-0.041107150913602515,-0.2595559064591322,-0.018057899090157162,-0.02000000000000001,-9.799999999999999,-0.260213399503722,0.06868843522069329,0.01245300398526205,0.019253327317843447,319.26932382134,-0.125,91.5625,0.653811225270471,-0.24765536910670008,-0.6726280794789075,0.2424417310024813
76.0,-0.04338980374464245,-0.2599938341228663,-0.015937138130686524,-0.02000000000000001,-9.799999999999999,-0.2605558312655085,-0.020168809684938713,0.08400255658320174,0.02214217234378525,319.2926799007444,-0.125,91.5625,0.6538105287394538,-0.24762807911662565,-0.6726556453498753,0.24239384200496272
77.0,-0.042963230318069034,-0.2620839160839161,-0.01630678998420934,-0.018514173998044975,-9.799999999999999,-0.2569152567862245,0.033292916760658695,0.1109773291224904,-0.05397962252800962,319.3607827656215,-0.11522482893450636,91.51264662756599,0.654186631432288,-0.2472386399004437,-0.6725389370933152,0.2420948563495
78.0,-0.05074567945294957,-0.26220739635905743,-0.02127942736127619,-0.011553668607111078,-9.799999999999997,-0.25822652584135486,0.062215603967529814,0.13317282440717682,0.055930497243087504,319.50953197019635,-0.06329970382690653,91.50964842211232,0.6545162207883637,-0.24671629873211876,-0.6727161140883041,0.2412200435189225
79.0,-0.057141807318023013,-0.2582622439348486,-0.02272378015180134,-0.00561306259139673,-9.799999999999997,-0.2391033373623649,0.03268052361697041,0.14444118511884518,-0.00853021156343256,319.6080538262893,-0.0306262787124607,91.40902706465417,0.6553774166497646,-0.24640317677548876,-0.67211557127244,0.2408686515857641
80.0,-0.06221358355975591,-0.2598432807763573,-0.024555438462997452,-0.0024839506505370747,-9.799999999999999,-0.23843504337100882,-0.17038430394833862,0.06138002183981962,-0.031746495359880056,319.68554056078733,-0.013297010323972288,91.41380323456033,0.6555099568137165,-0.24624620857881144,-0.6722242671895697,0.24040863165640564
81.0,-0.06268743694116827,-0.2603906230184516,-0.027935287469712133,-0.0009193946801072468,-9.799999999999999,-0.23887757131329607,-0.09048061351263086,0.002991499753656708,-0.04457982336232216,319.66125663275096,-0.0046323761297280795,91.42363548824791,0.6554157490396126,-0.24651989302141572,-0.6721950750042142,0.24050463851058473
82.0,-0.06356023850968481,-0.2597285470908484,-0.025798044516869758,-0.0001835487574534277,-9.8,-0.2392212881004409,-0.00881252083256176,0.06992194733528387,-0.032859315395726084,319.6730953251731,-0.0006055331284026517,91.43010953298025,0.6554086126307539,-0.2465427897560645,-0.6722052853075813,0.24043604766682714
83.0,-0.06292307692307691,-0.25943114143920587,-0.015815136476426805,-9.925558312655088e-06,-9.8,-0.2504119106699752,-0.13835685483870966,-0.01902915632754343,-0.03936491935483871,319.68097472084366,-6.203473945409429e-05,91.48328163771711,0.6550615349193547,-0.24667115144727045,-0.6725443718337469,0.2402843670843674
84.0,-0.0635942928039702,-0.25964361042183615,-0.00364950372208437,0.0,-9.8,-0.26615384615384613,-0.14282917183622829,-0.00032568238213399534,-0.021559010545905706,319.6841598169975,0.0,91.55911910669974,0.654554605616005,-0.24685424021991326,-0.6730339916315138,0.24009630303349894
85.0,-0.06644459214620504,-0.26037294940722344,0.0035125989601796043,0.0,-9.8,-0.2737468982630272,-0.0599974859929497,0.014468741384063961,-0.0165984623015873,319.68485286135234,0.0,91.5953163771712,0.6543104552695409,-0.24694581484196665,-0.6732660037884617,0.2400111916284121
86.0,-0.06503495115995114,-0.260736102495175,0.00789773868604514,0.0,-9.8,-0.2775186104218361,-0.039358234311611326,-0.02624887992831541,-0.014471687726476033,319.68715347782256,0.0,91.613182382134,0.6541933931360112,-0.24698062196937054,-0.6733845996709058,0.23995848860328806
87.0,-0.06697312074126589,-0.26070323269920037,0.007552699988183861,0.0,-9.8,-0.2794044665012406,-0.0006991524380637291,-0.012305387544802867,-0.005834004145496081,319.6875,0.0,91.62211538461537,0.654133246744417,-0.24700194972208456,-0.6734432511761788,0.23993604566253124
88.0,-0.06648305491551457,-0.26159290194572443,0.00814068100358423,0.0,-9.8,-0.2799999999999999,0.019152225742447515,0.04615145369303635,0.018200164810547877,319.6875,0.0,91.625,0.65411377,-0.24700928000000022,-0.6734619100000001,0.23992920000000023
89.0,-0.06505776369687657,-0.26063764080901164,0.006898681515617001,0.0,-9.8,-0.2799999999999999,0.021092349910394263,-0.036170314900153606,-0.017431115591397844,319.6603622631849,0.0,91.625,0.6540717662724014,-0.2471182866154634,-0.6734219086072708,0.24005170855094732
90.0,-0.06721910202252943,-0.26094606054787495,0.00627960189452125,0.0,-9.8,-0.2799999999999999,0.021458873367895544,-0.03214205709165387,-0.014555931579621094,319.69913274449567,0.0,91.625,0.6541478942652332,-0.24690184250127997,-0.6735093446262161,0.23983294371095742
91.0,-0.06379736303123398,-0.2597999871991807,0.007469278033794164,0.0,-9.8,-0.2799999999999999,-0.05041522657450076,-0.06005884376600101,-0.010641681067588324,319.69331637224786,0.0,91.625,0.6541018278929849,-0.24698256045186878,-0.6734866274564774,0.2399080710567076
92.0,-0.06306835637480795,-0.26054531490015354,0.011170954941116234,0.0,-9.8,-0.28204813108038906,-0.059631816436251914,-0.09515208973374295,0.0284418202764977,319.69040818612393,0.0,91.63780081925242,0.6540162909895031,-0.24705142130120306,-0.6735352733774965,0.23993063413562477
93.0,-0.06683895584702035,-0.26110770412383305,0.02371537624561819,0.0,-9.8,-0.29293473551538063,-0.125581298741581,0.14389196293178147,0.025491539150813345,319.7266712146501,0.0,91.70584209697112,0.6537364394873073,-0.24696055968285957,-0.6739691864679047,0.23958048683456173
94.0,-0.065244874748907,-0.2608866733624797,0.029707150488400492,0.0,-9.8,-0.30195123872543217,-0.16548522182342745,0.20589055391852767,0.04993214950372209,319.86973601695126,0.0,91.76219524203395,0.6536954016919381,-0.2462774652126534,-0.6746023576425547,0.2386199415176392
95.0,-0.06771192248611603,-0.2608996021899247,0.030244200244200253,0.0,-9.8,-0.30645949033045794,-0.09549608097995195,0.24480976013234076,0.02465880893300248,320.07410837370514,0.0,91.79037181456536,0.6539571431742881,-0.24518334454188834,-0.6751960889984645,0.23736126169845195
96.0,-0.06860634526763557,-0.26038963724447584,0.03272322659419435,0.0,-9.8,-0.3087136161329709,-0.04885211115049824,0.10365167986135727,0.023530121312379377,320.23564289652995,0.0,91.80446010083105,0.654193875227697,-0.2442998504813898,-0.6756205553415269,0.2364077419628971
97.0,-0.07138970617196419,-0.26001048682500283,0.03267497735239672,0.0,-9.8,-0.3097766749379651,-0.06484464236480365,-0.01065815904525582,0.025557943400685335,320.3169221907125,0.0,91.81110421836229,0.6543221922835878,-0.2438742150410022,-0.6758154110681007,0.23592395109921616
98.0,-0.06433505159714835,-0.2578340275316081,0.03672954822954825,0.0,-9.8,-0.3101588089330024,-0.08502778023947379,-0.2624785832447123,0.0178658203355784,320.2471862814605,0.0,91.81398883374689,0.6541870537795107,-0.24419450960983105,-0.6756989011469532,0.2363139299838512
99.0,-0.06195457366217475,-0.25898380729432124,0.033827208486693336,-0.004390948483389506,-9.799999999999999,-0.3189383356171993,-0.12164396937018204,-0.14258951057368244,0.05209149321262646,320.15776105882026,-0.02407318247472316,91.8613907818229,0.6537513962136429,-0.24427918174120178,-0.6759449357528026,0.23672333391818529
100.0,-0.05393179468882103,-0.2595552166782156,0.03269561792858616,-0.012518054886856048,-9.799999999999997,-0.3247917484537607,-0.05847923335040421,-0.04883301004283791,0.05098794150818555,320.0414265855046,-0.06286748077792853,91.86920345542757,0.6534001261132882,-0.24447002607572899,-0.675980523754663,0.23737623749259146
101.0,-0.05351075621537825,-0.2579252897907206,0.03958369606106728,-0.01658160808858932,-9.799999999999997,-0.32771845487204143,-0.04981043320746017,0.015024019172129428,0.04077244857667342,319.9632536153329,-0.09594986942122233,91.87310979222991,0.6531869579759985,-0.2446626780378644,-0.6759660405870087,0.2377903514075862
102.0,-0.04855610426325399,-0.25826395290634574,0.03835582885257899,-0.018613384689455954,-9.799999999999997,-0.32581914923465205,-0.04706954421160608,-0.12439170497894017,0.016500884717513268,319.9046924293208,-0.11249106374286923,91.86528778956558,0.6531487969603493,-0.2447751464515533,-0.6758449242321999,0.23814951383487357
103.0,-0.04125564443179994,-0.2605283972366904,0.03244267117491721,-0.0222099181511796,-9.799999999999997,-0.31422914751754394,-0.03303924612640609,0.06930745602996746,0.016877500784202155,319.7624997036445,-0.1256492464364395,91.81636447527757,0.653193928973069,-0.2451532513096175,-0.6753305315028957,0.23909963851266958
104.0,-0.03578400161666291,-0.2599441734340927,0.03215733795774119,-0.026451612903225827,-9.799999999999997,-0.31183773216031263,-0.08292943195916985,0.00460646124708625,0.04129771857846455,319.7680227954169,-0.14991352733288216,91.81292766373411,0.65328900332517,-0.2447827547841001,-0.6753670811088047,0.239095411176597
105.0,-0.0299234317429882,-0.25933440719227,0.030498399785698186,-0.02838709677419357,-9.799999999999999,-0.31059628543499496,-0.10058288275904202,0.08086764336134296,0.02334384575438003,319.77537259027935,-0.17014249191668546,91.81170576735093,0.6533544872385311,-0.24450491826095005,-0.6754241625753439,0.23902287210566825
106.0,-0.027000526355365075,-0.2598815700428603,0.028112790435371095,-0.029354838709677443,-9.799999999999997,-0.3099755620723361,-0.07163978494623655,0.006962929543574706,0.009717365967365967,319.8291755959094,-0.17982931047447176,91.81109481915934,0.6535045444471768,-0.24407421550297026,-0.6755612901842994,0.23868277629408227
107.0,-0.025486502744567274,-0.2595657568238213,0.02934100308293858,-0.029838709677419376,-9.799999999999999,-0.3097702834799608,-0.014243082186630566,0.1456317204301075,0.015883713061132416,319.94260893676216,-0.1846727197533649,91.81109481915934,0.6537451875176328,-0.24338700139596986,-0.6758107013692006,0.23802473829633813
108.0,-0.02751569113997958,-0.2593618272935161,0.023647271134937177,-0.030000000000000023,-9.799999999999997,-0.3034724857685011,0.0919014808720691,-0.0074240986717267615,0.028065411817783735,319.9420499329892,-0.18694168734491315,91.77170303605313,0.6539348469626287,-0.24334622880145793,-0.6755855641908679,0.23816410357474022
109.0,-0.03351411385634955,-0.2590745657337178,0.015392799672501734,-0.030000000000000023,-9.799999999999997,-0.2988017219405816,0.1347699045410677,0.35544293566469215,0.027887979787637098,320.01112116663535,-0.18268536350505538,91.74251076212863,0.6542020797141945,-0.24294679668434804,-0.6755748636719683,0.23785419489606974
110.0,-0.03100650956282666,-0.258570416715932,0.014288722124967844,-0.03000000000000002,-9.799999999999997,-0.2926361550879378,0.16837659582621917,-0.10037662003803782,0.0033989964622027254,320.0388741506801,-0.1841439151491121,91.7039759692996,0.6544194470488943,-0.2427193469743445,-0.6754977875091706,0.23772433596664524
111.0,-0.030198729023108085,-0.25935735495635237,-0.0002139354315853258,-0.03000000000000002,-9.799999999999997,-0.2821365657481094,0.13879954337203196,0.005225146889984454,-0.018957617582791048,320.036722577813,-0.18582195757455605,91.66146379110143,0.654732759812946,-0.24259814532683743,-0.6752039307404034,0.23782559438832115
112.0,-0.0300274042137873,-0.25778537723003714,-0.006240962753013508,-0.030000000000000023,-9.799999999999997,-0.27558193051673446,0.06130423818725668,-0.0016988409470673309,-0.04555200978395135,320.04981290180973,-0.18666097878727803,91.64020770200233,0.6549288103977882,-0.24247847108277357,-0.675048685578638,0.2378461581743096
113.0,-0.030097850406411976,-0.2604132330610848,-0.012943135003714464,-0.030000000000000023,-9.799999999999999,-0.2688559922617244,0.11193587329009602,0.0635720599672779,-0.051701298644712505,320.08158658884093,-0.18708048939363903,91.58271560475973,0.6552858374538567,-0.242169421465595,-0.6748646757094765,0.23771890177019367
114.0,-0.0312706392137982,-0.2602258750765221,-0.011357219885102299,-0.030000000000000027,-9.799999999999999,-0.26386949829744855,-0.00571207057690673,0.03218474206837656,-0.03034932529732014,320.1041659472852,-0.18744070208728653,91.55752444898553,0.6555190833586086,-0.24193889606621122,-0.6747550668954224,0.23759479697079736
115.0,-0.03123488739100199,-0.2604714734257343,-0.0122893671486594,-0.030000000000000027,-9.8,-0.2611682436217822,0.05446551564374747,0.0011518854313449928,-0.03635390047282199,320.13102614365255,-0.1875,91.55418149838512,0.6556391621955915,-0.24178788914478128,-0.674743900101991,0.23747540243125126
116.0,-0.03345206093189965,-0.26103978100752284,-0.011653831383670094,-0.030000000000000027,-9.8,-0.25521580211902783,0.08199924795186891,0.03869432259049195,-0.010473531844499586,320.1582775759187,-0.1875,91.5250746201603,0.6558638035436313,-0.24161227018625686,-0.6746082829975533,0.23743542504085446
117.0,-0.031730993245106164,-0.26116217018038024,-0.009896314555198533,-0.030000000000000027,-9.8,-0.2522803576351963,0.050077207422664624,-0.06181829135823997,-0.010883928333199925,320.17854695653375,-0.1875,91.51052118104789,0.6559877334825338,-0.24150009133838585,-0.6745535653881547,0.23737545448360645
118.0,-0.029198082870852137,-0.2612831582511602,-0.012059339539666026,-0.030000000000000027,-9.8,-0.2509267793138761,-0.009855937231595724,-0.050537637634615065,-0.016004379118973292,320.1520526345944,-0.1875,91.50474880392346,0.6559719258479666,-0.24162779283544622,-0.6744602775476756,0.23752407086215052
119.0,-0.029972431784021293,-0.26197352501527826,-0.01254070970219514,-0.030000000000000027,-9.8,-0.2503020993343574,-0.02337646383562096,-0.05372682561361346,-0.010997929673950746,320.1385263172972,-0.1875,91.50176011264722,0.6559621414169268,-0.24169440593133212,-0.6744140750011566,0.23760065408530903
120.0,-0.031068241862984274,-0.26055346526841905,-0.012331899511267298,-0.030000000000000027,-9.8,-0.25,-0.008816966189590759,-0.04093434613342488,-0.0053557425559952925,320.1312831279266,-0.1875,91.5,0.6559570589880332,-0.24172885927647014,-0.6743896789880337,0.2376407148767558
121.0,-0.031019391988839816,-0.25844917567056386,-0.010738682410523562,-0.030000000000000027,-9.8,-0.25008192524321554,-0.019997480790647913,-0.07854714018460798,-0.02542782727518146,320.1272437565036,-0.1875,91.49436763952895,0.6559556720061772,-0.24177973357968752,-0.6743522893845699,0.23771297812282183
122.0,-0.030591621237635484,-0.25928830288078675,-0.014084593174936232,-0.030000000000000027,-9.8,-0.25520225294418836,0.04758455783898885,0.026754913795180933,-0.020183036822764906,320.125,-0.1875,91.49718381976447,0.6558535674859192,-0.24187000983614976,-0.6743941939170506,0.23779190432155678
123.0,-0.032150195105876536,-0.25880148589689533,-0.016969497089590578,-0.030000000000000027,-9.8,-0.25776241679467476,0.06473889950321178,-0.01167137203391276,-0.009733818099207633,320.125,-0.1875,91.49859190988224,0.6558046905171533,-0.2419096383051717,-0.674417321474654,0.23782590538658505
124.0,-0.03186854188176242,-0.25750428092971717,-0.01819598683823962,-0.030000000000000027,-9.8,-0.25896185355862766,0.11516081291497737,-0.12542140401903754,-0.00930564474159133,320.11290322580646,-0.1875,91.50786450332822,0.6557487484843827,-0.24196341520097306,-0.6744431588824882,0.23784192261264742
125.0,-0.024286994367639543,-0.25803955453148997,-0.019063620071684596,-0.030000000000000027,-9.8,-0.2544809267793138,0.05440748207885305,0.07283266129032258,-0.04798307091653865,320.0529233870967,-0.1875,91.50393225166411,0.6557202847260624,-0.24221623203597034,-0.6742788775057604,0.2381418178385817
126.0,-0.03615783410138251,-0.26226395665793195,-0.02517079681334901,-0.030303605313093,-9.799999999999999,-0.23182044592030365,0.3113169831104485,0.08800269099575314,-0.07594403688894913,320.0519597960152,-0.1875,91.36030152988614,0.6565388301802657,-0.24182375740393736,-0.6735267070030835,0.2384119770600095
127.0,-0.033076356886840776,-0.2581373658041992,-0.025249527171785045,-0.03531309297912716,-9.799999999999997,-0.21247403782691193,0.06362129682693556,-0.06971723683921907,-0.09991059120878365,319.91737190361766,-0.21975806451612903,91.23987493511605,0.6569369114622692,-0.24205841783240345,-0.6726891828984563,0.23943233439255734
128.0,-0.024991141251221906,-0.26018910369993975,-0.032874263190230846,-0.037817836812144234,-9.799999999999997,-0.20526927697797195,0.012967260618467084,0.04609783552071536,-0.08123584301397149,319.9596023740962,-0.23588709677419353,91.2081583864241,0.6572934213811832,-0.24155461020652416,-0.6725844038050448,0.23924409427350243
129.0,-0.01910282258064517,-0.2603871196652191,-0.035677493887393046,-0.041963659364038855,-9.799999999999997,-0.2029206386111757,-0.08357156504145072,-0.05187671838944681,-0.04291995520077851,319.9493263275662,-0.2610581622678397,91.19936372324015,0.6573266058509655,-0.241284940075082,-0.6726179594488781,0.23931276552881192
130.0,-0.016703323558162272,-0.25943422759898294,-0.038948381596677954,-0.04630441032718069,-9.799999999999997,-0.20581515801526545,-0.08958961469325713,-0.05557507412629721,0.002866261097069202,319.9326771812257,-0.28879521016617793,91.22064960355556,0.6571780669737783,-0.24114304318323682,-0.6727915808143701,0.23940050677703714
131.0,-0.012130549598050806,-0.25992563004180924,-0.04355473683476027,-0.048465298142717446,-9.799999999999997,-0.20944114693648952,-0.13647159301034034,-0.0678611992314343,-0.038327226230190366,319.9101104511866,-0.30266373411534697,91.24053969918354,0.65701001885928,-0.24115960579476053,-0.6729264144733933,0.23948089656961263
132.0,-0.009100465414861179,-0.2578666783385126,-0.048274244612713554,-0.059794721407624596,-9.799999999999997,-0.2111320231686147,-0.010186421266103494,-0.10717399075006201,0.0033073270013568544,319.6602435038882,-0.3476906158357771,91.25109377963554,0.6564448132991205,-0.2419364528017537,-0.6726928440306534,0.24088544478231988
133.0,-0.0048854700106505606,-0.2585909893348506,-0.05215112122671101,-0.06538123167155423,-9.799999999999997,-0.21072730190688818,0.0041229884302826075,-0.17934657723114633,0.007445817102172423,319.49252409141974,-0.3633614369501466,91.25157022803869,0.6561212500692291,-0.24261163425715981,-0.6724316328268481,0.24183584279409404
134.0,-0.004377307013320495,-0.25913409492128786,-0.0580500722195474,-0.06808406647116323,-9.799999999999997,-0.20840591762594665,0.1492345822208605,-0.2822070001896675,0.0018734224770575278,319.38413960257367,-0.3706622678396872,91.23569104623509,0.6559767272895053,-0.24307434441575115,-0.6721690282401043,0.2424916765523555
135.0,0.0003964479826158128,-0.26012279468622035,-0.06683741032632248,-0.06936461388074291,-9.799999999999997,-0.19888037816781198,0.14157900981550758,0.09972868321837425,0.04955471049101568,319.2839905505249,-0.37383919843597263,91.1783293940853,0.6560708847065087,-0.24350497977615818,-0.6716480598731712,0.24322124730081698
136.0,0.0015132762957680104,-0.25958255985897655,-0.07120404532452451,-0.07000488758553275,-9.799999999999997,-0.19406946207379522,0.10954550496611301,0.09896633895384215,0.028026323016622938,319.3187010973252,-0.37542766373411535,91.14949811061992,0.6563181910189434,-0.24323137221938443,-0.6715482543886653,0.24310850768405257
137.0,0.001023011559418707,-0.2600161088639945,-0.07519146547751152,-0.06999999999999999,-9.799999999999997,-0.1916754935002407,0.0774847515055394,0.02451066214554277,0.031455732378301696,319.38958637466453,-0.375,91.13511073663938,0.6565614233589343,-0.24278088155934996,-0.6716070076684286,0.24272463987086287
138.0,-0.0019343295597225197,-0.2594784444175533,-0.07968528497756172,-0.06584015406836785,-9.799999999999997,-0.190515166104959,0.03317545230548997,0.1253992887039702,0.0146144814996949,319.5373094367304,-0.375,91.12803923928743,0.656894508056453,-0.24196448069301157,-0.6718681728255479,0.24191889040245107
139.0,-0.004027814609890002,-0.25943123137117574,-0.07941085713402968,-0.0627587867116033,-9.799999999999997,-0.18999999999999995,-0.04266695352803002,0.2594090044430255,0.023985214517373454,319.66660722124664,-0.375,91.125,0.6571887196957098,-0.2412092198185008,-0.6721293740984653,0.24115280500988012
140.0,-0.0026432679822183916,-0.25739628274149207,-0.07891974034631712,-0.06121810303322103,-9.799999999999997,-0.18999999999999995,-0.017920197680669516,0.3033447554692138,0.0025104148780123736,319.8421269119662,-0.375,91.125,0.6575393663108897,-0.2402671157863122,-0.6724824440489408,0.24017937702147046
141.0,-0.005487323140669314,-0.2583951862613393,-0.07898957165447293,-0.06044776119402989,-9.799999999999999,-0.18999999999999995,0.053433220206210094,0.215187961613094,0.006156891776174395,320.15156786420926,-0.375,91.125,0.6581718215841614,-0.23850611936232685,-0.6731182195520289,0.23839754626116738
142.0,-0.005752882328712855,-0.2595778764647324,-0.07944463336374745,-0.06006259027443432,-9.799999999999997,-0.18999999999999995,-0.06215492299387341,0.5634324570470454,0.038141628873453626,320.52841470237354,-0.375,91.125,0.6589430125539464,-0.23636331017327755,-0.6738866216167012,0.23620189758853588
143.0,-0.005771058984347381,-0.2594147826174787,-0.07763612009880665,-0.06000000000000005,-9.799999999999997,-0.18999999999999995,-0.11351215387084429,0.5637358408723359,0.04353883357855433,320.961540425551,-0.3671798631476051,91.125,0.6597985054557128,-0.2339205096293942,-0.674775393829754,0.23368598073602542
144.0,-0.0074651971363574625,-0.25923329551206287,-0.073920699345591,-0.06000000000000005,-9.799999999999997,-0.18999999999999995,-0.13619461554734785,0.3540361755681327,0.04191543340706798,321.34167258325454,-0.33883186705767354,91.125,0.6605292755137803,-0.23181302476093374,-0.6755567087917103,0.2315090008543273
145.0,-0.0072090253671861755,-0.2600062259198031,-0.0713499278365672,-0.06000000000000005,-9.799999999999999,-0.18999999999999995,-0.0037517742749146182,0.1609355815805924,0.007310074023633244,321.5096700385255,-0.3246578690127077,91.125,0.6608527030596197,-0.23086975832339496,-0.67590633445789,0.2305306127571884
146.0,-0.0006963240979851477,-0.25739269112367325,-0.06965759419123645,-0.06000000000000005,-9.799999999999999,-0.18999999999999995,-0.033141395822320834,0.29431704637342276,0.006973895572610665,321.64918985797243,-0.31757086999022477,91.125,0.6611225527010258,-0.2300754266505312,-0.6761873155267119,0.22971644716767606
147.0,-0.010576857282502445,-0.2578108598390856,-0.07824559647341904,-0.06000000000000005,-9.8,-0.18587096774193537,0.054172746776073394,-0.016935630733513812,0.00733634225317693,321.77449446974396,-0.3140273704789833,91.09869727047146,0.661548968340439,-0.22929004743237286,-0.6762559583480012,0.22903587932310696
148.0,-0.008985887096774194,-0.25762732630272944,-0.08450891749379652,-0.06000000000000005,-9.8,-0.1836612903225805,0.05184504885235733,-0.003274755738213406,0.03465851814516129,321.75120434630895,-0.3125,91.07303815136476,0.6616560290651363,-0.2293433580808003,-0.6760764170112439,0.22918664967866004
149.0,-0.006443548387096775,-0.2568126550868486,-0.07837593052109179,-0.06000000000000005,-9.8,-0.18683064516129022,-0.021440756823821336,-0.023232009925558315,0.040372983870967744,321.73540245037225,-0.3125,91.06676101116625,0.6616261324559549,-0.22941674334987602,-0.6760631178982629,0.22924975693610428
150.0,-0.004423396943558234,-0.25774100003938705,-0.07788948954271535,-0.06000000000000005,-9.8,-0.18841532258064508,-0.036290014868643895,-0.08963133640552995,0.026765128352829966,321.60134817859114,-0.3125,91.063622441067,0.6613244543539374,-0.23025870440663293,-0.6757832683449331,0.2301111135935004
151.0,-0.0036093509984639017,-0.2578873577139705,-0.07184198373311276,-0.06000000000000005,-9.8,-0.18920766129032252,-0.09659507439245342,-0.06077853598014889,0.030171084795580762,321.51444580145437,-0.3125,91.06205315601737,0.6611312815963233,-0.23081705099428895,-0.6755865697214443,0.23068623409640762
152.0,-0.0003704323230532896,-0.2575416937453227,-0.07414679831816928,-0.06000000000000005,-9.8,-0.1837775279156328,0.14064477049608098,0.008041253101736978,-0.06447401095208555,321.4953432481217,-0.3273883374689826,91.03975796758684,0.6612563136269456,-0.23079176219193356,-0.6754225641808218,0.23082814482487876
153.0,-0.002524525877348457,-0.2592207956693843,-0.07199155392098938,-0.06000000000000005,-9.8,-0.17923943440072465,0.20839022158956633,-0.09012239860274134,-0.06907161289091732,321.4731973077046,-0.32916075859624244,91.01702755130174,0.6613430206928013,-0.23090136286968024,-0.6752361914281284,0.23100163586294004
154.0,0.00044176611918547433,-0.2597553271101657,-0.06571727913663394,-0.06000000000000005,-9.8,-0.17888495017527264,0.2086730473827248,-0.1023223640159124,-0.055245381858285085,321.3806796250345,-0.35308844381425025,91.00750571113474,0.6611941707259048,-0.23139010599921211,-0.6750197738288235,0.23150920009200826
155.0,-0.0030446059317027056,-0.26126911260782215,-0.056130528969238626,-0.06000000000000005,-9.8,-0.18411989444247495,-0.004302429201622743,0.3000772972547166,0.010491748394974205,321.46699751861047,-0.34438696384260903,91.06322866201899,0.6611199579013546,-0.23098809543944226,-0.6754361703808739,0.23092283761768861
156.0,-0.001965211311985505,-0.26171622553074153,-0.05103505455118357,-0.06000000000000005,-9.8,-0.19270510851155992,0.023010395742250583,-0.016003978100752297,0.03697590491945331,321.5883374689826,-0.3481007399858206,91.12032400842884,0.6610604283055161,-0.23031013074199458,-0.6760142049907439,0.23009833360531132
157.0,0.0010794290834613414,-0.2610640681003583,-0.04613415258576548,-0.06000000000000005,-9.8,-0.1966999487967228,-0.03882048451100871,0.1204797107014849,0.05322740655401946,321.54637096774195,-0.3620931739631336,91.15662602406553,0.6607827436440733,-0.23049889510176647,-0.6762152540028162,0.2301772505520353
158.0,-0.005021197664342827,-0.2612338734294378,-0.04543408562763401,-0.06000000000000005,-9.8,-0.19875448028673814,-0.000917735658159044,-0.059908880322186775,0.008378936251920124,321.5560995903738,-0.3692666330645161,91.17515120967741,0.6606780468784395,-0.2304661609894984,-0.6763648743517177,0.23008277689975254
159.0,-0.004416640818858562,-0.2596466346153845,-0.03892928039702234,-0.06000000000000005,-9.8,-0.2039112903225807,-0.19319120269851117,0.035361740074441685,0.022958669354838708,321.554939516129,-0.37213331653225806,91.20904737903226,0.6604798169594452,-0.23056994657769847,-0.6765110199382758,0.2300941506106546
160.0,-0.003693083126550869,-0.26160677729528525,-0.03775558312655087,-0.06000000000000005,-9.8,-0.2072883064516131,-0.22965405939826306,0.06186802109181141,0.028644540942928037,321.65568296370964,-0.3742124495967742,91.2316658266129,0.6605242137191383,-0.23010768248239755,-0.6768066937594608,0.2295587336596621
161.0,-0.004928194789081886,-0.2612470533498758,-0.040439438585607945,-0.06000000000000005,-9.8,-0.20879032258064545,-0.06838942307692308,-0.053694459522332504,0.01926954094292804,321.6897332506203,-0.375,91.24206149193549,0.6605471504230775,-0.22990490353884918,-0.6769430250450533,0.2293074991307384
162.0,-0.0058646091811414384,-0.2610949131513646,-0.04113477047146402,-0.06000000000000005,-9.8,-0.20955645161290354,-0.040252791563275436,0.1482610887096774,-0.06283731389578164,321.7918259537841,-0.375,91.24703881048387,0.6607561210995662,-0.22925712992679909,-0.6771802369193547,0.22862145715756818
163.0,-0.004026597394540941,-0.2619544044665011,-0.03825473014888337,-0.06000000000000005,-9.8,-0.20993951612903256,-0.03969835607940447,0.18765411755583125,-0.004511088709677421,321.88361458979523,-0.37351116625310177,91.24952746975805,0.6609215516217437,-0.22877618101054592,-0.6773560599485109,0.22811918170781642
164.0,-0.0073477278619310405,-0.2637806747898225,-0.0366936039405948,-0.06000000000000005,-9.799999999999999,-0.2150072219547427,-0.20891957705270175,0.021067275286100515,0.0169174289841117,321.9067627124921,-0.36751509203362837,91.25,0.6609098083690237,-0.22865660233272841,-0.6774581863900595,0.22796124325069445
165.0,-0.0074561031970757545,-0.2643357092273798,-0.03135830659470526,-0.06000000000000005,-9.799999999999997,-0.2176649012999521,-0.20674426480276265,-0.20037648717836487,0.021570132643796584,321.87530217736037,-0.37125754601681416,91.25,0.6608029736371026,-0.22885617858083146,-0.6774448254579815,0.2281336374708994
166.0,-0.007179664501763683,-0.2625561920826725,-0.01998188282588861,-0.06000000000000005,-9.799999999999997,-0.220042128069331,-0.2595833606892225,-0.1679456877579169,0.028240091135794072,321.78536355766283,-0.3731287730084071,91.27620967741936,0.6605327715766156,-0.22939033519116026,-0.6773666240193132,0.22861651800964325
167.0,-0.007297028280658516,-0.26396295956490945,-0.006616251586641576,-0.06000000000000005,-9.799999999999999,-0.23320468686344964,-0.2997823751336931,0.019113384408882744,0.03918208030735113,321.7824305381366,-0.37406438650420354,91.36087158808932,0.6600287786270178,-0.22956737566505903,-0.6778556459873238,0.22845017931499545
168.0,-0.004818489326433476,-0.2640335889635961,-0.0029743788950577607,-0.06000000000000005,-9.799999999999999,-0.24224750472204737,-0.18357605109041977,0.1260889502689575,0.021793273404295915,321.81873543035863,-0.37457871930669234,91.43446805210917,0.659720887918968,-0.22950862424071805,-0.6782713421909324,0.2281422783287137
169.0,-0.006837506579442066,-0.26313980844424384,-0.0008408244980825626,-0.06000000000000005,-9.8,-0.24661243796526056,-0.08569450123129559,-0.20893734961275282,0.03245718075607189,321.82349415957026,-0.375,91.47126628411911,0.6595582308564505,-0.2294994580832863,-0.678472281219443,0.2280035577380206
170.0,-0.00902481389578164,-0.2620562189826302,0.001698356079404467,-0.06000000000000005,-9.8,-0.24879008995037222,-0.05665467974565756,-0.14480652915632752,0.0037041524503722105,321.7182445138027,-0.375,91.48966540012407,0.6592726943162993,-0.23006860379482014,-0.678379119485577,0.22851657398875605
171.0,-0.007350828606876996,-0.2615889853873723,-0.0010427030406869114,-0.06000000000000005,-9.8,-0.24984615384615383,-0.020931616546535897,-0.11730513829808184,-0.010987995539406827,321.6382143687965,-0.375,91.49804590570719,0.6590510523421211,-0.23059258696293436,-0.6782215633264581,0.22904223406343033
172.0,-0.006217597926267282,-0.26183915770609306,-0.0016541058627752175,-0.06000000000000005,-9.8,-0.25,-0.022787458397337427,-0.14219010016641065,-0.005703365015360982,321.5968056955645,-0.375,91.5,0.6589515736995963,-0.23085791000504047,-0.6781261190776215,0.22931833964213688
173.0,-0.0075768849206349215,-0.2605263536866358,-0.0048338293650793665,-0.06000000000000005,-9.8,-0.25,0.00043002752176139226,-0.061018905209933444,-0.013698876728110598,321.5692479318676,-0.375,91.5,0.6589045206373203,-0.23100783170618933,-0.6780669902690579,0.2294760756023583
174.0,-0.01001576100870456,-0.26216085829493074,-0.007983950972862265,-0.06000000000000005,-9.8,-0.25,-0.0809341797875064,0.2386437732014849,-0.019135224654377878,321.6104335677484,-0.375,91.5,0.6590231071180555,-0.2307318764428124,-0.6781553607872509,0.2292027354901913
175.0,-0.009580613159242194,-0.2617181899641575,-0.006912282386072709,-0.06000000000000005,-9.8,-0.2553251408090117,-0.12032070052483358,0.2718363975294419,-0.011749751984126984,321.7657730094726,-0.375,91.51638504864312,0.6592011487032774,-0.22991783302355367,-0.6785819491941888,0.2282807071076549
176.0,-0.012356829546768415,-0.2626725994334604,-0.0063057687304890735,-0.06000000000000005,-9.8,-0.2629851510496669,-0.051395402208967184,0.2362456519797912,-0.017977844130411442,321.90607198860727,-0.3552289281997919,91.5404505888377,0.6592939111830645,-0.22916471142332734,-0.6790546036657725,0.22738251102521143
177.0,-0.011417830095964854,-0.26275263036189145,0.0005895551508844953,-0.06000000000000005,-9.8,-0.264153865847414,-0.030186738402870686,0.002179655626992405,0.020229197894471695,321.9429553491423,-0.3540257544224766,91.55248335893498,0.6593057105108873,-0.22896962176005087,-0.6791928687683699,0.22714428865776698
178.0,-0.009922944745883094,-0.26187042680408956,0.004129903023470922,-0.06000000000000005,-9.8,-0.26739951356886815,-0.0844818100616504,0.02485134855082339,0.02607562045261219,321.91419400841653,-0.36451287721123826,91.55849974398362,0.6592160867428992,-0.2291419160361956,-0.6791519323642156,0.22730879722698888
179.0,-0.008203239846059827,-0.26177590720644817,0.008792862098012985,-0.06000000000000005,-9.8,-0.2690223374295952,-0.09039623697206943,0.048829254104520756,0.05180254116908643,321.90118167562724,-0.36975643860561913,91.56150793650794,0.6591733458846507,-0.2292255047975718,-0.6791342852212063,0.22738703947110928
180.0,-0.007865721470690257,-0.2615334452372693,0.011062519614158533,-0.06000000000000005,-9.8,-0.2696673387096771,-0.044246831797235014,0.012930537231802193,0.03378564615232149,321.91975686443936,-0.37237821930280957,91.5625,0.659204970284875,-0.22914384724005582,-0.6791702059772189,0.22730762084410575
181.0,-0.007023391432535555,-0.2625409161670217,0.008702435665560017,-0.06000000000000005,-9.8,-0.2698336693548384,-0.0322853565854021,-0.03200377404799068,0.013120710693226303,321.9250351699928,-0.37430695564516125,91.5625,0.6592161764613762,-0.2291207010211725,-0.6791750907799727,0.22727977410311423
182.0,-0.005092263334133783,-0.2626543755773073,0.008523131604492168,-0.06000000000000005,-9.8,-0.26722084367245635,0.040094236254445345,-0.21130784429756855,0.04733414179202258,321.84742036492815,-0.375,91.54562655086849,0.6591363211100687,-0.22951410976124537,-0.6789743713125975,0.22772071326003251
183.0,-0.0002799866337847611,-0.26163976779377396,0.009634629678334155,-0.06000000000000005,-9.8,-0.26344913151364746,0.05548713628838499,-0.2569476049444832,0.04314806767980545,321.723985400078,-0.375,91.52180521091812,0.6589864773010663,-0.23015366101477527,-0.6786592358022281,0.22843944107958097
184.0,-0.003801027623087978,-0.2623483017156273,0.007316034757241834,-0.06000000000000005,-9.8,-0.26156327543424307,-0.06232619632073326,-0.03923609125872396,0.030614612436932937,321.66575614089925,-0.375,91.50989454094292,0.6589138522859657,-0.23048385703068502,-0.6785119655176013,0.22877827263656458
185.0,0.0003185288523477911,-0.2627662424290935,0.006839599064364934,-0.06000000000000005,-9.8,-0.2606203473945408,-0.02960222407087652,0.0294844517691812,0.02363196802908041,321.640841780127,-0.375,91.50393920595533,0.6588838451752407,-0.23062741496695538,-0.6784224405007357,0.22894670946344364
186.0,-0.004091516010870849,-0.26245492142266336,0.009775158533223052,-0.06000000000000005,-9.8,-0.26611662531017344,-0.07094380194178582,0.0919567159990547,0.03160331491984718,321.69397382970965,-0.375,91.53977202233251,0.6587951525017721,-0.23043268105787942,-0.6786780883096809,0.22861997357927635
187.0,-0.002785212099728228,-0.26189743589743586,0.02309601599117729,-0.06000000000000005,-9.8,-0.2808498759305212,-0.11464373719918074,-0.0803088628441451,0.04526815870061838,321.6649924979814,-0.375,91.63156405086849,0.6582880000920768,-0.23069196494333163,-0.6791003418198533,0.22857264757623882
188.0,-0.0032578017860275914,-0.262424303295271,0.028111569881731177,-0.06000000000000005,-9.799999999999999,-0.29036628693886785,-0.06422703780314666,-0.006613375703597473,0.05133555260823406,321.6129942008596,-0.3500733137829912,91.69041545651928,0.6578242440075434,-0.23120826862955812,-0.6793145071429945,0.22876846848625282
189.0,-0.005812208624708624,-0.2628839386420031,0.0272655321828709,-0.06000000000000005,-9.799999999999997,-0.29066701443717563,-0.07568139815493646,0.06521987966670426,0.023392721609707498,321.630871314925,-0.3302785923753666,91.69344819746786,0.6577397751511438,-0.23121265902687702,-0.6794293764602932,0.22865797489410616
190.0,-0.01107088408902925,-0.26234441969321,0.028851981351981366,-0.06000000000000005,-9.799999999999997,-0.2919290407173469,0.030102122340025572,-0.006635029536995268,-0.006933689210654934,321.72866432332785,-0.32038123167155425,91.70143873893244,0.6578580133006029,-0.23074654536967307,-0.6796719338114118,0.2281040945817847
191.0,-0.00313151364764268,-0.25902549063839375,0.035729754116850906,-0.06000000000000005,-9.799999999999997,-0.2949373637115572,0.02268027671253478,-0.03111136175652305,-0.02216520039100684,321.69725167305813,-0.3154325513196481,91.7202299045041,0.6577496452653582,-0.2309537045096624,-0.6796487885871114,0.22827675310429363
192.0,-0.0032356949742602123,-0.26426653221597846,0.02977121386076611,-0.06000000000000005,-9.799999999999997,-0.28908177025991166,0.2458249722513083,0.1031734865599815,-0.010599747708558493,321.7460967635318,-0.31295821114369504,91.68653295528897,0.6580573080745886,-0.23059631681373638,-0.6795508074034036,0.22803560764192127
193.0,-0.011036844875554556,-0.2625490391489428,0.020833506727584727,-0.06000000000000005,-9.799999999999997,-0.2468016852350023,0.1736494537800508,0.09401732315189223,0.03422665041586563,321.7876638126759,-0.3125,91.4401179515798,0.6595836885527303,-0.22987003442093282,-0.6782324509765081,0.22827253941389036
194.0,-0.019122154253084056,-0.2647122172341804,0.011671137815520266,-0.05271347248576855,-9.799999999999997,-0.22878034925886734,-0.06827076071850773,0.5462018505817537,-0.04496979249662701,322.0868951286943,-0.2883064516129032,91.33368725334725,0.660795930801723,-0.22836193449455008,-0.6780636722634539,0.22675520155344625
195.0,-0.018144730032775586,-0.2631865469959156,0.01051795104175517,-0.04603415559772299,-9.799999999999997,-0.23628603146077443,-0.022086072140590808,0.09979278182144308,-0.038528865719702335,322.35719812829933,-0.2593475073313783,91.38131322965128,0.6610721120983578,-0.2272807951174909,-0.6787161520229966,0.22508996994553293
196.0,-0.02251566902420793,-0.2632232832731288,0.002631898297026168,-0.04269449715370022,-9.799999999999997,-0.24238299618004508,-0.031754179765310066,0.2955586587504087,-0.019188064335901995,322.5803280475319,-0.23900293255131966,91.40462594522643,0.6612775586347115,-0.22633199817213723,-0.6792719010848118,0.22378501675429152
197.0,-0.023013280157775904,-0.26396483169798746,-0.0028277020967269915,-0.041024667931688824,-9.799999999999997,-0.24564985148434126,-0.06271857891841465,0.21409091660036883,0.0035573115533253184,322.7456509768306,-0.21123533724340174,91.41755731541534,0.6615068916243686,-0.22548598310548762,-0.6796791577762518,0.2227545998875555
198.0,-0.024348369846472324,-0.26337559657293996,-0.0013032603070553732,-0.04018975332068313,-9.799999999999997,-0.24851101144270024,-0.09207887700534759,0.2141957406129607,0.010778743315508023,322.89184330257035,-0.1973515395894428,91.431184772296,0.6617001073480528,-0.22467016930438172,-0.6800661254535396,0.22180366868380186
199.0,-0.023417324610873008,-0.2640402285886156,-0.0003861944507105797,-0.04000000000000002,-9.799999999999997,-0.24984848484848485,-0.0858123731107602,0.03981549364613881,0.031152718249492443,322.9432917888563,-0.19116568914956011,91.4375,0.6617457062246033,-0.22441624401443733,-0.6801995791903155,0.22149747841867806
200.0,-0.022866756899014972,-0.2622314459733814,-0.0010690277464471013,-0.04000000000000002,-9.799999999999999,-0.25,-0.05923001729453342,-0.021785942552071582,0.046368617941198585,322.9458027859238,-0.18859970674486803,91.4375,0.6617209881782841,-0.2244850986689979,-0.6801689481142197,0.22157481175780125
201.0,-0.021963681479810523,-0.26169245807955477,-0.0024284532671629447,-0.04000000000000002,-9.799999999999997,-0.25,0.019413583728099856,0.00833662305436499,0.056435164298067525,322.9443853861193,-0.1875,91.4375,0.6617066900984285,-0.2245318613261902,-0.6801465922902481,0.22164283522152026
202.0,-0.024746823069403727,-0.2615620723362658,-0.002923227310324084,-0.04000000000000002,-9.799999999999999,-0.25,0.04617969396195202,0.05061940747424618,0.03773075043236333,322.96426799007446,-0.1875,91.4375,0.6617456481240693,-0.22444419199022508,-0.6801590692916761,0.22153921840747431
203.0,-0.025178885630498547,-0.2626138807429129,-0.0026444093540867733,-0.04000000000000002,-9.799999999999997,-0.25,0.02396044815399654,0.2399052560342883,0.016100834649221744,323.0285660575983,-0.1875,91.4375,0.6618775145263552,-0.22408568095601183,-0.6802673156966688,0.2211702588493873
204.0,-0.026438078050981292,-0.2630563200240618,-0.0027614106323783742,-0.04000000000000002,-9.799999999999999,-0.25,0.016849951124144672,0.07243401759530792,0.025668283329573653,323.17597657718625,-0.1875,91.4375,0.6621579820051133,-0.2232488021231672,-0.6805371730964737,0.22032576613685256
205.0,-0.02628107376494475,-0.2624735694413113,-0.00453455147003534,-0.04000000000000002,-9.799999999999999,-0.25,-0.023336811038423944,0.03917916760658696,0.01685089104443943,323.2502866756899,-0.1875,91.4375,0.6622980792283635,-0.22284008564222874,-0.6806724802579146,0.2199064273289722
206.0,-0.02597125134534861,-0.2626808838729878,-0.0062119584796522685,-0.04207992296581607,-9.799999999999999,-0.25,0.001744870840922839,-0.08717247284892927,-0.004168293991356099,323.2879231885912,-0.21686928261916225,91.43942585459797,0.6623996300450916,-0.22234898433772485,-0.6808200650471083,0.21966176220565126
207.0,-0.01969034031287282,-0.2617920548397197,-0.007574961870099088,-0.04620125180548865,-9.799999999999999,-0.25,0.0047340979514787895,-0.04460980962545719,-0.012319879005603607,323.11201370347675,-0.26670077034183914,91.43846292729899,0.6621095778885504,-0.2229067816204754,-0.680592552062016,0.22064970266361966
208.0,-0.014674104662790273,-0.2617244731676604,-0.006412114366134588,-0.04826191622532494,-9.799999999999999,-0.25241935483870964,-0.07723950038887449,-0.0013952029554460954,0.01810997740824414,323.05052359171884,-0.2916165142031777,91.45461452816562,0.6619147667473058,-0.22309584915334607,-0.6806147638120441,0.22100447184745012
209.0,-0.01310256101625866,-0.26153097107514534,-0.0009839728158216364,-0.04929224843524309,-9.8,-0.2563709677419354,-0.07451460131106255,-0.09946466103107292,0.03922713510610718,322.9970359894078,-0.30407438613384685,91.47831532859894,0.6616600725461093,-0.22337078966848428,-0.6806674082558979,0.22129785657508988
210.0,-0.014151776786044967,-0.26343546072367685,0.0004807183067293795,-0.049807414540202155,-9.8,-0.2583467741935483,-0.05808546442724344,0.13434025012962483,0.00010364199474094046,323.0153139004111,-0.31030332209918154,91.51696473625978,0.6615449101216897,-0.22322250743970118,-0.6808968810485442,0.22108828666967906
211.0,-0.012063740694789086,-0.2638159119106699,-0.0011431451612903243,-0.04999999999999995,-9.8,-0.25814361042183614,-0.030005428039702235,0.04814768145161291,-0.06708087779156328,323.0671177109181,-0.3125,91.50893397177418,0.6617165507980765,-0.2228641167631824,-0.6809558074357942,0.22077618181389588
212.0,-0.017582738833746905,-0.26302209987593034,-0.009543036600496282,-0.04999999999999995,-9.8,-0.24778148263027303,0.16730187655086848,-0.03793763570099255,0.00608425093052109,323.14646208126555,-0.3125,91.43692666330645,0.662268118078939,-0.2222943392612438,-0.6807203516211231,0.22045051006699756
213.0,-0.010347989040529368,-0.2622653418490111,-0.02087603626212498,-0.04999999999999994,-9.799999999999999,-0.23231464771787366,0.19904282335607942,0.14829781903244604,0.02476897052879916,323.22193964889277,-0.3125,91.33796432062562,0.6629810025197358,-0.22168596908802357,-0.6803085472540794,0.220201851631892
214.0,-0.013684804883769736,-0.260031510898025,-0.04440110341031141,-0.04568608570052958,-9.799999999999997,-0.19346594205826284,0.39144377754527604,0.256387837733002,-0.006871944908325503,323.49012479932,-0.27976047183437647,91.11854884302825,0.6647884448595234,-0.22002253967445828,-0.6794415685367652,0.21907896908166125
215.0,-0.011276645618063524,-0.25969317480385123,-0.061294844509125916,-0.044190437391207704,-9.799999999999997,-0.16622676755518612,0.17010154137809708,0.09117468809727024,0.0413376007468298,323.5570351043747,-0.26387217140105923,90.96352380116673,0.6658036102858411,-0.21946899256427627,-0.6786555643775636,0.2190014937095651
216.0,-0.010630878640297272,-0.2599460831195274,-0.07372202403155806,-0.04709521869560383,-9.8,-0.15637641107287853,0.2047332929014875,0.04836640032014717,0.050873715125676164,323.5990820683163,-0.2559280211844006,90.90919676410692,0.6661928500889704,-0.21907054268796539,-0.6784444160099621,0.21890854711076585
217.0,-0.00943189556023325,-0.2595147027178811,-0.08133562035792605,-0.04854760934780189,-9.8,-0.15177187489127808,0.12257699729024665,0.009727131529058249,0.036371155718575784,323.6186249555292,-0.25195594607607125,90.88415987398895,0.6664398071160581,-0.21886140324166414,-0.6782971138416748,0.2188693430589111
218.0,-0.005677520140419815,-0.2591406342139314,-0.08712122588013124,-0.049273804673900926,-9.8,-0.14978867449353747,-0.004111752544723304,0.060423795240676106,0.02541529838554464,323.6288363788591,-0.2499699085219066,90.87359264471687,0.6665543192558723,-0.21875103072512192,-0.6782366479321269,0.21883810902048156
219.0,-0.011307628009390181,-0.25877155338136887,-0.09120066450326937,-0.049771712158808885,-9.8,-0.14976674937965279,-0.011143502656569645,-0.052908530416377435,0.0242055059029778,323.66211357048473,-0.25,90.87360421836227,0.6666562385131922,-0.2184615088801965,-0.6782894552794501,0.21860334511214802
220.0,-0.013593433524959772,-0.2588770918271608,-0.099605295030791,-0.049999999999999954,-9.8,-0.1500000000000002,-0.027868070600410542,-0.03569227182522759,-0.017772143657278677,323.6438669589396,-0.25,90.875,0.6666401753053965,-0.21850859068741008,-0.6782595915520494,0.21867500161728162
221.0,-0.01138048367194919,-0.256020231657597,-0.10073396905545792,-0.049999999999999954,-9.8,-0.14700312174817906,-0.06502014352080882,-0.23279150531948162,-0.005601732598670555,323.53661870319513,-0.25,90.85626951092613,0.666450178310867,-0.21914688663402757,-0.678017005552299,0.21934625708335453
222.0,-0.014316105366650393,-0.26039916840029426,-0.11401689681063967,-0.04999999999999995,-9.8,-0.146535355036916,0.10851324881407959,-0.07952913090086627,-0.011373480520415919,323.4522891263031,-0.2617767537122376,90.85539410006112,0.6663185485256333,-0.21959098463805832,-0.6778353127147054,0.21985421103783703
223.0,-0.0068843879556678735,-0.2598955122805279,-0.10723451926729763,-0.05008064516129027,-9.8,-0.1525418710668451,0.09046431874865798,0.09845595279388203,-0.018031399170837258,323.3863772442727,-0.28310611879160263,90.89090269519184,0.6659754678045935,-0.21994377664213866,-0.6779560069311232,0.22016738666778146
224.0,-0.011145580601615981,-0.2600519720769461,-0.09189990397508607,-0.05160434995112414,-9.799999999999999,-0.17887601862237654,-0.00706500582606201,-0.04707864470481536,-0.036727619775876796,323.49720284737515,-0.29050222850626073,91.04815173860275,0.6652630052157171,-0.21945292599071578,-0.6791287275587569,0.21918100207478572
225.0,-0.011513650515861753,-0.25758057660919265,-0.06344002642923037,-0.054613589367621646,-9.799999999999999,-0.2024727487652827,0.00016761081732466314,0.13012977400822093,-0.010525462079832527,323.6008036569382,-0.30647940209432145,91.18390837550486,0.6646417777410264,-0.2189080688648782,-0.6801853814931915,0.21833491034363767
226.0,-0.007407173695480145,-0.2605391767730477,-0.055814548578661485,-0.05926671648244229,-9.799999999999997,-0.21324107277131488,0.0753659255171352,0.09817285928677057,-0.020544319032222258,323.5358021374907,-0.3427558300794188,91.24411576187029,0.664153842890552,-0.21905626345965187,-0.6805321487157251,0.21859036878579424
227.0,-0.002079773385216932,-0.26090998383337094,-0.039055645631250475,-0.060509288762312985,-9.799999999999999,-0.22559265029325531,0.003474004154447704,0.16606450085532745,0.002390804759756374,323.58143965829197,-0.36052602051846006,91.31198708255789,0.6638037679033877,-0.21873329699840674,-0.6811067879968793,0.2181796726387911
228.0,-0.006692608466802018,-0.26352958869087895,-0.0269446574930446,-0.060413414542446836,-9.799999999999999,-0.23411436950146647,0.08534335288367546,0.06252443792766373,-0.01858786374915407,323.8312629239041,-0.3689285848560042,91.35075475599669,0.6639993837778029,-0.2173402700465824,-0.6818485129097299,0.21666083807090764
229.0,-0.009064779306714794,-0.2632946086171892,-0.020373599518760818,-0.060319121738476617,-9.8,-0.23764613880742932,0.032209188660801566,0.3423112170087977,-0.05783376569666892,324.0206992772013,-0.3732320099255583,91.36577938190841,0.6642424759260473,-0.21628390021635074,-0.6823061311958232,0.2155480383902924
230.0,-0.004338841266260621,-0.2626919693210015,-0.020957271223400263,-0.06020174449206712,-9.8,-0.2390860966990001,-0.020782812617490043,0.14116181197834424,-0.0765130366944883,324.1446936212309,-0.375,91.37150631626437,0.6644417698476393,-0.2155502702074309,-0.6825887268373655,0.2147844138291412
231.0,-0.010586973630606275,-0.2623731435872745,-0.019843140068886343,-0.06004466501240699,-9.799999999999999,-0.2429225584237622,-0.03195628171178845,-0.01738879462797674,-0.07148548896337173,324.11700985900984,-0.375,91.39533072849153,0.6642558103978788,-0.21575173736776182,-0.682664992596985,0.21490364918996052
232.0,-0.010013089792970633,-0.26148681993259504,-0.02104191742898412,-0.06000000000000005,-9.799999999999999,-0.246701974000963,0.006121735074626865,0.07884437439817044,-0.06435626805488685,324.1291624977431,-0.375,91.41760953298026,0.6641990955959612,-0.21564894724715641,-0.6828157125242986,0.21473072655527803
233.0,-0.010070828395244622,-0.2630297778323024,-0.019767236630124817,-0.06000000000000005,-9.799999999999999,-0.24851227732306214,0.0832931100931447,0.2587847802511944,-0.004749086260694049,324.2418157111079,-0.375,91.42856283100625,0.6643460133767645,-0.21504803381491658,-0.6830613162546659,0.21407654047483193
234.0,-0.010724852783230253,-0.26392854431317353,-0.014631563414317993,-0.06000000000000005,-9.8,-0.2494174289841117,0.041032023408855235,0.14904892122051033,0.0036355569006703463,324.37588517410234,-0.375,91.44595014999445,0.6645191724961907,-0.21432378527121448,-0.683348975705885,0.21330217028704385
235.0,-0.009060067219732598,-0.2635517480834042,-0.005804926206436801,-0.05699566682715454,-9.799999999999999,-0.24748194511314398,0.04718340871634384,-0.26315693458112666,-0.027996764008740415,324.3490366097552,-0.33744583533943184,91.43454825747196,0.6645272105335356,-0.21477565751757344,-0.6831477057482316,0.2134854571289953
236.0,-0.014184583441354023,-0.26367765545720523,-0.0016169551590681838,-0.0533365430909966,-9.799999999999999,-0.24880597014925374,-0.06905243382189549,-0.2084922852973038,-0.09006211575497204,324.1703656809007,-0.29170678863745786,91.4363852264731,0.6641516630640718,-0.21619544774289845,-0.6827441044051705,0.2145190900064814
237.0,-0.01242503055442391,-0.263734454279471,-0.003227250842561388,-0.05150698122291762,-9.799999999999999,-0.24940298507462688,-0.02278081135883856,-0.17111692622495464,-0.047622946835302396,324.0186505823858,-0.2688372652864709,91.43694261323654,0.6638540815320362,-0.2172394101617719,-0.6824237096219403,0.21537741597098278
238.0,-0.011368842820636275,-0.2625074256509017,-0.0037773971334395034,-0.050592200288878134,-9.8,-0.24970149253731344,0.03515115759601496,-0.09934568395614977,-0.04301122527869338,323.93924154429465,-0.2574025036109774,91.43722130661828,0.6636994599074575,-0.21777976252505482,-0.6822577418978191,0.21582560126092581
239.0,-0.011991512169021796,-0.2615677965911476,-0.00806668187373532,-0.050604018033002095,-9.799999999999999,-0.24758290658146223,0.02249418170048135,-0.07649205770858095,-0.02751029344241459,323.8838436460476,-0.26976918924439386,91.4277020323602,0.6636508860312529,-0.21804971378091226,-0.6821112553273591,0.21618624266031478
240.0,-0.01143250197383262,-0.262062767877284,-0.010716567035115428,-0.05023460410557179,-9.799999999999997,-0.2437047898338222,-0.0017692971511015874,-0.2251273298274306,-0.015220966449545079,323.8223916330645,-0.2913000977517106,91.4328567937439,0.663606074613575,-0.2182778339112904,-0.6819580428286904,0.21658903296523713
241.0,-0.010958568313407028,-0.2615965110158658,-0.010471614407098285,-0.05011730205278587,-9.799999999999997,-0.24169110459433057,-0.05222291149710505,-0.08905838784871042,0.010439694713888264,323.81500488758553,-0.3029081133919843,91.43517839687195,0.6636320899706742,-0.21822753131964806,-0.681925816392962,0.21663542578690131
242.0,-0.007054966538837508,-0.2615327468230693,-0.013962854349951133,-0.05005865102639291,-9.799999999999997,-0.24068426197458473,-0.11582919768403639,-0.07776430558688623,0.015750244379276638,323.71696274155954,-0.3087121212121212,91.43633919843597,0.6634500046528311,-0.21880052908414171,-0.6817162159210467,0.21727994663042333
243.0,-0.007193097225355291,-0.26222986690728617,-0.01644507105797429,-0.05002932551319642,-9.799999999999997,-0.24025904203323575,-0.11614595082337018,-0.02595730882021204,-0.001814986089179637,323.6943195916986,-0.31161412512218967,91.43691959921799,0.663403762922701,-0.2189230190875254,-0.6816819991286563,0.21742007538754793
244.0,-0.005006617038875105,-0.26198981126400467,-0.02197620121813671,-0.04999999999999995,-9.799999999999997,-0.24197458455522988,-0.07889103504022858,-0.1704352770885029,-0.0062685634258214905,323.60110041168514,-0.3125,91.4375,0.6632103795674111,-0.21939068794552233,-0.6815710873038195,0.21787202462437016
245.0,-0.009055116926084671,-0.2615007707346417,-0.016801883600270705,-0.04999999999999994,-9.799999999999997,-0.2509188660801564,-0.05177139728551018,-0.10935009211218888,-0.0030579131889615758,323.5372620826754,-0.3125,91.47708944281526,0.6628435950940673,-0.2197961868930936,-0.6817233925448716,0.21811765921345588
246.0,-0.006612113692758855,-0.26371470599293173,-0.010338869463869466,-0.04999999999999995,-9.799999999999999,-0.25062072336265884,-0.08164999483043837,0.00011173302503947324,-0.027219328050981276,323.47879721924585,-0.3125,91.48955278592376,0.6626970592381378,-0.22017355589522708,-0.6816250307470203,0.2184904057406477
247.0,-0.008571565531242952,-0.2623089658996916,-0.006879112151289573,-0.04999999999999995,-9.799999999999999,-0.2504716520039101,-0.08815750361869314,-0.10206882331378299,-0.01343906849199188,323.51960952773703,-0.3125,91.49578445747801,0.6627308978250239,-0.22001934705431314,-0.6816976821129643,0.21831937453781758
248.0,-0.008056855778629971,-0.26372839828182565,-0.006079378618693135,-0.04999999999999995,-9.8,-0.2620671291074516,-0.20161221297183998,0.012588323135198136,0.07201312422456574,323.53770253813724,-0.3125,91.55100947439657,0.6624120116105344,-0.21994833823390147,-0.6821355106489326,0.21799286453603417
249.0,-0.008413508534476278,-0.2613526063989774,0.011186621174524406,-0.053870967741935435,-9.8,-0.28113437100533856,-0.13544257321979097,0.3338206232611474,0.09565562965260545,323.6445600644315,-0.328125,91.65000070494023,0.661994217972606,-0.21927455183620476,-0.6830419987493656,0.21711770441771466
250.0,-0.0002062655086848648,-0.2621914547146402,0.02852341811414392,-0.062258064516129,-9.8,-0.29840198511166227,-0.2548241702853598,0.38005486197270466,0.1002471696650124,323.8769904427729,-0.3742439516129032,91.74815834367246,0.6618444824760392,-0.21756528731350808,-0.6842158468893456,0.2155899962533343
251.0,0.0029848014888337457,-0.2611612903225806,0.042595223325062034,-0.06645161290322578,-9.8,-0.3154913151364761,-0.1414973635235732,0.20616082506203473,0.06381436104218362,324.07667881513646,-0.40788810483870963,91.84988562344913,0.6616542312506207,-0.21627118574596765,-0.685261032766749,0.2142081034416874
252.0,0.005263364547638741,-0.2613030840127613,0.04749379898775059,-0.06854838709677417,-9.8,-0.324035980148883,-0.02821968298278782,0.0760962855468904,0.024211180284768992,324.1744281172456,-0.4247101814516129,91.90074926333747,0.661527952972981,-0.2156342562600805,-0.6857800108995032,0.21355570840543137
253.0,0.007672625201859073,-0.2614567529244948,0.05553225929536412,-0.06959677419354837,-9.8,-0.32850806451612874,-0.053486392359880265,-0.06727909047717515,0.01519957277265745,324.1885710685484,-0.4331212197580645,91.92757686491936,0.6613821799641579,-0.21555153240423383,-0.6859673245564513,0.2134656642697131
254.0,0.005023308568671472,-0.2618725296880538,0.0655609885186498,-0.06999999999999998,-9.8,-0.33492439516129013,-0.10326159335735949,0.08379997089044466,0.034975038402457755,324.1513356854839,-0.43683845766129026,91.9679939516129,0.6610241693873209,-0.2158068379737902,-0.686190699133064,0.21357245757336474
255.0,0.004167400252077671,-0.26258193016660747,0.06900529264642168,-0.06999999999999998,-9.8,-0.3378830645161289,0.01622454606325574,0.17891800459844814,-0.014392521121351767,324.23399697580646,-0.4375,91.9866431451613,0.6610394832370069,-0.21535700981854838,-0.6864755691935478,0.21301607267025086
256.0,0.004166826676907321,-0.2654795506912441,0.07079669098822325,-0.06999999999999998,-9.795725806451614,-0.3437802419354839,-0.06145193292370711,0.18769101222478238,0.008025513632872502,324.4063130040322,-0.4102822580645161,92.02104334677419,0.6611796687152776,-0.2144860919254032,-0.6869183798387097,0.21202797657706096
257.0,0.011737515508684866,-0.26390780086848625,0.08317718672456573,-0.069682382133995,-9.793178039702234,-0.34689508374689837,-0.05979761166253101,0.020347879187344917,0.01517088632133995,324.4487520355149,-0.3921293424317618,92.04081013492555,0.6611778654737126,-0.21432074502721768,-0.6870670371972708,0.21178376917245656
258.0,0.0002456008573756543,-0.2643142383615421,0.07256735630161845,-0.06375549053738751,-9.796589019851115,-0.34359119106699754,-0.09254738250435168,0.3672786786253287,0.013671209515388319,324.6850800737125,-0.3502985421836228,92.01457813483759,0.6617489338845827,-0.2132976531972497,-0.687243093109875,0.21044273530360924
259.0,0.0018618245620532577,-0.26104335834783887,0.06528652179548905,-0.05840398503759117,-9.798294509925556,-0.33386107458982994,0.034630538857357146,0.012586447897763059,-0.024410163628198957,324.71739075491416,-0.3313089966575312,91.95095782042793,0.6621898618891047,-0.21329135241071856,-0.6868425852686395,0.2103690467164862
260.0,-0.010206125195254209,-0.26077236109991564,0.04636568736833276,-0.05532153711082595,-9.799147254962776,-0.3162853760045926,-0.06384411594845615,-0.01195292909903118,0.0024970944192971058,324.9006662547697,-0.31467015297772194,91.84644665214944,0.6631289573147789,-0.21223793843318184,-0.6865224249082464,0.20951323129778887
261.0,-0.008506094545517921,-0.2612079857608759,0.030199709378955462,-0.055276153170797565,-9.799707196029775,-0.30457220102959137,-0.00740016164978639,0.21674278948274248,-0.024053629821989164,324.9379402342397,-0.3124195018920868,91.77648281545129,0.6636321196169116,-0.21192662857294184,-0.6861475115715627,0.20946860893894567
262.0,-0.008052054716927694,-0.26144022116827914,0.020727646252753168,-0.052325421498550115,-9.799999999999999,-0.29712232880263667,-0.07925839347998005,0.18712449647834395,-0.019812174712483418,325.05670274739276,-0.31143617774505084,91.73099885189438,0.6641249061558504,-0.21118144162393981,-0.6860815515426051,0.2088840274818799
263.0,-0.009485606296617653,-0.26174030287780325,0.02046938038407636,-0.05103030824566405,-9.799999999999997,-0.3014350646945736,-0.12120582605674933,0.07957107872019793,0.0026060404212929055,325.1336081725467,-0.31196808887252536,91.75867194312669,0.6640817701515742,-0.21076225310928112,-0.6864142722126296,0.2083406176942672
264.0,-0.013556724742682998,-0.26043464568322255,0.03720891000207889,-0.05045737848489266,-9.799139784946234,-0.31822843822843827,-0.10655487973443381,0.05722537464117161,-0.02218702589314544,325.2226825021121,-0.31217386148007586,91.84932701706896,0.6636632879469154,-0.21042347892796454,-0.687136059913525,0.20763488129085345
265.0,-0.008666053894749127,-0.26305809998058427,0.05118722426666575,-0.05287981926595309,-9.798337345530408,-0.33260964520954883,-0.20487011984965764,0.2933661407602188,-0.0283746505460516,325.3323324023914,-0.3125,91.93784357593938,0.6633363010770643,-0.20991903448925908,-0.6878474370611478,0.20683471436997286
266.0,-0.010314509114701702,-0.2605748631083248,0.05892493319551574,-0.0531969186326432,-9.799168672765203,-0.33634352487506064,-0.22975789056073118,0.46557750947495774,-0.010523109132882845,325.62897614342,-0.3125,91.95470425898928,0.6637617064726831,-0.20818107079686815,-0.6884798843317294,0.2051172070213627
267.0,-0.0056039046814203314,-0.26208643899833106,0.06393889339676531,-0.051598459316321565,-9.799584336382601,-0.34355885921172397,-0.1457412281587775,0.40856418898065505,0.0009264106941044839,325.9000960121567,-0.3125,91.98223736522665,0.6640488189460192,-0.20667165752994782,-0.6891405839202074,0.20349076072408073
268.0,-0.011042872710662795,-0.26354994932847603,0.06671920231910601,-0.05079922965816076,-9.7997921681913,-0.3404089130256678,0.05529950209475969,0.229683910416337,-0.01035574720577128,326.16095390125844,-0.3125,91.97560506316826,0.6645667754174416,-0.2051642377567779,-0.6895277432089193,0.20200806266920643
269.0,-0.009773786156068295,-0.26218665975334243,0.055038035628310056,-0.050399614829080355,-9.79992296581608,-0.3169450761082922,0.14315303136920854,0.1834427428613755,-0.006895577941557721,326.27549396318653,-0.3125,91.84288961519944,0.6656231415693494,-0.20421438836131994,-0.6889265809518166,0.20154236942735448
270.0,-0.009581348838931893,-0.2608454501685123,0.035776600866634575,-0.05011555127587862,-9.8,-0.293524906484945,0.1875574052812859,0.04425530535906077,-0.0009360764416132738,326.4238630050739,-0.3125,91.70428548942633,0.6667077622399915,-0.2031534099071887,-0.6883612029235218,0.20094241834058008
271.0,-0.009277915632754343,-0.26077419354838705,0.021354838709677422,-0.04999999999999995,-9.8,-0.27549379652605455,0.0836228287841191,0.06083281637717121,0.018594913151364766,326.4973867866005,-0.3125,91.59466501240695,0.6674559262295287,-0.20257753909057075,-0.6878747505012412,0.2007036224466502
272.0,-0.0043904855375726855,-0.26033002481389567,0.009670086293100257,-0.052156957149735166,-9.799999999999999,-0.2657734157994147,0.09195978852635087,-0.7411598760231102,-0.004369629828524868,326.31721979047074,-0.31972195474241694,91.53926799007445,0.6674816850436559,-0.20339119347432505,-0.6872858764589462,0.2018138036387912
273.0,-0.013641411429206333,-0.2607789155957186,0.0013502092515092065,-0.05107847857486755,-9.799999999999997,-0.2571109218177104,0.08972109829265583,0.11009276855486838,-0.009081087274545388,326.0267599174568,-0.30407438613384685,91.51215880893301,0.6671892660554007,-0.20520018209051982,-0.6865073717924521,0.20358388427093446
274.0,-0.010887703233213586,-0.2606152642494721,0.0006850301840672578,-0.05053923928743375,-9.799999999999997,-0.25283337654160953,0.007546653364690188,-0.5054219780054442,-0.015877392272508426,325.71980055426184,-0.3013393022480649,91.47329404466501,0.6667786146133086,-0.20703855805518556,-0.6858071235786083,0.20540302687740275
275.0,-0.011848987699162233,-0.26023066966067676,-0.004945247324761047,-0.050269619643716845,-9.799999999999999,-0.2510544053923929,0.017708495456223546,-0.24329327857694716,0.014016678238475,325.3996335277513,-0.3069196511240324,91.45310173697271,0.6662763522322126,-0.208843451092109,-0.6851993485213144,0.20720416402182795
276.0,-0.0013208464888773063,-0.2657357527189014,0.00997666763771723,-0.0502912125589063,-9.799999999999997,-0.23738448519864022,0.16325422023544311,0.3171969694297571,0.006898559366060569,325.44461463548487,-0.3043334814759947,91.3729340551921,0.6668453783994489,-0.20849297808187128,-0.6847831940651536,0.20712801306877077
277.0,-0.01248625202480052,-0.2576317847278472,0.020993406631513438,-0.05995197415954774,-9.799999999999997,-0.228811945626959,-0.36637786849552356,0.25640254819830294,-0.03212756959093649,325.7514186422559,-0.35073429915907567,91.33314771950816,0.6676777044570981,-0.2059603851973904,-0.6852308098844466,0.2054849199660001
278.0,-0.003600173790587125,-0.2637278128374573,0.03766810437497674,-0.04905568347446078,-9.799999999999997,-0.26519316588040287,-0.16143368062970406,0.07947432063119714,-0.013940565502936595,325.789029048393,-0.2869268793934663,91.54513173451689,0.6664979779986077,-0.20686327337399332,-0.6862839707993702,0.20490322119586363
279.0,-0.0069057648985047715,-0.2629190808458196,0.060936956872935745,-0.04504966336910893,-9.799999999999997,-0.2718660326555713,-0.18877040913692178,0.030618965891426906,-0.045513013739645204,326.02922113636987,-0.2605567472430767,91.5851507088874,0.6667008461619077,-0.20575927051475906,-0.6868576273791042,0.20343541703947318
280.0,-0.016075393819391846,-0.26222111386949265,0.06538745678049364,-0.04039010682686947,-9.799999999999997,-0.2693580637661158,-0.2799387270527234,0.44199843809766665,-0.01680318468073191,326.5178126554714,-0.23434621043368256,91.57062326715717,0.6676365575401568,-0.20316497178489373,-0.6875377281677306,0.200627321660154
281.0,-0.007612476968346951,-0.2622249264362126,0.057138987432280054,-0.04002887550532135,-9.799999999999997,-0.261375024062921,-0.2682684837609658,0.15633035296867692,-0.023033801529026756,326.52970911365946,-0.24133305145340042,91.53854965899403,0.667924963041828,-0.20293959426243707,-0.6873429032432008,0.20062000326898227
282.0,-0.006517031890800027,-0.26219180388076135,0.05004636714207013,-0.03954459203036055,-9.8,-0.2561480075901328,-0.13995311639223848,0.10395258844953172,-0.022358660555793594,326.52194022770396,-0.24332898481973433,91.52250355787476,0.6680646891366221,-0.2029324956024668,-0.6871982559226759,0.20069584181214434
283.0,-0.010521635365563636,-0.2613647839511437,0.04854446860540841,-0.03979601518026567,-9.8,-0.2482062089775096,0.030830622489481277,0.0609611431220191,0.001981890053704905,326.52821195407034,-0.24706475332068312,91.46810161134786,0.6683711407438482,-0.20277718539366027,-0.6869295485052456,0.20075401891210695
284.0,-0.014518558413482699,-0.2641719706027217,0.03975049549965612,-0.039876660341556,-9.8,-0.23866230451285064,0.04442657973062962,0.14037372236972012,-0.026979315658066678,326.62013652769633,-0.24875474383301707,91.39866228198488,0.6688979356956343,-0.2021173167100752,-0.6867259720658287,0.20032451733909915
285.0,-0.008068102736153113,-0.2602880725878883,0.03572439385988499,-0.04000000000000002,-9.8,-0.2235033533949454,-0.05970677654834742,-0.09134065304663899,-0.027810103749336942,326.49135680749146,-0.25,91.29122808122014,0.669235181045161,-0.20266577778814948,-0.6859666500058743,0.20127175846556478
286.0,-0.012116208626141073,-0.2632488750036215,0.009102116284781206,-0.04459677419354837,-9.8,-0.22292103153618248,0.09850157644356822,0.14392455754926115,-0.11677488554402331,326.5156821839877,-0.2752016129032258,91.29127936319071,0.6692904720649193,-0.20224521358157477,-0.6860709370064653,0.20114106202512108
287.0,-0.0035330079061414795,-0.2593187816286394,-0.01192320273781997,-0.05125474383301709,-9.799999999999999,-0.19175463341515012,0.20973580689106244,-0.5845134358608595,-0.12632467880065829,326.23032686049476,-0.29485887096774194,91.10294518444167,0.6698625897231618,-0.2033167100450568,-0.6845858870611078,0.20316084207517915
288.0,-0.0005264193417539747,-0.2587154458116755,-0.027029819243050656,-0.05594995256166986,-9.8,-0.16939133045691412,0.13078011920438898,-0.3913940791149882,-0.1317933547361303,325.8229238744568,-0.3046875,90.98011484499713,0.6698272106336591,-0.20533444289666905,-0.683234408329602,0.205783295413581
289.0,0.0005306888805657891,-0.2582486764429931,-0.03426867141066693,-0.05829755692599624,-9.8,-0.15839510199241005,0.1280655547048488,-0.1632051536251815,-0.10140501441776537,325.64891248890245,-0.309601814516129,90.92008494425997,0.6698802840738287,-0.2061491269446759,-0.6826088481752562,0.20689774883425366
290.0,-0.0006125659395298008,-0.2609279607501125,-0.04197158206329392,-0.05947135910815944,-9.8,-0.15322728889943094,0.11359967544035364,0.0229241612857443,-0.11581819074166104,325.61487942830917,-0.3120589717741935,90.89237614148482,0.6700373360774647,-0.2061890372807894,-0.6823899126715409,0.2070675351230159
291.0,0.0007649855914230154,-0.26052954457116473,-0.04072605440850308,-0.05991461100569265,-9.8,-0.15043168880455426,0.016042979281236727,-0.00567776630733266,-0.04904777824653457,325.6051967706062,-0.3125,90.87686788425046,0.6701174909690403,-0.20615805466610032,-0.6822882033745807,0.20711310133986965
292.0,0.0011258438995939207,-0.2595166773486829,-0.040023278401504644,-0.06000000000000005,-9.8,-0.1500000000000002,0.037843868861123765,0.018672611229032986,-0.03109372135723614,325.60965780181164,-0.3125,90.875,0.6701385416847103,-0.20610247557308808,-0.6822854124581628,0.20707269434640535
293.0,0.0020398775695341766,-0.25883457021646394,-0.03764008162031056,-0.06000000000000005,-9.8,-0.1500000000000002,0.015531634223101446,0.02632238339184229,-0.050139617868546066,325.62015478668053,-0.3125,90.875,0.6701589299169194,-0.20602845469823095,-0.6823032137356912,0.20700207000503756
294.0,0.003423684882581863,-0.26033559936421524,-0.040526596481331126,-0.06000000000000005,-9.8,-0.1500000000000002,0.0536652708056194,0.0735312489279711,-0.05518167157735316,325.7256926378772,-0.3125,90.875,0.670319111009448,-0.20552608946670134,-0.682461231789802,0.20649741735943877
295.0,0.003407952262790971,-0.2612248316199928,-0.029746849029107097,-0.06000000000000005,-9.8,-0.1500000000000002,0.0764859412540864,-0.19067374158099964,-0.04688213891842924,325.6687073511166,-0.3125,90.875,0.6702152951612121,-0.2058807307189826,-0.6823587258089325,0.2068338766185652
296.0,0.0022342057583993064,-0.26060729548229544,-0.015757429398558433,-0.06000000000000005,-9.8,-0.15897270471464023,-0.1606049556402379,-0.05577889292607035,-0.073244872287211,325.58233754652605,-0.3125,90.92363523573201,0.6697776727990079,-0.20645624671681134,-0.6824919093635233,0.2072340912769851
297.0,0.003593945033461161,-0.26079845759079634,-0.007170713023535605,-0.06148582600195508,-9.799999999999999,-0.16246289194676292,-0.033980967788931504,-0.11687550520715843,-0.008002422644559744,325.5455065054233,-0.34378054740957964,90.9418396120009,0.6696219809058576,-0.20644260004951026,-0.6825976546182231,0.20743340209499306
298.0,0.012228809496954662,-0.2635570602112942,-0.011147579235280848,-0.06199413489736074,-9.799999999999997,-0.17562538536732086,0.08377132150443642,0.18795107362395666,0.027449461660651174,325.5720567717732,-0.3603983382209188,91.01252537784796,0.6692424792799084,-0.20628876713619204,-0.6831087386238723,0.20714357793410465
299.0,0.013026392961876836,-0.26262425746296714,-0.014404240920369954,-0.060997067448680393,-9.799999999999997,-0.16281269268366055,0.1118533348372058,0.03250056395217684,0.05291469283404768,325.6861812918264,-0.36870723362658847,90.94376268892398,0.669879282702609,-0.2054081516013233,-0.6829276369361603,0.20656531458906696
300.0,0.024255983785112338,-0.26258697040401424,-0.01720460184976314,-0.060190396988663755,-9.799999999999997,-0.15347904735290388,0.24306302347948955,0.36172915312900866,0.009791528484354675,325.81420930818496,-0.37093582673144543,90.88819694388422,0.6704687571651262,-0.20457191513583445,-0.6827923335452625,0.20594882323838742
301.0,0.011178722523931959,-0.25964473968229385,-0.016942251297090007,-0.08274752824343584,-9.799999999999995,-0.1395594850770585,-0.14417189327817637,-0.13174053785512624,0.004654518033189194,326.0683949766731,-0.4913594904266546,90.81377037709788,0.6713772945544405,-0.2014395060710879,-0.6832223865187024,0.20459183820232033
302.0,0.019499004680725802,-0.2625753555183963,-0.011316019184181876,-0.07394537787495861,-9.799999999999997,-0.1701873246712165,-0.08432018417574509,-0.011664554702564188,0.07110010316636721,325.9060185655179,-0.42993773535315477,90.99826909245476,0.6699886466374778,-0.20343767311958916,-0.6838106949852001,0.20521094379749233
303.0,0.018996601664601077,-0.2622371443748639,-0.016324846261732664,-0.06872881966976713,-9.799999999999997,-0.18364842454394675,-0.09906991613479336,0.1678476761104035,0.07948386729995865,325.9388996999038,-0.40246886767657736,91.07129616061813,0.6695986801342639,-0.2037035641387396,-0.6842160812676226,0.2049021701411279
304.0,0.016396263085101503,-0.26359372069483844,-0.018891049343363518,-0.06436440983488359,-9.799999999999997,-0.19263066388487649,-0.03759421064277829,0.09360501709121949,0.012643561591929843,326.06943434126697,-0.38873443383828865,91.11488806075872,0.6695464355937126,-0.20318184524344327,-0.684709542714494,0.20395641338036163
305.0,0.0074074369218128,-0.2613649290945924,-0.013580422032385573,-0.0621918341904317,-9.799999999999997,-0.19987210817855988,-0.03691399885956337,0.10758410277388186,0.04743038732344483,326.1829318341196,-0.38192739987533114,91.15689636547806,0.6694871976420588,-0.2027136971827144,-0.6851081981698113,0.20325693661635635
306.0,0.009729045258292018,-0.2618725077688859,-0.016319385589247816,-0.06038803179055637,-9.799999999999997,-0.20103846817319293,0.011388793053878443,0.24995531171795507,0.0213992807374129,326.338575143815,-0.37479546517064044,91.1636559889798,0.6697489517116051,-0.20195171964119368,-0.6853414738706427,0.20238044532549315
307.0,0.008181068168692952,-0.26217918813579233,-0.02120869615218267,-0.06011220196353441,-9.799999999999997,-0.19966369411464685,0.030957104249324362,-0.03400965766900921,-0.02422401767030923,326.51518120317104,-0.375,91.14155482095937,0.6701689213545485,-0.2008787172765024,-0.6855432604985836,0.20135360682866937
308.0,0.005042550744638031,-0.26027485480995916,-0.02394830659536543,-0.060000000000000046,-9.799999999999997,-0.1895606923121153,0.044040380081651426,0.02131490426082456,-0.03306487551032143,326.51629794146396,-0.375,91.06848369846472,0.6705610880662412,-0.20069556721235116,-0.6852139978463001,0.20139542815019246
309.0,0.005035938128917256,-0.2613886493013627,-0.03149272612270715,-0.060000000000000046,-9.799999999999997,-0.18445776551089632,0.0010493933643838764,-0.00424968374446553,-0.0005714162497843719,326.5131892933126,-0.375,91.03182860387557,0.6707518989989074,-0.20062524971076978,-0.6850407018239324,0.20144150684146955
310.0,0.005267235926628717,-0.26038396296935185,-0.04181674429302513,-0.06000000000000005,-9.799999999999997,-0.18182321315623007,0.005442829624518428,-0.024012060836064632,-0.004073586912770972,326.5100617776436,-0.375,91.0128901083894,0.6708480800957392,-0.20059693721608862,-0.6849493553376753,0.20147192944224002
311.0,0.0014139784946236558,-0.2609504474020603,-0.03823018648018649,-0.06000000000000005,-9.799999999999999,-0.17868569065343248,0.012476149522520491,-0.11410996597488532,-0.021813787690803818,326.5052236070381,-0.375,91.0039100684262,0.6708981081263251,-0.2006164550258667,-0.6848774125878638,0.20153078966448582
312.0,0.0025747988570569203,-0.26249819535303404,-0.03395019362358073,-0.056029776674938,-9.799999999999999,-0.17761786600496263,-0.11414386185051507,0.05059267849086396,-0.15727809656741107,326.5019851116625,-0.34770471464019853,91.01240694789081,0.6708562739255584,-0.20095745024317624,-0.6847788023176177,0.20159430693300226
313.0,-0.002192561470787278,-0.2608639093881029,-0.016957059293752852,-0.045562251368703004,-9.8,-0.19052424278230717,-0.1362529985135832,0.05822790141086511,-0.15995334330767796,326.6136397652527,-0.27891508133443615,91.08864074993107,0.67062033994281,-0.2011685294841073,-0.6851601672750403,0.20086615176911252
314.0,-0.015414462553575458,-0.2652388950655079,0.000822545621940781,-0.03886128208708855,-9.799999999999999,-0.2166208701692572,-0.29866779935454335,0.43719679528021266,-0.13567987302236295,326.74254813287075,-0.23018334711883098,91.25106524300074,0.6699169477426663,-0.2013093658955238,-0.6860869871125932,0.1998957398092874
315.0,-0.02152988946537334,-0.26397940410843634,0.013617422004518783,-0.03394677007580235,-9.799999999999999,-0.23960075766527372,-0.13260220961833866,0.10556504427472171,-0.040465896111057414,327.03665868182,-0.2058174800110284,91.38359713762941,0.6696327420102908,-0.20022203036215414,-0.6872482587051802,0.19795636637858915
316.0,-0.024808933002481395,-0.26517114426791843,0.016430938237389857,-0.03148951407015925,-9.799999999999997,-0.2491170191815352,0.011574581332645842,0.21659277102825486,-0.04307301121817251,327.1554261151035,-0.1882582023711056,91.44057667243152,0.6695044038560367,-0.19983475823378777,-0.687724138213557,0.1971684920734964
317.0,-0.024919138209460796,-0.263831859896376,0.006725690080528793,-0.03038495554624589,-9.799999999999999,-0.24040962621607792,0.062264259038452584,0.023672877301909548,-0.002081475871798454,327.22242828855735,-0.18263568868407576,91.4016722524787,0.6698844014063361,-0.19944937067894836,-0.6875855306030172,0.19679227685722156
318.0,-0.024287526093977718,-0.26402550496098875,0.0003111297304845711,-0.030097751710654957,-9.799999999999999,-0.2356451612903228,0.11926577007222168,0.025381305522434547,-0.029730574085412798,327.24479069317783,-0.18461981566820276,91.35955028394544,0.6701474370011714,-0.19923658548540357,-0.6874486814561427,0.196635395371775
319.0,-0.023212640406188804,-0.2632905177260015,-0.0019419988613536992,-0.030000000000000027,-9.8,-0.23264907135874902,0.03608811663247147,-0.006995507852362695,-0.012643080485822421,327.2536881129623,-0.18605990783410137,91.33460468742726,0.670297249336363,-0.19912908986391398,-0.6873572525902416,0.1965759025783605
320.0,-0.02380234997976935,-0.2628735467041917,-0.0042166569989150636,-0.030000000000000027,-9.8,-0.23084066471163273,-0.009282244413292805,-0.01830854797084636,-0.018588909969958357,327.25096006144395,-0.18677995391705068,91.32052815016525,0.6703700464299684,-0.19911152185751535,-0.6872897299799845,0.1965915989144903
321.0,-0.02396129229193747,-0.2635139972035132,-0.004811163299066525,-0.030000000000000027,-9.8,-0.23000000000000032,-0.035310721424632714,0.017070677138721492,-0.01965002683248651,327.250480030722,-0.1873079877112135,91.31378008192524,0.6704060034715827,-0.19909783629288286,-0.6872592664464929,0.19659373988735251
322.0,-0.024137406947890835,-0.2619542493796525,-0.0061555521091811415,-0.030000000000000027,-9.8,-0.23015880893300278,-0.023273689516129032,0.051278012562034736,0.008569517679900746,327.27133995037224,-0.1875,91.31498138957815,0.6703946507196035,-0.19906469286352368,-0.6872592520000003,0.19657775999999977
323.0,-0.019239143920595544,-0.26067338709677407,-0.023150744416873443,-0.030000000000000027,-9.8,-0.2190421836228288,0.09933312655086848,-0.06960685483870968,0.004765043424317618,327.27605459057077,-0.1875,91.24872828784119,0.6708051439404465,-0.19897067043176186,-0.6868325216774194,0.19672848559801487
324.0,-0.023202957760823678,-0.26113940455909035,-0.04302528147105661,-0.02845931632161774,-9.799999999999999,-0.20033235806081257,0.18977109644087253,0.16618403600792564,-0.020261778498944484,327.3756897892671,-0.15813071738083773,91.13521212177326,0.6716580302465833,-0.19825458791689204,-0.686305538859894,0.19634775224532425
325.0,-0.027723066969741868,-0.25862429285026467,-0.05350271517721564,-0.02406836783822823,-9.799999999999999,-0.179434169104848,0.1463433645976075,0.15910008252009186,0.0021364804775749046,327.47413521721415,-0.14055729417428983,91.03030767378986,0.6725049955302392,-0.19754398254405406,-0.6857832948443385,0.19596357236087544
326.0,-0.029502189032280517,-0.2611991362833923,-0.0678096725934954,-0.021872893596533473,-9.799999999999997,-0.16858805229435952,0.09360408088140394,0.19049918745994818,-0.010315442862385569,327.56734620098246,-0.13177058257101587,90.97785544979816,0.6730236081854516,-0.1969094229631317,-0.6855959929842419,0.19549946993410328
327.0,-0.029139093613816783,-0.25934090207657845,-0.08406920955789515,-0.020775156475686098,-9.799999999999997,-0.15096061762022286,0.23265436016398944,0.05147139612113132,-0.02480863503371929,327.633812678655,-0.1273772267693789,90.87481670151385,0.673737792452753,-0.19640651794175099,-0.6850989163278985,0.19532329950761862
328.0,-0.028706023233707405,-0.2583280192765026,-0.098813761106491,-0.02022628791526241,-9.799999999999997,-0.13921231873566972,0.19019504608695748,0.12844971791168228,0.00398836238388477,327.66078040880643,-0.12518054886856042,90.8053674078289,0.6741855940799744,-0.19617654367062742,-0.684722676680078,0.19532524607142723
329.0,-0.028448304383788273,-0.25683479960899314,-0.10591112113692759,-0.02000000000000001,-9.799999999999999,-0.13374915407173468,0.08280885780885781,0.051995450785773376,-0.027571621926460635,327.70100101511395,-0.125,90.7731549364614,0.6744323889769157,-0.19589975485931269,-0.6845874912640051,0.19515921324144672
330.0,-0.030052109181141456,-0.25808594631175275,-0.11506158357771261,-0.02000000000000001,-9.799999999999997,-0.13137829912023458,-0.0036769681930972214,0.15365018046469658,-0.010247950973757424,327.7539401458756,-0.125,90.7585532746823,0.6745775842759609,-0.19561673258229945,-0.6846082815536508,0.19490265493292722
331.0,-0.028817881043687512,-0.25771140687269717,-0.11889548086322282,-0.02000000000000001,-9.799999999999999,-0.1302052785923753,0.08390292503195729,0.08623063764192797,0.011619764643958192,327.7858776975712,-0.125,90.75125244379277,0.6747024135483872,-0.19544864138423942,-0.6845670892570122,0.19477685487397536
332.0,-0.02786690728626214,-0.25779998496127526,-0.11887344913151368,-0.02000000000000001,-9.799999999999997,-0.12882697947214072,0.08844461989623278,0.033202684412361835,0.03573107000526355,327.80120497781786,-0.125,90.7441348973607,0.6747875440762463,-0.1953599118529213,-0.6845157810483498,0.19473113456064356
333.0,-0.033894879314234155,-0.257925558312655,-0.10002782164072486,-0.02000000000000001,-9.799999999999997,-0.1366080156402737,-0.03346586209489436,-0.16980036092939316,0.005623543123543122,327.7504192044514,-0.125,90.79252199413489,0.6744669785204904,-0.19568533950191755,-0.6846940475495906,0.1949143641266261
334.0,-0.032215429731558776,-0.2601464019851116,-0.08124964283028799,-0.02000000000000001,-9.799999999999997,-0.15863403263403253,-0.12765104519136777,-0.09364707872772388,-0.018574704865027443,327.65371456500486,-0.125,90.92907737423866,0.6734927957341907,-0.19645688376584716,-0.6853433982264083,0.19523827381269268
335.0,-0.03191574775635497,-0.26008541995638773,-0.07235287040600134,-0.023187855787476293,-9.799999999999997,-0.17437394231322118,-0.06294054617109646,-0.04614251182087993,-0.020320358010111332,327.5559017595308,-0.1439753320683112,91.02407379148366,0.6727860222249531,-0.19692219825144752,-0.6858075022658405,0.19556870466337595
336.0,-0.01951700131790194,-0.2586957969009004,-0.06064134391008558,-0.03230167945849502,-9.799999999999997,-0.18831600341467497,0.01686636259461176,-0.17609845860663637,-0.02511587509038584,327.4636905282969,-0.19900379506641366,91.10128821976686,0.6721392452038435,-0.19705955736927025,-0.6862780845401644,0.1960016328025964
337.0,-0.015471513136669331,-0.2599134208470921,-0.056118498417005856,-0.04064799342943724,-9.799999999999997,-0.19896695461401342,-0.0036375377527774963,-0.04974726995652963,-0.00446107710013513,327.4246227783799,-0.23932637571157495,91.15827521217773,0.6716852587563977,-0.1969488606777638,-0.6867201567440919,0.19611119679748004
338.0,-0.008022336863340574,-0.2597573771777515,-0.05531439576311986,-0.04580786768246052,-9.799999999999997,-0.195765629595418,0.04434657376524181,-0.06055186953860096,-0.02401129751185686,327.33729360786197,-0.27893738140417457,91.14819139323815,0.6716008362104234,-0.19707950829047277,-0.6866270312108949,0.19659205925921053
339.0,-0.007807694486260857,-0.25992335360128266,-0.05671923262101401,-0.048387804808972174,-9.799999999999997,-0.19305899345775862,0.025150954376417428,-0.07714318042686871,-0.035129097887442076,327.259326084328,-0.29874288425047435,91.13771232192926,0.6715394102491321,-0.1972946239690577,-0.6865225152952734,0.19701135526732244
340.0,-0.009415390570138654,-0.2594924685894976,-0.06124587932010966,-0.04957815287886935,-9.799999999999997,-0.19155795972698175,0.02480926549825414,0.1567835863146549,0.011124410144313,327.2931680519392,-0.30805265654648956,91.13163782605001,0.671632915931305,-0.1970032870847244,-0.6865731984492724,0.19679362407815826
341.0,-0.008552738061262801,-0.2592337347576946,-0.06465579029521648,-0.049938330170777936,-9.799999999999997,-0.19061768954091018,0.01974278689156624,0.15760297978004512,0.004524743496659297,327.45004755509814,-0.3112843927893738,91.127671946246,0.6718975642854554,-0.19618030581887047,-0.6867847217748753,0.1959917519096765
342.0,-0.010595410046541485,-0.2598384773627912,-0.063620954554994,-0.04999999999999995,-9.799999999999999,-0.19003370245546458,-0.01610519756282876,0.22352123883178288,-0.003478350409019644,327.627522956501,-0.28421215880893297,91.12512036591238,0.6721943490417572,-0.19520448785655992,-0.6870425407728553,0.1949951181548089
343.0,-0.009100684261974584,-0.2592226483194225,-0.06384013835626737,-0.04999999999999994,-9.799999999999999,-0.19484848484848472,-0.07344913151364764,0.029476840363937135,0.04978381833220542,327.7014878938266,-0.27636194450710583,91.15432551319648,0.672193295897135,-0.19475930138476594,-0.6873153818407394,0.19445627388044193
344.0,-0.012833220542897962,-0.2612763365666591,-0.061550342130987264,-0.04999999999999995,-9.799999999999999,-0.20203218287089258,0.01837779156327543,-0.13813068651778326,0.05888694638694639,327.6865845176329,-0.29443097225355286,91.17192082111437,0.6720288475043984,-0.19489303527550955,-0.6874171411461762,0.1945090124588315
345.0,-0.012421986615534997,-0.26208211143695004,-0.04853342356568162,-0.04999999999999995,-9.799999999999999,-0.20816497481013624,-0.12121776073388976,0.14963907060681253,0.060815662831791864,327.72653207008045,-0.28808087074216104,91.19808820212046,0.6719259917656966,-0.19472754930370703,-0.6876464086029024,0.19424761314008582
346.0,-0.009421911421911419,-0.2605025941800134,-0.039614106323783746,-0.04999999999999995,-9.8,-0.21472516730581265,-0.11101210617339649,0.03179844349199189,0.06966031280547409,327.7317523873976,-0.28440954207083236,91.25831829460861,0.6716703033915328,-0.19476202535408663,-0.6879289804478528,0.1941257092573877
347.0,-0.010065794420633132,-0.2612761109857883,-0.03968546507256185,-0.04999999999999995,-9.8,-0.2178464546206484,0.004869257086999021,0.009850834649221752,0.0111794119858636,327.71091341454246,-0.29784993232573875,91.28843334085269,0.671516122787578,-0.19488237276141063,-0.6880372035142492,0.19418719122670886
348.0,-0.010312655086848636,-0.2616129032258063,-0.03961786600496278,-0.04999999999999995,-9.8,-0.2192555831265511,0.021308933002481392,0.003070719602977668,0.01640818858560794,327.6980459057072,-0.3058622828784119,91.29264888337468,0.6714484202282878,-0.1949230869330026,-0.6880730638610416,0.19420375241687365
349.0,-0.012796526054590574,-0.2632543424317617,-0.043369727047146395,-0.04999999999999995,-9.8,-0.21981141439205978,-0.03642990074441688,0.060290012406947896,0.01119727047146402,327.70284584367243,-0.3016206575682382,91.28241315136475,0.6714572934416874,-0.1948809533027295,-0.688088521344913,0.19415010091687357
350.0,-0.011527295285359802,-0.26230831265508675,-0.044645161290322574,-0.04999999999999995,-9.8,-0.2200099255583129,-0.0655629652605459,0.02765586228287841,0.0045905707196029774,327.7268804280397,-0.27528303349875927,91.29892990074441,0.671509512889578,-0.19472872946029765,-0.6881358547208439,0.19399387500558313
351.0,-0.012091191066997523,-0.2618067617866004,-0.04491563275434242,-0.04999999999999995,-9.8,-0.22000000000000022,0.023375465260545902,0.028499147022332506,-0.00538151364764268,327.77097743486354,-0.26212973014888336,91.30571495037219,0.6715418018666253,-0.19461909882444156,-0.6881850914696026,0.19385462860452846
352.0,-0.01304931761786601,-0.260629187344913,-0.04317617866004962,-0.04999999999999995,-9.8,-0.22000000000000022,0.0068024968982630255,0.03143319633995037,-0.00698666253101737,327.7936617943548,-0.25510332661290325,91.3091074751861,0.671558612712469,-0.194561617923387,-0.6882105882955949,0.1937817643245966
353.0,-0.01409785980148884,-0.261783256123429,-0.044829744657007925,-0.04999999999999995,-9.8,-0.22000000000000022,-0.007011582736332348,0.0194982158758905,0.019532062955254944,327.80509702620964,-0.25154359879032256,91.3111139112903,0.671566866703629,-0.1945334378326612,-0.6882237758971768,0.19374580167842725
354.0,-0.012290945389735713,-0.2605677273320678,-0.03991807253331708,-0.04999999999999995,-9.8,-0.21860727086533563,0.02607360171299102,-0.03904326477390831,0.0029835974018466212,327.8074431763632,-0.25,91.29816308243727,0.6716058235227855,-0.19450144724398363,-0.6881964805357936,0.19372443391249028
355.0,-0.009338077021544766,-0.2637020424294747,-0.027989150193949888,-0.04999999999999995,-9.8,-0.22446492575524862,-0.05448102028405748,-0.04270486611391268,-0.02154967595345457,327.74644777265746,-0.25,91.31147593445979,0.67132930641065,-0.1947983097593446,-0.6883164274961593,0.19390509984126983
356.0,-0.0032583685355862795,-0.2616698797755314,-0.0336757165361809,-0.05249999999999998,-9.8,-0.2147324628776242,0.12780756678104815,-0.16542036109665859,0.011604194281337233,327.687740015361,-0.2711693548387097,91.25956861239119,0.6715711435279055,-0.19482553842805939,-0.6879564510867894,0.19431051524321558
357.0,-0.0012410394265232987,-0.26289063145202574,-0.036569401086830856,-0.05124999999999996,-9.8,-0.20704365079365072,0.16998907284904943,-0.10577515670680342,0.005959607221313778,327.5565716205837,-0.2928427419354839,91.21537378392216,0.6716709900281613,-0.19530233308499728,-0.6874918962704809,0.19508911842805954
358.0,0.0013136421058816618,-0.26215999135420065,-0.035729515541453684,-0.05062499999999996,-9.8,-0.20319924475166395,-0.022575969452208883,-0.0609337030356828,0.0027769646109810048,327.49098742319507,-0.303679435483871,91.19942076292882,0.6717149134011771,-0.1955407304134662,-0.6872636187804014,0.1954784200204815
359.0,0.0017154488051169701,-0.26028122455574854,-0.04237448639335868,-0.05128024193548383,-9.8,-0.20156250000000003,-0.039889815243257534,-0.13383346698123105,0.0015964956183425248,327.46635584677415,-0.3106098790322581,91.19088421658986,0.6717101544937274,-0.1956634904768304,-0.6871800765343379,0.19567667340501804
360.0,0.0007244777209247067,-0.26154177025967734,-0.039732164225471336,-0.05064012096774188,-9.8,-0.20545866935483886,-0.0024001539881654613,-0.05924879658880765,-0.005925874842370744,327.3833795362903,-0.31256300403225806,91.21924203149001,0.67137182009475,-0.196216308205645,-0.6872460706971972,0.19609025335980138
361.0,0.0004882869275386465,-0.2624963555599461,-0.03848091346194203,-0.05024193548387092,-9.8,-0.20780241935483895,-0.007634738812439103,-0.008238279582806284,-0.009288342247094229,327.3427419354839,-0.3128780241935484,91.23525105606758,0.6711835058235841,-0.19649653445564502,-0.6873081548974894,0.19627853276861018
362.0,-8.355750909294003e-05,-0.2623132059417753,-0.04086104044832893,-0.05012096774193543,-9.8,-0.20906250000000032,-0.02527474267810895,0.010697808493287077,-0.0006119130590309853,327.3256048387097,-0.3126890120967742,91.2438256048387,0.6710900071898251,-0.19662217319556435,-0.6873480897042487,0.19635467573914364
363.0,-0.0001765860707392969,-0.2614605070109101,-0.04378420895860413,-0.05006048387096769,-9.8,-0.20969254032258094,-0.02462712228967269,-0.023589078931820866,0.03705591003978101,327.31703629032256,-0.3125945060483871,91.24792086693549,0.6710434453691055,-0.19668499256552405,-0.6873679321101884,0.19639274722441036
364.0,-0.00043859545472448697,-0.2605135196344872,-0.0409470439954311,-0.04999999999999995,-9.8,-0.2100000000000003,-0.05076177183032021,-0.0034780072078459184,0.015503761471503407,327.3125,-0.3125,91.25,0.6710012739950365,-0.19675470290322591,-0.6873582245707188,0.1964500683349873
365.0,0.00224968490291071,-0.2605272312812635,-0.04180106542203317,-0.04999999999999995,-9.8,-0.20769727047146402,-0.004025426858088148,-0.0431471921895309,0.047686744259324905,327.2991004962779,-0.3125,91.23263027295286,0.6710746370471459,-0.19683873543424335,-0.6872096114987587,0.19660189131637706
366.0,0.00015198018827051075,-0.2602098521997715,-0.04852470065776517,-0.04999999999999995,-9.8,-0.20368734491315127,-0.01305342003426681,-0.023109694405057307,0.019483093071802748,327.2735421836228,-0.3125,91.2090570719603,0.6711735812655083,-0.19696653433002503,-0.687010250749379,0.19682153001302727
367.0,-0.003059090551026035,-0.26127932126117603,-0.05211517290952773,-0.04999999999999995,-9.8,-0.20168238213399486,0.07115726175706015,0.06764122134585844,0.016167957826223954,327.28193238213396,-0.3125,91.19727047146401,0.6712914695843666,-0.19690639482630273,-0.686904664245657,0.1968334000871587
368.0,-0.0028979528535980153,-0.2617584522332505,-0.044503566997518604,-0.04999999999999995,-9.8,-0.20067990074441666,0.03908285514888337,0.03221250775434244,-0.0006445797146401987,327.297216191067,-0.3125,91.19137717121588,0.6713765007599249,-0.19681135241315129,-0.6868577771228281,0.19675664117261177
369.0,-0.002220909466877209,-0.2599483701782088,-0.03867972215956088,-0.04999999999999994,-9.799999999999999,-0.20017866004962756,-0.0031791629069854895,0.07899859716896007,0.016390007002406195,327.3048580955335,-0.3125,91.18843052109182,0.6713957685226802,-0.19674210575875078,-0.6868816937972403,0.196691512626109
370.0,-0.005078196668922476,-0.25869378806677185,-0.030009836265884667,-0.04999999999999995,-9.799999999999999,-0.20119106699751854,-0.02063424646589969,0.015476345730882024,-0.020340976647680274,327.30909778225805,-0.3125,91.19345533498759,0.6713554096484372,-0.19673373439054165,-0.6869384969730619,0.1966598537894812
371.0,-0.004890990394014586,-0.26085557889690947,-0.02317497086247087,-0.04999999999999995,-9.799999999999999,-0.20893300248138968,-0.11121129584461237,0.1397796004398827,-0.013998952576321527,327.3515091888958,-0.3125,91.24159429280397,0.671140401556229,-0.19651944026723123,-0.6873090759083675,0.19628138749027402
372.0,-0.0048087473682231745,-0.2607076048951048,-0.009742494736446356,-0.04999999999999995,-9.8,-0.22773200992555834,-0.22972771096511013,0.05052769181423415,0.018105934304270994,327.3968672456576,-0.3125,91.336135235732,0.6706173580941426,-0.1963827282317467,-0.688001973386721,0.19578601053092334
373.0,-0.003925558312655087,-0.26047492292653573,0.0008116399729302939,-0.04999999999999994,-9.799999999999999,-0.244833746898263,-0.16774428528460786,0.046359218738250996,0.052299984961275275,327.3908517557711,-0.3125,91.42310794044664,0.670003965816377,-0.19663400044529666,-0.6885560486826079,0.19570537112873124
374.0,-0.004876306489209715,-0.26098142717497547,0.0025266561395593653,-0.04999999999999995,-9.799999999999999,-0.2533846153846153,0.003228626212497171,-0.028914768027671255,0.027615798180314306,327.38393394240165,-0.3125,91.46659429280396,0.6696870371799379,-0.19677029987562983,-0.6888249424400332,0.19567682650033813
375.0,0.0007802090382735545,-0.2597363711557259,0.007652906233551398,-0.04999999999999995,-9.799999999999999,-0.257622828784119,-0.03801037672005414,0.03397623881494849,0.034511993382961126,327.3804750357169,-0.3125,91.48815136476426,0.6695305381185046,-0.19687294519587945,-0.6889411609197682,0.19569729045116174
376.0,-0.0026635085344762764,-0.2619324761260244,0.0076283931122640815,-0.050547409579667586,-9.799999999999999,-0.25646875704940214,-0.05005451537709602,0.09986183171667042,0.0491493721332431,327.39070136852393,-0.3125,91.49214226633582,0.6695742943561169,-0.19680993513482214,-0.6889402704257459,0.19565709222798705
377.0,-0.006813143845401912,-0.26151214377020815,0.004975486878712685,-0.05027370478983377,-9.799999999999999,-0.2584750733137829,0.019048424693585978,0.01820014662756598,0.038672080607564475,327.50938604406343,-0.3125,91.49731182795699,0.6697761486296718,-0.19617477605376338,-0.689083379113617,0.19504673742912998
378.0,-0.0055810211294082274,-0.26321272276110974,0.002487705842544552,-0.05013685239491686,-9.799999999999999,-0.2592375366568914,0.031024889089405216,0.026805586886232045,0.00012594931949770627,327.5711030904579,-0.3125,91.4986559139785,0.6699117958037448,-0.1958215871739228,-0.68914892396541,0.19471024783682972
379.0,-0.0034360263392521464,-0.2635502347115249,0.0003749726975533429,-0.050068426197458396,-9.8,-0.25961876832844566,0.05224045667594055,0.030842186487347774,-0.002047191160094386,327.60208380329345,-0.3125,91.49932795698925,0.6699877174180016,-0.19563595665147754,-0.6891819052085111,0.19453293569260832
