time,linaccel_x,linaccel_y,linaccel_z,gravity_x,gravity_y,gravity_z,gyro_x,gyro_y,gyro_z,euler_x,euler_y,euler_z,quaternion_w,quaternion_y,quaternion_x,quaternion_z
0.0,0.00015873015873015868,-0.23619047619047634,-0.03793650793650793,-0.1600000000000001,-9.79,-0.4699999999999996,0.11904761904761904,-0.003968253968253968,-0.012896825396825396,27.8125,-0.9375,92.75,0.6693725599999996,0.18652344000000015,-0.6997070299999996,-0.1660766599999999
1.0,-0.0006997781191329577,-0.23496671786994378,-0.03554872845195426,-0.1600000000000001,-9.79,-0.46999999999999953,0.04505888376856119,-0.020811998634579276,0.008469875405359276,27.812499999999996,-0.9375,92.75,0.6693725599999996,0.18652344000000015,-0.6997070299999995,-0.1660766599999999
2.0,-0.0010255284909662789,-0.23584741423451114,-0.03664106502816181,-0.1600000000000001,-9.79,-0.46999999999999953,0.019310950186526222,-0.016855935922756197,0.004763733450369395,27.8125,-0.9375,92.75,0.6693725599999996,0.18652344000000015,-0.6997070299999995,-0.1660766599999999
3.0,-0.0008172043010752689,-0.2356917562724016,-0.035638846219491385,-0.1600000000000001,-9.79,-0.46999999999999953,-0.004215736473800989,-0.014215309779825908,0.0038103771974739714,27.8125,-0.9375,92.75,0.6693725599999996,0.18652344000000015,-0.6997070299999996,-0.16607665999999993
4.0,2.0811654526534833e-05,-0.23525147415886247,-0.036391325173843386,-0.1600000000000001,-9.790000000000001,-0.46999999999999953,-0.009844242934773631,-0.014682746147366334,0.01693218043374131,27.8125,-0.9375,92.75,0.6693725599999996,0.18652344000000015,-0.6997070299999996,-0.1660766599999999
5.0,0.0007451728523528735,-0.23637637712039394,-0.03691814082552897,-0.1600000000000001,-9.790000000000001,-0.46999999999999953,-0.014010703136613645,-0.011373631138199296,0.01635459508118197,27.8125,-0.9375,92.75,0.6693725599999996,0.18652344000000015,-0.6997070299999996,-0.1660766599999999
6.0,0.0008004228399649836,-0.2366407346844393,-0.037321242753084585,-0.1600000000000001,-9.79,-0.46999999999999953,-0.02710470244289183,0.012193812662074886,0.0022360140726425844,27.8125,-0.9375,92.75,0.6693725599999996,0.18652344000000015,-0.6997070299999996,-0.1660766599999999
7.0,-7.085872850701153e-05,-0.23567315792081678,-0.04124126653783262,-0.1600000000000001,-9.79,-0.46999999999999953,-0.024305039393488923,0.011441248368927869,0.016959020861206084,27.8125,-0.9375,92.75,0.6693725599999996,0.18652344000000015,-0.6997070299999996,-0.1660766599999999
8.0,-0.0006805906545760865,-0.23479510430603057,-0.044309829377467254,-0.1600000000000001,-9.79,-0.46999999999999953,0.007192718398493635,-0.01098444493996003,0.017648097220157574,27.8125,-0.9375,92.75,0.6693725599999996,0.18652344000000015,-0.6997070299999996,-0.1660766599999999
9.0,-0.000837173579109063,-0.2344969278033796,-0.04373399897593446,-0.1600000000000001,-9.79,-0.4724193548387096,-0.028417818740399385,0.002816180235535074,0.018433179723502304,27.8125,-0.9375,92.75,0.6693415501612905,0.18652344000000015,-0.6997232745161286,-0.1660766599999999
10.0,0.00036482334869431644,-0.23293458781362025,-0.0486821556579621,-0.1600000000000001,-9.79,-0.47637096774193566,0.01928123399897593,-0.025681643625192013,0.013008832565284179,27.8125,-0.9375,92.75,0.6692940512096777,0.18652344000000015,-0.699746656774193,-0.1660766599999999
11.0,0.0004078242545984481,-0.23270708279176036,-0.05263754480286736,-0.1600000000000001,-9.79,-0.47834677419354865,0.07924728721099689,-0.06450148194099806,0.01114692878805782,27.8125,-0.9375,92.75,0.6692703017338715,0.18652344000000015,-0.6997583479032252,-0.1660766599999999
12.0,0.0006162954429083463,-0.23469112853991897,-0.06077042469179564,-0.16238213399503726,-9.79,-0.4739351736972709,0.060803337567450474,-0.09295665691835046,-0.03015829936192839,27.78173076923077,-0.9375,92.73411910669975,0.669434351879343,0.18627820724565758,-0.6997268755918113,-0.16586680852605448
13.0,-0.00031653225806451617,-0.2348622053349877,-0.07244998449131512,-0.16635235732009923,-9.79,-0.4668062965260551,0.07114027605459057,-0.03687771401985112,-0.026455877791563272,27.732599255583125,-0.9375,92.70980148883373,0.6696869707783815,0.18589678749379637,-0.6996854534410675,-0.16553070716625298
14.0,0.0024374999999999996,-0.23389531637717131,-0.08069323821339949,-0.16833746898263025,-9.79,-0.46050496277915653,0.04665884770471464,0.02062364299007444,0.006618331265508686,27.73121898263027,-0.9375,92.68100961538461,0.6699599500918116,0.18576514745657557,-0.6994609463374688,-0.16551918108312655
15.0,0.0014317617866004963,-0.23390756823821351,-0.09221433002481388,-0.16710669975186104,-9.79,-0.45476861042183603,0.08779854218362282,0.00024426178660049563,0.00616082506203474,27.75250465260546,-0.9375,92.65098867866004,0.6701271843535983,0.18580552568858538,-0.6992553824913146,-0.16566076592121587
16.0,0.002058312655086849,-0.23421433002481404,-0.09673743796526055,-0.16355334987593056,-9.79,-0.45190043424317583,0.04621006513647642,0.019585530397022332,-0.013436336848635235,27.782502326302726,-0.9375,92.63597821029776,0.6701928681445414,0.18588096284429256,-0.6991336978585599,-0.16580570908964026
17.0,0.004351736972704715,-0.23335034119106715,-0.08387492245657566,-0.1617022332506204,-9.79,-0.45643160669975136,-0.07928330490074441,-0.05680152760545906,0.04252190601736973,27.775633917493792,-0.9375,92.66519754187344,0.6699982436330643,0.185977234077233,-0.6992993837506203,-0.16581058738601123
18.0,0.00203962703962704,-0.23370596238438998,-0.07485145499661627,-0.1606898263027296,-9.789999999999997,-0.46337709367245616,-0.08980909043913075,-0.058987312250921124,0.029427612038499133,27.763825023263024,-0.9375,92.70860683545285,0.6697080413326608,0.18607707655474537,-0.6995671951011168,-0.16576839417687664
19.0,0.0029242800210542153,-0.23426663658921743,-0.07365215429731556,-0.16018362282878418,-9.79,-0.46693300248138914,-0.0735074065719227,0.0288311151214377,-0.007256184675539512,27.757196029776672,-0.9375,92.73083126550867,0.6695583870322576,0.18612515186104192,-0.6997074535384618,-0.16574240617866012
20.0,0.0023931122640800063,-0.23355710955710973,-0.0756867433641627,-0.1600000000000001,-9.789999999999997,-0.46878908188585566,-0.0006776825325212413,-0.007237386269644333,0.006542785171817431,27.75319478908189,-0.9375,92.7424317617866,0.6694826303573196,0.1861458708188583,-0.6997804838014892,-0.16572480755831273
21.0,0.0032658094593578466,-0.2331142191142193,-0.08542161064741709,-0.1600000000000001,-9.789999999999997,-0.46971712158808887,-0.0004784194300323334,0.016350853447627642,0.028221106850139108,27.750589330024816,-0.9375,92.74823200992554,0.6694453124367239,0.18615450379652576,-0.6998175896426804,-0.16571369103722094
22.0,0.002858109632303181,-0.23307895330475997,-0.087783893525829,-0.1600000000000001,-9.789999999999996,-0.46999999999999953,0.0322655838784871,0.0005404541694864276,-0.0005902699451086554,27.75,-0.9375,92.75,0.6694335899999992,0.18615722999999973,-0.6998291000000003,-0.1657104500000001
23.0,0.00299796977216332,-0.23272471614407117,-0.08927317843446875,-0.1600000000000001,-9.789999999999996,-0.46999999999999953,0.06604725919242048,0.10825531994886833,0.013634483795774118,27.816471163245353,-0.9375,92.75,0.6693491078103612,0.1864937275953079,-0.699742231339199,-0.16606699608015651
24.0,0.003902044032039217,-0.23090026407551698,-0.0835952203790432,-0.1600000000000001,-9.789999999999996,-0.4683052479537792,0.06568422550006564,-0.06328465808785982,0.012780215491457667,27.859788301892298,-0.9375,92.73940779971112,0.6693847674896775,0.18664237855692206,-0.6996173419719584,-0.16629730919318364
25.0,-0.0014678075896178942,-0.23263769130885176,-0.08428714200259696,-0.1600000000000001,-9.789999999999996,-0.47485315358690416,0.11157372959250667,-0.047324776411199136,-0.0035599130447469384,27.829930260719863,-0.9375,92.7755175734232,0.6692629540746415,0.18638193604543246,-0.6998680367009524,-0.1659864815802221
26.0,-0.0034587327293153004,-0.23354269707182573,-0.083069768459754,-0.1600000000000001,-9.789999999999996,-0.47758786711603296,0.17211140047562773,0.0006228024102362048,-0.0235602595526765,27.80951547249092,-0.9375,92.78719671437533,0.6691988770813092,0.18632685895624515,-0.6999655080963221,-0.16590621750076595
27.0,-0.002849389416553596,-0.23195357523234283,-0.08738959163128635,-0.1600000000000001,-9.789999999999996,-0.4789552238805973,0.1053607512291913,-0.00997532498796341,-0.021478476386396463,27.812015800761586,-0.9375,92.76859835718767,0.6692532296696871,0.1863680522200582,-0.6998973040481613,-0.16599734536328614
28.0,-0.003272202039655098,-0.23195430472272086,-0.09299587108446036,-0.1600000000000001,-9.789999999999996,-0.47963890226287953,0.1254595789381538,-0.11439320990356137,-0.008249624312455319,27.811188741045505,-0.9375,92.75929917859384,0.6692830460323024,0.18637813330211134,-0.699865916669731,-0.16603176722954138
29.0,-0.0020212719394231194,-0.2308351205847597,-0.08876803664959657,-0.1600000000000001,-9.789999999999996,-0.48003370245546495,0.03188602442333785,-0.04106757269371617,-0.0047717789352358445,27.810460162530454,-0.9375,92.75498059555593,0.6692955198144183,0.18638378627551416,-0.699852768450417,-0.16604735191038933
30.0,-0.001999533126158066,-0.23191177543368224,-0.08594921287988211,-0.1600000000000001,-9.789999999999996,-0.4800000000000004,0.04423720838622139,-0.017089679899622123,0.024307987190148962,27.81170576735093,-0.9375,92.75152737047898,0.6693061205571853,0.18639707426197488,-0.6998364087341158,-0.1660684562561094
31.0,-0.005105550914305178,-0.23477468579580757,-0.0920637092492402,-0.15573632538569432,-9.789999999999996,-0.4849368863955122,0.09328477147603816,0.5820740505682729,-0.014304711619766777,27.953687470780736,-0.910852033660589,92.79628330995791,0.6688777977746616,0.1869464910472185,-0.6999058010378683,-0.16680531510986435
32.0,-0.0025928057205819852,-0.23414970619661762,-0.061069890252930165,-0.15130595071128045,-9.78918894009216,-0.5036297335203368,-0.0659711021222189,-0.11692689933241207,0.051228120839129615,28.226872537233685,-0.8831621919455019,92.92890202364255,0.6677396239011554,0.1884398420443466,-0.7002490747032654,-0.16814659625539302
33.0,-0.0009225777606594415,-0.236648542849418,-0.04816480451438899,-0.15049168503305965,-9.78959447004608,-0.5124600280504908,-0.0755056653554173,-0.09187362148363593,0.028996363600255086,28.21323465571362,-0.8780730314566219,93.00074133440192,0.6673915022731577,0.1884601724737863,-0.7006061221903418,-0.1679621829664062
34.0,-0.0011554719240553738,-0.23880318185788044,-0.03687671515020745,-0.15008455219394928,-9.789797235023038,-0.5168751753155679,-0.04073006528301058,-0.05170434404305372,0.0003392294942084588,28.206415714953586,-0.8755284512121819,93.03666098978161,0.6672174414591588,0.18847033768850613,-0.7007846459338799,-0.16786997632191278
35.0,-0.001082762150732258,-0.23959103958011257,-0.03327389396937869,-0.1498809857743941,-9.789898617511517,-0.5190827489481065,-0.026623376187703916,-0.03268430534318835,-0.0006551653115467971,28.203006244573565,-0.874256161089962,93.05462081747145,0.6671304110521594,0.18847542029586606,-0.700873907805649,-0.16782387299966606
36.0,-0.0013633323825909282,-0.239914662451976,-0.03260983151016855,-0.14991244239631357,-9.789949308755759,-0.520032258064516,-0.02458223148220741,-0.037801002961089625,0.0025048875855327468,28.196889400921663,-0.8744527649769585,93.06215437788018,0.6671004496682016,0.18846092656682045,-0.7009161418341003,-0.16777805086635944
37.0,0.00016801397928022902,-0.2385226383310159,-0.032351136265435745,-0.15030813673567664,-9.789999999999997,-0.5128358208955222,0.10242641125525093,-0.19343064454402922,0.023029646488962812,28.124428261916226,-0.8754814636494944,93.01242778045258,0.6674866415503123,0.18793265485315358,-0.7007805651275871,-0.16741993379393355
38.0,-0.008303665179238225,-0.2380070666391657,-0.03277937293007106,-0.1501540683678384,-9.789999999999996,-0.518287943173334,-0.07656284896294525,0.2602060464480918,0.052079474231642914,28.236843046339132,-0.8752407318247473,93.02343864478449,0.6671689630145201,0.1885452664705226,-0.7007788174095153,-0.16802882280860787
39.0,-0.009767555576309843,-0.2389143536820162,-0.03206646667407381,-0.15007703418391932,-9.79,-0.5243052619092479,-0.04709223732454353,0.18138765928690775,-0.007264223708300661,28.37346184575021,-0.8751203659123736,93.04296932239224,0.6667635882814535,0.18942545629977747,-0.7007272659628219,-0.16879027511398148
40.0,-0.008043105220472245,-0.2375490623267309,-0.0322820389368295,-0.15003851709195976,-9.79,-0.5273139212772049,0.004410947742676197,0.047728291330058084,0.010759947699199546,28.441771245455747,-0.8750601829561868,93.05273466119613,0.6665609009149203,0.1898655512144049,-0.700701490239475,-0.16917100126666829
41.0,-0.007247359061849026,-0.23773979170927123,-0.03274399713590855,-0.15001925854597997,-9.79,-0.5288182509611833,0.005958575608310804,0.02743114318363947,0.02516905573545585,28.475925945308518,-0.8750300914780933,93.05761733059806,0.6664595572316536,0.19008559867171865,-0.7006886023778018,-0.1693613643430117
42.0,-0.006956611644549934,-0.23859546157442382,-0.03262861869313483,-0.1500000000000002,-9.79,-0.5297942964001874,0.03176178660049628,0.0019272350487287392,0.011847286654439529,28.49497428705002,-0.875,93.06162342215988,0.666397248466573,0.19021071224871444,-0.7006867573492279,-0.16946606701262296
43.0,-0.007595777878035944,-0.2382426498232951,-0.033606586961425676,-0.1500000000000002,-9.789999999999997,-0.5300000000000005,0.05608128430709075,0.08564236502744567,0.02371418903676968,28.54105571847507,-0.875,93.0625,0.6663240848484846,0.19050193827957007,-0.700625838054741,-0.16976573740957962
44.0,-0.005395903827355441,-0.2395270321076774,-0.03210602300924883,-0.1500000000000002,-9.79,-0.5300000000000005,0.024791572674637188,0.049792336359876684,0.020472168960072187,28.585043988269796,-0.875,93.0625,0.6662584540371455,0.19078378688172062,-0.7005602108015645,-0.1700712108015639
45.0,-0.005905147943454396,-0.23796823069403727,-0.03206169636814799,-0.1500000000000002,-9.79,-0.5300000000000005,0.0034627838559290157,0.029773649569516506,0.00726617132867133,28.607038123167154,-0.875,93.0625,0.666225638631476,0.19092471118279591,-0.7005273971749761,-0.17022394749755598
46.0,-0.006821060324084518,-0.23742828408151,-0.0328050417324611,-0.1500000000000002,-9.79,-0.5300000000000005,0.05373201227535905,0.0103117627500188,0.002516460354161967,28.618035190615835,-0.875,93.0625,0.6662092309286411,0.19099517333333355,-0.700510990361682,-0.17030031584555205
47.0,-0.00814591322655839,-0.23557906139559381,-0.030394456350101524,-0.1500000000000002,-9.79,-0.5300000000000005,0.01829745775058275,0.004195069883073915,-0.006302253693886759,28.623533724340174,-0.875,93.0625,0.6662010270772238,0.19103040440860236,-0.7005027869550349,-0.1703385000195501
48.0,-0.007509305210918117,-0.23766493486352372,-0.0374291253101737,-0.1500000000000002,-9.79,-0.5300000000000005,0.02638075759925558,-0.0212435057382134,0.008163868641439205,28.625,-0.875,93.0625,0.66619873,0.1910400400000002,-0.7005004900000007,-0.17034911999999974
49.0,-0.0074895316377171246,-0.23938438275434257,-0.03999480459057071,-0.1500000000000002,-9.79,-0.5300000000000005,0.04203047456575682,-0.0053451651674937956,0.005861798232009925,28.625,-0.875,93.0625,0.66619873,0.1910400400000002,-0.7005004900000007,-0.17034911999999974
50.0,-0.0068672456575682396,-0.2372501550868487,-0.03585173697270472,-0.1500000000000002,-9.79,-0.5314516129032258,0.008666446960297766,-0.05268203318858561,-0.00555889423076923,28.590221774193544,-0.875,93.07610887096774,0.6661898695161295,0.19085102814516142,-0.7006156675806455,-0.1700956267741935
51.0,-0.005931161132774037,-0.23801930338926316,-0.03221339458033007,-0.1500000000000002,-9.79,-0.5358870967741932,0.019601892982689356,0.0024723966949269337,-0.0283655769353854,28.543094758064512,-0.875,93.1015625,0.6660997913709682,0.19063051471774206,-0.7008415936290324,-0.16974984177419356
52.0,-0.0018312679703808752,-0.23918986322816982,-0.026631050848792793,-0.1500000000000002,-9.79,-0.538104838709677,-0.005323771490606165,0.00998800846331088,-0.002681802404584663,28.51953125,-0.875,93.11428931451613,0.6660547522983875,0.19052025800403238,-0.7009545566532258,-0.1695769492741936
53.0,-0.00047098498174850983,-0.2383511951216492,-0.025256852567596598,-0.1500000000000002,-9.79,-0.5392137096774188,-0.014161825711684256,0.004589277584733164,0.002449221266290074,28.507749495967744,-0.875,93.12065272177419,0.6660322327620971,0.19046512964717754,-0.7010110381653225,-0.16949050302419358
54.0,-0.0009234965231323194,-0.23851279514146984,-0.0247705633805725,-0.1500000000000002,-9.79,-0.5397681451612897,0.010670473232867551,0.01724234544559239,-0.006902909528145285,28.50185861895161,-0.875,93.12383442540323,0.666020972993952,0.19043756546875013,-0.7010392789213709,-0.1694472798991936
55.0,-0.0018355961878334407,-0.2381056439225015,-0.024735952133194603,-0.1500000000000002,-9.79,-0.5399999999999994,-0.033697511479444366,0.012740686371669724,-0.013424343028921593,28.5,-0.875,93.125,0.6660156200000005,0.19042969000000015,-0.7010497999999998,-0.16943359000000005
56.0,-9.85456617610622e-05,-0.23948292948813255,-0.02722460689097007,-0.1500000000000002,-9.79,-0.5399999999999994,-0.030177608786317166,-0.007838566184364829,0.004840567860859223,28.5,-0.875,93.125,0.6660156200000005,0.19042969000000015,-0.7010497999999998,-0.16943359000000005
57.0,-0.00024384528351749967,-0.23818232495912006,-0.027770009538675006,-0.1500000000000002,-9.79,-0.5399999999999994,-0.030993822314305537,0.008609518751135557,-0.020973213253390154,28.5,-0.875,93.125,0.6660156200000005,0.19042969000000015,-0.7010497999999998,-0.16943359000000005
58.0,-0.004064740143369176,-0.23913018433179734,-0.027007248463901706,-0.1500000000000002,-9.79,-0.5399999999999994,-0.0376849118343574,-0.029968918010752684,-0.035194252432155654,28.499487967229904,-0.875,93.125,0.666016120071685,0.19042418953917065,-0.7010513002150536,-0.16942808978494625
59.0,0.003545128706419029,-0.23700460829493097,-0.02405111018014245,-0.1545356793743892,-9.786324535679364,-0.539061583577712,-0.03457675836708095,-0.11125366568914956,-0.0637771726481404,28.349695107759622,-0.875,93.14894916911047,0.6661834077875536,0.18959022461807007,-0.7013273878005867,-0.16853016892473133
60.0,0.0018186473025182703,-0.2361648745519715,-0.02415817157752643,-0.15742913000977526,-9.783000977517094,-0.5395307917888557,-0.08006039659265465,-0.07977237815947494,-0.010575222268770654,28.263557231299167,-0.875,93.16923264907135,0.666225526797003,0.18912789795419624,-0.7015351177712612,-0.16800531688172066
61.0,0.0018540241120886276,-0.23677931387608825,-0.02385839966485129,-0.15887585532746834,-9.781339198435958,-0.5397653958944275,-0.07088017269468883,-0.026365323744356007,-0.0071357294139552194,28.22048829306894,-0.875,93.1793743890518,0.6662465863017277,0.18889673462225934,-0.7016389827565985,-0.16774289086021532
62.0,0.0006939189842415645,-0.2374060419866873,-0.023466125272576896,-0.15959921798631482,-9.78050830889539,-0.5398826979472133,-0.013091825289405935,-0.008123630401856208,-0.003344096539661056,28.198953823953822,-0.875,93.18444525904204,0.66625711605409,0.1887811529562909,-0.7016909152492672,-0.16761167784946263
63.0,0.000469847356944131,-0.23941766119185487,-0.022506665377633135,-0.1599608993157381,-9.780092864125107,-0.5399413489736063,-0.0008790884294916541,-0.015396694479355771,0.02390989666695312,28.18820259042033,-0.875,93.18698069403715,0.6662623653030311,0.18872353401270758,-0.7017168346138811,-0.16754624322580675
64.0,0.0010142679900744418,-0.23796317302768932,-0.026315668202764993,-0.1600000000000001,-9.779999999999985,-0.5399999999999994,0.013929722271456143,-0.017607926907322068,0.010428282794714248,28.1875,-0.875,93.1875,0.6662597700000008,0.18872069999999985,-0.7017211900000004,-0.1675415000000003
65.0,0.00153939205955335,-0.2367531017369729,-0.031108560794044685,-0.1600000000000001,-9.779999999999985,-0.5399999999999994,0.07050345068238213,-0.010533304900744417,0.0005878760856079411,28.1875,-0.8759925558312655,93.1875,0.6662607392109189,0.18871973078908175,-0.7017211900000004,-0.16754053078908215
66.0,0.004336717046394467,-0.23481961049702998,-0.017360854199563885,-0.1600000000000001,-9.779999999999985,-0.5486803519061579,-0.05174825174825174,-0.019850176705015415,-0.004546394465749304,28.184567448680355,-0.9077543424317618,93.23588709677418,0.6659948718488611,0.18874980859102186,-0.7019985041739987,-0.16742025879630051
67.0,0.0006117753214527405,-0.23798947289269884,-0.01151199338296113,-0.1600000000000001,-9.779999999999985,-0.5667839687194526,-0.1482573877735168,0.01238720956462892,-0.03158320174449206,28.15377565982405,-0.9236352357320099,93.32215298142717,0.665482958226483,0.18870184338641988,-0.7025695981720437,-0.1670885384401836
68.0,0.0007680927642410541,-0.2368154467904108,-0.0040965396343345326,-0.1600000000000001,-9.779999999999985,-0.576425205351541,-0.05069206191016495,-0.07767481675762851,-0.06086169086891283,28.104195846281787,-0.931575682382134,93.36700752104579,0.6652319179890238,0.18849593141396093,-0.7029616283469756,-0.16667698759755933
69.0,0.0005888738127544091,-0.2379173857758356,-0.002192491187195088,-0.1600000000000001,-9.779999999999985,-0.5788577639660926,-0.006718690553548519,0.02266063658697265,-0.056241996648833434,28.049073729592507,-0.9355459057071961,93.3740279540713,0.6652103085106409,0.18819879312633514,-0.7031604646573594,-0.16629019347619906
70.0,-0.00028523073780656853,-0.23903065318568456,0.004325440247443136,-0.1600000000000001,-9.779999999999985,-0.59336827592244,-0.12844957762507112,0.05588489006580003,-0.03044072161188194,28.04839439167797,-0.9375,93.46258215885382,0.66471214789221,0.1882917669194349,-0.7036379058819539,-0.16612450803278322
71.0,-0.0011152448899199024,-0.24064435885090685,0.00739243664376067,-0.1600000000000001,-9.779999999999985,-0.6025419092222168,-0.03508256007353262,0.023009038385783696,-0.051724515253643806,28.05352270903547,-0.9375,93.5170773697495,0.6643916818346676,0.18837930093039185,-0.703930964453684,-0.16604922669234456
72.0,-0.0002741424840606354,-0.23952305919084937,0.0080192877255949,-0.1600000000000001,-9.779999999999985,-0.610765089508469,-0.07825425657635576,0.02497592681752528,-0.01761445704031164,28.057003290001603,-0.9375,93.5678006594593,0.6640958014891813,0.18844938121299654,-0.7041880765865686,-0.16599477809690547
73.0,-0.00030791788856304953,-0.23803030303030315,0.00318670576735093,-0.1600000000000001,-9.779999999999985,-0.6159530791788853,-0.027645405669599218,0.03564882697947214,0.016037390029325513,28.05981182795699,-0.9375,93.59995112414467,0.6639061813391983,0.1884972667644184,-0.7043471929912025,-0.1659685498729228
74.0,-0.0054789833822091885,-0.23950146627565988,0.014516129032258069,-0.15624633431085058,-9.779999999999985,-0.6214369501466275,-0.09604105571847507,-0.054954789833822085,-0.007300830889540567,27.98445136852395,-0.9120845552297165,93.63361436950146,0.6638143308993156,0.18793780669110466,-0.7047020694037147,-0.16553342901759532
75.0,-0.007238514173998045,-0.2407991202346042,0.02339687194525905,-0.15296187683284473,-9.779999999999985,-0.627480449657869,-0.034594941348973604,-0.01072214076246334,-0.016174853372434017,27.926869501466275,-0.8925342130987293,93.67100439882697,0.6636814464711633,0.18752775720430112,-0.7050293949486807,-0.16519333608015635
76.0,-0.007382697947214076,-0.24133553274682318,0.026375855327468244,-0.15131964809384185,-9.779999999999985,-0.6187402248289342,0.014639846041055716,-0.009729349951124143,-0.014502382697947213,27.89791055718475,-0.8827590420332356,93.61675219941348,0.6639571287194532,0.1872510339247312,-0.7048745905388567,-0.16510536965298137
77.0,-0.007408357771260997,-0.2423051075268818,0.03999144672531769,-0.15049853372434036,-9.779999999999985,-0.6266623900293257,-0.11717604472140761,0.008301258553274682,0.0031043804985337233,27.883431085043988,-0.8778714565004888,93.6664528347996,0.6637510852101662,0.1872133082160313,-0.7050994738666911,-0.16498785400293253
78.0,-0.007385927244798212,-0.24235571440208542,0.045826612903225795,-0.15008797653958966,-9.779999999999985,-0.6336537756598243,-0.029783997084904333,-0.005195423416189544,0.030004920314900155,27.876191348973606,-0.8754276637341154,93.71024254643206,0.6635651909921795,0.18721391088220923,-0.7052876431454667,-0.16490420207966766
79.0,-0.0077049731182795705,-0.2426378488223247,0.04635032642089093,-0.1500000000000002,-9.779999999999985,-0.6370614919354842,0.013260348662314389,0.010369663658474141,0.00936209917434716,27.875,-0.875,93.73160282258064,0.6634720499193543,0.18723263318548392,-0.7053731213356853,-0.16487574060483876
80.0,-0.007152217741935485,-0.24308851766513062,0.045195532514080886,-0.1500000000000002,-9.779999999999985,-0.6338156041986689,0.04831759232590886,0.007689992159498208,0.006610923099078341,27.875,-0.875,93.70981142793138,0.6634601772782254,0.18721632673835137,-0.705381303058916,-0.1648968113306452
81.0,-0.006898521505376345,-0.24233326932923716,0.03655289938556068,-0.1500000000000002,-9.779999999999985,-0.6272329429083463,0.14653487823220687,-0.06923393097158217,0.016854578693036353,27.875,-0.875,93.66892581125191,0.6636686414799344,0.1871813722775057,-0.7051787698382292,-0.16496978335029444
82.0,-0.008252688172043013,-0.24256784434203799,0.02549923195084486,-0.1500000000000002,-9.779999999999985,-0.6182283666154633,0.0999023937532002,-0.07334869431643626,0.018681195596518176,27.875,-0.875,93.61328725038402,0.66399977703533,0.1870932236866358,-0.704872922242703,-0.1650380949513569
83.0,-0.009418202764976964,-0.24133000512032782,0.020381464413722482,-0.1500000000000002,-9.779999999999985,-0.6136303123399895,0.10741087429595494,-0.04664298515104967,0.013548867127496159,27.875,-0.875,93.58486943164363,0.664167975130568,0.1870485341013823,-0.7047175988632867,-0.16507303521761396
84.0,-0.010062403993855613,-0.2423931131592423,0.020090885816692276,-0.1500000000000002,-9.779999999999985,-0.6113312852022526,-0.010602678571428568,-0.0019841269841269875,-0.0031141993087557603,27.875,-0.875,93.57066052227341,0.6642520741781871,0.18702618930875556,-0.7046399371735784,-0.1650905053507425
85.0,-0.010084965437788022,-0.24090201957540675,0.018155293631100092,-0.1500000000000002,-9.779999999999985,-0.610729843633069,-0.004132033680924809,0.0013933199417070384,-0.003093936473472764,27.875,-0.875,93.56702952065856,0.6642810230171331,0.18701884655236503,-0.7046141446634364,-0.16509583263815042
86.0,-0.007918826804915517,-0.24050605331048885,0.019594799913348306,-0.1500000000000002,-9.779999999999985,-0.6145533498759302,-0.0018900055757414633,0.04834770963803222,0.0005571664278821538,27.875,-0.875,93.5904544044665,0.6641750647382136,0.187041228251861,-0.7047209234863521,-0.16507575183622825
87.0,-0.00936399621883493,-0.24052528161802356,0.018438684075780854,-0.1500000000000002,-9.779999999999985,-0.6179937965260547,0.05045538299066525,0.02586720934755209,-0.010970302099334358,27.852667493796524,-0.875,93.61419432382134,0.6641172667016126,0.18690870324751852,-0.7048497281451611,-0.16488146604714626
88.0,-0.008959677419354842,-0.24240400124069478,0.02031048387096775,-0.1500000000000002,-9.779999999999985,-0.6243194789081887,0.04573608095533499,0.03955635468362283,-0.005148883374689826,27.83157568238213,-0.875,93.65286329094292,0.6639914372217735,0.18680269936569469,-0.7050348085887097,-0.16467576366873427
89.0,-0.008278691066997522,-0.24241702853598018,0.020859801488833755,-0.1500000000000002,-9.779999999999985,-0.6274823200992559,0.024852667493796526,0.055329171836228284,-0.014666369416873451,27.821029776674933,-0.875,93.67219777450373,0.6639285224818539,0.18674969742478278,-0.7051273488104839,-0.16457291247952827
90.0,-0.008357331848259271,-0.24324919401834727,0.019225825250018806,-0.1500000000000002,-9.779999999999985,-0.6290513337468986,0.022612719941348974,0.03833973066583953,-0.02732575933810813,27.81575682382134,-0.875,93.6817874728598,0.663897443742167,0.18672310559080324,-0.7051732402861353,-0.16452156261693518
91.0,-0.008464696593728852,-0.242169486427551,0.01834152943830364,-0.1500000000000002,-9.779999999999985,-0.6283827355440256,0.10355571847507332,0.017752274607113316,-0.004455222197157681,27.813120347394538,-0.875,93.67702740807579,0.6639284065116167,0.1867013876289946,-0.7051568591427928,-0.16451180847702807
92.0,-0.009063538611925711,-0.24068381081284315,0.015774569516505008,-0.1500000000000002,-9.779999999999985,-0.6239393939393935,0.016913865704188284,0.024500902323482968,0.023040266185427476,27.8125,-0.875,93.64937683284458,0.6640435862072332,0.18664162856304978,-0.7050672670185734,-0.16451361416422267
93.0,-0.009397699075118431,-0.24340296262876915,0.01996646364388301,-0.1500000000000002,-9.779999999999985,-0.6218084066471159,-0.021077712609970673,0.03195635010151139,0.022746071133167907,27.8125,-0.875,93.63618035190615,0.6640559964907133,0.18661108041055707,-0.7050879087585538,-0.16447017756598226
94.0,-0.00821804381576678,-0.241054568454948,0.03863262607095625,-0.14673624288425063,-9.779999999999985,-0.6221091369098959,0.011757158875280315,0.09976065206141108,-0.039947027197975965,27.87132352941176,-0.855550284629981,93.63812101086768,0.6639639891846356,0.1867375661066068,-0.7050657601098274,-0.16483157979817142
95.0,-0.02234949111609454,-0.24499942498993735,0.03756655741475477,-0.1348392846874821,-9.779999999999985,-0.6126821344373528,0.022664381001667528,0.005067276177333102,-0.02179108446897821,27.966056437237647,-0.7904950836639641,93.58118782703697,0.6641412519774597,0.18642421727617742,-0.704819388813467,-0.1655164672842274
96.0,-0.024410327180725677,-0.24326461963084361,0.059711919958599285,-0.13209706169857974,-9.779999999999985,-0.6060551434650112,-0.046295497671209246,0.02403901443275257,-0.013629535391869358,27.98605241216721,-0.768231412799724,93.53931092231613,0.6644032327726985,0.18625393914639762,-0.7045517457972514,-0.16581595388649292
97.0,-0.027219826346961087,-0.24782243689264563,0.0791423724915186,-0.13072595020412855,-9.779999999999985,-0.6216370536484386,-0.24449427864987633,0.011530748663101604,0.05447860962566845,27.99605039963199,-0.7570995773676039,93.6310771375999,0.6637884222319017,0.18634468684348227,-0.7051167846728189,-0.16575851719251325
98.0,-0.027373354033695604,-0.24498648726352712,0.08876229084008969,-0.13004039445690296,-9.779999999999985,-0.6331743430510035,-0.1017956486113507,0.005123878730377781,0.05767979845897303,28.001049393364383,-0.7515336596515438,93.69744228336495,0.6633732214287563,0.18647412540121322,-0.7054959436756079,-0.16565778540466333
99.0,-0.025381231671554264,-0.24548387096774196,0.07819648093841641,-0.1338660801564027,-9.779999999999985,-0.6271700879765395,-0.06479105571847507,0.0023521505376344082,0.05538245356793744,28.00171065493646,-0.7781952590420332,93.66388685239491,0.6636001702834794,0.18652486770772225,-0.705279875405669,-0.16559831002443798
100.0,-0.023550567711858046,-0.24514113843146107,0.07155131964809383,-0.13719452590420328,-9.779999999999985,-0.6238416422287388,-0.05476633581472291,-0.03266974960523347,0.0406708211143695,28.0,-0.7966764418377321,93.64598607038123,0.6637329188172034,0.18656200735092848,-0.7051553290420325,-0.165552816510264
101.0,-0.021600571471539223,-0.24564290548161521,0.06521730957214826,-0.13875855327468228,-9.779999999999985,-0.6222385141739979,-0.0415534062711482,-0.007081359500714337,0.05515123317542672,28.0,-0.8055962854349951,93.6374633431085,0.6637938339638307,0.18658100974584535,-0.7050976051124136,-0.1655313972482894
102.0,-0.020410557184750745,-0.2428666065117679,0.06314113843146099,-0.13954056695992176,-9.779999999999985,-0.6208504398826977,0.03778573576960674,-0.034806188435220695,0.021169354838709676,28.0,-0.8100562072336266,93.62970430107526,0.6638475003958932,0.18658506668621683,-0.7050469811388065,-0.1655271610606061
103.0,-0.020569290924129645,-0.24306414016091443,0.05979787953981501,-0.1399315738025415,-9.779999999999985,-0.6200391006842618,-0.0035543085946311732,-0.019884483795774118,0.02451077148657794,28.0,-0.8122861681329423,93.62518328445748,0.6638777493010741,0.18658446999999978,-0.7050185815786891,-0.16552734000000005
104.0,-0.019746661940210335,-0.24373311276537088,0.05945393674425932,-0.13999999999999996,-9.779999999999985,-0.6199999999999999,-0.007509157509157508,0.003294241600693212,0.015060656189688448,28.0,-0.8124999999999999,93.625,0.6638793899999988,0.18658446999999978,-0.705017089999999,-0.16552734000000005
105.0,-0.019999881838591527,-0.24404521643231325,0.05958180708180706,-0.13999999999999996,-9.779999999999985,-0.6199999999999999,0.006504416282642089,0.012828882586947102,-0.0029535428728977124,28.0,-0.8124999999999999,93.625,0.6638793899999988,0.18658446999999978,-0.705017089999999,-0.16552734000000005
106.0,-0.018281992201347047,-0.24364626413013518,0.060289899168931405,-0.13999999999999996,-9.779999999999985,-0.6199999999999999,0.0068206826775375155,0.03580216826184568,0.007678276025050218,28.0,-0.8124999999999999,93.625,0.6638793899999988,0.18658446999999978,-0.705017089999999,-0.16552734000000005
107.0,-0.018902664539761325,-0.24443729567923125,0.05666934991531765,-0.13999999999999996,-9.779999999999985,-0.6199999999999999,-0.017147774380637283,-0.034885309582890225,0.0029546506361022486,28.0,-0.8124999999999999,93.625,0.6638793899999988,0.18658446999999978,-0.705017089999999,-0.16552734000000005
108.0,-0.01910345745998713,-0.24433095072923386,0.05828864918322514,-0.13999999999999996,-9.779999999999985,-0.6199999999999999,-0.044832191840922984,0.0024059604330806186,0.03847304291990816,28.0,-0.8124999999999999,93.625,0.6638793899999988,0.18658446999999978,-0.705017089999999,-0.16552734000000002
109.0,-0.01850206155129413,-0.2443876975868392,0.059318415733445644,-0.13999999999999996,-9.779999999999985,-0.6199999999999999,-0.07854768834237649,0.04123754242852187,0.014004186590522437,28.0,-0.8124999999999999,93.625,0.6638793899999988,0.18658446999999978,-0.705017089999999,-0.16552734000000005
110.0,-0.017607485588755106,-0.24302446195266186,0.06113638240589332,-0.13999999999999996,-9.779999999999985,-0.6199999999999999,-0.08104776770229424,0.038736930776472916,0.012949473927621687,28.0,-0.8124999999999999,93.625,0.6638793899999988,0.18658446999999978,-0.705017089999999,-0.16552734000000005
111.0,-0.018454280428786156,-0.24411975785805137,0.059423797961779226,-0.13999999999999996,-9.779999999999985,-0.6199999999999999,-0.02146666418908875,0.00634363179888674,0.03085229712766133,28.0,-0.8124999999999999,93.625,0.6638793899999988,0.18658446999999978,-0.705017089999999,-0.16552734000000005
112.0,-0.018025143286589704,-0.24367150207290694,0.057077490378739076,-0.13999999999999996,-9.779999999999985,-0.6199999999999999,-0.03030258452670003,-0.020853721734965226,0.010417828031316585,28.0,-0.8124999999999999,93.625,0.6638793899999988,0.18658446999999978,-0.705017089999999,-0.16552734000000005
113.0,-0.016926203277009735,-0.24088101638504872,0.05128328213005632,-0.13999999999999996,-9.779999999999985,-0.6199999999999999,-0.05331141193036354,0.04036658346134152,0.03932051651305683,28.0,-0.8124999999999999,93.625,0.6638793899999988,0.18658446999999978,-0.705017089999999,-0.16552734000000005
114.0,-0.016641545058883777,-0.24254624295954952,0.04886232718894009,-0.13999999999999996,-9.779999999999985,-0.6199999999999999,-0.03396817396313364,0.011358726958525342,0.02838881688428059,28.0,-0.8124999999999999,93.625,0.6638793899999988,0.18658446999999978,-0.705017089999999,-0.16552734000000005
115.0,-0.014662298387096779,-0.24237399193548392,0.041159274193548395,-0.13999999999999996,-9.779999999999985,-0.6199999999999999,0.019090221774193547,-0.015561995967741936,0.02510710685483871,28.0,-0.8124999999999999,93.625,0.6638793899999988,0.18658446999999978,-0.705017089999999,-0.16552734000000005
116.0,-0.015545118523949176,-0.24118203201368532,0.03638227028347997,-0.13593352883675464,-9.779999999999985,-0.6199999999999998,0.023609329178885627,0.18076906922043007,0.03230961326979472,28.115835777126097,-0.7880620723362658,93.625,0.6636736746529812,0.1872756071260997,-0.7048552827663725,-0.16626334359726286
117.0,-0.015874877810361687,-0.24053809261974596,0.03529294965786903,-0.13280547409579663,-9.779999999999985,-0.6199999999999998,0.014450833944281523,0.11286122311827955,0.027905058651026392,28.219208211143695,-0.7680229716520038,93.625,0.6634930174877813,0.1878751017888564,-0.7047156702541537,-0.16690340889540556
118.0,-0.01445457600195504,-0.24231289711632462,0.035695869990224845,-0.13124144672531762,-9.779999999999985,-0.6199999999999999,0.00845399560117302,0.07800949260752688,0.0451080232771261,28.270894428152495,-0.7580034213098729,93.625,0.6634026889051815,0.18819453621700877,-0.7046251925464315,-0.1672431286412513
119.0,-0.014188477517106557,-0.24085019080381995,0.03781645236483948,-0.13045943304007815,-9.779999999999985,-0.6199999999999999,-0.08333067512124971,0.036263343930934645,0.053055475270697046,28.29673753665689,-0.7529936461388074,93.625,0.6633536471349735,0.1883660656891495,-0.7045768801119254,-0.1674248007722387
120.0,-0.013177908113391989,-0.24272852282126484,0.030531210053387485,-0.1300684261974584,-9.779999999999985,-0.6199999999999999,-0.04577635066546357,0.025329882650951194,0.003499763845025941,28.309659090909093,-0.7504887585532747,93.625,0.6633014992126482,0.18845183042521985,-0.7046079734430597,-0.1675156368377324
121.0,-0.014299120234604112,-0.24097081077524635,0.03429297550567712,-0.12999999999999995,-9.779999999999985,-0.627976539589443,-0.1254969241108354,0.04393021503026544,0.03336645083746898,28.360887096774192,-0.75,93.67436461388073,0.6629926088902927,0.18873801939149562,-0.7047727216482156,-0.16768076818914956
122.0,-0.015646016617790817,-0.24126741907286273,0.0458318036130536,-0.12999999999999995,-9.779999999999985,-0.6343108504398829,-0.04912622659598466,0.02910795102075344,0.016809710786525302,28.401209677419352,-0.75,93.71419843597263,0.6627508620991052,0.18895527518450644,-0.7049032288201973,-0.16780113006231667
123.0,-0.016760874877810368,-0.2432295520339876,0.05188882152793442,-0.12999999999999995,-9.779999999999985,-0.6410752688172042,-0.012832908019399954,0.001610465307541921,0.02010451326227536,28.421370967741936,-0.75,93.73411534701856,0.6625225958589371,0.18909430995112422,-0.7050760442052786,-0.1678387416813294
124.0,-0.019271256297465983,-0.24440137651327173,0.058646644014587565,-0.12999999999999995,-9.779999999999985,-0.6408602150537637,0.02759409189600722,0.01926056764136401,-0.010264120540078199,28.431451612903224,-0.75,93.74407380254155,0.6624539274877814,0.1891634582013686,-0.7051172041348979,-0.16787913245356784
125.0,-0.01874501842243779,-0.24298781863298002,0.06374238664561244,-0.12999999999999995,-9.779999999999985,-0.6407526881720433,-0.015433961200090229,-0.003770960222573127,0.014638318670576737,28.436491935483872,-0.75,93.74905303030303,0.6624204566471168,0.1891980323264908,-0.7051360575513204,-0.16789932783968708
126.0,-0.019842845326716305,-0.24214136401233183,0.0629426272652079,-0.12999999999999995,-9.779999999999985,-0.6404496578690131,0.04559929317993834,-0.008009060831641476,-0.00907352056545605,28.4375,-0.75,93.75,0.6624127601319654,0.18920704111925715,-0.7051409797262962,-0.16790496573802527
127.0,-0.019813895781637732,-0.24393969471388832,0.06723377697571245,-0.12999999999999995,-9.779999999999985,-0.6402248289345067,0.05071997894578539,-0.017445390630874504,-0.007973343860440634,28.4375,-0.75,93.75,0.6624117160263936,0.18920898000000005,-0.7051419939882708,-0.16790633786901255
128.0,-0.021976840363937152,-0.24360718851041435,0.07101180539890216,-0.12999999999999995,-9.779999999999985,-0.6400000000000003,-0.07324704865027445,0.025872246033536352,0.010767726896759155,28.4375,-0.75,93.75,0.6624145500000007,0.18920898000000005,-0.705139160000001,-0.16790770999999988
129.0,-0.02151943755169563,-0.24409887961500867,0.06424039401458756,-0.12999999999999995,-9.779999999999985,-0.6400000000000003,-0.035119181893375435,-0.026843653658169785,-0.018825193623580722,28.4375,-0.75,93.75,0.6624058271017379,0.18920898000000005,-0.7051478843275443,-0.16790770999999988
130.0,-0.020315061282803228,-0.24249898488608174,0.0673205504173246,-0.12999999999999995,-9.779999999999985,-0.6400000000000003,-0.0816555756071885,0.017759793969471395,0.056989247311827966,28.4375,-0.75,93.75,0.6623786891960306,0.18920898000000005,-0.7051750266799012,-0.16790770999999988
131.0,-0.020542146026017005,-0.242023685991428,0.06506722309948115,-0.12999999999999995,-9.779999999999985,-0.6400000000000003,-0.027009549590194748,0.010523817580269195,0.03443444995864351,28.4375,-0.75,93.75,0.662365120243177,0.18920898000000005,-0.7051885978560797,-0.16790770999999988
132.0,-0.020603661571403517,-0.24157682460908275,0.0662057011089269,-0.12999999999999995,-9.779999999999985,-0.6400000000000003,-0.04972091080962049,0.037932363335589143,-0.008277497592013718,28.4375,-0.75,93.75,0.6623583357667502,0.18920898000000005,-0.7051953834441689,-0.16790770999999988
133.0,-0.021286679270550248,-0.2410572295088425,0.06964732758281143,-0.12999999999999995,-9.779999999999985,-0.6400000000000003,0.020044236677301187,0.0002558933002481424,0.020085347000669582,28.4375,-0.75,93.75,0.6623613418349881,0.18921587161290332,-0.705192376883375,-0.16789442120967737
134.0,-0.02157882350624287,-0.24140702666509128,0.06891051242664145,-0.12999999999999995,-9.779999999999985,-0.6400000000000003,-0.058045499527354376,-0.024453318858560794,0.0495277851628658,28.4375,-0.75,93.75,0.6623882185080652,0.1892124258064517,-0.7051654958064523,-0.16786956625000005
135.0,-0.026368816219622688,-0.2435918508015283,0.06719222891803536,-0.12999999999999995,-9.779999999999985,-0.6400000000000003,-0.019430628175587855,-0.013188197890818858,-0.016140263746110523,28.436995967741936,-0.75,93.75,0.662402860866936,0.18921021072580652,-0.7051513433870976,-0.16785664651209686
136.0,-0.01705785724132499,-0.2416917070384813,0.075859141754303,-0.13238213399503712,-9.779999999999985,-0.6407146401985113,-0.12781394932352594,-0.0880302031637717,-0.016181174056678092,28.284890663771712,-0.7693548387096774,93.75099255583126,0.6626239042200686,0.18849426021650117,-0.7053177712568242,-0.16709317752155706
137.0,-0.015263104838709685,-0.24423976426799013,0.0693179280397022,-0.13603473945409422,-9.779999999999985,-0.6361488833746899,-0.07719496355459057,0.11428204482009927,0.019508471619106703,28.21727473635236,-0.791439205955335,93.72419354838709,0.6628933887154933,0.18820219583033498,-0.7052153635142684,-0.1667725072049473
138.0,-0.01961491935483872,-0.24315818858560798,0.06936662531017368,-0.13301736972704709,-9.779999999999985,-0.6380744416873452,-0.013191105769230767,0.19428504962779158,0.03468808157568238,28.44381881978908,-0.7707196029776675,93.73709677419355,0.6624873986848637,0.189508675858716,-0.7049362736724566,-0.16808722299007456
139.0,-0.021048154466501254,-0.24528132754342433,0.06876519851116625,-0.13150868486352352,-9.779999999999985,-0.6390372208436728,0.009424918579404468,0.08355691687344913,-0.021582758219602982,28.569691667959056,-0.7603598014888338,93.74354838709678,0.6623249666004969,0.19020938276806776,-0.7047226974813894,-0.16881750633374706
140.0,-0.019785669975186115,-0.24271122828784125,0.0661467121588089,-0.1307543424317617,-9.779999999999985,-0.6395186104218364,0.009012484491315136,0.043794587468982626,-0.014114841811414394,28.632643843052108,-0.7551799007444169,93.74677419354839,0.6622437351752489,0.19055975160328797,-0.7046159093858557,-0.16918266338864785
141.0,-0.01976628411910671,-0.24485189205955343,0.0638798076923077,-0.13030272952853594,-9.779999999999985,-0.6397369727047149,-0.05236410514888337,0.023944440136476425,-0.014253450682382134,28.66886534584367,-0.751985111662531,93.74835607940446,0.6621964406446968,0.19075727486367883,-0.7045570933356076,-0.16938889845114788
142.0,-0.021096541563275444,-0.24430435794044672,0.05839896091811413,-0.12999999999999995,-9.779999999999985,-0.6400000000000003,-0.06493825604838709,-0.00045023650744416884,0.0009688081575682378,28.686712449596776,-0.75,93.75,0.6621678257913315,0.19085397677923405,-0.7045334859879028,-0.16949010772681475
143.0,-0.022025950427761946,-0.24335196381615504,0.0548088705047961,-0.12999999999999995,-9.779999999999985,-0.6351468464130962,0.0740624623856524,0.020061004685011666,-0.02535500710621829,28.6875,-0.75,93.71918632643235,0.662318048401541,0.19082731120365914,-0.7044098547376021,-0.16955387221473295
144.0,-0.0218334880343938,-0.24249777302019124,0.053441054547081854,-0.12999999999999995,-9.779999999999985,-0.6324121328839676,0.03122064393062603,0.028075562121436578,0.011472808500428717,28.6875,-0.75,93.70233509870005,0.6624017414588349,0.1908106212469908,-0.7043433246268656,-0.16958725497833427
145.0,-0.021013789612730403,-0.24338776678304852,0.053248171504310146,-0.12999999999999995,-9.779999999999985,-0.6310447761194034,-0.04557362073009641,-0.0004172825248896523,-0.0025585612429618217,28.6875,-0.75,93.69390948483388,0.6624435879874818,0.19080227626865665,-0.7043100595714973,-0.16960394636013493
146.0,-0.015673147908102175,-0.24611075684065578,0.047058328928333726,-0.13031761786600493,-9.78039702233249,-0.6190062590274437,0.25602832611137855,-0.02599958419048453,-0.007994541167386618,28.6875,-0.7569478908188585,93.61922521388095,0.6628783975843116,0.1907186210995889,-0.7038868078080811,-0.16968789621976965
147.0,-0.02281773636274644,-0.2420483186922323,0.048622443742816435,-0.13655590116380661,-9.785359801488823,-0.5406707805814184,0.45908941731074815,-0.17814653483455656,-0.0010960543533085191,28.771098364379828,-0.794818788662496,93.15621642338755,0.6655756627471762,0.1908853895797808,-0.700967093810901,-0.17090724784409655
148.0,-0.013758280665595526,-0.2338714312689778,0.04314458339855886,-0.13055781108757036,-9.79216551539131,-0.3546718813315815,1.0121528915855356,1.5152160694641386,-0.11877175162329637,28.75022333214632,-0.7606395599807685,92.0713335627068,0.6721904890030953,0.18856094612705812,-0.6947590962844274,-0.17247957764642988
149.0,-0.018847957537098857,-0.24853649764817415,0.013980209587842478,-0.13144879801690357,-9.792620392104256,-0.3711488438915972,-0.2683791993685224,0.15705818135963523,-0.1405338474636521,30.202302526288214,-0.764782145581782,92.1710296845792,0.6693117840004724,0.197569047063529,-0.6928522752970523,-0.18079990271138696
150.0,-0.007992925950399831,-0.24228420061423245,0.01180648196513712,-0.1338211732020002,-9.792798675314799,-0.3509707353098539,0.02071336025902129,-0.6200994984729651,-0.04696180143476826,29.783610940563463,-0.7758242525143932,92.05461046440942,0.6707125939126788,0.19496147238890732,-0.6929048589342407,-0.1785173622957857
151.0,-0.010003155207698601,-0.24193907752344831,-0.0025086696874066254,-0.13190066104268744,-9.794363470298947,-0.33553228847604133,0.08039296105288836,-0.20073889879659979,-0.081426046968982,29.474069644279773,-0.7626950046691073,91.9666103491308,0.6717393719673932,0.19283152967629424,-0.6929915187082664,-0.17685402820481452
152.0,-0.007650304766433802,-0.24099907079261929,-0.012935320070803946,-0.13075042138913107,-9.797343025472053,-0.3253808648195746,0.08169707254384673,-0.08640369003272227,-0.04472247855312371,29.33623688938205,-0.7550554759828954,91.90707561981756,0.6723093868832883,0.19187268391583895,-0.6929075528298262,-0.1761889000633342
153.0,-0.006757517751066141,-0.24048364109009282,-0.0196282126475675,-0.13046021505376343,-9.798697667923472,-0.3248983661499792,0.04258991008991009,-0.07847152847152847,-0.017649742730387892,29.269279081133917,-0.7528955453149001,91.90400642368382,0.6724296816107815,0.1914685345756177,-0.6930140654493508,-0.17582619520167592
154.0,-0.007060283802219288,-0.24042578926449903,-0.021724565756823834,-0.13019354838709674,-9.799467113531627,-0.3187338360564167,0.06554104497652885,-0.005823007637523763,-0.0004463278656827042,29.19009652981427,-0.7511520737327189,91.86676616394357,0.6727819374787043,0.1909171370668899,-0.692931115745985,-0.17542514626965516
155.0,-0.007005564328144975,-0.24097661478306648,-0.02730558688623206,-0.12999999999999995,-9.799853372434015,-0.3138807429130009,0.0089278329197684,0.02040096999774419,-0.0038757613354387546,29.186278103616814,-0.75,91.83672409579667,0.6729595199951123,0.1908321748191592,-0.6927679930596282,-0.1754417059481917
156.0,-0.005215429731558764,-0.24014136401233183,-0.03167388525453042,-0.12999999999999995,-9.799999999999997,-0.31163245356793734,0.027315023685991424,-0.0011307241145950822,-0.00557936686968945,29.1875,-0.75,91.8227028347996,0.6730377079081131,0.19081558867057663,-0.69268494230694,-0.17546622645161303
157.0,0.002889540566959924,-0.23546522294909397,-0.029551846003458913,-0.12785607940446647,-9.799999999999999,-0.3043025791412888,0.12221219640574478,0.20809271373787502,0.05688585607940447,29.216284119106696,-0.7400744416873448,91.77738739754868,0.6732737395396646,0.19076451861072258,-0.6924072322750581,-0.17570621782134002
158.0,-0.011290430000107418,-0.2396571063345257,-0.040853909531328884,-0.1339418645870259,-9.795207373271886,-0.36730336330336316,-0.5226651708506548,0.16994054332764008,0.026568592697624953,29.591753810705423,-0.7782169443459765,92.14647019647019,0.6704661530924131,0.19403509809337965,-0.6938000688748562,-0.17729728955583124
159.0,-0.021566524872976493,-0.23602112403725317,-0.040693328177199145,-0.13713222261609356,-9.792442396313362,-0.4314718185040761,-0.3415959040959042,0.04469351213302825,-0.006556246173181658,29.61392126019142,-0.7963665366891173,92.52735288904643,0.6681265579367244,0.19495535018060953,-0.695924296971641,-0.17684198413275426
160.0,-0.019707993619283944,-0.23613372917405182,-0.05096738745125841,-0.1387274016306274,-9.7910599078341,-0.4591230060262316,-0.08905308401276146,0.12613158011343495,0.027055454626019142,29.59375498493442,-0.8054413328606876,92.68807160581355,0.6671552621135235,0.1952235087193371,-0.6968676503406595,-0.17649324625992543
161.0,-0.022401529657545,-0.23816140146210224,-0.05173476153671816,-0.1395249911378943,-9.790368663594471,-0.47103426874553267,0.005449305123749845,0.08076501309702988,0.03167822765877697,29.65027847078556,-0.8099787309464728,92.75689606202893,0.6666958959483534,0.19571371189007586,-0.6971058194722863,-0.1767815050892435
162.0,-0.019480098398428652,-0.23783189219192005,-0.03706155934963444,-0.1349114183307731,-9.790023041474655,-0.4628917848119332,0.002353921142756407,0.0420458745425281,0.017050268266349373,29.74722680284325,-0.7813236047107015,92.70476602305826,0.6668613195140562,0.19603070946518442,-0.6967185918180292,-0.17735605368141316
163.0,-0.0235941198597366,-0.23656213145182278,-0.025076862624125975,-0.13229902713773675,-9.79,-0.4570649400250143,-0.16442563799493004,0.2135216571893388,-0.030843785477680415,29.817699422927,-0.7646249359959036,92.66799521070988,0.6669334510015237,0.1963162188063249,-0.6964461106412215,-0.17782737270348178
164.0,-0.026382396468329843,-0.2403052205025863,-0.0247567935949414,-0.1309882232462877,-9.787062034739446,-0.510455546935584,-0.3531732912369191,0.16358828478263465,0.02638346357319453,29.979461480616727,-0.7563044034818228,92.98043060783633,0.6647851531561199,0.19760245219747855,-0.6980274533099871,-0.1782106732553156
165.0,-0.027000082002726116,-0.23906362055595265,-0.017877708753435886,-0.13033282130056317,-9.783369727047134,-0.5507529270776231,-0.24978308019027215,0.1415294654519932,-0.009770737811457009,30.08948087431694,-0.7521441372247823,93.21437465011633,0.6631965492375501,0.19849458417209598,-0.6992444578562305,-0.17839602978682007
166.0,-0.032358501713340426,-0.23838221276930954,-0.003267084170309978,-0.1300051203277009,-9.781523573200978,-0.5755492536137696,-0.18075347591476623,0.09530899208318563,-0.018248060183544055,30.146505376344088,-0.7500640040962622,93.35935690653432,0.6622104132547957,0.19899052421631402,-0.7000257683514909,-0.17843074838496975
167.0,-0.03108196463035174,-0.24128276025050222,0.009298357556422073,-0.12999999999999995,-9.7806004962779,-0.5993721690495881,-0.11863454645712712,0.016164480680609713,-0.0005154791445114038,30.148777521761392,-0.75,93.50064299499783,0.66133927869345,0.19924478589719952,-0.7008190075807638,-0.17822691446642241
168.0,-0.03291029007990508,-0.2409628045673832,0.01853203889416169,-0.12999999999999992,-9.780138957816362,-0.6155004643870406,-0.023396006525559072,0.02281350572193444,0.026988907438959465,30.1084229390681,-0.75,93.57891852770885,0.6608502825361938,0.19924221926196373,-0.7013672203756185,-0.17793979841088664
169.0,-0.03261450539286129,-0.24197842855491147,0.018597856069240054,-0.12999999999999995,-9.779999999999985,-0.6238544505558034,0.01835265844110797,-0.01183559618783344,-0.002641717457014022,30.08445340501792,-0.75,93.60752688172042,0.6606505679951442,0.19920590147465422,-0.7016106496443846,-0.1777928476446493
170.0,-0.03077729877937996,-0.243400888624614,0.0216261169747122,-0.12999999999999995,-9.779999999999985,-0.6276107890259817,-0.010632938572584774,0.010035222899426854,0.006023611317575937,30.071588581669225,-0.75,93.61943164362518,0.6605665908408902,0.19918014928315397,-0.7017191600961294,-0.17771968670762933
171.0,-0.02977933039327422,-0.24206398757907613,0.021967692383925486,-0.12999999999999995,-9.779999999999985,-0.6293455890854436,0.04195055580331335,0.0011613646499182401,0.0013637001800373286,30.065028161802353,-0.75,93.62451996927803,0.6605305714112286,0.199165366845878,-0.7017682430997797,-0.17768446569380447
172.0,-0.030964934013841417,-0.24055836347719814,0.023024296780800434,-0.12999999999999995,-9.779999999999985,-0.6298699271592094,0.02236736699535867,-0.0025395173678212177,-0.02211960920337611,30.0625,-0.75,93.625,0.660523984292404,0.19915770999999982,-0.7017807057075955,-0.17767334000000007
173.0,-0.03081285202252946,-0.24140040962621617,0.023020993343574,-0.12999999999999995,-9.779999999999985,-0.6300000000000003,0.04149065540194573,0.0016081029185867897,-0.006328405017921144,30.0625,-0.75,93.625,0.6605224600000001,0.19915770999999982,-0.7017822299999994,-0.17767334000000007
174.0,-0.02859639016897083,-0.24113543266769083,0.023166922683051726,-0.12999999999999995,-9.779999999999985,-0.6300000000000003,-0.004624295954941113,0.008028513824884792,-0.008748559907834099,30.0625,-0.75,93.625,0.6605224600000001,0.19915770999999982,-0.7017822299999994,-0.17767334000000007
175.0,-0.031142418960967366,-0.24144632518019624,0.019383217141281668,-0.12999999999999995,-9.779999999999985,-0.6257915632754342,0.08224686379928316,-0.00895272682067037,-0.06264680939580133,30.0625,-0.75,93.625,0.6605723785707194,0.19915770999999982,-0.7017323114292804,-0.17767334000000007
176.0,-0.02847513351343998,-0.24149493561993574,0.014499596281854352,-0.12999999999999995,-9.779999999999985,-0.6227344913151363,0.07733374935995904,-0.010245459905238131,-0.028326849281990415,30.0625,-0.75,93.625,0.6606104231563272,0.19915770999999982,-0.7016942668436729,-0.17767334000000007
177.0,-0.02764025725618469,-0.24076026862922037,0.012180906459132272,-0.12999999999999995,-9.779999999999985,-0.6212059553349873,0.03571832233626589,-0.002062170440446651,-0.004172967069892473,30.0625,-0.75,93.625,0.6606294454491312,0.19915770999999982,-0.701675244550869,-0.17767334000000007
178.0,-0.028729326453116794,-0.23932823426573438,0.010722356944131142,-0.12999999999999995,-9.779999999999985,-0.6204416873449128,-0.01342043163489736,0.003257484702797202,-0.0007934689638318666,30.0625,-0.75,93.625,0.6606389565955331,0.19915770999999982,-0.7016657334044671,-0.17767334000000007
179.0,-0.029261297841943017,-0.242189939093165,0.009037822392661106,-0.12999999999999995,-9.779999999999985,-0.6200595533498756,0.02731220392510715,0.0024165350778254,0.009221558011880593,30.0625,-0.75,93.625,0.6606437121687341,0.19915770999999982,-0.7016609778312661,-0.17767334000000007
180.0,-0.02793134822167082,-0.24161260245131222,0.009268215655312433,-0.12999999999999995,-9.779999999999985,-0.6199999999999997,0.05111333558914204,0.009416121512895706,0.01375667343409279,30.0625,-0.75,93.625,0.6606445299999996,0.19915770999999982,-0.7016601600000008,-0.17767334000000007
181.0,-0.0293444619896233,-0.2421894879314235,0.010259718775847812,-0.12999999999999995,-9.779999999999985,-0.6199999999999997,0.0028752161816677953,-0.019057823896533575,-0.0020109594706368885,30.0625,-0.75,93.625,0.6606445299999996,0.19915770999999982,-0.7016601600000008,-0.17767334000000007
182.0,-0.029721106850139123,-0.2410177097817927,0.008199117204413308,-0.12999999999999995,-9.779999999999985,-0.6199999999999997,0.007788277763000922,-0.008657626878016864,-0.0061103166212699185,30.0625,-0.75,93.625,0.6606445299999996,0.19915770999999982,-0.7016601600000008,-0.17767334000000007
183.0,-0.03041040679750359,-0.24249565840995796,0.00730581471168857,-0.12999999999999995,-9.779999999999985,-0.6199999999999997,0.011194969771041027,-0.004955035335391619,0.00569667453393982,30.0625,-0.75,93.625,0.6606445299999996,0.19915770999999982,-0.7016601600000008,-0.17767334000000007
184.0,-0.030757575757575775,-0.24249784800338492,0.010877285128609158,-0.12999999999999995,-9.779999999999985,-0.6199999999999997,0.00797971287258721,0.015086772880465706,-0.01064280868385346,30.0625,-0.75,93.625,0.6606445299999996,0.19915770999999982,-0.7016601600000008,-0.17767334000000007
185.0,-0.029804496578690144,-0.24349965713952243,0.010521731518361277,-0.12999999999999995,-9.779999999999985,-0.6199999999999997,0.007624998176274055,0.0014339045242993242,-0.00408423425395019,30.0625,-0.75,93.625,0.6606445299999996,0.19915770999999982,-0.7016601600000008,-0.17767334000000007
186.0,-0.02840664711632455,-0.24186224303701442,0.007817072992807227,-0.12999999999999995,-9.779999999999985,-0.6199999999999997,-0.07371682642505946,-0.02639387373980537,-0.006654775973504909,30.0625,-0.75,93.625,0.6606206668523951,0.19915770999999982,-0.7016840231476057,-0.17767334000000007
187.0,-0.027138807429130024,-0.24140995563576217,0.007777652455071811,-0.12999999999999995,-9.779999999999985,-0.6199999999999997,-0.11745103015264305,-0.013723306263628846,-0.013102488908940522,30.0625,-0.75,93.625,0.6606010990713591,0.19915770999999982,-0.7017035909286418,-0.17767334000000007
188.0,-0.025810361681329438,-0.23878904428904443,0.007332130235356043,-0.12999999999999995,-9.779999999999985,-0.6199999999999998,-0.03775471839987969,-0.0290237987818633,-0.02093907436649372,30.0625,-0.75,93.625,0.6605913151808412,0.19915770999999982,-0.7017133748191597,-0.17767334000000007
189.0,-0.03038807429130011,-0.24120781637717129,0.0015815098879615004,-0.12999999999999995,-9.779999999999985,-0.6224193548387096,0.09543104744717648,-0.011533526956914054,-0.013081340702308444,30.0625,-0.75,93.64012096774192,0.660613987187195,0.19914294467741933,-0.701689718296677,-0.17767333766129023
190.0,-0.03118132942326492,-0.24109755432739313,-0.0005826565907211074,-0.12999999999999995,-9.779999999999985,-0.6212096774193547,0.0379861737724641,-0.0025592854725919245,0.01256673434092789,30.0625,-0.75,93.63256048387098,0.6607237669806945,0.199118827983871,-0.7015804307612421,-0.17770483818548372
191.0,-0.02960483870967743,-0.23712949751861045,-0.0033942307692307674,-0.12999999999999995,-9.779999999999985,-0.6137760545905708,0.0730497828784119,-0.08428000930521093,0.016857940446650125,30.022301488833747,-0.75,93.59255195409429,0.6610469253005584,0.19881549634677417,-0.7014130878805831,-0.1775068611622207
192.0,-0.02841532258064517,-0.23709824751861047,-0.01778892679900745,-0.134516129032258,-9.779999999999985,-0.6058396401985116,0.035005040322580644,-0.053717237903225815,-0.019990694789081883,29.959235421836226,-0.782258064516129,93.54425984801489,0.6614275292631826,0.19853868559274182,-0.7012068332951302,-0.17721995235530386
193.0,-0.026835589477726587,-0.2371324330911025,-0.023506118545433073,-0.13741935483870962,-9.779999999999985,-0.6048092210209147,-0.012344890072964673,-0.02872573844726063,-0.025427335041750362,29.914093517369725,-0.7983870967741935,93.54059510577908,0.6615140449336909,0.19844217358746144,-0.7012074950269813,-0.1770341201356652
194.0,-0.025062660010240666,-0.23891787905195172,-0.023983882045373994,-0.13887096774193544,-9.779999999999985,-0.6078231172948914,-0.033301431291602665,-0.01959345398105479,-0.01978762025385009,29.891522565136476,-0.8064516129032258,93.55365118752215,0.6614429334794303,0.19842688062941616,-0.7013142266858776,-0.1769077023272972
195.0,-0.02299519969278035,-0.23854012072157244,-0.01834430757414629,-0.13820404505888373,-9.779999999999985,-0.6087502683248649,-0.076259280593958,0.007517881144393239,-0.05043090450096498,29.8894536788816,-0.801779313876088,93.55706752924496,0.6613607984243031,0.19838275448777515,-0.7013991395001329,-0.17687301052104742
196.0,-0.022351670506912454,-0.2387213581669228,-0.019564292114695347,-0.13410202252944184,-9.779999999999985,-0.6094272433435737,0.06522417434715821,-0.00027651769713261595,-0.008132020449308757,29.912716913882484,-0.775889656938044,93.55990783410138,0.661357373311092,0.19827628792130692,-0.7014215946042952,-0.1769578496682986
197.0,-0.02146313364055301,-0.238841525857655,-0.016541218637992836,-0.1319098822324628,-9.779999999999985,-0.6106233998975931,-0.028249807987711213,0.05012320788530466,0.06890841013824883,29.970550115207374,-0.7619367639528929,93.5667482718894,0.6611954411162312,0.1984711072721455,-0.7014561525793657,-0.17720705890168958
198.0,-0.021292242703533037,-0.23857974910394275,-0.015156169994879677,-0.13079365079365074,-9.779999999999985,-0.6104038658474138,-0.051015264976958526,0.028669834869431643,0.05964781746031746,30.01954925115207,-0.7549603174603174,93.56499215949822,0.6610625905990779,0.1986695897958271,-0.7014706796921408,-0.17742158637352778
199.0,-0.02340981822836663,-0.2388738479262674,-0.01896825396825398,-0.13023553507424468,-9.779999999999985,-0.6101814516129029,0.04075260816692268,0.030623959933435738,0.053737439196108544,30.044048819124423,-0.7514720942140296,93.56363407258064,0.6610051266564259,0.19876387731726847,-0.7014692319095628,-0.177531373814004
200.0,-0.022749455965181783,-0.2390554595494113,-0.019607014848950343,-0.12999999999999995,-9.779999999999985,-0.6100907258064512,0.0022791458653353795,0.027056731630824372,0.036309323796722984,30.056010584677416,-0.75,93.56306703629032,0.6610658432053251,0.19878461095766153,-0.7013795282973314,-0.17761537335349462
201.0,-0.021820432815392504,-0.23899237982000088,-0.02043362282878413,-0.12999999999999995,-9.779999999999985,-0.6100453629032254,-0.008592249903993855,-0.012566350400271771,0.02703990747715546,30.061271421370968,-0.75,93.56278351814515,0.6610957638812084,0.19879789983366963,-0.7013344108818966,-0.17765438855846777
202.0,-0.022107293020599484,-0.23822350845838763,-0.016119029156327548,-0.12999999999999995,-9.779999999999985,-0.6099999999999997,-0.05027331749231951,-0.002802202417877822,0.029916753133739024,30.0625,-0.75,93.5625,0.6611155174244752,0.19879691483870998,-0.701311242575525,-0.17766761750000004
203.0,-0.024209663880026797,-0.23890126260388372,-0.01553241315136477,-0.12999999999999995,-9.779999999999985,-0.6062679900744419,0.0450272971316318,-0.034761978612785065,0.008727520099747924,30.0625,-0.75,93.53917493796526,0.6611993309330813,0.19876850802481388,-0.7012288828038911,-0.1776947243281637
204.0,-0.026225063019417873,-0.23803395171137118,-0.015100496277915638,-0.12999999999999995,-9.779999999999985,-0.6029727047146407,0.04825758079286305,0.02975765833628737,0.00213462892394344,30.0625,-0.75,93.5185794044665,0.6612740242059945,0.19874764320595523,-0.7011534609155927,-0.17771646988585588
205.0,-0.02581629727799084,-0.23934258214903387,-0.017081039927814127,-0.12999999999999995,-9.779999999999985,-0.6013250620347401,0.08584764949432289,0.017427355910218816,-0.01971656116061358,30.0625,-0.75,93.50828163771712,0.6613294560942924,0.19873807224813878,-0.7010976613052107,-0.17772640429776654
206.0,-0.02765752829160089,-0.2392916384690579,-0.016853175050755703,-0.12999999999999995,-9.779999999999985,-0.6005012406947898,0.04213288181912174,0.017476084903000226,-0.014123168917775772,30.0625,-0.75,93.50313275434243,0.6613571407890816,0.19873328676923055,-0.7010697927493794,-0.17773137150372184
207.0,-0.02934927438153246,-0.23849507481765558,-0.019907511842995725,-0.12999999999999995,-9.779999999999985,-0.6000893300248147,-0.032524061959545825,0.012550755695916987,-0.01657737423866456,30.0625,-0.75,93.50055831265507,0.6613709831364762,0.19873089402977645,-0.7010558584714639,-0.17773385510669948
208.0,-0.026481088803669464,-0.2367934431160239,-0.026070381231671567,-0.12999999999999995,-9.779999999999985,-0.6000000000000008,-0.02089912775396646,-0.00906271148206632,-0.022013873223550643,30.0625,-0.75,93.5,0.6613756476228285,0.19873046999999977,-0.7010511025905706,-0.17773436999999975
209.0,-0.029130536130536146,-0.2366427550943681,-0.022413264155199647,-0.12999999999999995,-9.779999999999985,-0.6015640273704794,-0.05188501015113918,-0.03681197834423641,0.004679863147605084,30.05810117302053,-0.75,93.50977517106548,0.6613382889638318,0.1987237873020527,-0.7011008722971651,-0.17770477782013672
210.0,-0.02852936311000829,-0.2360882773140839,-0.00716670426347846,-0.12999999999999995,-9.779999999999985,-0.624444544702609,-0.1985713211519663,-0.005594405594405596,-0.007936686968945034,30.028042521994134,-0.75,93.65228212647568,0.6605768542610719,0.19886670415474844,-0.701858040982329,-0.17742684862967145
211.0,-0.031182795698924747,-0.23718309647341923,0.0009749605233476196,-0.12999999999999995,-9.779999999999985,-0.6380287239642073,-0.030768290848935995,0.007872772388901422,0.02096962177607339,30.01301319648094,-0.75,93.73743138581847,0.660126347291826,0.1989560941741484,-0.7023044753298737,-0.17726558995999714
212.0,-0.03335814722911498,-0.23966102714489823,0.011492443040830143,-0.12999999999999995,-9.779999999999985,-0.6448208135950064,-0.09505225956838859,0.005301150462440785,-0.002139258590871494,30.005498533724342,-0.75,93.78000601548987,0.659901093807203,0.1990007891838484,-0.7025276925036461,-0.17718496062515998
213.0,-0.031939619520264695,-0.24046326791488093,0.015944732686668177,-0.12999999999999995,-9.779999999999985,-0.648216858410406,-0.10203915707947965,0.0354204263478457,0.03559290172193398,30.001741202346043,-0.75,93.80129333032559,0.6597884670648915,0.19902313668869837,-0.7026393010905323,-0.17714464595774138
214.0,-0.033200992555831275,-0.2424652605459058,0.019885856079404476,-0.12999999999999995,-9.779999999999985,-0.6498660049627782,0.03492555831265509,0.02774503722084367,-0.023518920595533496,30.0,-0.75,93.78290167493796,0.659789474673697,0.19900744951736973,-0.702637396552109,-0.17715347208933008
215.0,-0.03457320099255584,-0.2410638957816378,0.02403970223325063,-0.12999999999999995,-9.779999999999985,-0.6518263027295276,-0.008467741935483872,0.013469292803970223,-0.04119494416873449,30.0,-0.75,93.79019463399503,0.6597352482921836,0.19901677644602978,-0.7026798711767985,-0.17714483684863525
216.0,-0.030614143920595544,-0.23999472704714647,0.0294665012406948,-0.12999999999999995,-9.779999999999985,-0.6673647642679896,-0.12532568238213398,0.05377248759305211,0.017941609801488834,30.006048387096776,-0.75,93.90114570409429,0.6591321114041568,0.19919750273914388,-0.7032336995400124,-0.1769887326985111
217.0,-0.02715570719602979,-0.24141671836228296,0.03262655086848636,-0.12999999999999995,-9.779999999999985,-0.6793275434243172,-0.06818393300248138,0.015246975806451613,0.027519191997518608,30.003024193548388,-0.75,93.98585511011166,0.658674509250466,0.19933708749860418,-0.7036587725119418,-0.17686736473635223
218.0,-0.024761476426799017,-0.2409292028535981,0.03443238213399505,-0.12999999999999995,-9.779999999999985,-0.6853089330024811,-0.007572115384615382,0.01405959212158809,0.010642350341191067,30.001512096774192,-0.75,94.02820981312034,0.6584457081736206,0.1994068798783343,-0.7038713089979065,-0.17680668075527278
219.0,-0.024890818858560808,-0.24144494416873458,0.03040167493796527,-0.12999999999999995,-9.779999999999985,-0.688299627791563,-0.003408033498759305,0.012794665012406947,0.004580877791563275,30.000756048387096,-0.75,94.05028497208437,0.6583295541094922,0.1994426219981389,-0.7039793307665945,-0.17677546193005567
220.0,-0.022918114143920608,-0.2429073356079405,0.02919215260545907,-0.12999999999999995,-9.779999999999985,-0.6897379032258062,-0.028952776054590568,-0.011243796526054589,0.029934669665012407,30.00037802419355,-0.75,94.06067288306451,0.6582739121068557,0.19945981364919346,-0.7040312700756051,-0.1767605172429434
221.0,-0.023848169975186115,-0.24550356699751869,0.03404668114143922,-0.12999999999999995,-9.776612903225795,-0.713548387096774,-0.09543656947890819,-0.01214281560173697,0.0036581110421836233,30.005544354838708,-0.75,94.18850806451613,0.6574067150806455,0.1996651926612903,-0.7048374312903227,-0.17651810129032247
222.0,-0.02480786954980505,-0.24344374778447364,0.0502069843239198,-0.12999999999999995,-9.773145161290312,-0.7172580645161286,-0.07665213650596714,0.006067619096852968,-0.0494292250088621,30.002772177419356,-0.75,94.19002016129032,0.6573339064394519,0.19968354920570927,-0.7049090072299027,-0.1765114479134665
223.0,-0.027442396313364065,-0.24268217165898626,0.05202780977982589,-0.12999999999999995,-9.77141129032257,-0.7186290322580642,0.003741239439324119,-0.00879156266001024,-0.05136628744239631,30.00138608870968,-0.75,94.18825604838709,0.6573082920100484,0.19969332089317723,-0.7049335131310803,-0.17651108250512043
224.0,-0.026830597158218138,-0.24319260432667697,0.05213429659498206,-0.12999999999999995,-9.7705443548387,-0.7146370967741937,0.05144329237071173,-0.025066104230670763,-0.0512217781938044,30.00069304435484,-0.75,94.15763608870967,0.6574397021340568,0.19964110931755624,-0.704802040920379,-0.1765399430267538
225.0,-0.026014224910394276,-0.2422655849974399,0.049456285202252925,-0.12999999999999995,-9.770110887096765,-0.7126411290322585,0.01636304723502304,-0.01300583237327189,-0.03412618407578085,30.00034652217742,-0.75,94.14232610887096,0.6575054071960609,0.19961500352974576,-0.7047363048150284,-0.1765543732875705
226.0,-0.025187051971326178,-0.24165194572452645,0.04934507808499741,-0.12999999999999995,-9.76999999999999,-0.7109072580645166,0.005787370391705069,-0.005841373847926268,-0.005659362199180746,30.0,-0.75,94.13073336693549,0.657565054880793,0.19959562867767516,-0.7046785335970305,-0.17656907931515625
227.0,-0.02430371543778803,-0.24235951100870462,0.050489231310803885,-0.12999999999999995,-9.76999999999999,-0.710292338709678,0.001245579717101895,-0.013529365879416283,-0.013022333429339476,30.0,-0.75,94.12685861895162,0.6575837564163312,0.19958852858870946,-0.7046598628225809,-0.17657289479838717
228.0,-0.023877368151561718,-0.24311571940604204,0.05568068356374807,-0.12999999999999995,-9.76999999999999,-0.7100000000000006,-0.03399817588325653,-0.014082901305683564,-0.006700428827444956,30.0,-0.75,94.125,0.6575927700000006,0.19958495999999976,-0.7046508800000003,-0.17657471000000008
229.0,-0.023805043522785473,-0.24330133128520232,0.05781474014336916,-0.12999999999999995,-9.76999999999999,-0.7100000000000006,-0.04517689132104455,-0.013057835701484895,0.004618295570916538,30.0,-0.75,94.125,0.6575927700000006,0.19958495999999976,-0.7046508800000003,-0.17657471000000008
230.0,-0.026256080389144922,-0.24461149513568875,0.05509784626216076,-0.12999999999999995,-9.76999999999999,-0.7100000000000006,-0.053518425179211467,-0.0044807867703533025,2.9001856118791598e-05,30.0,-0.75,94.125,0.6575927700000006,0.19958495999999976,-0.7046508800000003,-0.17657471000000008
231.0,-0.03361826972310844,-0.2480027078656111,0.06177748237425656,-0.13007940446650118,-9.770476426798997,-0.7097617866004968,0.07116504687069203,0.025535418882193076,-0.04847097906573713,30.014392059553348,-0.7509925558312656,94.12599255583126,0.6575859854441692,0.1996566878014887,-0.7046247086848635,-0.1766323824962779
232.0,-0.017525049771017518,-0.24332709987145473,0.06860228212647568,-0.13003970223325056,-9.77539950372207,-0.6941624182269346,0.0038932225928193648,0.05463220695075534,-0.010670985040944719,30.083442364087524,-0.7504962779156328,94.04729490939168,0.6580480681619674,0.19984754319693201,-0.7040363927393037,-0.17707511997247916
233.0,-0.02013292151396991,-0.24398423999835295,0.05793854308773663,-0.13001985111662526,-9.77786104218361,-0.6777040378975866,0.09579064808399484,0.02209706176440047,0.022488072803092965,30.12311076020753,-0.7502481389578164,93.96207797578765,0.6585682306541845,0.20001867200541398,-0.7034155368758556,-0.17742829825174825
234.0,-0.022704768685615474,-0.24320626785848568,0.04992228269042785,-0.1300099255583126,-9.779091811414377,-0.6577229866907289,0.02440975942740055,0.008278876701255732,0.00655352082393413,30.158329573652153,-0.7501240694789082,93.84999060079704,0.6591830706496725,0.2000223321317393,-0.7027731258572825,-0.17769454670651919
235.0,-0.02708970599293182,-0.24317738175802694,0.04587623129558614,-0.13000496277915627,-9.779707196029761,-0.6477324610873001,0.07471990375216181,-0.0902163696518535,-0.011532822016692984,30.172961312880666,-0.7500620347394541,93.79394691330174,0.6594929139129253,0.2000144692122717,-0.7024538590080456,-0.17781894732100142
236.0,-0.021118053989021744,-0.24261970824874057,0.045392209940597034,-0.12999999999999995,-9.779999999999985,-0.6522607714865778,-0.07557429130009775,-0.07218634859763892,-0.007790294383036318,30.11828896909542,-0.75,93.82536985863598,0.6594260955060902,0.1997585902897586,-0.7027006613092341,-0.17745590155628221
237.0,-0.021331265508684874,-0.24520037220843677,0.05116873449131514,-0.12999999999999995,-9.779999999999985,-0.6586377171215879,-0.10131048387096774,-0.005133374689826303,0.004261011166253101,30.089019851116625,-0.75,93.86119727047145,0.6592585314187341,0.19965534040880878,-0.7029527882450375,-0.17722501998635215
238.0,-0.020702892985151065,-0.24277152014652018,0.06708856197565877,-0.12999999999999995,-9.779999999999985,-0.6727918586789555,-0.0192491704084446,-0.05001513943046201,-0.03816450406672181,30.061935779274485,-0.7510240655401945,93.92477918586789,0.6588543142039515,0.199614201625059,-0.7034108110975473,-0.17694801117089082
239.0,-0.024138046988853454,-0.24707186429162237,0.06455296585135295,-0.1301612903225806,-9.779999999999985,-0.6759120583717362,-0.09555820803300641,-0.004249195025404707,-0.05472896419216984,29.99014127673402,-0.7530321940604199,93.95230894777265,0.6588437405697178,0.19919546871575533,-0.7036242726455482,-0.17656201050480036
240.0,-0.024627336149513582,-0.24437091973886332,0.06216109831029184,-0.13008064516129025,-9.779999999999985,-0.6734399001536107,-0.09758524545570915,0.007374471966205835,-0.00875406025985663,29.927623367895542,-0.7515160970302099,93.94792866743472,0.659002779719102,0.1989740983926173,-0.7035783539654543,-0.17638946302659383
241.0,-0.02349085479932255,-0.24365634231360045,0.055912900271771225,-0.1300403225806451,-9.779999999999985,-0.6719064420122898,-0.03890729006656425,0.0025211767399267388,-0.01419233138613179,29.898287490399383,-0.750758048515105,93.94387990831413,0.6590892352955389,0.19887121654257894,-0.7035427190669008,-0.17631642190644214
242.0,-0.006398238120723902,-0.24686849373744538,0.049799429263020334,-0.12888164136622382,-9.779999999999985,-0.6607796263666765,0.34167064339176534,0.44048022783865404,0.042920697150862,29.92678843210671,-0.7442120413353512,93.87631373113761,0.6594553897009596,0.19884896572637134,-0.7031318350684657,-0.1765923539123352
243.0,-0.034888938513154735,-0.24275335459596503,0.049011115152447854,-0.13445250838764677,-9.785086489013548,-0.5657177367791439,0.37640186925927455,0.5120507898025835,0.02970505014937521,30.641124547316295,-0.7793320831356736,93.31193591786294,0.6617546633219507,0.20255378455055617,-0.6985756199194151,-0.18160486696384803
244.0,-0.02693249467202214,-0.24291817595389648,0.03227368746380946,-0.13738250419382336,-9.787704534829352,-0.5044972787023773,0.24027472189747695,0.22849788314053907,-0.0030907369304443606,30.966904889585567,-0.7968453510436432,92.94868660201553,0.6634511639499693,0.20414177675016792,-0.6958756831166296,-0.1840072673158531
245.0,-0.0225865171871277,-0.24301945553277954,0.0201047795259494,-0.1388525424194923,-9.789013557737256,-0.47370025225441414,0.11468581589600894,0.10560745389967399,0.004339208147681046,31.130629864147622,-0.8056807400379506,92.76567394616904,0.664308118587888,0.20493186160089022,-0.6945171188163793,-0.18521022317405564
246.0,-0.02266614377290065,-0.2434958169460274,0.013632658956147119,-0.1395875615323268,-9.789668069191208,-0.4583017390304326,0.04296729699981288,0.05970838143513665,-0.015115530146777566,31.21249235142865,-0.8100984345351043,92.6741676182458,0.6647365959068473,0.20532690402625137,-0.6938378366662542,-0.18581170110315692
247.0,-0.021415176688668984,-0.24420696554497404,0.01380698777613224,-0.1399906498363721,-9.789995324918184,-0.4509226911470946,0.003313627700023211,0.03297052409955636,-0.0016849910258044899,31.25207456755493,-0.8124999999999999,92.63044540779464,0.6649408599149986,0.20552348420714828,-0.6935103707667134,-0.1861027114956013
248.0,-0.019465185352282137,-0.24381806902774653,0.012318407399052562,-0.13999999999999996,-9.79,-0.4500195503421305,-0.011353062260320325,0.026565907211068503,-0.006605994811639973,31.25,-0.8124999999999999,92.62512218963832,0.6649771648826981,0.20550563848973571,-0.6934822852688172,-0.18609604085532758
249.0,-0.01997941574554479,-0.24349749981201604,0.013080024813895787,-0.13999999999999996,-9.789999999999997,-0.4499999999999995,0.011842408263779233,0.0116792146026017,0.010000399466125272,31.25,-0.8124999999999999,92.625,0.6649780300000001,0.20550536999999963,-0.69348145,-0.1860961900000001
250.0,-0.019220477103541626,-0.24320780697796837,0.012976736972704718,-0.13999999999999996,-9.79,-0.4499999999999995,0.023508052767125344,0.0001479199563876989,0.001820919336040304,31.25,-0.8124999999999999,92.625,0.6649780300000001,0.20550536999999963,-0.69348145,-0.1860961900000001
251.0,-0.019883868147981057,-0.24352547653958956,0.012942086811038428,-0.13999999999999996,-9.79,-0.4499999999999995,0.024603911713286714,0.004326629351830966,-0.005487577778404392,31.25,-0.8124999999999999,92.625,0.6649780300000001,0.20550536999999963,-0.69348145,-0.1860961900000001
252.0,-0.021145408019399965,-0.2452540534062712,0.012423897003534103,-0.13999999999999996,-9.79,-0.4499999999999995,0.006563742457139634,0.0021322973061884353,0.0029789158254380026,31.25,-0.8124999999999999,92.625,0.6649780300000001,0.20550536999999963,-0.69348145,-0.1860961900000001
253.0,-0.019541958041958053,-0.24515474847732918,0.011582412211444473,-0.13999999999999996,-9.79,-0.4499999999999995,0.003486634333408527,-0.003060615459809008,-0.0033776035792164824,31.25,-0.8124999999999999,92.625,0.6649780300000001,0.20550536999999963,-0.69348145,-0.1860961900000001
254.0,-0.018634615384615395,-0.24494540942928048,0.01443734491315137,-0.13999999999999996,-9.79,-0.4499999999999995,-0.004900744416873449,-0.009014423076923076,-0.010654466501240694,31.25,-0.8124999999999999,92.625,0.6649780300000001,0.20550536999999963,-0.69348145,-0.1860961900000001
255.0,-0.019100186104218375,-0.24508684863523578,0.014270781637717125,-0.13999999999999996,-9.79,-0.4499999999999995,-0.00803349875930521,-0.017425946029776672,-0.0057382133995037225,31.25,-0.8124999999999999,92.625,0.6649780300000001,0.20550536999999963,-0.69348145,-0.1860961900000001
256.0,-0.018269696029776683,-0.24613399503722083,0.013758219602977672,-0.13999999999999996,-9.79,-0.4527791563275432,-0.02326302729528536,-0.013815330334987592,0.00032568238213399534,31.25,-0.8124999999999999,92.64385856079403,0.6648592914193552,0.20553735713647628,-0.6936016413647641,-0.1860666271612902
257.0,-0.018613756203473955,-0.24553598014888334,0.017975883995037224,-0.13999999999999996,-9.79,-0.459454094292804,-0.04521557071960298,-0.023556238368486353,0.019129962779156327,31.25,-0.8124999999999999,92.68432847394541,0.6645770603870971,0.2056099633263027,-0.6938762532630269,-0.18599133317741923
258.0,-0.009540668716510234,-0.2432857553853346,0.0186878236595102,-0.13438990182328187,-9.789999999999997,-0.4311646348041861,0.21628889533211063,-0.40016716086551946,-0.10528452115249756,31.179873772791023,-0.7797744273024778,92.51721683164311,0.6657171257078074,0.20439391889316538,-0.6931629468535798,-0.18589310075654503
259.0,-0.016854952479697243,-0.23223140947634852,0.028876940767136507,-0.13332398316970545,-9.791214421252368,-0.3951933230946926,-0.3916665402371705,-0.7819156265072379,0.04345093350581953,30.778504248824355,-0.7733668151692654,92.30308185035665,0.667643517588249,0.2014617230803588,-0.6926810372123686,-0.18391829243709606
260.0,0.0018414609721329502,-0.24458553480729872,0.003372946190019866,-0.1482380284512122,-9.789869883437241,-0.45548145417407443,-0.1952149305448525,-0.08087086768910284,0.053538452784015755,30.234989451601116,-0.8634403200270291,92.6575893122751,0.6663517246512674,0.19980501168303655,-0.695370987679917,-0.18021173478536828
261.0,0.0010472061609292473,-0.2444464631702484,-0.005174042733247829,-0.15897727424515642,-9.785555665081272,-0.5054398022054672,-0.3902732672124218,0.05307253667954814,0.08043961514304179,30.078271851900265,-0.9068851160252447,92.95204452454871,0.6647927345338447,0.20002043186911422,-0.6971526352938274,-0.17886297600656487
262.0,-0.004017422090600874,-0.24315920421464526,-0.008570342480993415,-0.16106243966412276,-9.782851146323619,-0.5347894881017559,-0.15204808048426563,0.08912838787178776,0.020559685687356676,30.01653084286118,-0.9290962725776273,93.12322879712895,0.6638583984695741,0.20009821227031888,-0.6981914007867291,-0.17821578429169585
263.0,-0.0031308681830503515,-0.2414090991235204,-0.005200937266402161,-0.1589797801818676,-9.78126428283922,-0.5549906519792667,-0.11242694291792965,-0.37593277413604737,0.055619542538422995,29.78299007286199,-0.9140409242876035,93.23894093927893,0.6635081840325212,0.19875725715240217,-0.6993029418768779,-0.17667193332341857
264.0,-0.012127003293986216,-0.23927586518478364,0.004678799378989131,-0.1535991276275908,-9.780432900432885,-0.5662402227753269,0.008776142421778085,0.15133761715830027,0.06196087672605699,29.947533360851672,-0.8898862404199217,93.30887024897936,0.6628411136600707,0.19950870431537654,-0.699519952187289,-0.17748685361487473
265.0,-0.011863552850270121,-0.24150070781000577,0.004726240447303065,-0.1515991029843024,-9.780078201368509,-0.5773843202970339,-0.039149115169039274,-0.01644588676135164,0.0356191352396286,30.00611915098395,-0.8812478437122649,93.37512124840161,0.6623811930476493,0.1998718160109909,-0.6998093607439262,-0.1776696086440989
266.0,-0.01192064534324435,-0.23951403126129212,0.012227450309105447,-0.150496521189121,-9.780014662756583,-0.5835514449843888,-0.06295976239011987,-0.1110361627229014,0.03954257143528429,29.990647965899697,-0.8769783939968949,93.40864553023303,0.662161348892806,0.1998859244167463,-0.7000410575562408,-0.1775615183323922
267.0,-0.011461649301981066,-0.24169145216185683,0.015219529744228286,-0.15004786958771799,-9.779999999999985,-0.5910929733417037,-0.016408371163872483,-0.06053003849034331,0.023951189595126668,29.96314228695767,-0.87482839543442,93.45024686789546,0.6619695088903819,0.1998341437061854,-0.7002883312827751,-0.17737039278335864
268.0,-0.00995535855057187,-0.2425709000214724,0.010905749932805086,-0.149926686217009,-9.779999999999985,-0.5864474760988806,0.07257721972212086,-0.06846040492632585,-0.005201975155148933,29.951695113765872,-0.8746028836754642,93.41857393242668,0.662159702864478,0.19974659163818942,-0.7001232788611325,-0.17736102362116793
269.0,-0.008950725442938132,-0.24159304740188736,0.004275327412599041,-0.1500000000000002,-9.779999999999985,-0.5833728094081886,0.03897653151546807,0.04669213901080468,-0.0085211757095553,29.90937639363758,-0.875,93.39736736699535,0.6623503540153279,0.19946663643493048,-0.7000759630204976,-0.1771271216053053
270.0,-0.00971486192038554,-0.2416456722399986,-0.0011729584961020795,-0.1500000000000002,-9.779999999999985,-0.5815865583139248,-0.02701845260772522,0.038929518459038595,-0.03981641181460785,29.889292011462924,-0.875,93.3853356292222,0.662451831272897,0.19932723910072175,-0.7000437896566899,-0.17701984805559678
271.0,-0.008332977266124093,-0.24169172269648215,-0.0024699339827024443,-0.1500000000000002,-9.779999999999985,-0.5806554019457236,-0.02747579758377936,0.018944467866355928,-0.038329771984307044,29.880536354326672,-0.875,93.37919226830516,0.6625031490885817,0.19926175287762415,-0.7000245543522781,-0.1769719528571428
272.0,-0.007902428378367035,-0.2402016910890865,-0.0045941497209814035,-0.1500000000000002,-9.779999999999985,-0.5800460829493078,-0.00436439566188291,0.018933484614511893,-0.018756601797448934,29.876760112647208,-0.875,93.37532002048133,0.6625315259447004,0.19923087585765487,-0.7000106786379923,-0.17695226431643618
273.0,-0.007980416574265195,-0.23946435577694014,-0.007810511591409224,-0.1500000000000002,-9.779999999999985,-0.5799999999999991,0.008328926493918563,0.014204593916855733,-0.022930135958103753,29.874999999999996,-0.875,93.375,0.66253662,0.19921875,-0.7000122099999995,-0.1769409199999999
274.0,-0.008424370106275912,-0.24090880401221415,-0.008360570444038828,-0.1500000000000002,-9.779999999999985,-0.5799999999999991,0.03153093601269169,-0.016892943655004176,-0.03458444925879804,29.874999999999996,-0.875,93.375,0.66253662,0.19921875,-0.7000122099999995,-0.1769409199999999
275.0,-0.009370873918902786,-0.2410085123078761,-0.00632648709506832,-0.15158168574401681,-9.779999999999985,-0.5799999999999991,0.005294604322682998,-0.07076762167141468,-0.04428233909349892,29.863553590010405,-0.875,93.375,0.6625645657232053,0.19914304286160256,-0.7000320256087409,-0.17685962426638918
276.0,-0.00928345532799865,-0.23965542718652788,0.012295253790685395,-0.15243647167051247,-9.779999999999983,-0.5877045348293592,-0.10065174095497754,0.14705819364332265,-0.01738078634084981,30.130146360222593,-0.8810776063581112,93.42502337540907,0.6618397435301393,0.2007559970198616,-0.6998915423953007,-0.1783137530495107
277.0,-0.010500001948392238,-0.24279523254673505,0.025250537223539198,-0.15121823583525634,-9.779999999999983,-0.5993361383824214,-0.08596505461107978,0.12392767716951325,-0.0071705539652319,30.16386350269194,-0.8780388031790556,93.49678588125292,0.6613426289540096,0.2009389325063465,-0.7002733941085568,-0.1784403869702239
278.0,-0.009298115537399133,-0.2446928361997009,0.029998664380066514,-0.15060911791762827,-9.779999999999983,-0.6051519401589525,-0.09612838025303175,0.05623392348309335,0.03884040600303062,30.180722073926617,-0.8765194015895278,93.53266713417486,0.6611205741544239,0.2010238993176893,-0.7004438194019487,-0.17850970380769265
279.0,-0.011387996601768494,-0.2439479055130777,0.03373649989335644,-0.15030455895881423,-9.779999999999985,-0.608059841047218,-0.05814011367414752,0.027753922113567864,0.019635298734855356,30.18915135954395,-0.875759700794764,93.55060776063581,0.6610095467546311,0.2010663827233607,-0.7005430340558128,-0.17854436222642706
280.0,-0.011253311516284874,-0.24372993610721527,0.03258365057102787,-0.15010285179990668,-9.779999999999985,-0.6095137914913508,-0.03474448451657428,0.004219052628063848,0.00515128620405619,30.193723702664798,-0.875379850397382,93.55957807386629,0.6609531597508844,0.20108999027427132,-0.7005920221449717,-0.17856423192746956
281.0,-0.010398745519713266,-0.24374551971326172,0.030971582181259616,-0.1500000000000002,-9.779999999999985,-0.6099999999999997,-0.003040194572452637,-0.0025801651305683566,-0.029813908090117767,30.1875,-0.875,93.5625,0.6609480535944696,0.20105020630824358,-0.7006212159088578,-0.17852745500768058
282.0,-0.009851190476190479,-0.24250640040962634,0.03352086533538148,-0.1500000000000002,-9.779999999999985,-0.6099999999999997,0.016217037890424987,0.004686299923195084,-0.014450924859190988,30.1875,-0.875,93.5625,0.6609497099999995,0.20104979999999983,-0.7006216848745515,-0.1785278300000001
283.0,-0.010117607526881723,-0.24195724526369697,0.030093766001024085,-0.1500000000000002,-9.779999999999985,-0.6099999999999997,0.04050259216589862,0.009071580581157195,0.0005350342421914997,30.1875,-0.875,93.5625,0.6609497099999995,0.20104979999999983,-0.7006225599999996,-0.1785278300000001
284.0,-0.01119610732009926,-0.24164205955335,0.028599720843672474,-0.1500000000000002,-9.779999999999985,-0.6099999999999997,0.03542765198511166,0.011515683157568238,0.00028351814516129007,30.1875,-0.875,93.5625,0.6609497099999995,0.20104979999999983,-0.7006225599999996,-0.1785278300000001
285.0,-0.009854606079404468,-0.2420559088089331,0.030746433002481408,-0.1500000000000002,-9.779999999999985,-0.6099999999999997,0.05217703163771712,-0.009000852977667494,-0.00724546370967742,30.1875,-0.875,93.5625,0.6609497099999995,0.20104979999999983,-0.7006225599999996,-0.1785278300000001
286.0,-0.01048227310324085,-0.2437852399616513,0.03296394230769232,-0.1500000000000002,-9.779999999999985,-0.6099999999999997,-0.007004829427964508,0.0321249629906384,0.017424433345552298,30.1875,-0.875,93.5625,0.6609497099999995,0.20104979999999983,-0.7006225599999996,-0.1785278300000001
287.0,-0.010251217196781716,-0.24329921892623513,0.030113213399503735,-0.1500000000000002,-9.779999999999985,-0.6099999999999997,-0.0030296421488457768,0.00590065806169637,0.020607135639897738,30.1875,-0.875,93.5625,0.6609497099999995,0.20104979999999983,-0.7006225599999996,-0.1785278300000001
288.0,-0.01066797785547786,-0.24295383111512153,0.027135357921648257,-0.1500000000000002,-9.779999999999985,-0.6099999999999997,-0.008340735205654561,-0.00018698539363861885,0.019795220740281224,30.1875,-0.875,93.5625,0.6609497099999995,0.20104979999999983,-0.7006225599999996,-0.1785278300000001
289.0,-0.00982755987292278,-0.24395702684412368,0.029079070794796616,-0.1500000000000002,-9.779999999999985,-0.6099999999999997,-0.02467472883299496,-0.002754407051282051,0.010875127476689977,30.1875,-0.875,93.5625,0.6609497099999995,0.20104979999999983,-0.7006225599999996,-0.1785278300000001
290.0,-0.009858260019550348,-0.24318941273779993,0.02988517933679225,-0.1500000000000002,-9.779999999999985,-0.6099999999999997,-0.050065324460485755,7.284382284382298e-05,0.003718794646214,30.1875,-0.875,93.5625,0.6609497099999995,0.20104979999999983,-0.7006225599999996,-0.1785278300000001
291.0,-0.011632453567937445,-0.2436181667794572,0.029783743138581863,-0.1500000000000002,-9.779999999999985,-0.6099999999999997,-0.04111587337393789,-0.016260621099330776,-0.007564478532220467,30.1875,-0.875,93.5625,0.6609497099999995,0.20104979999999983,-0.7006225599999996,-0.1785278300000001
292.0,-0.011050830889540574,-0.24254643206256118,0.03345063538611927,-0.1500000000000002,-9.779999999999985,-0.6099999999999997,-0.010325024437927663,-0.00879765395894428,0.011485826001955034,30.1875,-0.875,93.5625,0.6609497099999995,0.20104979999999983,-0.7006225599999996,-0.1785278300000001
293.0,-0.010893479815001245,-0.24146277410600958,0.03736464306035805,-0.1500000000000002,-9.779999999999985,-0.6139287433798748,-0.11186415794925664,-0.1092662603405261,0.00062280241023621,30.13165021665864,-0.875,93.58898050072219,0.6608716592729897,0.20077098532498794,-0.700872695079441,-0.1781253566634569
294.0,-0.011462847055047347,-0.2429642112020543,0.03867488072832321,-0.1500000000000002,-9.779999999999985,-0.6210544053923928,0.010173199253001863,-0.018446987934229143,0.005576953939977532,30.062800914780937,-0.875,93.6287012518055,0.6607202608329317,0.20038661552238818,-0.7012770487433797,-0.17754233549831477
295.0,-0.01204344844691499,-0.2420592783881181,0.027931384135043272,-0.1500000000000002,-9.779999999999985,-0.6118295618680794,0.1039692483331145,0.004226940809150729,0.0004422535416757859,30.02837626384208,-0.875,93.5984894077997,0.6610526776263843,0.20009663248916718,-0.7010776907462687,-0.1773655466875301
296.0,-0.011593571730788874,-0.2396342335244599,0.030610364599290944,-0.1500000000000002,-9.779999999999985,-0.6098199617747044,-0.04621002392728439,0.006497023679257671,0.011248741629097912,30.011163938372654,-0.875,93.59369118483826,0.6611391334417355,0.19996895215856214,-0.7010515455881883,-0.17725793917465457
297.0,-0.010163843538903724,-0.23932347062342252,0.02151485971900031,-0.15203323558162285,-9.779217986314746,-0.6469774295677039,-0.09527326709560699,0.03944719219153499,0.08578077355159686,29.974209779548005,-0.887218963831867,93.79657066573293,0.6598707311636831,0.20029602358661247,-0.7022765987569486,-0.1767788602667017
298.0,-0.020777636742971367,-0.2368042485519617,0.011717949840241609,-0.1561779081133921,-9.780225266628719,-0.613883514976437,0.38565055951912,-0.1633228651464087,-0.03447480340234312,29.927568900366204,-0.9008494915452064,93.60167363329978,0.6611527204470315,0.19987244851694608,-0.7011808123635492,-0.17682900433171383
299.0,-0.025171244270161326,-0.23745757396981065,-0.005612811988136636,-0.1499631021711894,-9.785273923636936,-0.5495768216042582,0.27801213512381096,0.0285231765257805,-0.1314419779792541,30.133707212563834,-0.8665708157407994,93.2224127031194,0.6631229871759188,0.20007329245766334,-0.6987771680117771,-0.1786870317201979
300.0,-0.01715369088225389,-0.23589427917206346,-0.023970234943164474,-0.1499815510855948,-9.787798252141048,-0.5354073833878807,0.18776018918254128,-0.016462722733447704,-0.10132513468344535,30.099111670798045,-0.8707854078703998,93.13430156099639,0.6636915155988722,0.1997084638676172,-0.6983489170190484,-0.17868467699007964
301.0,-0.0142611074157115,-0.23587724711291352,-0.04122021033570736,-0.1499907755427975,-9.789060416393102,-0.5251132713615849,0.1761442685893156,-0.03523527143515005,-0.08814423889597488,30.081813899915154,-0.8728927039351999,93.05277822429096,0.6641434194489965,0.19949161964397477,-0.6979678235608436,-0.17871655610501042
302.0,-0.012714620179018999,-0.23416296373240997,-0.05533884417078622,-0.14993184915947316,-9.789715936446797,-0.5147853746837254,0.1598738205116666,-0.03538095438815176,-0.04457615170605196,30.074050889351515,-0.8735645093478541,92.97823112094314,0.664558515699571,0.19933231902286713,-0.6975899521787601,-0.17878301405446012
303.0,-0.011896141984624495,-0.23431199184731688,-0.06726340008620789,-0.149804634257156,-9.79,-0.5112323599465813,0.08535962608117309,0.010464730020471727,0.013881186396520341,30.071104043616536,-0.8736653793730123,92.95019223355774,0.66471561046654,0.19927128820425977,-0.6974448056247676,-0.1788075834595843
304.0,-0.011435436874953008,-0.23265720166929865,-0.0765686517783292,-0.1500000000000002,-9.79,-0.5109433040078208,0.0315170548537484,0.004235222103165651,0.016955927137378753,30.0625,-0.875,92.94495356793743,0.6647527278366316,0.19922811728250242,-0.6974299518310118,-0.17876296114369483
305.0,-0.011433749718023915,-0.2329757171591851,-0.08064258590871491,-0.1500000000000002,-9.789999999999997,-0.5102492668621708,0.023914685784645458,-0.011598175849687946,0.01496928810436875,30.0625,-0.875,92.93921065493646,0.6647839068753048,0.1992211664076246,-0.6973987429585167,-0.17876964321603112
306.0,-0.010291654917662985,-0.2326828732423493,-0.08160184036393714,-0.1500000000000002,-9.79,-0.5100000000000007,-0.034367803735243244,-0.01050338900011279,0.022758348842018196,30.0625,-0.875,92.9375,0.6647943355393138,0.19921875,-0.6973882844606856,-0.17877196999999984
307.0,-0.0104458041958042,-0.23264846980976034,-0.08490343258891644,-0.1500000000000002,-9.79,-0.5100000000000007,-2.7022708474315482e-06,-0.003739355402661854,-0.016971670802315965,30.0625,-0.875,92.9375,0.6647949199999992,0.19921875,-0.6973877,-0.17877196999999984
308.0,-0.010433820212046023,-0.23252274607113338,-0.08655593465674111,-0.1500000000000002,-9.79,-0.5100000000000007,0.01677904588690879,0.015298436442589668,-0.025421319272125723,30.0625,-0.875,92.9375,0.6647949199999992,0.19921875,-0.6973877,-0.17877196999999984
309.0,-0.010192096210241374,-0.2338221670802318,-0.08652238420181968,-0.1500000000000002,-9.79,-0.5100000000000007,-0.006467797155801189,0.00454748124859012,-0.017448562861869313,30.0625,-0.875,92.9375,0.6647949199999992,0.19921875,-0.6973877,-0.17877196999999984
310.0,-0.009835840570719607,-0.23281017369727067,-0.08987740384615384,-0.1500000000000002,-9.79,-0.5100000000000007,-0.004035650589330026,-0.0002457157258064515,-0.021299240074441686,30.0625,-0.875,92.9375,0.6647949199999992,0.19921875,-0.6973877,-0.17877196999999984
311.0,-0.007548387096774196,-0.2331116625310176,-0.09102512406947888,-0.1500000000000002,-9.79,-0.5100000000000007,-0.01801721464019851,-0.006401209677419355,0.0052865229528535965,30.0625,-0.875,92.9375,0.6647949199999992,0.19921875,-0.6973877,-0.17877196999999984
312.0,-0.009732009925558317,-0.2317555831265511,-0.09490710297766748,-0.1500000000000002,-9.79,-0.5100000000000007,-0.00608522022332506,0.009369184243176178,0.01713612748138958,30.0625,-0.875,92.9375,0.6647949199999992,0.19921875,-0.6973877,-0.17877196999999984
313.0,-0.008406947890818861,-0.2336606699751863,-0.09539151674937965,-0.1500000000000002,-9.79,-0.5100000000000007,-0.02979509150124069,-0.0034342044044665017,0.02872159972084367,30.0625,-0.875,92.9375,0.6647949199999992,0.19921875,-0.6973877,-0.17877196999999984
314.0,-0.008719602977667495,-0.2344109801488836,-0.09525372208436722,-0.1500000000000002,-9.79,-0.5100000000000007,-0.021985499379652603,-0.001118563895781638,0.0024057847394540945,30.0625,-0.875,92.9375,0.6647949199999992,0.19921875,-0.6973877,-0.17877196999999984
315.0,-0.008560794044665015,-0.23411119727047167,-0.09322487593052108,-0.1500000000000002,-9.79,-0.5100000000000007,-0.03769095068238214,-0.013571068548387095,-0.027643261476426796,30.0625,-0.875,92.9375,0.6647949199999992,0.19921875,-0.6973877,-0.17877196999999984
316.0,-0.009928315412186384,-0.23421298963133663,-0.09477774577572964,-0.1500000000000002,-9.79,-0.5100000000000007,-0.027519261232718896,-0.007607986911162314,-0.018941712269585253,30.0625,-0.875,92.9375,0.6647949199999992,0.19921875,-0.6973877,-0.17877196999999984
317.0,-0.010095206093189969,-0.23322796658986197,-0.09539794546850995,-0.1500000000000002,-9.79,-0.5100000000000007,0.014355918778801841,-0.016294542850742447,-0.010400165610599078,30.0625,-0.875,92.9375,0.6647949199999992,0.19921875,-0.6973877,-0.17877196999999984
318.0,-0.010173611111111116,-0.2334612615207375,-0.09655985983102915,-0.1500000000000002,-9.79,-0.5100000000000007,-0.016700568836405527,-0.006902941788274449,-0.0017821140552995388,30.0625,-0.875,92.9375,0.6647949199999992,0.19921875,-0.6973877,-0.17877196999999984
319.0,-0.008811603942652332,-0.23342165898617528,-0.09481470814132102,-0.1500000000000002,-9.79,-0.5100000000000007,-0.04440434187788018,-0.013043834805427548,-0.009081581221198155,30.0625,-0.875,92.9375,0.6647949199999992,0.19921875,-0.6973877,-0.17877196999999984
320.0,-0.007818100358422939,-0.23253744239631352,-0.0962581605222734,-0.1500000000000002,-9.79,-0.507661290322581,0.0013140841013824928,-0.029297875064004095,-0.026812716013824886,30.0625,-0.875,92.9375,0.6648234687096772,0.19921875,-0.6973734245161294,-0.17878673774193538
321.0,-0.008494106699751864,-0.2324700682382136,-0.09390268300248136,-0.1500000000000002,-9.79,-0.5036693548387098,0.023277566687344913,-0.012135545905707198,-0.02021023960918114,30.0625,-0.875,92.9375,0.664872198225807,0.19921875,-0.6973490577419362,-0.1788108583870967
322.0,-0.009242013027295288,-0.23151736972704734,-0.09518804280397022,-0.1500000000000002,-9.79,-0.5016733870967742,0.010756726892059554,-0.003704637096774193,-0.005126589640198511,30.0625,-0.875,92.9375,0.6648965629838719,0.19921875,-0.6973368743548396,-0.17882291870967737
323.0,-0.008731389578163773,-0.23182723325062055,-0.0935995657568238,-0.1500000000000002,-9.79,-0.5006754032258065,-0.003930482320099255,0.001644405241935484,0.006887310018610422,30.0625,-0.875,92.9375,0.6649087453629042,0.19921875,-0.6973307826612913,-0.1788289488709677
324.0,-0.00838939957891571,-0.23203119360478253,-0.09503383713061131,-0.1500000000000002,-9.789999999999997,-0.5001764112903225,-0.013050132411271523,0.015295469819159335,0.02375052283066396,30.0625,-0.875,92.9375,0.6649148365524205,0.19921875,-0.6973277368145171,-0.17883196395161288
325.0,-0.008054036017745698,-0.2336082224227387,-0.10001877960748928,-0.1500000000000002,-9.79,-0.5,0.008647031731709151,0.004898335871118128,0.0006891378111136166,30.0625,-0.875,92.9375,0.6649169900000012,0.19921875,-0.697326660000001,-0.17883300999999996
326.0,-0.007553598954808635,-0.23246822129483438,-0.09724993420557934,-0.1500000000000002,-9.789999999999997,-0.5,-0.006149546018497631,-0.01620120051319648,-0.008235963465298143,30.0625,-0.875,92.9375,0.6649169900000012,0.19921875,-0.697326660000001,-0.17883300999999996
327.0,-0.007728412380630125,-0.23275644315362076,-0.09916591003082936,-0.1500000000000002,-9.79,-0.5045161290322584,0.001461517313331829,-0.02429166725411685,-0.020402100839348822,30.0625,-0.875,92.9375,0.6648613695161292,0.19921875,-0.6973547187096779,-0.1788059358064515
328.0,-0.010003590495525985,-0.23404269117978815,-0.10391739980449657,-0.1500000000000002,-9.79,-0.5074193548387101,0.02883734209339048,-0.02069281524926686,-0.026381212873148357,30.0625,-0.875,92.9375,0.6648261758870964,0.19921875,-0.697372193870968,-0.17878796838709662
329.0,-0.010192373486728329,-0.2340492048274308,-0.10162032859613503,-0.1500000000000002,-9.79,-0.5088709677419361,0.020259570738401383,-0.0008637867508835256,-0.010342882923528085,30.0625,-0.875,92.9375,0.66480857907258,0.19921875,-0.6973809314516131,-0.1787789846774192
330.0,-0.00870412719001429,-0.23313378355515474,-0.10128907248665311,-0.1500000000000002,-9.79,-0.5075322580645165,0.04288412780096248,-0.020174449206707273,-0.04996052334762012,30.0625,-0.875,92.9375,0.6648598776181753,0.19920711756327536,-0.6973373183461539,-0.1787987252394539
331.0,-0.009477900124069481,-0.2311478753101739,-0.10422875310173696,-0.1500000000000002,-9.79,-0.5037661290322581,0.03514704171836228,-0.016950992555831264,-0.029668114143920593,30.0625,-0.875,92.9375,0.6649824575113205,0.19918142926550858,-0.69723748078598,-0.1788473669745656
332.0,-0.008501240694789084,-0.2346550868486354,-0.10797518610421836,-0.1500000000000002,-9.79,-0.501741935483871,0.01643920595533499,-0.011445409429280396,-0.024751861042183625,30.0625,-0.875,92.9375,0.6650144657667489,0.19916858511662516,-0.6972181896873444,-0.17884103455583117
333.0,-0.00530581246710279,-0.23333799533799546,-0.10557650951199338,-0.1500000000000002,-9.789999999999997,-0.5007096774193549,0.013704977817881044,0.0004060455673358899,-0.00992461839236033,30.0625,-0.875,92.9375,0.66503070062531,0.19916741379487168,-0.697206527091961,-0.17883562008827725
334.0,-0.004489541913711388,-0.23275999429875227,-0.10665237089984322,-0.1500000000000002,-9.789999999999997,-0.49780548868560426,0.12512195115107969,-0.005884714707536084,0.030075976422870982,30.0625,-0.875,92.91438974482426,0.6651399076260878,0.1992631396345566,-0.6970859996701981,-0.17877793636334904
335.0,-0.0022869545796844783,-0.23277205670272613,-0.10100608619433848,-0.1500000000000002,-9.79,-0.5039672604718347,0.10221668277156962,0.001648213365834936,0.05118873262830893,30.0625,-0.875,92.95820293692826,0.6649340364284289,0.19939785121926334,-0.6972698486241808,-0.17867969269284092
336.0,-0.0019181219999708202,-0.23437008730316405,-0.09413775247381409,-0.1500000000000002,-9.789999999999997,-0.5071449205584984,0.015498991058692554,0.0015454955091450037,0.02086186763004288,30.0625,-0.875,92.98010953298026,0.6648280717477135,0.19946679738382514,-0.6973642115701547,-0.1786293592496464
337.0,-0.0018697309751715143,-0.23388231412304614,-0.09442371494658446,-0.1500000000000002,-9.79,-0.5087337506018301,-0.003137601244847273,0.011799422692537762,0.014726839522217471,30.0625,-0.875,92.99106283100626,0.6647760587770828,0.19950127046610605,-0.6974104085270127,-0.1786051768828879
338.0,-0.0013873162626171776,-0.23321774785424298,-0.09265220565557589,-0.1500000000000002,-9.79,-0.509528165623496,0.06991722902892859,0.03336619647404433,-0.0223955757236932,30.0625,-0.875,92.99653948001927,0.6647500522917675,0.199518342921225,-0.697433566673086,-0.17859316028406386
339.0,-0.0017132738922541212,-0.23223873709825865,-0.09004548717556002,-0.1500000000000002,-9.79,-0.5100000000000007,-0.005683324075623768,0.015302773016092473,-0.008133795906948873,30.0625,-0.875,93.0,0.6647338900000006,0.1995238694143919,-0.6974487299999997,-0.1785888700000003
340.0,-0.0014869098989806586,-0.23369505093126341,-0.08747187510142763,-0.1500000000000002,-9.79,-0.5100000000000007,0.012760074934892833,0.012986374101098347,-0.0026711163157573147,30.0625,-0.875,93.0,0.6647338900000006,0.19952392999999985,-0.6974487299999997,-0.1785888700000003
341.0,-0.0017463875008099775,-0.23326334620403316,-0.09115228464448025,-0.1500000000000002,-9.79,-0.5100000000000007,0.03924153081281073,-0.0024550891356302385,0.002291124299448961,30.0625,-0.875,93.0,0.6647338900000006,0.19952392999999985,-0.6974487299999997,-0.1785888700000003
342.0,-0.001969967943953376,-0.23351008501268666,-0.0877498395927116,-0.1500000000000002,-9.79,-0.5100000000000007,0.03861115002178998,-0.012153413054167476,0.007573912025655001,30.0625,-0.875,93.0,0.6647338900000006,0.19952392999999985,-0.6974487299999996,-0.1785888700000003
343.0,-0.0024680621147842793,-0.23321251901064616,-0.0852748339069879,-0.1500000000000002,-9.790000000000001,-0.5100000000000007,-0.0474506973905387,-0.005379887737132794,-0.020258970023213,30.0625,-0.875,93.0,0.6647338900000006,0.19952392999999985,-0.6974487299999997,-0.1785888700000003
344.0,-0.00231187464980389,-0.23285591931481647,-0.08743042103578003,-0.1500000000000002,-9.79,-0.5100000000000007,-0.006193781017369726,0.025646674637797167,-0.018696282418154166,30.0625,-0.875,93.0,0.6647338900000006,0.19952392999999985,-0.6974487299999997,-0.1785888700000003
345.0,0.00013438525574321642,-0.23277535419835124,-0.09014200952533417,-0.1500000000000002,-9.79,-0.5100000000000007,0.036574325372208435,-0.004220707346113826,-0.015877297536620507,30.0625,-0.875,93.0,0.6646985108635237,0.19952392999999985,-0.6974841091364766,-0.17857142134491338
346.0,-0.0005357850396221883,-0.23292862002721543,-0.09134643900584324,-0.1500000000000002,-9.79,-0.5100000000000007,0.005383936879652607,0.00015391431701752833,0.020240631628712077,30.0625,-0.875,93.0,0.664653196560794,0.19952392999999985,-0.6975294234392063,-0.17854864115632768
347.0,-0.0013442727927639477,-0.23275370207316118,-0.09258520771632112,-0.1500000000000002,-9.79,-0.5100000000000007,0.06215880893300248,-0.017954554550548306,0.002967661890658769,30.0625,-0.875,93.0,0.6646809424267993,0.19952392999999985,-0.6975263965012415,-0.17856293935980172
348.0,-0.00014888337468982625,-0.23291811414392083,-0.09402481389578163,-0.1500000000000002,-9.79,-0.5100000000000007,-0.014547146401985109,0.00338089330024814,0.009212158808933002,30.0625,-0.875,93.0,0.6647074162133999,0.19952392999999985,-0.6975190677667503,-0.17857590467990098
349.0,-0.0019454094292803974,-0.23324565756823845,-0.09726054590570718,-0.1500000000000002,-9.79,-0.5100000000000007,0.021991315136476428,-0.010607940446650125,0.008839950372208437,30.0625,-0.875,93.0,0.6647206531067003,0.19952392999999985,-0.6975154033995047,-0.17858238733995063
350.0,-0.0014156327543424318,-0.23238461538461563,-0.0947171215880893,-0.1500000000000002,-9.79,-0.5100000000000007,-0.007397642679900743,-0.011833126550868486,-0.013523573200992553,30.0625,-0.875,93.0,0.6647283771513652,0.19952392999999985,-0.6975124656178671,-0.17858617394044696
351.0,-0.0025142679900744414,-0.23336600496277932,-0.09985980148883372,-0.1500000000000002,-9.79,-0.5061091811414395,0.06317462779156327,0.0034506823821339964,-0.02451923076923077,30.0625,-0.875,92.95186104218362,0.6648983645012414,0.19947595000992546,-0.6973211179503721,-0.17863503226302752
352.0,-0.0007385235732009926,-0.2314795285359803,-0.10430831265508686,-0.1500000000000002,-9.79,-0.5012803970223324,0.05995269851116625,-0.016854063275434244,-0.04278846153846154,30.0625,-0.875,92.91141439205956,0.6650916682853599,0.19941872395657567,-0.6971174661191066,-0.17868448813027304
353.0,-0.0010293114143920601,-0.23181916873449146,-0.11360452853598016,-0.1500000000000002,-9.79,-0.49531761786600453,0.02793695719602977,-0.022927651985111663,-0.010522642679900742,30.0625,-0.875,92.89119106699752,0.6653223017233248,0.19934531923635246,-0.6969040903176176,-0.17873118229094287
354.0,-0.0016020557623380206,-0.2315079143526726,-0.11720428876678876,-0.1500000000000002,-9.79,-0.4923362282878406,-0.017171975929536412,-0.019811683332348652,-0.01921027561148529,30.0625,-0.875,92.8810794044665,0.6654376184423074,0.19930861687624082,-0.696797402416873,-0.17875452937127778
355.0,-0.001121413547141955,-0.23056226232722088,-0.11896748647496566,-0.1500000000000002,-9.79,-0.4908455334987587,-0.003367831422104316,-0.007083870737454244,-0.03505266967358864,30.0625,-0.875,92.876023573201,0.6654952768017987,0.19929026569618502,-0.6967440584665008,-0.17876620291144524
356.0,-0.0008313357861354739,-0.23127668041722432,-0.11956803170886808,-0.1500000000000002,-9.79,-0.49022177419354773,-0.024243390286655765,0.011524382721784516,0.01628309050488909,30.0625,-0.875,92.875,0.6655189415423383,0.19928258948084693,-0.6967232932258061,-0.1787705857510079
357.0,-0.0018459813686140425,-0.23006065420444993,-0.11964004147878368,-0.1500000000000002,-9.790000000000001,-0.4899999999999994,-0.012026172900872108,0.00011723330938341256,-0.00026288779256065757,30.0625,-0.875,92.875,0.6655273399999997,0.19927979000000018,-0.6967163099999996,-0.17877196999999984
358.0,-0.00243508745850057,-0.23160794806996698,-0.11914209735229508,-0.1500000000000002,-9.790000000000001,-0.4899999999999993,0.024339106089886528,0.007556096493401384,0.011114775861784186,30.0625,-0.875,92.875,0.6655273399999996,0.19927979000000018,-0.6967163099999996,-0.17877196999999984
359.0,-0.002014167616404869,-0.22961804007069375,-0.11873602233123567,-0.1500000000000002,-9.790000000000001,-0.4899999999999994,0.006349825743686305,0.008212396561121847,0.03252427510199363,30.0625,-0.875,92.875,0.6655273399999997,0.19927979000000018,-0.6967163099999996,-0.17877196999999984
360.0,-0.0007469381266207488,-0.23072993574814615,-0.11862139305947841,-0.1500000000000002,-9.790000000000003,-0.4899999999999994,-9.316725302677391e-05,0.0071466509340468755,0.03736645596931107,30.0625,-0.875,92.875,0.6655273399999997,0.19927979000000018,-0.6967163099999996,-0.17877196999999984
361.0,-0.000690929380770692,-0.22934858282543005,-0.1193158168574402,-0.1500000000000002,-9.790000000000001,-0.4899999999999993,0.019026637059610524,-0.007659393426985778,-0.00488628046388517,30.0625,-0.875,92.875,0.6655273399999996,0.19927979000000018,-0.6967163099999996,-0.17877196999999984
362.0,-0.00013738943808532764,-0.22993827734007255,-0.11852136085096546,-0.1500000000000002,-9.79,-0.4899999999999993,0.0028243743083428315,-0.005682718532695769,0.01986693277402012,30.0625,-0.875,92.875,0.6655273399999996,0.19927979000000018,-0.6967163099999996,-0.17877196999999984
363.0,0.002281917874009444,-0.2316656337072572,-0.11300788886220728,-0.15444665012406963,-9.79,-0.49698759305210893,-0.014917488714314937,-0.18420331258520645,0.021978141092345048,29.90170595533499,-0.9027915632754342,92.91023573200992,0.6654662765359799,0.19862260719106717,-0.6972062870918112,-0.1777876542878411
364.0,0.0031220077182616203,-0.23634333304572647,-0.1002640743462804,-0.1573846153846155,-9.78921798631476,-0.5122621249718022,-0.05710074842488994,0.026536599312353734,0.030687715423667557,29.869688510414313,-0.9211538461538462,92.99379088653282,0.66493741112234,0.19874643370794806,-0.6977455068743513,-0.17751183349289418
365.0,0.0047482839740904245,-0.2330611252546737,-0.07476374521535813,-0.1588535980148884,-9.784447702834791,-0.5329999820967566,0.023262490197974075,-0.050321318466479754,0.04491968604871831,29.901578126174897,-0.9303349875930521,93.12026333881172,0.6641113046343905,0.19926912692821874,-0.6983789798759878,-0.17756186578126537
366.0,0.005529543932769739,-0.23381934910967175,-0.054478646801227444,-0.15958808933002488,-9.782062561094808,-0.5527903136290235,-0.019186727251243377,-0.004663347405282889,-2.1595787724822124e-05,29.917522934055192,-0.9349255583126551,93.2244461855349,0.6633987794139692,0.19959095435120627,-0.6989681880025098,-0.17750389813256823
367.0,0.003415053584408423,-0.23821023779088307,-0.03984044987270794,-0.15995533498759312,-9.780869990224815,-0.5726803590674562,-0.12510475635475635,-0.0007315712960874251,-0.006331202399750786,29.925495337995336,-0.9372208436724566,93.33850957510231,0.6626194439363753,0.1998723988627512,-0.699684364966437,-0.17735338336479928
368.0,0.0015549213331471398,-0.2383247218731091,-0.028503351487222463,-0.1600000000000001,-9.780273704789819,-0.5827347204766564,-0.06509580249499604,-0.002265599543825351,0.0035031332914397433,29.93450635386119,-0.9375,93.395976251571,0.6622166834272447,0.20003765849092903,-0.7000436424732934,-0.17730588558066268
369.0,0.0016320786465817685,-0.2375709000214724,-0.023563314503741148,-0.1600000000000001,-9.779999999999985,-0.5883094659993728,0.002828955246684174,0.0029600604116082783,-0.009295756218720579,29.9375,-0.9375,93.42889254589713,0.6620334158713022,0.2001127549484097,-0.7001983362404309,-0.1772870628151635
370.0,0.0026308651495631206,-0.23753410798936306,-0.026602528368267195,-0.1600000000000001,-9.779999999999985,-0.5897717324876538,-0.018411823517995474,-0.023590993694564195,0.007415345549857126,29.9375,-0.9375,93.43646048185794,0.6620512978537261,0.200129299099909,-0.7001540549200111,-0.17732309543471958
371.0,0.001470980234749831,-0.23716555346586088,-0.02641353943532345,-0.1600000000000001,-9.779999999999985,-0.5902084468889883,-0.02306783170875977,-0.009781433520999708,0.0039033984161236978,29.9375,-0.9375,93.43896486794509,0.6620695973442019,0.20013568115025698,-0.7001233995214982,-0.1773437049880252
372.0,0.0017139682238446977,-0.23746472840364388,-0.02848723153818599,-0.1600000000000001,-9.779999999999985,-0.5901144640998963,0.06596368915363096,-0.016385129822290647,-0.02232598359589567,29.9375,-0.9375,93.43828043704474,0.6620919681165456,0.2001351055879294,-0.7000948976690957,-0.17735780760665992
373.0,0.003972663515404173,-0.2374492820845665,-0.026701373065559975,-0.1600000000000001,-9.779999999999985,-0.5940715689675108,0.0013303188791708304,0.015597207634297583,0.010633903203332247,29.949788786482333,-0.9375,93.46400388979734,0.6619031102513089,0.20019869566134812,-0.7002566421422792,-0.1773259512610872
374.0,0.003514295353823851,-0.2395933211539395,-0.018258314169335828,-0.1600000000000001,-9.779999999999985,-0.6023297491039425,-0.027017386436899063,0.0003862584593039547,-0.02098357034141565,29.975902457757297,-0.9375,93.51507296466974,0.661505083015873,0.20032378853046584,-0.7006025226216073,-0.1772541560675883
375.0,0.003847851804556739,-0.24052905738584943,-0.01466158857963843,-0.1600000000000001,-9.779999999999985,-0.6064874551971324,-0.0183159686260111,-3.666612241184485e-05,0.0025425974168745546,29.988959293394778,-0.9375,93.54080261136713,0.6613031955401947,0.20038654136200704,-0.7007789084075773,-0.17721665480798765
376.0,0.004246898898303684,-0.23973468443915907,-0.012563219529920885,-0.1600000000000001,-9.779999999999985,-0.6085663082437274,0.024083089704837884,0.010304865963034537,-0.01588179062814859,29.99548771121352,-0.9375,93.55366743471582,0.6612022518023555,0.20041791777777762,-0.7008671013005623,-0.17719790417818734
377.0,0.003361401718816297,-0.23964732720789436,-0.013235730301969367,-0.1600000000000001,-9.779999999999985,-0.6096057347670247,0.018722704334515804,-0.012469771518576553,-0.010349641753063734,29.99875192012289,-0.9375,93.56009984639016,0.6611776033073116,0.20043360598566293,-0.7009111977470548,-0.17718852886328718
378.0,0.0033857699838321115,-0.23912729903661495,-0.013182125263631895,-0.1600000000000001,-9.779999999999985,-0.6099999999999997,-0.06593946708517426,-0.0033867034756221224,0.006937954341082059,30.0,-0.9375,93.5625,0.6611772262030666,0.20043944999999982,-0.700927729999999,-0.17718505999999995
379.0,0.0034990805884342335,-0.24026385433141556,-0.013282050855062236,-0.1600000000000001,-9.779999999999985,-0.6099999999999997,0.010201029386240311,-0.0029814341750870462,-0.04156590506192185,30.0,-0.9375,93.5625,0.6611865226176619,0.2004394499999998,-0.700927729999999,-0.17718505999999995
380.0,0.004222018532824388,-0.24052004800544158,-0.012597246625687803,-0.1600000000000001,-9.779999999999985,-0.6099999999999997,-0.021357178599250553,0.017488097556593703,0.01463931449412868,30.0,-0.9375,93.5625,0.6611911708249596,0.2004394499999998,-0.700927729999999,-0.17718505999999995
381.0,0.004618813636859645,-0.2396122612555825,-0.012198727371116538,-0.1600000000000001,-9.779999999999985,-0.6099999999999997,0.0023449538845578665,0.022987024844894142,0.010457664531143423,30.0,-0.9375,93.5625,0.6611934949286085,0.20043944999999982,-0.700927729999999,-0.17718505999999995
382.0,0.00497327828981055,-0.239977913425169,-0.011437599103116796,-0.1600000000000001,-9.779999999999985,-0.6099999999999997,0.00857203248104653,0.0018147290458847415,-0.009008931410319937,30.0,-0.9375,93.5625,0.6611938499999992,0.2004394499999998,-0.700927729999999,-0.17718505999999995
383.0,0.003495343701996929,-0.24025777391688563,-0.009351672055398642,-0.1600000000000001,-9.779999999999985,-0.6090988223246285,0.06811410123796309,-0.03402287101213187,-0.020777507179814345,29.99385560675883,-0.9375,93.5625,0.6612218515565795,0.20042644928315398,-0.7008987283000503,-0.17718605997951864
384.0,0.00652329749103943,-0.23986042977718325,-0.01191681945063839,-0.1600000000000001,-9.779999999999985,-0.6043881208397339,0.010716556827378886,0.017342013114645786,-0.030972820970219514,29.964669738863286,-0.9375,93.55123527905786,0.6613618595033279,0.20036044596518163,-0.7007677204147462,-0.17718555998975927
385.0,0.004633896569380442,-0.2408045108435328,-0.013347042597823038,-0.1600000000000001,-9.779999999999985,-0.6020327700972867,-0.06840644252845086,0.02168783963463984,-0.002493578943891116,29.95007680491551,-0.9375,93.55686763952892,0.6614353618484384,0.2003369441116229,-0.7007217174654372,-0.17718530999487958
386.0,0.0036879160266257045,-0.24034242191500269,-0.013741679467485925,-0.1600000000000001,-9.779999999999985,-0.6008550947260631,0.007192460317460313,0.00938060035842294,-0.016953084997439836,29.942780337941628,-0.9375,93.55968381976447,0.6614721130209937,0.20032519318484354,-0.7006987159907829,-0.17718518499743974
387.0,0.005282258064516129,-0.240248015873016,-0.011120711725550438,-0.1600000000000001,-9.779999999999985,-0.5983819764464933,0.06992047491039427,-0.03902449756784434,-0.011612743215565796,29.939132104454686,-0.9375,93.53497823860727,0.6615944958986177,0.2002848164618534,-0.700580209580133,-0.17720912389144916
388.0,0.002769137224782386,-0.24011632744495662,-0.018585189452124944,-0.1600000000000001,-9.779999999999985,-0.5895417306707629,0.06882640488991296,-0.07437175979262672,0.01989127304147465,29.911794354838708,-0.9375,93.45700524833589,0.6620868328200208,0.19993184918074744,-0.700239033996416,-0.1770651461802356
389.0,0.0025833948757335847,-0.23784251915199506,-0.028672523041474662,-0.1600000000000001,-9.779999999999985,-0.5832572176927011,0.11847593630607745,-0.050664896399523415,0.02601829594017094,29.892389112903224,-0.9375,93.40687884024578,0.6624056298383454,0.19967709988609236,-0.700038344074225,-0.17694287595364133
390.0,0.003907624857221631,-0.23647418296309441,-0.03538968894009217,-0.1600000000000001,-9.779999999999985,-0.5761447378786088,0.042919923798200005,-0.024245628643310094,0.01760844232492418,29.88268649193548,-0.9375,93.35565716205836,0.6626138681449789,0.1995247134914333,-0.6998884405854994,-0.17690645571875602
391.0,0.0030201120564023786,-0.23704854464531894,-0.038033786777738395,-0.1600000000000001,-9.779999999999985,-0.574494205167592,0.012212181579621097,0.027610920945094333,-0.014032559622277362,29.884286794354836,-0.9375,93.34344582668675,0.6626956948119436,0.19952897012040655,-0.699798948930467,-0.17693961925888174
