time,linaccel_x,linaccel_y,linaccel_z,gravity_x,gravity_y,gravity_z,gyro_x,gyro_y,gyro_z,euler_x,euler_y,euler_z,quaternion_w,quaternion_y,quaternion_x,quaternion_z
0.0,-0.05047619047619046,-0.004126984126984128,-0.04238095238095237,-0.08000000000000004,-0.37000000000000005,-9.79,-0.07936507936507936,0.0,-0.030753968253968252,203.0625,-0.5,177.75,0.01971436000000002,0.20007324,-0.9795532199999998,0.00048828000000000044
1.0,-0.05077411477411476,-0.0035295075295075293,-0.039152625152625145,-0.08000000000000004,-0.37000000000000005,-9.79,-0.027737077737077735,-0.008974358974358974,-0.02178978428978429,203.0625,-0.5,177.75,0.01971436000000002,0.20007323999999999,-0.9795532199999997,0.0004882800000000004
2.0,-0.05235374149659862,-0.0028313274027559738,-0.04016431187859759,-0.08000000000000004,-0.37,-9.79,0.0166841095412524,0.00934065934065934,0.2054966858538287,203.1377747252747,-0.5,177.75,0.01971436000000002,0.20072356676923075,-0.9794271261098897,0.000500622153846154
3.0,-0.05313015873015872,-0.0013212861212861212,-0.03787562067562068,-0.08000000000000004,-0.37000000000000005,-9.79,0.019955229955229956,0.018115588115588114,0.059919617419617426,203.27011497761498,-0.5,177.75,0.01971436000000002,0.20180075181505885,-0.9792194927983722,0.0005265943384615383
4.0,-0.05183221079995272,-0.002783252589704202,-0.04000433258497775,-0.08000000000000004,-0.37,-9.79,-0.03649808972389618,0.03010555752491236,0.014601303714206938,203.32424918271693,-0.5,177.75,0.01971436000000002,0.20223221926535095,-0.9791397236121159,0.0005383237121588085
5.0,-0.050193784709913744,-0.0040248138957816385,-0.04075780849974399,-0.08000000000000004,-0.37,-9.79,-0.016968962936704874,0.005127220449801094,0.005811571940604199,203.3546649139391,-0.5,177.75,0.01971436000000002,0.20247581608428822,-0.9790944563221873,0.0005448063722084363
6.0,-0.0488333047458958,-0.005623148963419517,-0.04025211324691033,-0.08000000000000004,-0.37,-9.79,0.004553819980458897,0.006422771355133477,-0.005139719512768419,203.3698727795502,-0.5,177.75,0.01971436000000002,0.2025976144937569,-0.979071822677223,0.0005480477022332501
7.0,-0.048027634522951904,-0.006603698070919716,-0.04011116828598619,-0.08000000000000004,-0.37,-9.790000000000001,0.0030313324668163368,0.021569666314723547,0.0038532371778989896,203.37535202252946,-0.5,177.75,0.01971436000000002,0.20264015770097263,-0.9790640649564778,0.0005493199999999996
8.0,-0.046997339115965535,-0.00697731335608547,-0.03980934292900995,-0.08000000000000004,-0.37,-9.79,0.0035914354462741557,0.0030374282325374936,0.011812342184350507,203.375,-0.5,177.75,0.01971436000000002,0.20263671999999974,-0.9790649400000004,0.0005493199999999996
9.0,-0.0466339052899927,-0.00648617528846457,-0.038824026303214645,-0.08000000000000004,-0.37,-9.79,0.018358993157380255,-0.019813481913507926,0.0018196326306367926,203.375,-0.5,177.75,0.01971436000000002,0.20263671999999974,-0.9790649400000005,0.0005493199999999996
10.0,-0.047290898054425615,-0.0054974300759940715,-0.0397904250622773,-0.08000000000000004,-0.37,-9.79,-0.018038245356793742,0.005020368224387475,-0.008604761848453315,203.375,-0.5,177.75,0.01971436000000002,0.20263671999999974,-0.9790649400000005,0.0005493199999999996
11.0,-0.0460641234849091,-0.006842687662666853,-0.04037684224377773,-0.08000000000000004,-0.37,-9.79,-0.04416505440016105,-8.50192016620217e-05,-0.03481146601187574,203.375,-0.5,177.75,0.01971436000000002,0.20263671999999974,-0.9790649400000005,0.0005493199999999996
12.0,-0.0490265386495225,-0.006636664410857961,-0.03995020772238514,-0.08000000000000004,-0.37,-9.79,0.02451881955410181,-0.0006278373843898039,0.050690400829009705,203.35316377171216,-0.5,177.75,0.01971436000000002,0.2025422132803969,-0.9790857814491315,0.0005493199999999996
13.0,-0.04974085738013286,-0.0057008724885936135,-0.03981838579604578,-0.08000000000000004,-0.37,-9.79,0.05952955530096854,-0.04326899626290723,0.1114386400134075,203.36408188585608,-0.5,177.75,0.01971436000000002,0.2025579621240695,-0.979075360724566,0.0005493199999999996
14.0,-0.04775097304490514,-0.006625637857200034,-0.03929679370447451,-0.08000000000000004,-0.37,-9.79,0.04189305386016169,0.005725002876610902,0.0745102726276715,203.36954094292804,-0.5,177.75,0.01971436000000002,0.20256583654590582,-0.9790701503622833,0.0005493199999999996
15.0,-0.04609299935236458,-0.0075408095199978676,-0.038540976886450355,-0.08000000000000004,-0.37000000000000005,-9.79,0.006645566214049561,-0.0034593804348617037,0.04684081797928052,203.37227047146402,-0.5,177.75,0.01971436000000002,0.202569773756824,-0.9790675451811418,0.0005493199999999996
16.0,-0.04431697114020213,-0.008164945702926975,-0.03830274650774131,-0.08000000000000004,-0.37000000000000005,-9.79,-0.013457613915307726,0.00033296486941778326,0.022893113704280457,203.37363523573202,-0.5,177.75,0.01971436000000002,0.20257174236228306,-0.9790662425905712,0.0005493199999999996
17.0,-0.044467418572582455,-0.0076072867472451264,-0.0360943012935729,-0.08000000000000004,-0.37,-9.79,-0.0031463007541799167,0.0031906759830959883,-0.00682267391709054,203.375,-0.5,177.75,0.01971436000000002,0.20257568000000017,-0.9790649400000005,0.0005493199999999996
18.0,-0.044449350045116166,-0.007139991728701408,-0.03622605083088955,-0.08000000000000004,-0.37,-9.79,0.02424255641871569,-0.004995602935371081,-0.011073127561282804,203.375,-0.5,177.75,0.01971436000000002,0.20257568000000017,-0.9790649400000005,0.0005493199999999996
19.0,-0.04292547371982856,-0.008133891645988423,-0.03733914204075495,-0.08000000000000004,-0.37,-9.79,0.013216336754643204,0.026940347958493118,0.008272708474321377,203.375,-0.5,177.75,0.01971436000000002,0.20257568000000017,-0.9790649400000005,0.0005493199999999996
20.0,-0.04300232630272952,-0.007077698511166255,-0.03773604218362284,-0.08000000000000004,-0.37,-9.79,-0.0009828629032258077,0.009621200372208436,0.021991315136476425,203.375,-0.5,177.75,0.01971436000000002,0.20257568000000017,-0.9790649400000005,0.0005493199999999996
21.0,-0.045111584987593045,-0.008082273573200995,-0.036436259305210925,-0.08000000000000004,-0.37,-9.79,0.007014772022332506,-0.014606273263027294,0.02890818858560794,203.375,-0.5,177.75,0.01971436000000002,0.20257568000000017,-0.9790649400000005,0.0005493199999999996
22.0,-0.045058312655086835,-0.007212187006541847,-0.03409102188134447,-0.08000000000000004,-0.37000000000000005,-9.789999999999997,-0.009846605007895332,-0.007397642679900743,0.010070541018121663,203.375,-0.5,177.75,0.01971436000000002,0.2025756800000002,-0.9790649400000004,0.0005493199999999996
23.0,-0.04624503722084366,-0.006805845364313109,-0.032828389352582914,-0.08000000000000004,-0.37000000000000005,-9.79,-0.0037601511391833972,-0.022099875930521092,-0.0048902878035942555,203.375,-0.5,177.75,0.01971436000000002,0.20257568000000017,-0.9790649400000005,0.0005493199999999996
24.0,-0.04517887016729366,-0.0073356049842457265,-0.03302589722972138,-0.08000000000000004,-0.37,-9.79,0.007438642912758417,-0.019280046826222686,0.008031222863591488,203.375,-0.5,177.75,0.01971436000000002,0.20257568000000015,-0.9790649400000005,0.0005493199999999996
25.0,-0.04433766333389121,-0.007088577785377996,-0.03302412896676686,-0.08000000000000004,-0.37,-9.79,0.009347681671432972,-0.011957808114968623,0.005892367907846575,203.375,-0.5,177.75,0.01971436000000002,0.2025756800000002,-0.9790649400000004,0.0005493199999999996
26.0,-0.04403979940888109,-0.006574065567626964,-0.03261876423524448,-0.08000000000000004,-0.37000000000000005,-9.79,-0.006461394896293439,0.004055215049215441,0.0004027596363054215,203.375,-0.5,177.75,0.01971436000000002,0.20257568000000017,-0.9790649400000005,0.0005493199999999996
27.0,-0.04379409325282764,-0.0075392321973032205,-0.033134895314103185,-0.08000000000000004,-0.37,-9.79,0.0022220151618239543,0.0015235752665432043,0.00791460073701879,203.375,-0.5,177.75,0.01971436000000002,0.20257568000000017,-0.9790649400000005,0.0005493199999999996
28.0,-0.04248241136248421,-0.007107149700802149,-0.03333835735890889,-0.08000000000000004,-0.37000000000000005,-9.789999999999997,-0.011659718836487826,0.014541055870075122,0.016002525808392093,203.375,-0.5,177.75,0.01971436000000002,0.2025756800000002,-0.9790649400000004,0.0005493199999999996
29.0,-0.04332008985638018,-0.007237517858485603,-0.03296442401684338,-0.08000000000000004,-0.37000000000000005,-9.79,-0.0076113570569215725,0.005513043743890518,-0.008221071603128054,203.375,-0.5,177.75,0.01971436000000002,0.20257568000000017,-0.9790649400000005,0.0005493199999999996
30.0,-0.044471221207108294,-0.007768900901965421,-0.035281378791459456,-0.08000000000000004,-0.37,-9.79,0.03596486678643936,-0.0033115028452730053,-0.019035854658334496,203.375,-0.5,177.75,0.01971436000000002,0.20257568000000017,-0.9790649400000005,0.0005493199999999996
31.0,-0.04545058559272268,-0.008454933731143411,-0.035388926821386515,-0.08000000000000004,-0.37,-9.79,0.014739395069536199,-0.009118875216405456,-0.0043355648887402915,203.375,-0.5,177.75,0.01971436000000002,0.20257568000000017,-0.9790649400000005,0.0005493199999999996
32.0,-0.04584350774673354,-0.009570286344479897,-0.03525684709555679,-0.08000000000000004,-0.37,-9.79,0.005723353707224676,-0.014965522828426055,-0.013818439624891238,203.375,-0.5,177.75,0.01971436000000002,0.20257568000000017,-0.9790649400000005,0.0005493199999999996
33.0,-0.04583772499901531,-0.009759502146598927,-0.035510181574697715,-0.08000000000000004,-0.37,-9.79,0.0047476269250462805,-0.01136909685296782,-0.0499556894718185,203.375,-0.5,177.75,0.01971436000000002,0.20257568000000017,-0.9790649400000005,0.0005493199999999996
34.0,-0.04494863917444561,-0.010002579857418573,-0.035858068454842656,-0.08000000000000004,-0.37,-9.79,-0.030845789515144353,0.02461942179684115,0.018361175115207372,203.375,-0.5,177.75,0.01971436000000002,0.20257568000000017,-0.9790649400000005,0.0005493199999999996
35.0,-0.04413161211548308,-0.009632429398558434,-0.03542905392098941,-0.08000000000000004,-0.37,-9.79,-0.013197029225255029,0.003072442790184725,-0.007725109791642048,203.375,-0.5,177.75,0.01971436000000002,0.20257568000000017,-0.9790649400000005,0.0005493199999999996
36.0,-0.04506017369727047,-0.010863833746898269,-0.035327233250620343,-0.08000000000000004,-0.37,-9.79,-0.008967897022332506,-0.010150434243176179,-0.02635507133995037,203.375,-0.5,177.75,0.01971436000000002,0.20257568000000017,-0.9790649400000005,0.0005493199999999996
37.0,-0.0454147022332506,-0.00913166873449132,-0.03717850496277916,-0.08000000000000004,-0.37,-9.79,-0.019558390198511168,0.007851271712158808,-0.019373255272952854,203.375,-0.5,177.75,0.01971436000000002,0.20257568000000017,-0.9790649400000005,0.0005493199999999996
38.0,-0.0458711228287841,-0.009250697890818862,-0.03500612593052109,-0.08000000000000004,-0.37,-9.79,-0.005855497828784119,-0.007876473325062035,-0.009345436569478909,203.375,-0.5,177.75,0.01971436000000002,0.20257568000000017,-0.9790649400000005,0.0005493199999999996
39.0,-0.04529427964508608,-0.008919016467403566,-0.03529822731032409,-0.08000000000000004,-0.37000000000000005,-9.789999999999997,-0.004820733701782089,0.0029368397059929318,-0.009432863843146101,203.375,-0.5,177.75,0.01971436000000002,0.2025756800000002,-0.9790649400000004,0.0005493199999999996
40.0,-0.04701651238546398,-0.007751485074065721,-0.034779209365902924,-0.08000000000000004,-0.37000000000000005,-9.79,0.003113432826134438,-0.013085865467417886,-0.024654938755241176,203.375,-0.5,177.75,0.01971436000000002,0.20257568000000017,-0.9790649400000005,0.0005493199999999996
41.0,-0.04578731405243501,-0.007286904851420983,-0.033288340355880686,-0.08000000000000004,-0.37,-9.79,-0.00143793678319888,0.002533832794669488,0.010899863325518564,203.375,-0.5,177.75,0.01971436000000002,0.20257568000000017,-0.9790649400000005,0.0005493199999999996
42.0,-0.04452084116600245,-0.007901761321116162,-0.0336119579345386,-0.08000000000000004,-0.37000000000000005,-9.789999999999997,-0.007089057895509509,-0.027963613447484416,-0.05641764149828666,203.34518572825024,-0.5,177.75,0.01971436000000002,0.20240480594330398,-0.9790940578103616,0.0005493199999999996
43.0,-0.04578771586836103,-0.009364032025322351,-0.03369431643625193,-0.08000000000000004,-0.37000000000000005,-9.79,-0.004172630684727459,-0.003528953125727319,-0.03624231950844854,203.32783479960898,-0.5,177.75,0.01971436000000002,0.20230123135874867,-0.9791110034213094,0.0005493199999999996
44.0,-0.04683243727598567,-0.009540159661127407,-0.03446027091188382,-0.08000000000000004,-0.37,-9.79,0.01592647383978029,-0.031194723735046316,-0.0415677512451706,203.31915933528836,-0.5,177.75,0.01971436000000002,0.202249444066471,-0.9791194762267833,0.0005493199999999996
45.0,-0.04693057524912364,-0.00982384327142392,-0.0362900432900433,-0.08000000000000004,-0.37,-9.79,0.0187053397990898,-0.03448817087929991,-0.01766244508179992,203.31482160312805,-0.5,177.75,0.01971436000000002,0.20222355042033216,-0.9791237126295202,0.0005493199999999996
46.0,-0.047020075130962236,-0.008831532490806688,-0.03537236419494485,-0.08000000000000004,-0.37,-9.79,-0.0001279368592876657,-0.02608465123586091,-0.034736880503009535,203.3126527370479,-0.5,177.75,0.01971436000000002,0.20221060359726273,-0.9791258308308888,0.0005493199999999996
47.0,-0.04591000231076579,-0.00850947968866729,-0.03498931656216163,-0.08000000000000004,-0.37,-9.79,0.00755335365423034,-0.01584292214373851,0.015771743313387945,203.3125,-0.5,177.75,0.01971436000000002,0.20220946999999978,-0.9791259799999992,0.0005493199999999996
48.0,-0.0450190132521571,-0.008677622908849776,-0.03469223892624211,-0.08000000000000004,-0.37,-9.79,0.008328718157760331,-0.020333255426707962,-0.004462918665886672,203.3125,-0.5,177.75,0.01971436000000002,0.20220946999999978,-0.9791259799999992,0.0005493199999999996
49.0,-0.045639641723955585,-0.008629291583614696,-0.03440555465158851,-0.08000000000000004,-0.37,-9.79,0.01849266070556889,-0.018683849738640526,0.0024748110991335472,203.3125,-0.5,177.75,0.01971436000000002,0.20220946999999978,-0.9791259799999992,0.0005493199999999996
50.0,-0.04520307548456644,-0.009564385646125769,-0.034904130083338494,-0.08000000000000004,-0.37,-9.790000000000001,0.005263099743643324,0.011033985640565274,0.0313367611887247,203.3125,-0.5,177.75,0.01971436000000002,0.20221048627471366,-0.9791259799999992,0.0005493199999999996
51.0,-0.04699401886107482,-0.008342820703247216,-0.03475733257879163,-0.08000000000000004,-0.37,-9.790000000000001,0.015731638277479622,-0.020328911317582188,0.007239341135837003,203.3125,-0.5,177.75,0.01971436000000002,0.20224148265348585,-0.9791259799999992,0.0005493199999999996
52.0,-0.046162265908591335,-0.0084746890401482,-0.034885276548517974,-0.08000000000000004,-0.37,-9.79,0.012674782650109458,-0.0024882922531855936,0.0006285283151421933,203.3125,-0.5,177.75,0.01971436000000002,0.20225698084287197,-0.9791259799999992,0.0005493199999999996
53.0,-0.047027425517019675,-0.008353807973735135,-0.03556715824353703,-0.08000000000000004,-0.37,-9.79,0.008243763332863228,-0.0013781547031416954,0.020165284622880874,203.3125,-0.5,177.75,0.01971436000000002,0.202264729937565,-0.9791259799999992,0.0005493199999999996
54.0,-0.048653911269676095,-0.008150849396296851,-0.034248839667674225,-0.08000000000000004,-0.37,-9.79,0.0006324275721388104,-0.0034186058875509966,0.016006959929306442,203.3125,-0.5,177.75,0.01971436000000002,0.20226860448491152,-0.9791259799999992,0.0005493199999999996
55.0,-0.0487650409626216,-0.007777297747055815,-0.03493919610855095,-0.08000000000000004,-0.37,-9.79,0.0029501888120839733,-0.013919890873015872,-0.002516161034306196,203.3125,-0.5,177.75,0.01971436000000002,0.20227050999999996,-0.9791259799999992,0.0005493199999999996
56.0,-0.048273969534050186,-0.008370215693804407,-0.034169546850998475,-0.08000000000000004,-0.37,-9.79,0.006115391385048643,-0.011184215789810548,-0.0080265136968766,203.3125,-0.5,177.75,0.01971436000000002,0.20227050999999996,-0.9791259799999992,0.0005493199999999996
57.0,-0.04829687680656723,-0.007626103554498458,-0.03416854033496855,-0.08000000000000004,-0.37,-9.79,0.01330601287514659,-0.006348664379036388,0.0054149917207604505,203.3125,-0.5,177.75,0.01971436000000002,0.20227050999999996,-0.9791259799999992,0.0005493199999999996
58.0,-0.0485288787514659,-0.008759288336389016,-0.034933732533075676,-0.08000000000000004,-0.37,-9.79,-0.0010914892101481586,0.0014499637654229224,0.008755882957154418,203.3125,-0.5,177.75,0.01971436000000002,0.20227050999999996,-0.9791259799999992,0.0005493199999999996
59.0,-0.047038594152407895,-0.007744912468442647,-0.0359127797280763,-0.08000000000000004,-0.37,-9.79,0.010466875587233613,0.003797155424895084,-0.005736628930852071,203.3125,-0.5,177.75,0.01971436000000002,0.20227050999999996,-0.9791259799999992,0.0005493199999999996
60.0,-0.04724913578588137,-0.009154714298737456,-0.0363334059930704,-0.08000000000000004,-0.37,-9.79,-0.002405801117673516,-0.011348020069810522,-0.0045851743444582935,203.3125,-0.5,177.75,0.01971436000000002,0.20227050999999996,-0.9791259799999992,0.0005493199999999996
61.0,-0.04777275337681165,-0.008304675697755826,-0.03528867880298683,-0.08000000000000004,-0.37,-9.79,0.004183944199227758,-0.008540693502647197,-0.0061043311238420505,203.3125,-0.5,177.75,0.01971436000000002,0.20227050999999996,-0.9791259799999992,0.0005493199999999996
62.0,-0.048673057229508834,-0.007911442947733273,-0.03418960475008863,-0.08000000000000004,-0.37,-9.79,0.016887757739572257,-0.002741990872031194,-0.01392950687305526,203.3125,-0.5,177.75,0.01971436000000002,0.20227050999999996,-0.9791259799999992,0.0005493199999999996
63.0,-0.04886545846626492,-0.00904020688093269,-0.03241226269250464,-0.08000000000000004,-0.37,-9.79,0.018924549632714956,-0.007659397893772893,-0.011269028910157942,203.3125,-0.5,177.75,0.01971436000000002,0.20227050999999996,-0.9791259799999992,0.0005493199999999996
64.0,-0.04875298857836579,-0.008157020113803416,-0.03342785551178502,-0.08000000000000004,-0.37,-9.79,0.00964137511252333,0.0018004539387294991,-0.011567837115768958,203.3125,-0.5,177.75,0.01971436000000002,0.20227050999999996,-0.9791259799999992,0.0005493199999999996
65.0,-0.04974451784269031,-0.007760145681581688,-0.03406331811687563,-0.08000000000000004,-0.37,-9.79,0.012225411458591413,-0.01966783938688205,-0.010329209456501991,203.3125,-0.5,177.75,0.01971436000000002,0.20227050999999996,-0.9791259799999992,0.0005493199999999996
66.0,-0.04918534049702754,-0.007570519490914915,-0.03466336656464129,-0.08000000000000004,-0.37,-9.79,0.0019692213155239943,0.003660090077030439,-0.007023708326265883,203.3125,-0.5,177.75,0.01971436000000002,0.20227050999999996,-0.9791259799999992,0.0005493199999999996
67.0,-0.04871313395819119,-0.00826106619707036,-0.03381353812103033,-0.08000000000000004,-0.37,-9.79,0.010592725577116836,-0.003761562824388006,-0.014773824929261974,203.3125,-0.5,177.75,0.01971436000000002,0.20227050999999996,-0.9791259799999992,0.0005493199999999996
68.0,-0.04937192796219851,-0.009710699261427671,-0.034557860020659206,-0.08000000000000004,-0.37,-9.790000000000001,0.020064791838985387,-0.009493139570858093,-0.017144440172210722,203.3125,-0.5,177.75,0.01971436000000002,0.20227050999999996,-0.9791259799999992,0.0005493199999999996
69.0,-0.049788781558942855,-0.008629102932562872,-0.03315894281750163,-0.08000000000000004,-0.37,-9.79,0.023415640536478204,0.011948029189997194,-0.003414331668591555,203.3125,-0.5,177.75,0.01971436000000002,0.20227050999999996,-0.9791259799999992,0.0005493199999999996
70.0,-0.05012608560794045,-0.008790997958856963,-0.0324704084287201,-0.08000000000000004,-0.37,-9.79,0.017532193028095736,0.010662314646201874,-0.0020671888757704316,203.3125,-0.5,177.75,0.01971436000000002,0.20227050999999996,-0.9791259799999992,0.0005493199999999996
71.0,-0.04967574909409586,-0.009273832115826136,-0.03483747291340294,-0.08000000000000004,-0.37,-9.79,0.0073540676826641975,0.0018402262112020835,-0.0030196907788202663,203.3125,-0.5,177.75,0.01971436000000002,0.20227050999999996,-0.9791259799999992,0.0005493199999999996
72.0,-0.047899390484067904,-0.009326856214083065,-0.03548401263437685,-0.08000000000000004,-0.37,-9.79,0.011554538001598356,0.01696639006732659,-0.009340096525482842,203.3125,-0.5,177.75,0.01971436000000002,0.20227050999999996,-0.9791259799999992,0.0005493199999999996
73.0,-0.04831445951002403,-0.008771768777817168,-0.03527910709362323,-0.08000000000000004,-0.37,-9.79,0.004313199121666863,0.0057494141163496,-0.004857403181495923,203.3125,-0.5,177.75,0.01971436000000002,0.20227050999999996,-0.9791259799999992,0.0005493199999999996
74.0,-0.04817164544684706,-0.008852109919650245,-0.03646026330300524,-0.08000000000000004,-0.37,-9.79,0.01197852047146402,-0.004821047008547008,-0.001559722899188625,203.3125,-0.5,177.75,0.01971436000000002,0.20227050999999996,-0.9791259799999992,0.0005493199999999996
75.0,-0.04772448117133468,-0.007413024486530571,-0.03709201028714515,-0.08000000000000004,-0.37,-9.79,-0.009006732294675182,0.005395779377799472,-0.0018217519010750105,203.3125,-0.5,177.75,0.01971436000000002,0.20227050999999996,-0.9791259799999992,0.0005493199999999996
76.0,-0.049038891891350904,-0.008056230625241731,-0.03457775117531861,-0.08000000000000004,-0.37,-9.79,0.002713095706221036,-0.0007903335573880258,-0.0028950029346644893,203.3125,-0.5,177.75,0.01971436000000002,0.20227050999999996,-0.9791259799999992,0.0005493199999999996
77.0,-0.04990347052324841,-0.008554485000280877,-0.033643202264566636,-0.08000000000000004,-0.37,-9.79,0.013701337919674778,-0.018028295298919306,-0.0011914850822836015,203.3125,-0.5,177.75,0.01971436000000002,0.20227050999999996,-0.9791259799999992,0.0005493199999999996
78.0,-0.05045545734599145,-0.009869053914532501,-0.0345622959213652,-0.08000000000000004,-0.37,-9.79,0.013938137942467663,-0.004888837475762383,-0.004612491920794406,203.3125,-0.5,177.75,0.01971436000000002,0.20227050999999996,-0.9791259799999992,0.0005493199999999996
79.0,-0.050422301125632694,-0.011754803454962104,-0.033143923178296536,-0.08000000000000004,-0.37,-9.79,0.01023327788060403,-0.010412928722520209,-0.009506706789890289,203.3125,-0.5,177.75,0.01971436000000002,0.20227050999999996,-0.9791259799999992,0.0005493199999999996
80.0,-0.05097926267281106,-0.010537634408602153,-0.0347567844342038,-0.08000000000000004,-0.37,-9.79,0.0005390344982078845,0.0016021025345622124,-0.002200140809011776,203.3125,-0.5,177.75,0.01971436000000002,0.20227050999999996,-0.9791259799999992,0.0005493199999999996
81.0,-0.04943612391193036,-0.010369943676395293,-0.03476190476190478,-0.08000000000000004,-0.37,-9.79,0.005085825492831541,0.011497735855094726,0.013580869175627239,203.3125,-0.5,177.75,0.01971436000000002,0.20227050999999996,-0.9791259799999992,0.0005493199999999996
82.0,-0.05095668058239598,-0.010866065750788701,-0.0338340286036371,-0.08000000000000004,-0.37,-9.79,0.002669428907966239,-0.0030808423351997754,-0.005176266764943924,203.3125,-0.5,177.75,0.01971436000000002,0.20227050999999996,-0.9791259799999992,0.0005493199999999996
83.0,-0.050378608006692444,-0.00940005594519869,-0.03385948025898408,-0.08000000000000004,-0.37,-9.790000000000001,0.010104152747214212,-0.010656381638250336,-0.02784552034704097,203.3125,-0.5,177.75,0.01971436000000002,0.20227050999999996,-0.9791259799999992,0.0005493199999999996
84.0,-0.04937773206274203,-0.009401768884017676,-0.03423772784070556,-0.08000000000000004,-0.37,-9.790000000000001,-0.008164769504529093,-0.0020479808856894285,-0.0010979393849900217,203.3125,-0.5,177.75,0.01971436000000002,0.20227050999999996,-0.9791259799999992,0.0005493199999999996
85.0,-0.04950737564675563,-0.009078249516450528,-0.035826951699509106,-0.08000000000000004,-0.37,-9.79,-0.014346710899907227,-0.0012445045557479399,-0.004101670142246871,203.3125,-0.5,177.75,0.01971436000000002,0.20227050999999996,-0.9791259799999992,0.0005493199999999996
86.0,-0.049453463447727455,-0.009453357978828805,-0.035501762790441344,-0.08000000000000004,-0.37,-9.790000000000001,0.004635835822158769,-0.0019936061735555516,-0.00823081929979149,203.3125,-0.5,177.75,0.01971436000000002,0.20227050999999996,-0.9791259799999992,0.0005493199999999996
87.0,-0.0491049835448835,-0.009206387626251034,-0.0376156056407982,-0.08000000000000004,-0.37,-9.790000000000003,0.005943698348124129,0.014904601699902764,0.009265833846462214,203.3125,-0.5,177.75,0.01971436000000002,0.20227050999999996,-0.9791259799999992,0.0005493199999999996
88.0,-0.04955513587609061,-0.00882847144400865,-0.03882498949411671,-0.08000000000000004,-0.37,-9.790000000000001,-0.004869570709597375,0.013277591701352757,0.008954373824341631,203.3125,-0.5,177.75,0.01971436000000002,0.20227050999999996,-0.9791259799999992,0.0005493199999999996
89.0,-0.04964147922836788,-0.009744376851036584,-0.03998457135996157,-0.08000000000000004,-0.37,-9.79,-0.020170420435443846,0.04333864464099896,0.020716476226686945,203.3125,-0.5,177.75,0.01971436000000002,0.20227050999999996,-0.9791259799999992,0.0005493199999999996
90.0,-0.04948725712628581,-0.009638205591852751,-0.04037291456986403,-0.08000000000000004,-0.37,-9.790000000000001,0.0018745282194094267,0.022198143050272085,0.02421613788147592,203.3125,-0.5,177.75,0.01971436000000002,0.20227050999999996,-0.9791259799999992,0.0005493199999999996
91.0,-0.04975403439040617,-0.009257188123709938,-0.04002256550553554,-0.08000000000000004,-0.37,-9.790000000000001,-0.0009487920817625073,0.008611428445011175,0.020351435225857625,203.3125,-0.5,177.75,0.01971436000000002,0.20227050999999996,-0.9791259799999992,0.0005493199999999996
92.0,-0.0498952273929138,-0.010120629601757317,-0.0393838513912053,-0.08000000000000004,-0.37,-9.79,0.015292683523674898,0.008284442310234716,0.019198520382479763,203.3125,-0.5,177.75,0.01971436000000002,0.20227050999999996,-0.9791259799999992,0.0005493199999999996
93.0,-0.049947613696456894,-0.010002269795675745,-0.040859898510378925,-0.08000000000000004,-0.37,-9.790000000000001,0.011524646424948791,0.012293621877021623,-0.009241485939093104,203.3125,-0.5,177.75,0.01971436000000002,0.20227050999999996,-0.9791259799999992,0.0005493199999999996
94.0,-0.049217345319936545,-0.01049872215325829,-0.040753273554502,-0.08000000000000004,-0.37,-9.790000000000003,0.02007869847688476,0.010814015377299813,-0.021005148128853797,203.3125,-0.5,177.75,0.01971436000000002,0.20227050999999996,-0.9791259799999992,0.0005493199999999996
95.0,-0.04961924907456372,-0.010741164355317672,-0.040446705523945865,-0.08000000000000004,-0.37,-9.790000000000001,0.008667720470594682,0.0008541917182638675,-0.004883853810592947,203.3125,-0.5,177.75,0.01971436000000002,0.20227050999999996,-0.9791259799999992,0.0005493199999999996
96.0,-0.04997091485986252,-0.010791449113142709,-0.042166397116811645,-0.08000000000000004,-0.37,-9.79,-0.00015517706308975678,0.024699399286551287,0.009402831159219655,203.3125,-0.5,177.75,0.01971436000000002,0.20227050999999996,-0.9791259799999992,0.0005493199999999996
97.0,-0.04851080305205106,-0.010298910975886807,-0.04216807783683348,-0.08000000000000004,-0.37,-9.79,0.0019862974033087984,0.028595170122617093,0.02744822522158076,203.3125,-0.5,177.75,0.01971436000000002,0.20227050999999996,-0.9791259799999992,0.0005493199999999996
98.0,-0.050287659590541656,-0.011660741808282797,-0.041206427455997785,-0.08000000000000004,-0.37,-9.79,0.014775116603679533,0.004111881067071773,0.016790829972512945,203.3125,-0.5,177.75,0.01971436000000002,0.20227050999999996,-0.9791259799999992,0.0005493199999999996
99.0,-0.04968375576036865,-0.011379022411280481,-0.04075392763598408,-0.08000000000000004,-0.37,-9.79,0.015022407587931781,-0.01828713191490409,0.006875055388160228,203.3125,-0.5,177.75,0.01971436000000002,0.20227050999999996,-0.9791259799999992,0.0005493199999999996
100.0,-0.0486949244751664,-0.011821343642916229,-0.04242257473709086,-0.08000000000000004,-0.37,-9.79,0.012663033511067786,-0.022314658907400843,-0.009552303655126236,203.3125,-0.5,177.75,0.01971436000000002,0.20227050999999996,-0.9791259799999992,0.0005493199999999996
101.0,-0.05018853508263872,-0.012082629449697145,-0.040896969547286846,-0.08000000000000004,-0.37,-9.79,0.007002096557887145,-0.022489792436249337,-0.0030388931020210765,203.3125,-0.5,177.75,0.01971436000000002,0.20227050999999996,-0.9791259799999992,0.0005493199999999996
102.0,-0.05062422145837005,-0.012253552308053901,-0.039931331675845165,-0.08000000000000004,-0.37,-9.79,0.0014049141263578068,-0.027381928988221955,-0.005263686182346943,203.3125,-0.5,177.75,0.01971436000000002,0.20227050999999996,-0.9791259799999992,0.0005493199999999996
103.0,-0.05170913306169124,-0.01211188781655797,-0.04170760132179355,-0.08000000000000004,-0.37,-9.79,-0.013627567750716878,-0.015862180375004278,0.01217895095349154,203.3125,-0.5,177.75,0.01971436000000002,0.20227050999999996,-0.9791259799999992,0.0005493199999999996
104.0,-0.05311734618745331,-0.013202714850006358,-0.039766554302936324,-0.08000000000000004,-0.37,-9.790000000000001,-0.014870170451841268,-0.008861923954411606,0.011355393140637549,203.3125,-0.5,177.75,0.01971436000000002,0.20227050999999996,-0.9791259799999992,0.0005493199999999996
105.0,-0.05143066490120233,-0.013531720968269951,-0.0405566002441461,-0.08000000000000004,-0.37,-9.790000000000001,-0.01937184917881362,-0.005039000891696331,0.013246180953319286,203.3125,-0.5,177.75,0.01971436000000002,0.20227050999999996,-0.9791259799999992,0.0005493199999999996
106.0,-0.05246308496249962,-0.01374497206530896,-0.03818945823947125,-0.08000000000000004,-0.37,-9.79,-0.014238740559792847,-0.02739060039296609,0.04032714917576065,203.3125,-0.5,177.75,0.01971436000000002,0.20227050999999996,-0.9791259799999992,0.0005493199999999996
107.0,-0.0528549263778192,-0.013800889450473225,-0.03607861608850163,-0.08000000000000004,-0.37,-9.79,0.015473075636642231,-0.021911576038136912,-0.020192508201418193,203.3125,-0.5,177.75,0.01971436000000002,0.20227050999999996,-0.9791259799999992,0.0005493199999999996
108.0,-0.05172124344355712,-0.012714299828356656,-0.03536176665385908,-0.08000000000000004,-0.37,-9.790000000000001,-0.002934454330724973,-0.025156404298611226,-0.05445363521774119,203.3125,-0.5,177.75,0.01971436000000002,0.20227050999999996,-0.9791259799999992,0.0005493199999999996
109.0,-0.050631573454749015,-0.011845343302475778,-0.033506265540969415,-0.08000000000000004,-0.37,-9.79,-0.017104233889127796,-0.03486193103748299,-0.039300078635045255,203.25443548387096,-0.5,177.75,0.01971436000000002,0.20186825435732003,-0.9792122445359798,0.0005202389081885857
110.0,-0.049447457923561824,-0.011575867917337383,-0.03434795730079311,-0.08000000000000004,-0.37,-9.79,0.009681911571722684,-0.02136918679567245,0.010895177114790582,203.22192928039703,-0.5,177.75,0.01971436000000002,0.20163659385111654,-0.9792611924665012,0.0005032749379652608
111.0,-0.049176733954100424,-0.01285498625001534,-0.03338901641281336,-0.08000000000000004,-0.37,-9.79,0.011639140869706707,-0.013481272385291421,0.014632926419018434,203.2349565756824,-0.5,177.75,0.01971436000000002,0.20160702805459035,-0.979256590104219,0.0004947929528535983
112.0,-0.04912753748396265,-0.013578030759416278,-0.03383992551311431,-0.08000000000000004,-0.37,-9.79,0.003579427065677726,0.00018780722773319245,0.027525756604286484,203.24147022332505,-0.5,177.75,0.01971436000000002,0.20159224515632726,-0.9792542889230778,0.0004905519602977672
113.0,-0.04924038685329007,-0.013639407187794293,-0.03403027796576184,-0.08000000000000004,-0.37000000000000005,-9.789999999999997,0.003114269243301501,-0.010212592067430776,0.002915543238123885,203.2447270471464,-0.5,177.75,0.01971436000000002,0.2015848537071957,-0.979253138332507,0.0004884314640198515
114.0,-0.04875170707428771,-0.012834591931366131,-0.03412928290347646,-0.08000000000000004,-0.37000000000000005,-9.79,0.009001303356142066,0.008494820591594785,-0.006606744509970317,203.2481699751861,-0.5,177.75,0.01971436000000002,0.20159372847146367,-0.9792498672704724,0.0004882800000000004
115.0,-0.04980637462895526,-0.013169157007866692,-0.033187470235857344,-0.08000000000000004,-0.37,-9.79,0.004446371281048701,0.005379544290834613,0.025977024767347347,203.25,-0.5,177.75,0.01971436000000002,0.20159911999999963,-0.979248050000001,0.0004882800000000004
116.0,-0.05174485102710907,-0.012232654442331868,-0.03417311989086183,-0.08000000000000004,-0.37,-9.79,0.002511450243305082,-0.0016647219268187009,-0.009664014301111074,203.25,-0.5,177.75,0.01971436000000002,0.20159911999999963,-0.979248050000001,0.0004882800000000004
117.0,-0.0501705861342958,-0.012952909993232582,-0.03328790698548764,-0.08000000000000004,-0.37,-9.79,-0.006140440540642153,0.002929849048800662,-0.01534960335363561,203.25,-0.5,177.75,0.01971436000000002,0.20159911999999963,-0.979248050000001,0.0004882800000000004
118.0,-0.05042276921107565,-0.013793636023474741,-0.032968256429949994,-0.08000000000000004,-0.37,-9.79,-0.005148898760289889,0.008457372041041395,-0.025214106010476977,203.25,-0.5,177.75,0.01971436000000002,0.20159911999999963,-0.979248050000001,0.0004882800000000004
119.0,-0.05433494205167591,-0.01686199978337076,-0.033301411290322595,-0.08000000000000004,-0.37,-9.79,0.0023287567327385877,0.0058735912944582296,-0.010295274282169442,203.25,-0.5,177.75,0.01971436000000002,0.20159911999999963,-0.979248050000001,0.0004882800000000004
120.0,-0.05580747567844342,-0.018536846665878935,-0.034789081885856096,-0.08000000000000004,-0.37,-9.79,-0.00431042971365552,-0.011983043837882547,-0.01304058844381425,203.25,-0.5,177.75,0.01971436000000002,0.20159911999999963,-0.979248050000001,0.0004882800000000004
121.0,-0.0561022490054748,-0.02020142581432905,-0.0361240694789082,-0.08000000000000004,-0.37,-9.79,-0.007133502698018827,-0.009325889164598842,0.008073378234668558,203.25,-0.5,177.75,0.01971436000000002,0.20159911999999963,-0.979248050000001,0.0004882800000000004
122.0,-0.056596242467210206,-0.02192287998739613,-0.034251211154436974,-0.08000000000000004,-0.37,-9.79,0.0022982393950135875,-0.0052990468313048955,0.001274666194021033,203.25,-0.5,177.75,0.01971436000000002,0.20159911999999963,-0.979248050000001,0.0004882800000000004
123.0,-0.058210957501280074,-0.02041324983260468,-0.03478183465280241,-0.08000000000000004,-0.37,-9.79,0.00022056796250344594,-0.016257040450588837,-0.010713301035881681,203.25,-0.5,177.75,0.01971436000000002,0.20159911999999963,-0.979248050000001,0.0004882800000000004
124.0,-0.05612139115364921,-0.021402812241521935,-0.03479357201937848,-0.08000000000000004,-0.37,-9.79,-0.023871066209775887,-0.006207412659025562,-0.008398322107999527,203.25,-0.5,177.75,0.01971436000000002,0.20159911999999963,-0.979248050000001,0.0004882800000000004
125.0,-0.05720666430343848,-0.020619480877545407,-0.03532876442553863,-0.08000000000000004,-0.37,-9.79,-0.01893339635275119,-0.024143822127693094,-0.02087912087912088,203.25,-0.5,177.75,0.01971436000000002,0.20159911999999963,-0.979248050000001,0.0004882800000000004
126.0,-0.05825965969514356,-0.023430087833313653,-0.03512592067430778,-0.08000000000000004,-0.37,-9.79,0.0042972596400015755,-0.007931092205285753,-0.027002835873803616,203.25,-0.5,177.75,0.01971436000000002,0.20159911999999963,-0.979248050000001,0.0004882800000000004
127.0,-0.05847722080786595,-0.02259969689808401,-0.034714196198067176,-0.08000000000000004,-0.37000000000000005,-9.789999999999997,0.012236548174048175,-0.025454921422663354,0.03253789221531157,203.25,-0.5,177.75,0.01971436000000002,0.20159911999999963,-0.9792480500000009,0.0004882800000000004
128.0,-0.05932545903916869,-0.022748979962689653,-0.035369505046924404,-0.08000000000000004,-0.37000000000000005,-9.79,0.009623236866180416,-0.008338502894954507,0.0037379287379287387,203.25,-0.5,177.75,0.01971436000000002,0.20159911999999963,-0.9792480500000009,0.0004882800000000004
129.0,-0.05909104937870545,-0.023751421062750418,-0.0348554881354049,-0.08000000000000004,-0.37,-9.79,-0.009012122862035062,0.010336871981643053,0.012367843741412941,203.25,-0.5,177.75,0.01971436000000002,0.20159911999999966,-0.979248050000001,0.0004882800000000004
130.0,-0.05885904629319691,-0.024816235955771607,-0.03288884927074315,-0.08000000000000004,-0.37,-9.79,-0.02413316371941014,0.00981070232663625,-0.008672659719746088,203.25,-0.5,177.75,0.01971436000000002,0.20159911999999966,-0.979248050000001,0.0004882800000000004
131.0,-0.05975974181905502,-0.025247796948109136,-0.03406353133512344,-0.08000000000000004,-0.37,-9.79,-0.0015737449335264109,-0.003161103551322074,-0.009291354673768827,203.25,-0.5,177.75,0.01971436000000002,0.20159911999999966,-0.979248050000001,0.0004882800000000004
132.0,-0.059095413431521644,-0.022271992315696803,-0.0349472104378452,-0.08000000000000004,-0.37,-9.79,-0.011188265428640038,0.013708426718962618,0.006015368606419594,203.25,-0.5,177.75,0.01971436000000002,0.20159911999999966,-0.979248050000001,0.0004882800000000004
133.0,-0.05779832706315535,-0.019026815016409203,-0.033091471223885394,-0.08000000000000004,-0.37,-9.79,0.018118646442007523,0.0330328734091091,0.0197880813255423,203.25,-0.5,177.75,0.01971436000000002,0.20159911999999963,-0.979248050000001,0.0004882800000000004
134.0,-0.058522952853598,-0.019358560794044674,-0.03369882133995039,-0.08000000000000004,-0.37,-9.79,0.02390663771712159,0.025986740074441687,-0.04154776674937965,203.25,-0.5,177.75,0.01971436000000002,0.20160299724069444,-0.979248050000001,0.0004882800000000004
135.0,-0.05478849155527095,-0.01792253662050749,-0.03449593272232451,-0.08000000000000004,-0.37,-9.79,-0.054543919594973185,0.04356649098495157,0.04630418034099095,203.26196670135278,-0.5,177.7796566077003,0.019570566451612925,0.20174383447882804,-0.9792338222372539,0.0005243570031217481
136.0,-0.054470688585607926,-0.02194958176578885,-0.03357879162330906,-0.08000000000000004,-0.37,-9.790000000000001,-0.051546553569999196,0.05116770078744096,0.04673579704634595,203.2559833506764,-0.5,177.79708636836625,0.019484950967741953,0.20173448111038184,-0.9792409361186274,0.0005378230176899062
137.0,-0.05543424317617865,-0.02590794845113265,-0.03288721684143121,-0.08000000000000004,-0.37,-9.790000000000001,-0.05622748739294005,0.0231419594973185,0.01405687184823501,203.2529916753382,-0.5,177.80580124869925,0.01944214322580647,0.20172980442615873,-0.9792444930593143,0.0005445560249739851
138.0,-0.05459553349875929,-0.027703353878171792,-0.03015080445049229,-0.08000000000000004,-0.37,-9.79,-0.033820939726246696,-0.013568598415112463,0.009990594733050508,203.2514958376691,-0.5,177.81015868886573,0.019420739354838727,0.20172746608404718,-0.9792462715296577,0.0005479225286160246
139.0,-0.055425893103312446,-0.028278121462304625,-0.030333624289919835,-0.08000000000000004,-0.37,-9.79,-0.01223989402319267,0.011850739588772887,-0.06406783036595733,203.25074791883455,-0.5,177.81233740894902,0.019410037419354854,0.2017261757492197,-0.9792471607648293,0.0005496057804370443
140.0,-0.04925127468207592,-0.02958698429562115,-0.030709176475045376,-0.08242424242424243,-0.36530791788856287,-9.79,0.061471123684963436,-0.0727465273771205,0.03822118524902082,203.19477028347995,-0.5,177.8125,0.019312286314760514,0.20125725177908116,-0.9793449416520044,0.0006738945454545452
141.0,-0.04814777337357981,-0.033533992888831604,-0.032265397684752534,-0.08637341153470182,-0.3624926686217006,-9.789999999999997,0.0940445754961884,-0.11255259077839723,0.19433201207394754,203.28103616813297,-0.509286412512219,177.8125,0.019266224770283474,0.20204384853372434,-0.9791891023558161,0.0008655318084066471
142.0,-0.04970699551344712,-0.0403765911507847,-0.031914730430859475,-0.08834799608993152,-0.36108504398826957,-9.79,0.06846513701352411,-0.05006986740857709,0.07645181879052845,203.42680840664713,-0.5369012707722385,177.8125,0.019243193998044958,0.2033001089442817,-0.9789350561779077,0.0009909407429130018
143.0,-0.05118419215193408,-0.045279988828375924,-0.03394637620444073,-0.08933528836754637,-0.360381231671554,-9.79,0.04309221244705116,-0.04936461388074292,0.040165479681608704,203.4996945259042,-0.5507086999022482,177.8125,0.0192316786119257,0.20392823914956035,-0.9788080330889534,0.0010536452101661794
144.0,-0.05096611632095503,-0.045682887005467646,-0.03418627250885316,-0.08982893450635379,-0.3600293255131962,-9.79,0.027341430970463227,-0.0312296798183895,0.032712717390136745,203.53613758553274,-0.5576124144672532,177.8125,0.01922592091886607,0.2042423042521997,-0.9787445215444762,0.001084997443792768
145.0,-0.049279781150748894,-0.04610856168920684,-0.03477711893840927,-0.08999999999999991,-0.35999999999999965,-9.79,0.02544892383602061,-0.044420319823545634,0.0023190966739353863,203.55608504398828,-0.5610642717497556,177.8125,0.01922606999999999,0.20441383487292308,-0.9787097379081126,0.0010967806060606078
146.0,-0.05068283826244284,-0.04534837159603028,-0.03499135642944176,-0.08999999999999991,-0.35999999999999965,-9.79,0.007127388162767975,-0.03130441936373258,-0.004338985387372483,203.5625,-0.5625,177.8125,0.01922606999999999,0.2044677700000003,-0.9786987299999992,0.001098630000000002
147.0,-0.049908751440489216,-0.04649907059064186,-0.03541938533197639,-0.08999999999999991,-0.35999999999999965,-9.79,0.008556013589832528,-0.018916418591236488,-0.017898499350112253,203.5625,-0.5625,177.8125,0.01922606999999999,0.2044677700000003,-0.9786987299999992,0.001098630000000002
148.0,-0.04787761735316364,-0.04630218157377365,-0.034807165086041265,-0.08999999999999991,-0.35999999999999965,-9.79,0.034797778242107065,0.0015897705023615542,0.046216462748720814,203.5625,-0.5625,177.8125,0.01922606999999999,0.20446777000000033,-0.9786987299999992,0.001098630000000002
149.0,-0.04810466790695718,-0.04625684524748,-0.034054533742358936,-0.08999999999999991,-0.35999999999999965,-9.79,0.025917341994345117,-0.014892026403472813,-0.0038431550528324684,203.5625,-0.5625,177.8125,0.01922606999999999,0.20446777000000033,-0.9786987299999992,0.001098630000000002
150.0,-0.04980793677359753,-0.04716016865548603,-0.03249861272962211,-0.08999999999999991,-0.35999999999999965,-9.79,0.011037809600504708,-0.01639550904639354,-0.03678928598283436,203.55704094292804,-0.5625,177.8125,0.01922606999999999,0.20442851386104238,-0.9787050309032256,0.0010913609181141455
151.0,-0.048602279440989105,-0.048353517450291636,-0.033945216074248344,-0.08999999999999991,-0.35999999999999965,-9.79,0.010099219776639131,0.003078059932898643,-0.06256337748273232,203.5275124069479,-0.5625,177.8125,0.01922606999999999,0.20425913031761786,-0.9787333849677426,0.0010634961042183628
152.0,-0.04923329537845665,-0.05082806440870957,-0.03284818407399054,-0.08999999999999991,-0.35999999999999965,-9.79,-0.0062151110538207315,0.005667294175358691,-0.03530594629384952,203.51274813895782,-0.5625,177.8125,0.01922606999999999,0.2041744385459056,-0.9787475620000012,0.0010495636972704717
153.0,-0.05042940586410928,-0.05105785335025709,-0.03393631100082715,-0.08999999999999991,-0.35999999999999965,-9.79,0.002693988792453933,0.005634647466073064,-0.005851326345928321,203.50536600496278,-0.5625,177.8125,0.01922606999999999,0.20413209266004947,-0.9787546505161305,0.001042597493796526
154.0,-0.05112740134475305,-0.05083230609141118,-0.033930521091811425,-0.08999999999999991,-0.35999999999999965,-9.79,-0.007997603658048507,0.003313355479068278,0.011011228788121347,203.50167493796528,-0.5625,177.8125,0.01922606999999999,0.20411091971712142,-0.9787581947741951,0.0010391143920595533
155.0,-0.05165303069719042,-0.050686624509725435,-0.034885856079404476,-0.08999999999999991,-0.35999999999999965,-9.79,0.0069658383694869135,0.005937074761866645,0.04879035384815497,203.5,-0.5625,177.8125,0.01922606999999999,0.2041015599999998,-0.9787597700000017,0.0010375999999999999
156.0,-0.05111595743616425,-0.050519731049387645,-0.03310529896742177,-0.08999999999999991,-0.35999999999999965,-9.790000000000001,0.017391207826382774,0.01875637857200032,0.006004378076722966,203.5,-0.5625,177.8125,0.01922606999999999,0.2041015599999998,-0.9787597700000017,0.0010375999999999999
157.0,-0.05249598275034019,-0.0510159139117906,-0.03450627851596895,-0.08999999999999991,-0.35999999999999965,-9.790000000000001,0.016602609961578484,0.014292503802129191,0.006168141659329224,203.5,-0.5625,177.8125,0.01922606999999999,0.2041015599999998,-0.9787597700000017,0.0010375999999999999
158.0,-0.05352730779236371,-0.05168081375570318,-0.033125347694709054,-0.08999999999999991,-0.35999999999999965,-9.79,0.01454154951772993,0.007544975186104219,0.0011725003501961103,203.5,-0.5625,177.8125,0.01922606999999999,0.2041015599999998,-0.9787597700000017,0.0010375999999999999
159.0,-0.053348835347794756,-0.0532522012326903,-0.03222547626670937,-0.08999999999999991,-0.35999999999999965,-9.79,-0.007062642579844713,0.0012523263027295287,-0.01998456635716001,203.5,-0.5625,177.8125,0.01922606999999999,0.2041015599999998,-0.9787597700000017,0.0010375999999999999
160.0,-0.05513603618026093,-0.0527841091010966,-0.03360157188025295,-0.08999999999999991,-0.35999999999999965,-9.790000000000001,0.013817393990634756,-0.02239072630673177,0.02042725176098615,203.5,-0.5625,177.8125,0.01922606999999999,0.2041015599999998,-0.9787597700000017,0.0010375999999999999
161.0,-0.05514085888097333,-0.054436705009350675,-0.033263198830739166,-0.08999999999999991,-0.35999999999999965,-9.79,0.01868866498951534,-0.012676912517979765,-0.01898279987550604,203.5,-0.5625,177.8125,0.01922606999999999,0.2041015599999998,-0.9787597700000017,0.0010375999999999999
162.0,-0.054929300408228604,-0.054693150891772103,-0.0327480308669825,-0.08999999999999991,-0.35999999999999965,-9.79,0.018180648018951216,0.03382661430552625,-0.043860099534527214,203.5,-0.5625,177.8125,0.01922606999999999,0.20397752193548385,-0.9787888084677432,0.0010375999999999999
163.0,-0.0558335501214013,-0.054717956752751234,-0.034268969941348995,-0.08999999999999991,-0.35999999999999965,-9.79,0.022867205729905714,0.0007687662098350839,-0.047689975325576256,203.5,-0.5625,177.8125,0.01922606999999999,0.20391353322580652,-0.9788057885887107,0.0010375999999999999
164.0,-0.05614338156351683,-0.055478458023072996,-0.034405710329097436,-0.08999999999999991,-0.35999999999999965,-9.79,0.023667135811061408,-0.006705320636121884,-0.0006855054559268964,203.5,-0.5625,177.8125,0.01922606999999999,0.20388153887096788,-0.9788142786491945,0.0010375999999999999
165.0,-0.05643017153097797,-0.054154421519340856,-0.03397704871293582,-0.08999999999999991,-0.35999999999999965,-9.79,0.0006960809128147838,-0.005157420984033887,-0.039641009751896855,203.5,-0.5625,177.8125,0.01922606999999999,0.20386554169354854,-0.9788185236794362,0.0010375999999999999
166.0,-0.056037666410650264,-0.05391738671274961,-0.0318614471326165,-0.08999999999999991,-0.35999999999999965,-9.79,0.005006520417306708,0.023157482078853046,-0.009816228238607273,203.5,-0.5625,177.8125,0.01922606999999999,0.2038575431048389,-0.9788206461945572,0.0010375999999999999
167.0,-0.05581061187916025,-0.054338325652841774,-0.0323675755248336,-0.08999999999999991,-0.35999999999999965,-9.79,0.0068280369943676394,0.0026381688428059394,0.00025921658986174934,203.5,-0.5625,177.8125,0.01922606999999999,0.20385742000000018,-0.9788208000000007,0.0010375999999999999
168.0,-0.05755584357398871,-0.05402937788018433,-0.030124647977470574,-0.08999999999999991,-0.35999999999999965,-9.79,0.007009448604710701,-0.008761560739887351,0.013032834101382488,203.5,-0.5625,177.8125,0.01922606999999999,0.20385742000000018,-0.9788208000000007,0.0010375999999999999
169.0,-0.057771777393753186,-0.05584725422427035,-0.031547219022017424,-0.08999999999999991,-0.35999999999999965,-9.79,0.028226306483614953,-0.010301159274193547,0.011956765232974908,203.5,-0.5625,177.8125,0.01922606999999999,0.20385742000000018,-0.9788208000000007,0.0010375999999999999
170.0,-0.057648489503328196,-0.05623310291858678,-0.033210269457245284,-0.08999999999999991,-0.35999999999999965,-9.79,0.01014284914234511,0.00030451948924731156,0.0017991151433691755,203.5,-0.5625,177.8125,0.01922606999999999,0.20385742000000018,-0.9788208000000007,0.0010375999999999999
171.0,-0.05668282770097285,-0.055923451100870436,-0.03332808499743985,-0.08999999999999991,-0.35999999999999965,-9.79,0.001841717869943677,0.0019091221838197646,0.013416858678955453,203.5,-0.5625,177.8125,0.01922606999999999,0.20385742000000018,-0.9788208000000007,0.0010375999999999999
172.0,-0.05936595203631492,-0.05344075190042931,-0.032809026546929784,-0.08999999999999991,-0.35999999999999965,-9.79,-0.0012082619441490408,-0.010219815606660366,-0.025181365453542874,203.5,-0.5625,177.8125,0.01922606999999999,0.20385742000000018,-0.9788208000000007,0.0010375999999999999
173.0,-0.059613651581393506,-0.053216471700342674,-0.03364673677576904,-0.08999999999999991,-0.35999999999999965,-9.79,0.016166942376619798,0.01467810862972153,0.0008561778723069034,203.5,-0.5625,177.8125,0.01922606999999999,0.20385742000000018,-0.9788208000000007,0.0010375999999999999
174.0,-0.05916321738664414,-0.05300835168709309,-0.03253622712559784,-0.08999999999999991,-0.35999999999999965,-9.790000000000001,0.0125876283068245,0.01440573609069114,0.004995463215320433,203.5,-0.5625,177.8125,0.01922606999999999,0.20385742000000018,-0.9788208000000007,0.0010375999999999999
175.0,-0.05937999579009624,-0.05268965971451428,-0.032641769476777424,-0.08999999999999991,-0.35999999999999965,-9.79,-0.0006282288573404389,-0.0005256265783103444,-0.0013665157041677402,203.5,-0.5625,177.8125,0.01922606999999999,0.20385742000000018,-0.9788208000000007,0.0010375999999999999
176.0,-0.05992297280544238,-0.05256602801393917,-0.03167674751360634,-0.08999999999999991,-0.35999999999999965,-9.79,-0.01762722246758471,0.0068256403718791325,0.0019889131668613417,203.5,-0.5625,177.8125,0.01922606999999999,0.20385742000000018,-0.9788208000000007,0.0010375999999999999
177.0,-0.06051443605452619,-0.05276408340583295,-0.031633619094192114,-0.08999999999999991,-0.35999999999999965,-9.790000000000001,-0.020718277847095803,0.0006477717588203799,-9.415303795730573e-05,203.5,-0.5625,177.8125,0.01922606999999999,0.20385742000000018,-0.9788208000000007,0.0010375999999999999
178.0,-0.062086080920642106,-0.053636128118293214,-0.03217696552015526,-0.08999999999999991,-0.35999999999999965,-9.790000000000001,-0.00890206105517971,0.003189792374348943,0.007461342481375831,203.5,-0.5625,177.8125,0.01922606999999999,0.20385742000000018,-0.9788208000000007,0.0010375999999999999
179.0,-0.06221114669452987,-0.055784807111029795,-0.03262126544833362,-0.08999999999999991,-0.35999999999999965,-9.79,0.008696565016885646,-0.0037402649352685125,0.005118038720731228,203.5,-0.5625,177.8125,0.01922606999999999,0.20385742000000018,-0.9788208000000007,0.0010375999999999999
180.0,-0.06119774514789951,-0.0536981941425059,-0.03236521693886804,-0.08999999999999991,-0.35999999999999965,-9.790000000000001,0.015674031946570795,0.004183160680832163,-0.008949028630115614,203.5,-0.5625,177.8125,0.01922606999999999,0.20385742000000018,-0.9788208000000007,0.0010375999999999999
181.0,-0.061675958281628585,-0.054222286374723205,-0.03208552044934913,-0.08999999999999991,-0.35999999999999965,-9.790000000000003,0.018266586691617823,0.013834267356256062,0.006875889530143126,203.5,-0.5625,177.8125,0.01922606999999999,0.20385742000000018,-0.9788208000000007,0.0010375999999999999
182.0,-0.06178751087858744,-0.0560159298679027,-0.03262964888232285,-0.08999999999999991,-0.35999999999999965,-9.790000000000001,-0.004605650462723867,0.03423243024420503,0.015095723120950855,203.5,-0.5625,177.8125,0.01922606999999999,0.20385742000000018,-0.9788208000000007,0.0010375999999999999
183.0,-0.061643135091899184,-0.05535535947489428,-0.03312499813843191,-0.08999999999999991,-0.35999999999999965,-9.79,-0.004380989003074092,0.03313668658612237,-0.0017728580425022383,203.5,-0.5625,177.8125,0.01922606999999999,0.20385742000000018,-0.9788208000000007,0.0010375999999999999
184.0,-0.060294173792749386,-0.05525576473488698,-0.032087332658565684,-0.08999999999999991,-0.35999999999999965,-9.79,-0.008750914368408524,0.007511763671965434,-0.010663054725296177,203.5,-0.5625,177.8125,0.01922606999999999,0.20385742000000018,-0.9788208000000007,0.0010375999999999999
185.0,-0.05966801599371838,-0.05625404679001191,-0.03315321357738113,-0.08999999999999991,-0.35999999999999965,-9.79,0.0002402833682100076,0.018462437179106013,-0.011419576014155226,203.5,-0.5625,177.8125,0.01922606999999999,0.20385742000000018,-0.9788208000000007,0.0010375999999999999
186.0,-0.06061944149040922,-0.055755114173460935,-0.0334322713576746,-0.08999999999999991,-0.35999999999999965,-9.79,-0.0012128468529678206,0.023194176735003347,-0.10284168186763952,203.4994879672299,-0.5625,177.8125,0.01922606999999999,0.20382841830005138,-0.9788213000716854,0.0010375999999999999
187.0,-0.06077895851835759,-0.05783211288797917,-0.035578323504019405,-0.08999999999999991,-0.35999999999999965,-9.79,0.0013954788888126558,0.013868282110998031,0.0007663135601968865,203.4674859190988,-0.5625,177.8125,0.01922606999999999,0.20350198936854813,-0.9788830377985893,0.0010375999999999999
188.0,-0.05770298732369493,-0.05730819354076376,-0.03442474642942907,-0.08999999999999991,-0.35999999999999965,-9.79,-0.01688038555559367,-0.005666665396113887,-0.03864784120377253,203.45148489503327,-0.5625,177.8125,0.01922606999999999,0.20333318597459674,-0.9789149227702618,0.0010375999999999999
189.0,-0.056325911716910676,-0.0558723408918518,-0.034973608395304556,-0.08999999999999991,-0.35999999999999965,-9.79,-0.015196071307868913,-0.004034148011775483,-0.07708441727367327,203.37946453188385,-0.5406637717121587,177.8125,0.01922606999999999,0.20274475100714937,-0.9790331270923276,0.0010375999999999999
190.0,-0.05703089079090639,-0.056426737226815266,-0.03356676008405979,-0.08999999999999991,-0.35999999999999965,-9.79,0.012728188301321757,0.005198156999665844,-0.03629246465322168,203.31070000787741,-0.5193238213399504,177.8125,0.01922606999999999,0.20216701582615526,-0.9791474796751967,0.0010375999999999999
191.0,-0.05832599327051719,-0.05632396769174863,-0.03336300113778003,-0.08999999999999991,-0.35999999999999965,-9.79,0.015100653290445824,-0.00501740895536421,-0.015634071548321027,203.27633374689827,-0.5086538461538461,177.8125,0.01922606999999999,0.20187905453878158,-0.9792046403393909,0.0010375999999999999
192.0,-0.06035706531371853,-0.055906520786561095,-0.03220439338886921,-0.08999999999999991,-0.35999999999999965,-9.79,0.012541871910571507,0.006466321536886052,-0.02306807635688684,203.26014267990075,-0.5033188585607941,177.8125,0.01922606999999999,0.20174482164764257,-0.9792312991811425,0.0010375999999999999
193.0,-0.06066492378589153,-0.05413521603844183,-0.03411378943637009,-0.08999999999999991,-0.35999999999999965,-9.79,0.003293995431092205,0.01974021722005593,-0.035003040194572455,203.252047146402,-0.500651364764268,177.8125,0.01922606999999999,0.20167787985607927,-0.9792445968486363,0.0010375999999999999
194.0,-0.061577319012932945,-0.05440979964653221,-0.03480043109855806,-0.08999999999999991,-0.35999999999999965,-9.79,0.007587324298432519,3.109876451447627e-05,-0.012044964426110367,203.25,-0.5,177.8125,0.01922606999999999,0.20166015999999987,-0.979248050000001,0.0010375999999999999
195.0,-0.06217437773089437,-0.055586049139899285,-0.035937574247928046,-0.08999999999999991,-0.35999999999999965,-9.79,0.0031536211865946517,-0.0076686347132171795,-0.01253809921254315,203.25,-0.5,177.8125,0.01922606999999999,0.20166015999999987,-0.979248050000001,0.0010375999999999999
196.0,-0.06182963638208824,-0.055232860719463206,-0.033163359576601006,-0.08999999999999991,-0.35999999999999965,-9.79,0.014617645206712583,0.0020220574513791206,-0.011885409053276183,203.25,-0.5,177.8125,0.01922606999999999,0.20166015999999987,-0.979248050000001,0.0010375999999999999
197.0,-0.061626235334644536,-0.05660478884048081,-0.03305995762388844,-0.08999999999999991,-0.35999999999999965,-9.790000000000001,-0.013140050640660355,0.021018873743899755,-0.000834805040425813,203.25,-0.5,177.8125,0.01922606999999999,0.20166015999999987,-0.979248050000001,0.0010375999999999999
198.0,-0.06112309750603194,-0.05753626538798233,-0.032401954618395845,-0.08999999999999991,-0.35999999999999965,-9.790000000000001,-0.028133155360652758,-0.010155885708695283,0.017995525907206447,203.25,-0.5,177.8125,0.01922606999999999,0.20166015999999987,-0.979248050000001,0.0010375999999999999
199.0,-0.06306607128563423,-0.0568688691063821,-0.03293883050698869,-0.08999999999999991,-0.35999999999999965,-9.79,-0.015237983667679296,0.01210442927404426,-0.0179150582262575,203.25,-0.5,177.8125,0.01922606999999999,0.20166015999999987,-0.979248050000001,0.0010375999999999999
200.0,-0.0631844004070851,-0.058325253411751835,-0.03159968820634795,-0.08999999999999991,-0.35999999999999965,-9.79,-0.02526012086609771,-0.011860316380347595,-0.015308335564741654,203.25,-0.5,177.8125,0.01922606999999999,0.20166015999999987,-0.979248050000001,0.0010375999999999999
201.0,-0.06390786840630752,-0.05924455194909148,-0.03240506683742898,-0.08999999999999991,-0.35999999999999965,-9.79,-0.0014533451232690286,-0.018202943648443125,0.005626682192027534,203.25,-0.5,177.8125,0.01922606999999999,0.20166015999999987,-0.979248050000001,0.0010375999999999999
202.0,-0.06399503722084368,-0.06060894851116624,-0.032346774193548394,-0.08999999999999991,-0.35999999999999965,-9.79,-0.00852929202853598,-0.011224410669975187,0.008126066222084366,203.25,-0.5,177.8125,0.01922606999999999,0.20166015999999987,-0.979248050000001,0.0010375999999999999
203.0,-0.06381886356359562,-0.05991596293924597,-0.03164262486992718,-0.08999999999999991,-0.35999999999999965,-9.79,0.00213585232730329,0.020512111782598253,-0.03238835622948851,203.25,-0.5,177.8125,0.01922606999999999,0.20166015999999987,-0.979248050000001,0.0010375999999999999
204.0,-0.062321578774589964,-0.060265791938723764,-0.03166541815003705,-0.08999999999999991,-0.35999999999999965,-9.79,-0.03218318652294491,-0.006144255267076546,-0.020477036833086847,203.25,-0.5,177.8125,0.01922606999999999,0.20166015999999987,-0.979248050000001,0.0010375999999999999
205.0,-0.062378337464218045,-0.059899722892438806,-0.031778002189162456,-0.08999999999999991,-0.35999999999999965,-9.79,-0.024969588376236723,-0.011934371740238026,-0.010530033227337466,203.25,-0.5,177.8125,0.01922606999999999,0.20166015999999987,-0.979248050000001,0.0010375999999999999
206.0,-0.06318060018372193,-0.058917603381703265,-0.03330013633031324,-0.08999999999999991,-0.35999999999999965,-9.79,-0.015328456951766007,0.007810342045513742,0.0037547375736761805,203.25,-0.5,177.8125,0.01922606999999999,0.20166015999999987,-0.979248050000001,0.0010375999999999999
207.0,-0.06209926066533766,-0.058445922097326866,-0.03267787548328653,-0.08999999999999991,-0.35999999999999965,-9.79,0.002840074568742622,0.011120155858709447,-0.013654209849579255,203.25,-0.5,177.8125,0.01922606999999999,0.20166015999999987,-0.979248050000001,0.0010375999999999999
208.0,-0.06281870101224939,-0.06003001299775492,-0.03354665406278311,-0.08999999999999991,-0.35999999999999965,-9.79,-0.014143428256331483,-0.003673342786246013,-0.0032238370948048352,203.25,-0.5,177.8125,0.01922606999999999,0.20166015999999987,-0.979248050000001,0.0010375999999999999
209.0,-0.06329969671905153,-0.059769112607822264,-0.03357146795856475,-0.08999999999999991,-0.35999999999999965,-9.79,0.013323191145771789,-0.015236421284808382,-0.03519880656977432,203.25,-0.5,177.8125,0.01922606999999999,0.20166015999999987,-0.979248050000001,0.0010375999999999999
210.0,-0.06338433967466224,-0.061262968214581104,-0.033772086336602475,-0.08999999999999991,-0.35999999999999965,-9.79,-0.0021163200598684475,0.0032611317893575954,-0.018591959116152666,203.25,-0.5,177.8125,0.01922606999999999,0.20166015999999987,-0.979248050000001,0.0010375999999999999
211.0,-0.06315991177281498,-0.06017987120406473,-0.034147829768797516,-0.08999999999999991,-0.35999999999999965,-9.79,0.0005314801685769427,0.022885218500137854,-0.014630967151128441,203.25,-0.5,177.8125,0.01922606999999999,0.20166015999999987,-0.979248050000001,0.0010375999999999999
212.0,-0.06362655086848634,-0.05964423076923075,-0.03529621588089331,-0.08999999999999991,-0.35999999999999965,-9.79,0.006397332506203474,0.007744649503722083,-0.005346619106699753,203.25,-0.5,177.8125,0.01922606999999999,0.20166015999999987,-0.979248050000001,0.0010375999999999999
213.0,-0.06224007444168733,-0.06092633374689824,-0.0348366935483871,-0.08999999999999991,-0.35999999999999965,-9.79,0.012752016129032257,0.01572871433002481,-0.015855691687344912,203.25,-0.5,177.8125,0.01922606999999999,0.20166015999999987,-0.979248050000001,0.0010375999999999999
214.0,-0.06368209165386585,-0.06227296639292605,-0.03301667675962032,-0.08999999999999991,-0.35999999999999965,-9.79,0.021132152457757295,0.026219747294596085,-0.009433419123439285,203.25,-0.5,177.8125,0.01922606999999999,0.20166015999999987,-0.979248050000001,0.0010375999999999999
215.0,-0.06380173131080387,-0.06246460819646301,-0.032655011766906945,-0.08999999999999991,-0.35999999999999965,-9.79,-0.006791534658218124,0.0037065218327819137,-0.011741659158493834,203.25,-0.5,177.8125,0.01922606999999999,0.20166015999999987,-0.979248050000001,0.0010375999999999999
216.0,-0.06341700996136479,-0.0639062715957877,-0.03297485131356101,-0.08999999999999991,-0.35999999999999965,-9.789999999999997,0.009264702031839128,-0.01837437456137053,-0.0022920096256789806,203.25,-0.5,177.8125,0.01922606999999999,0.20166015999999987,-0.9792480500000009,0.0010375999999999999
217.0,-0.06386731391368486,-0.06450896706340253,-0.03519710307613534,-0.08999999999999991,-0.35999999999999965,-9.79,0.019815353497309143,-0.01156001606480437,-0.0036739204455938325,203.25,-0.5,177.8125,0.01922606999999999,0.20166015999999987,-0.9792480500000009,0.0010375999999999999
218.0,-0.06393466502135856,-0.06512242708008836,-0.03381830960258381,-0.08999999999999991,-0.35999999999999965,-9.79,0.009120126345428765,0.013010944588565557,-0.009491950142151755,203.25,-0.5,177.8125,0.01922606999999999,0.20166015999999987,-0.979248050000001,0.0010375999999999999
219.0,-0.06407504558613428,-0.06461632688548011,-0.033374499492443054,-0.08999999999999991,-0.35999999999999965,-9.789999999999997,-0.02231292942608467,0.013765573304383789,-0.021772519315362057,203.25,-0.5,177.8125,0.01922606999999999,0.20166015999999987,-0.9792480500000009,0.0010375999999999999
220.0,-0.06385879935476708,-0.06513270421334935,-0.0337795036504714,-0.08999999999999991,-0.35999999999999965,-9.79,0.007828000292718035,0.027135582831147347,0.04207362977524268,203.25,-0.5,177.8125,0.01922606999999999,0.20166015999999987,-0.9792480500000009,0.0010375999999999999
221.0,-0.06546012840062007,-0.06572988125875742,-0.0341668936913474,-0.08999999999999991,-0.35999999999999965,-9.79,0.023808246985194823,-0.010795245824674804,0.018848733501439015,203.25,-0.5,177.8125,0.01922606999999999,0.20166015999999987,-0.979248050000001,0.0010375999999999999
222.0,-0.06512212375365989,-0.06437362549290229,-0.03418766520795659,-0.08999999999999991,-0.35999999999999965,-9.79,0.006956853021133392,0.0075831463184318285,-0.0014162039688834695,203.25,-0.5,177.8125,0.01922606999999999,0.20166015999999987,-0.979248050000001,0.0010375999999999999
223.0,-0.06408614717459668,-0.06344596287052062,-0.03268874575534306,-0.08999999999999991,-0.35999999999999965,-9.79,-0.0034537133002273484,-0.017154359688178626,-0.00045608585540947693,203.25,-0.5,177.8125,0.01922606999999999,0.20166015999999987,-0.979248050000001,0.0010375999999999999
224.0,-0.06535910006038456,-0.06453378380053121,-0.030367216330710656,-0.08999999999999991,-0.35999999999999965,-9.790000000000001,0.00491495143603603,-0.023628539554359652,0.00823884768652855,203.25,-0.5,177.8125,0.01922606999999999,0.20166015999999987,-0.9792480500000009,0.0010375999999999999
225.0,-0.06412935112515467,-0.06273311743100725,-0.032419773433778665,-0.08999999999999991,-0.35999999999999965,-9.790000000000001,-0.002088784473403467,-0.004001585149979069,-0.0188686320076948,203.25,-0.5,177.8125,0.01922606999999999,0.20166015999999987,-0.9792480500000009,0.0010375999999999999
226.0,-0.06465256478053936,-0.06015343936866939,-0.03320156205507872,-0.08999999999999991,-0.35999999999999965,-9.79,-0.0036636089980881096,-0.01313102550543058,0.008993003294959931,203.25,-0.5,177.8125,0.01922606999999999,0.20166015999999987,-0.979248050000001,0.0010375999999999999
227.0,-0.06478904185302914,-0.06084634432492708,-0.03333365747009323,-0.08999999999999991,-0.35999999999999965,-9.79,-0.009372717886731635,-0.02386581997237735,-0.0007946677565926633,203.25,-0.5,177.8125,0.01922606999999999,0.20166015999999987,-0.979248050000001,0.0010375999999999999
228.0,-0.06403844152204807,-0.06118744015253797,-0.03342117116680841,-0.08999999999999991,-0.35999999999999965,-9.79,-0.013037785742373261,-0.004744634551945499,0.007667182250735927,203.25,-0.5,177.8125,0.01922606999999999,0.20166015999999987,-0.979248050000001,0.0010375999999999999
229.0,-0.06230446345768925,-0.06175504244859081,-0.034476718621879926,-0.08999999999999991,-0.35999999999999965,-9.789999999999997,0.00014194474879958806,-0.024881251141331787,-0.008144498870305321,203.25,-0.5,177.8125,0.01922606999999999,0.20166015999999987,-0.9792480500000009,0.0010375999999999999
230.0,-0.06207282726234338,-0.06384402246499017,-0.034585753851882894,-0.08999999999999991,-0.35999999999999965,-9.79,0.012795848304920886,-0.00010346676173289202,-0.008949730824730825,203.25,-0.5,177.8125,0.01922606999999999,0.20166015999999987,-0.9792480500000009,0.0010375999999999999
231.0,-0.062200745657106225,-0.06387142290303058,-0.034642512721987234,-0.08999999999999991,-0.35999999999999965,-9.79,0.020507825697325566,0.009165428229635435,0.006397723237278389,203.25,-0.5,177.8125,0.01922606999999999,0.20166015999999987,-0.979248050000001,0.0010375999999999999
232.0,-0.0631177819427364,-0.061829464651720095,-0.03460364243370228,-0.08999999999999991,-0.35999999999999965,-9.79,0.013014089499968467,-0.0180747359619872,0.020511969657553683,203.25,-0.5,177.8125,0.01922606999999999,0.20166015999999987,-0.979248050000001,0.0010375999999999999
233.0,-0.06404691051231115,-0.06223940664347791,-0.03423148933099507,-0.08999999999999991,-0.35999999999999965,-9.79,0.022655705187329147,0.008623873876946847,-0.00984714792556559,203.25,-0.5,177.8125,0.01922606999999999,0.20166015999999987,-0.979248050000001,0.0010375999999999999
234.0,-0.06354349435683983,-0.0629354413471544,-0.03396569578964222,-0.08999999999999991,-0.35999999999999965,-9.79,0.03127531104918754,0.027711252676498842,-0.010605392144600977,203.25,-0.5,177.8125,0.01922606999999999,0.20166015999999987,-0.979248050000001,0.0010375999999999999
235.0,-0.06335440846874249,-0.06322931341551266,-0.03448788821740176,-0.08999999999999991,-0.35999999999999965,-9.79,0.00617129967781958,-0.0031712133794925147,-0.006137499499719843,203.25,-0.5,177.8125,0.01922606999999999,0.20166015999999987,-0.979248050000001,0.0010375999999999999
236.0,-0.06346448511166253,-0.06290469913151361,-0.034788849255583135,-0.08999999999999991,-0.35999999999999965,-9.79,0.007113155241935484,-0.00880990229528536,-0.005411561724565757,203.25,-0.5,177.8125,0.01922606999999999,0.20166015999999987,-0.979248050000001,0.0010375999999999999
237.0,-0.06224944468902585,-0.06270356899863921,-0.034652245257344116,-0.08999999999999991,-0.35999999999999965,-9.79,0.016485106659729448,0.021813872018330262,-0.0006398583206595689,203.25,-0.5,177.8125,0.01922606999999999,0.20166015999999987,-0.979248050000001,0.0010375999999999999
238.0,-0.0640765518769876,-0.06024457271468847,-0.033411041294235895,-0.08909882232462872,-0.3570506912442394,-9.790819252432154,-0.1678809647291372,0.12197176723528667,0.16875919959621832,203.2674091141833,-0.496415770609319,177.83400537634407,0.019056059718381965,0.20182217003584224,-0.9792205480235542,0.001013598197644649
239.0,-0.061845004414186666,-0.0560661400034142,-0.031935813695732215,-0.0816984343336001,-0.3334458363081716,-9.795134751159281,-0.06957733777120195,0.03392542991762062,0.8346821966290952,203.57855916863184,-0.45550002524105204,177.98136263819475,0.017813101569777078,0.20451955207834815,-0.9786770222830173,0.0007740262501171906
240.0,-0.052783509669779904,-0.03756104755346445,-0.032967184652391866,-0.08839134523613076,-0.35596702022437937,-9.79256737557964,0.0362700057352464,0.042518607998651425,0.27148911453385427,204.1721033686202,-0.5032675860437326,177.86322886363274,0.018968609569192815,0.20956140277003588,-0.9775896111150278,0.0007896776989632654
241.0,-0.048879485741975696,-0.02407884194601814,-0.03164748219976324,-0.09435696294064597,-0.36830609075735093,-9.79128368778982,0.022091686864629777,0.028132851598679766,0.02930377582614571,204.39000713745912,-0.5338918575379953,177.80560636730024,0.019601375913628667,0.21150915680744484,-0.9771577479973498,0.0008821343333526009
242.0,-0.045290019025634454,-0.02000536189992815,-0.031941967306557364,-0.09733977179290357,-0.37447562602383666,-9.79064184389491,-0.0578469865524766,-0.015018111541571028,0.14310657253646192,204.5257107647593,-0.5492039932851267,177.77679511913396,0.019894494212397466,0.2126655163689828,-0.9769156785123232,0.0009283626505472686
243.0,-0.04411198339914595,-0.017014969736446416,-0.031672468548311974,-0.09885933802138772,-0.3776525595556971,-9.79029532030895,-0.032651731883509165,-0.009461180706781418,0.08830635846485155,204.59698876691627,-0.5569720683271511,177.7617174520401,0.02003812654040253,0.2132691663386131,-0.9767911417574424,0.0009522268654682071
244.0,-0.04386801076738486,-0.015611434732282117,-0.034186082467257246,-0.09983630235917176,-0.3799325950890706,-9.79,-0.015770337430183363,-0.017731985822982452,0.018151965858995225,204.62317634620234,-0.5620787193066923,177.74990972556571,0.02014612873589868,0.21348922954140997,-0.9767454288410118,0.0009712705681271072
245.0,-0.04448580093741385,-0.015258812871716107,-0.03505927763992281,-0.0999999999999999,-0.3799999999999999,-9.79,-0.015217220055929735,-0.0106724368821143,0.017219071251329317,204.6225835991965,-0.5625,177.75,0.020144598987593063,0.21348384990310731,-0.9767480613921002,0.0009765600000000008
246.0,-0.044577537158182315,-0.015487014777337368,-0.035024402121176315,-0.09999999999999988,-0.3799999999999999,-9.789999999999997,-0.013601720859785376,-0.006032990307183855,0.0124265071845717,204.62475186104217,-0.5625,177.75,0.02014211497766751,0.21349907168734455,-0.976745882590572,0.0009765600000000008
247.0,-0.04511893124796351,-0.01606526090397059,-0.03296653167620911,-0.0999999999999999,-0.3799999999999999,-9.79,-0.009780989619699297,-0.01902958152958153,-0.003435856258436903,204.625,-0.5625,177.75,0.020141600000000016,0.21350097999999967,-0.9767456100000014,0.0009765600000000008
248.0,-0.04574719996156,-0.01594246313288978,-0.031626717599662464,-0.0999999999999999,-0.37999999999999995,-9.79,0.001641019981290532,-0.005920754294843785,-0.002926263527200051,204.625,-0.5625,177.75,0.020141600000000013,0.21350097999999967,-0.9767456100000014,0.0009765600000000008
249.0,-0.04450058410776413,-0.017239024705205778,-0.031030972727122588,-0.0999999999999999,-0.3799999999999999,-9.79,0.006836895039288379,0.0009998763087993054,-0.01247183632069168,204.625,-0.5625,177.75,0.020141600000000013,0.21350097999999967,-0.9767456100000014,0.0009765600000000008
250.0,-0.04613859013572853,-0.017746023833953083,-0.03185004069811564,-0.0999999999999999,-0.3799999999999999,-9.79,0.009533792747892643,0.00698355310575654,-0.030169265279176828,204.625,-0.5625,177.75,0.020141600000000016,0.21350097999999967,-0.9767456100000014,0.0009765600000000008
251.0,-0.046380634266300236,-0.01789549481042718,-0.03350810930311452,-0.0999999999999999,-0.3799999999999999,-9.79,0.003942116315295295,0.01056350187057133,-0.014595874086313732,204.625,-0.5625,177.75,0.020141600000000016,0.21350097999999967,-0.9767456100000014,0.0009765600000000008
252.0,-0.04689103397902826,-0.01924344632994478,-0.031980629152325316,-0.0999999999999999,-0.3799999999999999,-9.79,0.0011230038821740175,-0.0062869894640998954,-0.02224289352037141,204.625,-0.5625,177.75,0.020141600000000016,0.21350097999999967,-0.9767456100000014,0.0009765600000000008
253.0,-0.047295673076923075,-0.018479683622828792,-0.03227543424317619,-0.0999999999999999,-0.3799999999999999,-9.79,0.008430908808933003,-0.010817792338709678,-0.002032607009925559,204.625,-0.5625,177.75,0.020141600000000016,0.21350097999999967,-0.9767456100000014,0.0009765600000000008
254.0,-0.04750750420235332,-0.019847769751060604,-0.0323763357480189,-0.0999999999999999,-0.37999999999999995,-9.79,-0.005859093592411751,-0.007080027315296566,0.011296920025214117,204.625,-0.5625,177.75,0.020141600000000013,0.21350097999999967,-0.9767456100000014,0.0009765600000000008
255.0,-0.04912395941727367,-0.023616512747138413,-0.03197596904266391,-0.0999999999999999,-0.37999999999999995,-9.790000000000001,-0.005196816467221643,-0.01102570564516129,-0.035750723530176894,204.625,-0.5625,177.75,0.02014160000000001,0.21350097999999967,-0.9767456100000014,0.0009765600000000008
256.0,-0.048131597255068895,-0.026063892370636665,-0.032077839726610546,-0.0999999999999999,-0.3799999999999999,-9.79,0.001831920761990351,-0.011598469574780059,-0.0076271831543846345,204.625,-0.5625,177.75,0.020141600000000016,0.21350097999999967,-0.9767456100000014,0.0009765600000000008
257.0,-0.049511867175921535,-0.026250192153060275,-0.0324023271213698,-0.0999999999999999,-0.3799999999999999,-9.79,0.002963591429382272,-0.01096556543255132,-0.0179579968191278,204.625,-0.5625,177.75,0.020141600000000016,0.21350097999999967,-0.9767456100000014,0.0009765600000000008
258.0,-0.049460749534891046,-0.02715873616497968,-0.03282577334216254,-0.0999999999999999,-0.37999999999999995,-9.79,0.01631822911739665,-0.014611762132248605,-0.014465430186358905,204.625,-0.5625,177.75,0.020141600000000013,0.21350097999999967,-0.9767456100000014,0.0009765600000000008
259.0,-0.04920488049065051,-0.02848051272348881,-0.03161580030271499,-0.0999999999999999,-0.3799999999999999,-9.79,0.012500295620092706,-0.02086597471856967,0.012554615812127518,204.625,-0.5625,177.75,0.020141600000000013,0.21350097999999967,-0.9767456100000014,0.0009765600000000008
260.0,-0.04967267957935231,-0.02864192129410654,-0.033201240421909015,-0.0999999999999999,-0.3799999999999999,-9.79,-0.0007412673824614508,-0.021294069565320217,0.019187037354554914,204.625,-0.5625,177.75,0.020141600000000016,0.21350097999999967,-0.9767456100000014,0.0009765600000000008
261.0,-0.05111165050047073,-0.029923762862758715,-0.032055514778752306,-0.0999999999999999,-0.3799999999999999,-9.79,0.006660361747022776,-0.0017591932335282376,0.01951342627863667,204.625,-0.5625,177.75,0.020141600000000016,0.21350097999999967,-0.9767456100000014,0.0009765600000000008
262.0,-0.051591611540557934,-0.03171591368944388,-0.03243652755066649,-0.0999999999999999,-0.3799999999999999,-9.79,0.013347822002543646,-0.006250690366764119,0.02079816979254414,204.625,-0.5625,177.75,0.020141600000000016,0.21350097999999967,-0.9767456100000014,0.0009765600000000008
263.0,-0.050488593731537273,-0.03152961297215331,-0.03354836863405414,-0.0999999999999999,-0.3799999999999999,-9.79,0.03052001481940998,-0.0013438475447044,-0.015244775665642602,204.625,-0.5625,177.75,0.020141600000000016,0.21350097999999967,-0.9767456100000014,0.0009765600000000008
264.0,-0.047514799597298304,-0.031771326387221306,-0.03209961030558067,-0.0999999999999999,-0.37999999999999995,-9.79,0.03178332296641675,-0.008051017002060836,0.02348534499756371,204.625,-0.5625,177.75,0.020141600000000013,0.21350047186264276,-0.9767456100000014,0.0009765600000000008
265.0,-0.04684020742091762,-0.03390270273575426,-0.03305536576673415,-0.0999999999999999,-0.37999999999999995,-9.790000000000001,0.025997711496215655,0.03274140909782494,-0.20818255594164478,204.5297866805411,-0.5625,177.75,0.02014160000000001,0.21264762874089477,-0.9769275075234134,0.0009699552965660775
266.0,-0.04512611812615064,-0.03431556421596096,-0.03445028716081006,-0.0999999999999999,-0.3799999999999999,-9.790000000000001,-0.0070762752141199075,-0.01715193320759625,0.002288453408908986,204.41610301768992,-0.5625,177.75,0.020141600000000013,0.2117158387029536,-0.9771263745036416,0.0009417582934443286
267.0,-0.04605564258842093,-0.03595534515201529,-0.03267133213647263,-0.0999999999999999,-0.3799999999999999,-9.79,-0.0289427635031173,-0.013011000445964024,0.029999323430644972,204.3592611862643,-0.5625,177.75,0.020141600000000016,0.2112853228998639,-0.97721950709053,0.0009276597918834542
268.0,-0.04574384004248728,-0.0366444574040828,-0.0319985515698315,-0.0999999999999999,-0.3799999999999999,-9.79,-0.010623012378995728,0.004200661894470428,0.030143030890949725,204.3308402705515,-0.5625,177.75,0.020141600000000016,0.21107006499831904,-0.9772660733839741,0.0009206105411030171
269.0,-0.04755454228971397,-0.037726495091219336,-0.03276306350603959,-0.0999999999999999,-0.3799999999999999,-9.79,-0.004319700778467687,0.02855389494307288,-0.028258999642974666,204.3166298126951,-0.5625,177.75,0.020141600000000016,0.21096245192683905,-0.9772893565306962,0.0009170859157127983
270.0,-0.047172172289497986,-0.03809841924175952,-0.0338971404939147,-0.0999999999999999,-0.37999999999999995,-9.79,-0.010793435196726039,0.014179392840943309,-0.028600103359468602,204.3125,-0.5625,177.75,0.020141600000000013,0.21093528879900747,-0.9772953138064506,0.0009155299999999993
271.0,-0.04691098546541775,-0.03947450352316996,-0.031687536199038066,-0.0999999999999999,-0.37999999999999995,-9.790000000000001,-0.02328509574586332,-0.014081692344121762,0.011450721212101521,204.3125,-0.5625,177.75,0.02014160000000001,0.2109375,-0.977294919999999,0.0009155299999999993
272.0,-0.04516658808896552,-0.03819012505316795,-0.03233709197993969,-0.0999999999999999,-0.3799999999999999,-9.790000000000001,-0.011354775609352944,-0.00590428112420551,-0.013052702728464186,204.3125,-0.5625,177.75,0.020141600000000013,0.2109375,-0.977294919999999,0.0009155299999999993
273.0,-0.04683572620014072,-0.03823996780052151,-0.034012888027860275,-0.0999999999999999,-0.3799999999999999,-9.79,-0.0032612331707799038,0.009512657184953055,0.0007061115133920734,204.3125,-0.5625,177.75,0.020141600000000016,0.2109375,-0.977294919999999,0.0009155299999999993
274.0,-0.04776449096167285,-0.03806045931649385,-0.03444839900872723,-0.0999999999999999,-0.37999999999999995,-9.790000000000001,0.006126500837867073,0.011741646620572262,0.00843992815523922,204.3125,-0.5625,177.75,0.020141600000000013,0.2109375,-0.977294919999999,0.0009155299999999993
275.0,-0.048289113326830176,-0.0365562442264051,-0.03399839305275072,-0.0999999999999999,-0.3799999999999999,-9.790000000000001,0.005339525132773286,0.003318143809765839,0.014967232547963002,204.3125,-0.5625,177.75,0.020141600000000013,0.2109375,-0.977294919999999,0.0009155299999999993
276.0,-0.04928200808325678,-0.03646519034786465,-0.03519956921908016,-0.0999999999999999,-0.3799999999999999,-9.79,0.006832389630256435,0.01669006667543348,-0.004177982527358177,204.3125,-0.5625,177.75,0.020141600000000016,0.2109375,-0.977294919999999,0.0009155299999999993
277.0,-0.05007820887633581,-0.03645079736716054,-0.035216529986951434,-0.0999999999999999,-0.37999999999999995,-9.790000000000001,0.008634617131625456,0.0036313936995193497,0.008354857291511818,204.3125,-0.5625,177.75,0.020141600000000013,0.2109375,-0.977294919999999,0.0009155299999999993
278.0,-0.048613093173446954,-0.03462452822787111,-0.03380898183935385,-0.0999999999999999,-0.3799999999999999,-9.790000000000001,0.008269561510001156,-0.011185135203491733,0.018554348768643772,204.3125,-0.5625,177.75,0.020141600000000013,0.2109375,-0.977294919999999,0.0009155299999999993
279.0,-0.04965505921411228,-0.03497025099928978,-0.03264569964735809,-0.0999999999999999,-0.3799999999999999,-9.79,0.0033788614084204614,-0.0068605197184232695,0.013674100948912343,204.3125,-0.5625,177.75,0.020141600000000016,0.2109375,-0.977294919999999,0.0009155299999999993
280.0,-0.049678468263851486,-0.03434802046262745,-0.03270327849898313,-0.0999999999999999,-0.37999999999999995,-9.790000000000001,0.011145199807859094,-0.0022938633593438396,0.014454341259754954,204.3125,-0.5625,177.75,0.020141600000000013,0.2109375,-0.977294919999999,0.0009155299999999993
281.0,-0.0506559264002309,-0.035346053242066425,-0.03321799869649618,-0.0999999999999999,-0.3799999999999999,-9.790000000000001,0.01570124813741649,0.004549432887660389,-0.005749659887275619,204.3125,-0.5625,177.75,0.020141600000000013,0.2109375,-0.977294919999999,0.0009155299999999993
282.0,-0.05166743330337327,-0.03661859613996382,-0.035178358189199024,-0.0999999999999999,-0.3799999999999999,-9.79,0.004214087608290411,-0.006015676176036933,-0.0016949191936177985,204.3125,-0.5625,177.75,0.020141600000000016,0.2109375,-0.977294919999999,0.0009155299999999993
283.0,-0.05063714407104148,-0.03592270532804643,-0.03400046941718017,-0.0999999999999999,-0.3799999999999999,-9.79,0.01609393896543553,-0.012694708047695884,-0.009368754959712124,204.3125,-0.5625,177.75,0.020141600000000016,0.2109375,-0.977294919999999,0.0009155299999999993
284.0,-0.05079220234786072,-0.03618075870600991,-0.03471656855395619,-0.0999999999999999,-0.3799999999999999,-9.79,-0.006553964977087663,-0.0017790616531362172,0.0178530649164573,204.3125,-0.5625,177.75,0.020141600000000016,0.2109375,-0.977294919999999,0.0009155299999999993
285.0,-0.05119543404624049,-0.03557050789712081,-0.03501308637598961,-0.0999999999999999,-0.3799999999999999,-9.79,0.0028771687541848836,0.02488386949072433,0.012648871066209776,204.3125,-0.5625,177.75,0.020141600000000016,0.2109375,-0.977294919999999,0.0009155299999999993
286.0,-0.051063666843908784,-0.03489482896136123,-0.03449323033597228,-0.0999999999999999,-0.3799999999999999,-9.79,-0.001953632724802079,0.025050741709007836,0.11477937664933632,204.37855222734257,-0.5625,177.75,0.020141600000000016,0.2115175378494623,-0.9771704127188933,0.0009445294060419868
287.0,-0.05032042716559837,-0.03578992759950257,-0.034078531532953815,-0.0999999999999999,-0.37999999999999995,-9.79,0.010236979756868374,-0.007306169234175252,0.051526134242578917,204.47455837173578,-0.5625,177.75,0.020141600000000013,0.21235797866032075,-0.9769816838105305,0.0009615290578597035
288.0,-0.05080300979868006,-0.036305595003225236,-0.03397901452578213,-0.0999999999999999,-0.3799999999999999,-9.79,0.03991319366255329,0.0041061042786940125,-0.11145389937995122,204.45159370199696,-0.5625,177.75,0.020141600000000013,0.21210766881899418,-0.9770341038705261,0.0009487062435700499
289.0,-0.04917670651224325,-0.03756559992096746,-0.033436079843536234,-0.0999999999999999,-0.3799999999999999,-9.79,0.06829644058127664,0.03870564790547604,0.06906828720518567,204.4143049155146,-0.5625,177.75,0.020141600000000016,0.2117115960224002,-0.9771330125804247,0.0009321181217850246
290.0,-0.045128055489372244,-0.038542105171401844,-0.034859479127723456,-0.094516129032258,-0.36749999999999994,-9.792419354838707,0.006728865451928644,0.02560282395273802,0.10043829993013625,204.39515649001535,-0.5423387096774193,177.8079637096774,0.019543062822580642,0.21155343026926465,-0.9771750824192447,0.000849497851215093
291.0,-0.050743751246990265,-0.0449341350229769,-0.03252958595403071,-0.09209677419354832,-0.3685067844342038,-9.791209677419353,0.04595915878843231,-0.02958530077324697,0.11596735785037278,204.5396801395289,-0.5201612903225806,177.81123991935482,0.01952581192332309,0.2126779308207562,-0.976929873239833,0.0007240954361042183
292.0,-0.05803845415337349,-0.04969736893930442,-0.03209107536728506,-0.09088709677419349,-0.36909210189452124,-9.790604838709676,0.015072056919335143,-0.016684837060341094,0.0919356223413683,204.61560619879674,-0.5090725806451613,177.81287802419354,0.019518686606822835,0.21325298209202798,-0.9768052204697322,0.0006613161051488833
293.0,-0.06024287231802189,-0.05339194869761986,-0.03406362781411561,-0.09028225806451606,-0.36938476062467995,-9.790302419354838,0.005914620471194025,-0.017940293340064088,0.032053519167162176,204.65578697036608,-0.5035282258064516,177.81369707661287,0.01951512394857271,0.213561461797875,-0.9767383070686138,0.0006305927721774193
294.0,-0.06228673473811999,-0.05671101531143154,-0.03444168813900865,-0.08997983870967735,-0.36953108998975936,-9.790151209677418,-0.016972215254034324,-0.01984859289059016,0.026441676138240583,204.6766838077637,-0.5007560483870968,177.81410660282256,0.019513342619447642,0.21372416783442133,-0.9767025785343075,0.0006155491280241935
295.0,-0.06273358914325354,-0.05643010442990931,-0.03284584406950433,-0.08999999999999991,-0.36999487967229905,-9.79,-0.007635553191533291,-0.0020802944291660463,-0.01202802785829906,204.68714797747054,-0.5,177.8125,0.01953115624167947,0.21380427489503323,-0.9766849450332835,0.00061035
296.0,-0.0632596641023735,-0.05753107553722145,-0.03316598068728013,-0.08999999999999991,-0.37,-9.790000000000001,0.002658508854244091,-0.010133890504476158,-0.011295900356977686,204.6875,-0.5,177.8125,0.01953125,0.21380614999999992,-0.9766845700000014,0.0006103499999999998
297.0,-0.0643904167286061,-0.05679930792990104,-0.03000688147267233,-0.08999999999999991,-0.37,-9.790000000000003,0.010705304494326346,0.0003881538741060068,-0.01423014943924153,204.6875,-0.5,177.8125,0.01953125,0.21380614999999992,-0.9766845700000014,0.0006103499999999997
298.0,-0.0641775184579555,-0.057327853756833975,-0.03184267070511869,-0.08999999999999991,-0.37,-9.790000000000001,0.005872943610326545,0.008047224699800142,-0.008562135073418893,204.6875,-0.5,177.8125,0.01953125,0.21380614999999992,-0.9766845700000014,0.0006103499999999998
299.0,-0.06412408949011444,-0.05939997398543183,-0.03326388527575444,-0.08999999999999991,-0.37,-9.79,0.002000411897329171,0.0023115027748872707,0.002327355402358654,204.6875,-0.5,177.8125,0.01953125,0.21380614999999992,-0.9766845700000014,0.00061035
300.0,-0.0645614047040946,-0.05944285053598268,-0.035050121401318086,-0.08999999999999991,-0.37,-9.79,0.004072402569248302,-0.018553510005285496,-0.005792267479312224,204.6875,-0.5,177.8125,0.01953125,0.21380614999999992,-0.9766845700000014,0.00061035
301.0,-0.06488476062467996,-0.05958614951356886,-0.033438172043010764,-0.08999999999999991,-0.37,-9.79,0.006832637288786482,-0.005927379352278546,0.001233678955453149,204.6875,-0.5,177.8125,0.01953125,0.21380614999999992,-0.9766845700000014,0.00061035
302.0,-0.06638592869943674,-0.06090597798259087,-0.034912634408602164,-0.08999999999999991,-0.37,-9.79,0.012203281009984638,0.005436847958269328,0.012948828725038402,204.6875,-0.5,177.8125,0.01953125,0.21380614999999992,-0.9766845700000014,0.00061035
303.0,-0.06769897142269563,-0.06065749388288719,-0.035611063370350804,-0.08999999999999991,-0.37,-9.79,0.009258813875563446,0.0061839039665751725,-0.014086590066354411,204.6875,-0.5,177.8125,0.01953125,0.21380614999999992,-0.9766845700000014,0.0006103499999999998
304.0,-0.06719707286015111,-0.06238723094248417,-0.03272992684646574,-0.08999999999999991,-0.37,-9.790000000000001,0.009879573593608986,0.014601366005139824,-0.004662352330263575,204.6875,-0.5,177.8125,0.01953125,0.21380614999999992,-0.9766845700000014,0.0006103499999999998
305.0,-0.06717177680976755,-0.06168028292565146,-0.032289694606028575,-0.08999999999999991,-0.37,-9.790000000000001,0.010799115640004305,-0.0079721713831877,-0.0040762724666797015,204.6875,-0.5,177.8125,0.01953125,0.21380614999999992,-0.9766845700000014,0.00061035
306.0,-0.06583362838927503,-0.06042894869487568,-0.03186382493048568,-0.08999999999999991,-0.37,-9.790000000000001,-0.00048115725544009644,-0.007202339918961175,-0.0032047270241827228,204.6875,-0.5,177.8125,0.01953125,0.21380614999999992,-0.9766845700000014,0.0006103499999999998
307.0,-0.06769826250241118,-0.06043554620095448,-0.03413346752870133,-0.08999999999999991,-0.37,-9.790000000000003,0.0037064690652995184,0.010938043337055637,0.001721357402768501,204.6875,-0.5,177.8125,0.01953125,0.21380614999999992,-0.9766845700000014,0.0006103499999999997
308.0,-0.06854505933158632,-0.06045442037705047,-0.03245012879343582,-0.08999999999999991,-0.37,-9.790000000000001,0.005786338710333524,0.019466245359696512,-0.004543208130979578,204.6875,-0.5,177.8125,0.01953125,0.21380614999999992,-0.9766845700000014,0.00061035
309.0,-0.06818020685390738,-0.06245608057816566,-0.034911700341418384,-0.08999999999999991,-0.37,-9.79,0.023723921878166944,0.019616077769619163,0.009423854121253517,204.6875,-0.5,177.8125,0.01953125,0.21380614999999992,-0.9766845700000014,0.00061035
310.0,-0.06680634452196689,-0.06371055049479803,-0.03583670344854478,-0.08999999999999991,-0.37,-9.790000000000001,0.021041101257661877,0.015507230432076049,0.027146490416105826,204.6875,-0.5,177.8125,0.01953125,0.21380614999999992,-0.9766845700000014,0.0006103499999999998
311.0,-0.06880923965872618,-0.06393279866051035,-0.03424481454345114,-0.08999999999999991,-0.37,-9.790000000000001,0.0166547357725114,0.011325115256060437,0.03147176838102978,204.6875,-0.5,177.8125,0.01953125,0.21380614999999992,-0.9766845700000014,0.00061035
312.0,-0.06876739084998708,-0.06389395089027633,-0.03451928722941991,-0.08999999999999991,-0.37,-9.79,0.03238871109090932,0.023345000779801766,0.031245204655877132,204.6875,-0.5,177.8125,0.01953125,0.21380614999999992,-0.9766845700000014,0.00061035
313.0,-0.0682092176354642,-0.06549309026533912,-0.03435980556605846,-0.08999999999999991,-0.37,-9.790000000000001,0.010251319453439853,0.01704850019159311,0.015282793694940153,204.6875,-0.5,177.8125,0.01953125,0.21380614999999992,-0.9766845700000014,0.0006103499999999998
314.0,-0.06097482761621281,-0.061750450337826564,-0.03553123368611748,-0.09169475204622039,-0.36506981222917645,-9.790847376023109,-0.15248753199516224,-0.009128461767314924,0.2528198345361389,204.9031957149735,-0.5144439094848339,177.83464732787672,0.019330013293211358,0.21572260180548863,-0.9762604684689461,0.0007194321762156956
315.0,-0.056932426000008474,-0.07327671925933527,-0.03219675201009557,-0.09531535869041877,-0.3468897448242655,-9.795584978334134,-0.07124032974492141,-0.11113028847292238,-0.33456847316788807,204.67690779971113,-0.5394800192585459,177.92034785748677,0.018512841680308135,0.21392839778045264,-0.9766798697592687,0.001088992079922965
316.0,-0.05523048099007868,-0.07939642414579667,-0.03291103109189643,-0.09781896966778997,-0.33779971112180995,-9.797953779489646,-0.10989901102630686,-0.13682289857889296,-0.057459484722901855,204.5340184159846,-0.551998074145402,177.97176667067885,0.01808141592079922,0.21280801969667787,-0.9769406366538276,0.001297097491574385
317.0,-0.05296822308592516,-0.08446619722394799,-0.03293397016704397,-0.09907077515647558,-0.3332546942705822,-9.799138180067404,-0.09820427381832496,-0.0894597963836605,-0.002592319566392047,204.4817269499278,-0.55825710158883,178.02116559340396,0.017798271024915734,0.21242503065479046,-0.9770331194559454,0.001426255358690417
318.0,-0.05450499996178859,-0.08542849787162499,-0.03228797926649397,-0.09969667790081838,-0.3309821858449683,-9.799730380356284,-0.059000999944593464,-0.03634313193059282,0.010313107800093237,204.45558121689936,-0.561386615310544,178.0458650547665,0.017656698576973995,0.21223353613384677,-0.9770793608570044,0.001490834292248433
319.0,-0.05464285236643204,-0.08511384848033257,-0.03078988458246404,-0.0999566682715454,-0.3299999999999996,-9.8,-0.026643720123461036,-0.036575131853214725,0.006187784077882478,204.43576785929224,-0.5625,178.05752268145162,0.017592201000090263,0.2120778997544534,-0.9771157347303794,0.0015197149410207007
320.0,-0.05387608020028035,-0.08401252303098217,-0.034724563355661334,-0.0999999999999999,-0.3299999999999996,-9.8,-0.007141514433972953,-0.032942362409554865,0.010602949080544436,204.43630292338707,-0.5625,178.06101940524195,0.017582344501008054,0.21208609499999986,-0.9771141887903216,0.0015243109274193528
321.0,-0.05490374990556771,-0.08373049186623352,-0.0372198325610872,-0.0999999999999999,-0.3299999999999996,-9.8,0.011033427450832262,-0.005742744584833757,0.005436233164824188,204.4375,-0.5625,178.0625,0.01757812999999999,0.2120971699999999,-0.977111819999999,0.0015258799999999977
322.0,-0.05533461944843157,-0.08341798530843678,-0.03848062800609403,-0.0999999999999999,-0.3299999999999996,-9.8,-0.0032358464384343553,0.007345281573430536,0.004406224621326584,204.4375,-0.5625,178.0625,0.01757812999999999,0.2120971699999999,-0.9771118199999989,0.0015258799999999977
323.0,-0.05614358768987655,-0.08411314522966064,-0.03804193666173589,-0.0999999999999999,-0.3299999999999996,-9.8,0.0023391364842167447,0.006006330465435351,0.007043752756813136,204.4375,-0.5625,178.0625,0.01757812999999999,0.2120971699999999,-0.9771118199999989,0.0015258799999999977
324.0,-0.05537082098267509,-0.08543342873362192,-0.03771528476711987,-0.0999999999999999,-0.3299999999999996,-9.8,0.0058418672692461095,0.0030831703530453764,0.0549651687491183,204.45132488479263,-0.5625,178.0625,0.01757812999999999,0.21212317151561683,-0.9770983180645153,0.0015258799999999977
325.0,-0.05553839832846076,-0.085814281791454,-0.03638408342004858,-0.0999999999999999,-0.3266935483870967,-9.8,-0.021470922526138445,0.023776844298680273,0.10431032102183573,204.51800115207374,-0.5625,178.0625,0.01757812999999999,0.21259352841909884,-0.9769898876612899,0.0015258799999999977
326.0,-0.054045440843697876,-0.08656049471037114,-0.03690939962093058,-0.0999999999999999,-0.3233467741935484,-9.8,-0.0015428729374163813,-0.0009684006873214076,0.049522992052136505,204.57452476958525,-0.5625,178.06149193548387,0.01757960661290322,0.21303839179019468,-0.9768933415725802,0.0015253877419354816
327.0,-0.05492887286721834,-0.08763939472771418,-0.03837901367623012,-0.0999999999999999,-0.32667338709677407,-9.8,0.03856543592983499,-0.017432793118114395,0.05121760050707762,204.602786578341,-0.5625,178.02973790322582,0.017653557421956283,0.21327200249759481,-0.9768450685282254,0.001494129354838708
328.0,-0.054368702822787114,-0.08680616978841481,-0.04019887208265199,-0.0999999999999999,-0.32833669354838685,-9.8,0.0025358397130964758,-0.009805756600680508,0.05215991887996961,204.6169174827189,-0.5625,178.01386088709677,0.01771034693678459,0.21337762882944267,-0.976820932006048,0.0014785001612903212
329.0,-0.05628829406372331,-0.08477021239036717,-0.03867086461275457,-0.0999999999999999,-0.3291683467741932,-9.8,0.042086532247741275,0.021738826768784168,-0.04568463349396296,204.62355090725805,-0.5625,178.00592237903226,0.017738741694198742,0.21340712990883287,-0.9768092856804431,0.0014706855645161276
330.0,-0.05572008789207672,-0.08762015323819433,-0.03691893365046331,-0.0999999999999999,-0.3296874999999997,-9.8,0.0029821102098921415,-0.004861643403242324,-0.006956900080314812,204.625,-0.5625,178.001953125,0.017752939072905816,0.2133985882533075,-0.9768066399999996,0.001466778266129031
331.0,-0.05625806141915663,-0.08647960746907155,-0.03587818162297872,-0.0999999999999999,-0.3299999999999996,-9.8,-0.0008563451286688808,-0.01688599683282956,-0.016712547022364264,204.625,-0.5625,178.0,0.01775999161810613,0.21338776477181493,-0.9768066399999996,0.001464839999999999
332.0,-0.05601924923195084,-0.08608579749103941,-0.03737717613927291,-0.0999999999999999,-0.3299999999999996,-9.8,0.005408846166154634,-0.0028823844726062467,-0.04497177819380439,204.625,-0.5625,178.0,0.01776122999999999,0.2133820036866358,-0.9768066399999996,0.001464839999999999
333.0,-0.05663325652841781,-0.0866337685611879,-0.0371836917562724,-0.0999999999999999,-0.3299999999999996,-9.8,0.017049091141833075,-0.006530017921146953,-0.06940364183307732,204.625,-0.5625,178.0,0.017761229999999992,0.2133794724884791,-0.9768066399999996,0.001464839999999999
334.0,-0.05568605990783408,-0.08722241423451096,-0.03799276753712237,-0.0999999999999999,-0.3299999999999996,-9.8,-0.010900697644649255,-0.0076252880184331795,0.00075644841269841,204.625,-0.5625,178.0,0.017761229999999992,0.2133789099999998,-0.9768066399999996,0.001464839999999999
335.0,-0.056872599846390176,-0.08755744367639527,-0.03657434075780851,-0.0999999999999999,-0.3299999999999996,-9.8,-0.0033502144137224775,-0.011406730030721967,-0.0027131736431131614,204.625,-0.5625,178.0,0.017761229999999996,0.2133789099999998,-0.9768066399999996,0.001464839999999999
336.0,-0.05453307411674348,-0.0876486655145929,-0.037250816052227353,-0.0999999999999999,-0.3299999999999997,-9.8,0.0037652409754224273,-0.01706729230670763,-0.01599432363671275,204.625,-0.5625,178.0,0.01776122999999999,0.21337890999999984,-0.9768066399999996,0.001464839999999999
337.0,-0.05500367610623854,-0.08639497856895095,-0.038393309300827516,-0.0999999999999999,-0.3299999999999996,-9.8,-0.0014596418041722412,0.004316127845085312,0.0399473824389277,204.625,-0.5625,178.0,0.01776122999999999,0.21338348281997904,-0.976805623891779,0.001464839999999999
338.0,-0.05341888874436351,-0.08625846057125322,-0.03662239020518158,-0.0999999999999999,-0.3299999999999996,-9.8,0.008267431845166628,-0.01207398539015182,0.011488225072707383,204.6875310173697,-0.5625,178.0,0.01776122999999999,0.2139041261171857,-0.9766835168391896,0.0014948904615384598
339.0,-0.052214045698924724,-0.08658534696096479,-0.036166944322153755,-0.0999999999999999,-0.3299999999999996,-9.8,-0.011428280045158622,-0.02829926425464927,0.007306002819912484,204.7207816377171,-0.5625,178.0,0.01776122999999999,0.21417704838117368,-0.9766190706776594,0.001511369746898261
340.0,-0.051394727714186614,-0.08591128365217854,-0.0360804317084234,-0.0999999999999999,-0.3299999999999996,-9.8,-0.006281684409936231,-0.030026648256356894,0.004252047813442195,204.7374069478908,-0.5625,178.0,0.01776122999999999,0.21431350951316763,-0.9765868475968942,0.0015196093895781617
341.0,-0.049922402259551066,-0.0866005471000268,-0.03692820868575292,-0.0999999999999999,-0.3299999999999996,-9.8,-0.0038208857277535735,-0.03614907681635049,0.03178232190979329,204.77183327425263,-0.5625,178.0,0.01776122999999999,0.2145887555015915,-0.9765367324108383,0.001523729210918112
342.0,-0.05084049353352163,-0.08636218822222984,-0.037504166777840034,-0.0999999999999999,-0.3299999999999996,-9.8,0.019860498863490537,-0.025033435390485338,-0.1912173197943229,204.6974085726102,-0.5625,178.0,0.01776122999999999,0.21401125355984893,-0.9766697494910599,0.001501176218362281
343.0,-0.052552400773004306,-0.0844137844176866,-0.03808474968204416,-0.0999999999999999,-0.3299999999999996,-9.8,-0.021061606007300598,0.03527954821366632,-0.06720275258906892,204.62699212749618,-0.5625,178.0,0.01776122999999999,0.21342672474270374,-0.9768050303385827,0.0014820690322580631
344.0,-0.053322506317823676,-0.08265086083127185,-0.03863358591922588,-0.0999999999999999,-0.3299999999999996,-9.8,-0.002086324095461712,0.00196174441020305,-0.019786890182311615,204.5917218701997,-0.5625,178.0,0.01776122999999999,0.2131340665649004,-0.9768727767821952,0.0014724699999999987
345.0,-0.05307752627185508,-0.0797308974771904,-0.03969944724601332,-0.0999999999999999,-0.3299999999999996,-9.8,0.011380044948186858,0.020839743172843456,-0.006932036702458136,204.57408674155147,-0.5625,178.0,0.017761229999999992,0.2129877374759987,-0.9769066500040015,0.0014676704838709666
346.0,-0.05393092147996318,-0.07932462461765474,-0.03777028299782305,-0.0999999999999999,-0.3299999999999996,-9.8,-0.00011100452933970884,0.0005155000017222772,-0.0017339730741018247,204.564453125,-0.5625,178.0,0.01776122999999999,0.21290810369959703,-0.9769246492288317,0.0014652707258064504
347.0,-0.05521222853312034,-0.07899054931599583,-0.03883345819117983,-0.0999999999999999,-0.3299999999999996,-9.8,-0.02940663073689207,0.01787162728900758,0.009655686914049957,204.5625,-0.5625,178.0,0.01776122999999999,0.21289063000000025,-0.9769287100000011,0.001464839999999999
348.0,-0.05507941931738863,-0.08120054961197215,-0.03975776007293722,-0.0999999999999999,-0.3299999999999996,-9.8,-0.028136087720963446,-0.009417214051005698,0.013875410094341876,204.5625,-0.5625,178.0,0.017761229999999992,0.21289063000000025,-0.9769287100000013,0.001464839999999999
349.0,-0.055297774174823344,-0.08203451798216471,-0.03860344579329243,-0.0999999999999999,-0.3299999999999996,-9.8,-0.02590892475378197,0.0013475344137031066,0.02868088122583099,204.5625,-0.5625,178.0,0.017761229999999992,0.21289063000000025,-0.9769287100000013,0.001464839999999999
350.0,-0.05339826674001712,-0.07812644013252155,-0.03849775267332115,-0.0999999999999999,-0.3299999999999996,-9.8,0.03529305623353085,-0.0039012948278879006,0.21772133391316362,204.6855769230769,-0.5625,178.0,0.017817935667493796,0.2139151695533501,-0.9766975333449133,0.001479381419354837
351.0,-0.05461715082875671,-0.0771316065499095,-0.038267760601561444,-0.09768115942028979,-0.3202758298270219,-9.799999999999997,-0.20844564955167164,0.11525691089045753,0.575818711929336,204.88584304311865,-0.5526823281907434,178.06124357176247,0.01732800976221814,0.21565597594310792,-0.9763095465438918,0.001478959517531556
352.0,-0.051261143871717374,-0.0772752282837891,-0.03601058857912462,-0.08531945294958151,-0.2861011134596264,-9.799999999999997,-0.2205462131346626,0.11387678773286138,-0.8907738544086831,204.5088148654939,-0.4962554076210418,178.2705127445364,0.015469480580791034,0.21242089326687424,-0.9770126824018867,0.0013707405765758644
353.0,-0.03650942173880717,-0.07683729302089032,-0.03609783552441854,-0.0887887587328553,-0.2700998925931908,-9.799999999999997,-0.2692161440801032,-0.057335069861492234,1.5381738668403235,204.84827602857237,-0.5151462047592874,178.36296035708793,0.014717358933659276,0.21536771206986977,-0.9763596505083436,0.0016582267968268318
354.0,-0.03284392457908101,-0.08144013727715857,-0.037939637724808614,-0.09903206052584783,-0.24649220903619334,-9.799999999999997,0.014421802828461727,0.07354349570564939,-1.1946729646046161,204.7381135869837,-0.5706136587143796,178.49658069280295,0.013700414915637494,0.214406294924603,-0.9765693063878792,0.002411176633570031
355.0,-0.029165597355314328,-0.07119632547939643,-0.03666144672195086,-0.09166804086831502,-0.2632173815839382,-9.799999999999995,-0.12952768589329147,0.08903899011122912,-1.5661342830433258,204.05565197857632,-0.5316474170726118,178.40118473438204,0.014405102442828435,0.20859683411208566,-0.9778203967065674,0.001974667887708569
356.0,-0.04719488541030173,-0.05777615824898581,-0.03589184511722589,-0.0660291557152221,-0.27713974057829804,-9.799999999999995,-0.12538928329326024,0.13082619688416414,-7.684986106221502,198.92197592278347,-0.3851815103260062,178.31998700171155,0.014849933060499221,0.16431078319867232,-0.9848611489220302,0.00124257468462429
357.0,-0.05945841499047571,-0.03825200461290727,-0.036008166992960965,-0.04665383274175463,-0.2916321147234972,-9.799999999999997,-0.1180955957583975,0.09953111298092807,-2.04509982276091,194.7085316915144,-0.26494423085587,178.23654961171448,0.01540363032397974,0.12802120398007222,-0.9903500968099475,0.0006931099115988329
358.0,-0.0609645381039081,-0.030436139512700904,-0.035998865280161704,-0.04248014217732894,-0.2965181446482763,-9.799999999999997,-0.10865734393087004,0.05236052437836361,-1.1892605193209016,193.2386497404441,-0.22061846267651183,178.20793324988,0.015696684483621753,0.11530564079696214,-0.9925735695506099,0.0005674303471656406
359.0,-0.05980068736621004,-0.025070201442848522,-0.03708839492272725,-0.04012740161694872,-0.299448880645784,-9.799999999999999,-0.057933951791702944,0.054718526225737925,-0.5384873341148989,192.5124554218817,-0.19701738935602123,178.1908939274178,0.015863239163269507,0.1090239475349935,-0.9936685505513692,0.0004855528547422408
360.0,-0.060040644169185434,-0.02436784486636461,-0.03789130307338307,-0.039341208541572026,-0.3000227169468427,-9.8,-0.014156712970531104,0.022201563157058093,-0.22858276338975175,192.1688437074057,-0.1873012267151295,178.1874432076329,0.015908549890958665,0.10604862388459799,-0.9941804461108598,0.0004700056474329854
361.0,-0.061687711033671815,-0.023124893320541205,-0.03759360875893317,-0.039636528850522504,-0.30014538845979144,-9.8,-0.02679906909841342,-0.00014716515896789732,0.08505659824431258,192.14666628805088,-0.18642094502498863,178.1867049068605,0.015928821172194466,0.10585292858246259,-0.9942361846842356,0.00047829701953657465
362.0,-0.061166143040102455,-0.024550238133354694,-0.036612753141759394,-0.04000000000000002,-0.3000000000000004,-9.8,-0.025601649423677257,-0.05114320269350836,-0.028098047406547665,192.1875,-0.1875,178.1875,0.01593018000000001,0.10620117000000007,-0.9942016600000012,0.0004882800000000004
363.0,-0.06121862234915044,-0.022697191617782164,-0.03722393929489404,-0.04000000000000002,-0.3000000000000004,-9.8,0.01501880189811056,-0.030148878907902712,-0.01180075673726493,192.1875,-0.1875,178.1875,0.01593018000000001,0.10620117000000007,-0.9942016600000012,0.0004882800000000004
364.0,-0.062233820900021455,-0.022828664647440676,-0.03689368740939371,-0.04000000000000002,-0.3000000000000004,-9.8,0.0015215477512645174,-0.009614631961755726,-0.005241509402011158,192.1875,-0.1875,178.1875,0.01593018000000001,0.10620117000000007,-0.9942016600000012,0.0004882800000000004
365.0,-0.06247938718698342,-0.022130251988732752,-0.037993098357302316,-0.04000000000000002,-0.3000000000000004,-9.8,-0.01098438935327593,-0.012637505574550319,0.0015149753703343717,192.1875,-0.1875,178.1875,0.01593018000000001,0.10620117000000007,-0.9942016600000012,0.0004882800000000004
366.0,-0.061676654482065496,-0.021924120046908822,-0.03707500835388453,-0.04000000000000002,-0.3000000000000004,-9.8,-0.00020151761176735207,-0.012199498385762692,0.00944628992235652,192.1875,-0.1875,178.1875,0.01593018000000001,0.10620117000000007,-0.9942016600000012,0.0004882800000000004
367.0,-0.06137854976564653,-0.02213887904210486,-0.036305013982433354,-0.04000000000000002,-0.3000000000000004,-9.8,-0.006113375871440388,0.000920181968569066,0.012655086848635234,192.1875,-0.1875,178.1875,0.01593018000000001,0.10620117000000007,-0.9942016600000012,0.0004882800000000004
368.0,-0.0611526645397613,-0.021376659183110807,-0.03673673638189767,-0.04000000000000002,-0.3000000000000004,-9.8,-0.01596951435661113,-0.012500738508803023,-0.016825938398519043,192.1875,-0.1875,178.1875,0.01593018000000001,0.10620117000000007,-0.9942016600000012,0.0004882800000000004
369.0,-0.06085969095074192,-0.022389362169799226,-0.037174259490076356,-0.04000000000000002,-0.3000000000000004,-9.8,-0.016123314770557225,0.0013523882898232534,-0.002705272889325959,192.1875,-0.1875,178.1875,0.01593018000000001,0.10620117000000007,-0.9942016600000012,0.0004882800000000004
370.0,-0.06014188612289546,-0.02264452156699817,-0.03876586856893828,-0.04000000000000002,-0.3000000000000004,-9.8,-0.012825285334390433,-0.00931632229921772,-0.012244902780477702,192.1875,-0.1875,178.1875,0.01593018000000001,0.10620117000000007,-0.9942016600000012,0.0004882800000000004
371.0,-0.06146320671177589,-0.02231071677195508,-0.03889696863721317,-0.04000000000000002,-0.3000000000000004,-9.799999999999999,0.0012634849686098387,0.007752814971044679,0.004374220396755516,192.1875,-0.1875,178.1875,0.01593018000000001,0.10620117000000007,-0.9942016600000012,0.0004882800000000004
372.0,-0.061697336547427574,-0.023655338692409468,-0.03788193975206203,-0.04000000000000002,-0.3000000000000004,-9.799999999999999,0.010049945249281877,0.002681746411829008,0.010659037017078769,192.1875,-0.1875,178.1875,0.01593018000000001,0.10620117000000007,-0.9942016600000012,0.0004882800000000004
373.0,-0.06249847966809464,-0.024231740626121497,-0.039236072633575245,-0.04000000000000002,-0.3000000000000004,-9.8,-0.01072603543987519,-0.005533679668695277,-0.021001086004988193,192.1875,-0.1875,178.1875,0.01593018000000001,0.10620117000000007,-0.9942016600000012,0.0004882800000000004
374.0,-0.06250930547080388,-0.02547563177948195,-0.03798956437249883,-0.04000000000000002,-0.3000000000000004,-9.8,-0.0055991499539886636,0.003440886492395338,-0.00919055941168324,192.1875,-0.1875,178.1875,0.01593018000000001,0.10620117000000007,-0.9942016600000012,0.0004882800000000004
375.0,-0.0634397525817921,-0.024788507133980613,-0.034876758632742,-0.04000000000000002,-0.3000000000000004,-9.8,-0.01675246796214538,0.017161431469443957,-0.008291516264981405,192.1875,-0.1875,178.1875,0.01593018000000001,0.10620117000000007,-0.9942016600000012,0.0004882800000000004
376.0,-0.06492250612724076,-0.024526896331787083,-0.03837119866490315,-0.04000000000000002,-0.3000000000000004,-9.8,-0.009140904620873403,-0.00376782823778141,-0.001880322822050189,192.1875,-0.1875,178.1875,0.01593018000000001,0.10620117000000007,-0.9942016600000012,0.0004882800000000004
377.0,-0.06409802489394059,-0.024248599215560728,-0.037410499879932765,-0.04000000000000002,-0.3000000000000004,-9.8,-0.0008882474185543899,0.009562479988793726,0.026579384455294966,192.1875,-0.1875,178.1875,0.01593018000000001,0.10620117000000007,-0.9942016600000012,0.0004882800000000004
378.0,-0.061599960978147746,-0.02498682262066759,-0.03790340090450653,-0.04000000000000002,-0.3000000000000004,-9.8,0.003037576042583847,0.012453036200272154,0.005202163211398382,192.1875,-0.1875,178.1875,0.01593018000000001,0.10620117000000007,-0.9942016600000012,0.0004882800000000004
379.0,-0.06194483669051389,-0.02551733027872659,-0.03578857959637726,-0.04000000000000002,-0.3000000000000004,-9.8,-0.0026962691320254095,0.0028519808182746274,-0.008550679774116127,192.1875,-0.1875,178.1875,0.01593018000000001,0.10620117000000007,-0.9942016600000012,0.0004882800000000004
380.0,-0.06246095361151398,-0.02556052445835972,-0.03515543451145029,-0.04000000000000002,-0.3000000000000004,-9.8,0.004213221360766609,-0.010823293545035752,-0.021046413235752383,192.1875,-0.1875,178.1875,0.01593018000000001,0.10620117000000007,-0.9942016600000012,0.0004882800000000004
381.0,-0.06359055845147857,-0.024777140481000885,-0.03659624763273627,-0.04000000000000002,-0.3000000000000004,-9.8,-0.003336187286478138,-0.02538508189618713,-0.023011450034189328,192.1875,-0.1875,178.1875,0.01593018000000001,0.10620117000000007,-0.9942016600000012,0.0004882800000000004
382.0,-0.06277542810911396,-0.024944401506009135,-0.036370084114134886,-0.04000000000000002,-0.3000000000000004,-9.8,-0.007251220194107556,-0.0016348486404012576,0.0020178481838978943,192.1875,-0.1875,178.1875,0.01593018000000001,0.10620117000000007,-0.9942016600000012,0.0004882800000000004
383.0,-0.06244850809922199,-0.02471909901603187,-0.03635501724317167,-0.04000000000000002,-0.3000000000000004,-9.8,-0.011279146077202661,0.0019741389552336147,0.0022961449356214032,192.1875,-0.1875,178.1875,0.01593018000000001,0.10620117000000007,-0.9942016600000012,0.0004882800000000004
384.0,-0.06277532592855171,-0.025517300799558877,-0.03724572649572651,-0.04000000000000002,-0.3000000000000004,-9.8,0.009877247528457207,0.00902667001457324,0.005961612312418764,192.1875,-0.1875,178.1875,0.01593018000000001,0.10620117000000007,-0.9942016600000012,0.0004882800000000004
385.0,-0.06305944995864349,-0.02389792331324591,-0.03879439422584585,-0.04000000000000002,-0.3000000000000004,-9.8,0.009898941224546064,0.013585915652447909,0.011701364271928787,192.1875,-0.1875,178.1875,0.01593018000000001,0.10620117000000007,-0.9942016600000012,0.0004882800000000004
386.0,-0.06128357926887143,-0.025184286881371774,-0.037734747452588556,-0.04000000000000002,-0.3000000000000004,-9.8,0.004591245415999184,-0.024300429880728,-0.006982118986762693,192.1875,-0.1875,178.1875,0.01593018000000001,0.10620117000000007,-0.9942016600000012,0.0004882800000000004
387.0,-0.06044568108348845,-0.025377641097151293,-0.03622587543963471,-0.04000000000000002,-0.3000000000000004,-9.8,-0.005214273309960941,-0.04271684812796493,-0.009061139055396392,192.1875,-0.1875,178.1875,0.01593018000000001,0.10620117000000007,-0.9942016600000012,0.0004882800000000004
388.0,-0.060587100777476234,-0.02634774579671461,-0.03443889150393646,-0.04000000000000002,-0.3000000000000004,-9.8,-0.013288985677933324,-0.03584498966571944,-0.021931798590973627,192.1875,-0.1875,178.1875,0.01593018000000001,0.10620117000000007,-0.9942016600000012,0.0004882800000000004
389.0,-0.06057162357003709,-0.026922622356784193,-0.03512164749287966,-0.04000000000000002,-0.3000000000000004,-9.8,-0.02504640902314091,-0.019194699330870667,-0.02134613286120425,192.1875,-0.1875,178.1875,0.01593018000000001,0.10620117000000007,-0.9942016600000012,0.0004882800000000004
390.0,-0.05964932201741535,-0.028750692279427732,-0.03605982445667884,-0.04000000000000002,-0.3000000000000004,-9.8,-0.02777166428396363,-0.0005041225376088299,-0.008847917362997284,192.1875,-0.1875,178.1875,0.01593018000000001,0.10620117000000007,-0.9942016600000012,0.0004882800000000004
391.0,-0.060878336312779585,-0.027901258355472733,-0.03808279430131667,-0.04000000000000002,-0.3000000000000004,-9.8,-0.015381403268369969,-0.005308909497254971,-0.0105632368412025,192.1875,-0.1875,178.1875,0.01593018000000001,0.10620117000000007,-0.9942016600000012,0.0004882800000000004
392.0,-0.061193508047046014,-0.027107641549108788,-0.03762744343181387,-0.04000000000000002,-0.3000000000000004,-9.8,0.0065971805322091485,-0.006393016597230957,-0.007202773632599335,192.1875,-0.1875,178.1875,0.01593018000000001,0.10620117000000007,-0.9942016600000012,0.0004882800000000004
393.0,-0.06263247815602133,-0.027533457625158998,-0.03999537518788299,-0.04000000000000002,-0.3000000000000004,-9.8,-0.0009685135977734829,0.01005406281485886,-0.01637143486860578,192.1875,-0.1875,178.1875,0.01593018000000001,0.10620117000000007,-0.9942016600000012,0.0004882800000000004
394.0,-0.06227374035809258,-0.02880769143418729,-0.04006425185405414,-0.04000000000000002,-0.3000000000000004,-9.8,0.008644327430503938,-0.008045805254116908,0.0001988191760401714,192.1875,-0.1875,178.1875,0.01593018000000001,0.10620117000000007,-0.9942016600000012,0.0004882800000000004
395.0,-0.061974332808912666,-0.027678212695935137,-0.038358522042184894,-0.04000000000000002,-0.3000000000000004,-9.8,-0.0008386827079513732,-0.01916451685165915,-0.011742380544612917,192.1875,-0.1875,178.1875,0.01593018000000001,0.10620117000000007,-0.9942016600000012,0.0004882800000000004
396.0,-0.06247740800942724,-0.028971600729247322,-0.03875620443727437,-0.04000000000000002,-0.3000000000000004,-9.8,-0.012534965114552099,-0.009922067058827987,-0.001435861329286893,192.1875,-0.1875,178.1875,0.01593018000000001,0.10620117000000007,-0.9942016600000012,0.0004882800000000004
397.0,-0.06246399016496336,-0.02937914063517518,-0.037177269752456124,-0.04000000000000002,-0.3000000000000004,-9.8,-0.0004629820369846868,-0.006895867036177781,0.013394972561163006,192.1875,-0.1875,178.1875,0.01593018000000001,0.10620117000000007,-0.9942016600000012,0.0004882800000000004
398.0,-0.0630736981822493,-0.028928807782631513,-0.03609381428463328,-0.04000000000000002,-0.3000000000000004,-9.8,0.02323758023283697,0.008558988771091465,0.04036413325368009,192.1875,-0.1875,178.1875,0.01593018000000001,0.10620117000000007,-0.9942016600000012,0.0004882800000000004
399.0,-0.06273548580387425,-0.028727076702375676,-0.03657225276443646,-0.04000000000000002,-0.3000000000000004,-9.8,0.015959317910197286,-0.0024794381861388557,0.0194180177277105,192.1875,-0.1875,178.1875,0.01593018000000001,0.10620117000000007,-0.9942016600000012,0.0004882800000000004
400.0,-0.06158791699307896,-0.027778796927736743,-0.038257964579862885,-0.04000000000000002,-0.3000000000000004,-9.8,-0.004133116262515283,-0.009992279256919914,0.002396540865903381,192.1875,-0.1875,178.1875,0.01593018000000001,0.10620117000000007,-0.9942016600000012,0.0004882800000000004
401.0,-0.06281088075989219,-0.027536878429698427,-0.03660125988013606,-0.04000000000000002,-0.3000000000000004,-9.8,-0.004167857809897351,-0.012423782715145878,0.007021400238101591,192.1875,-0.1875,178.1875,0.01593018000000001,0.10620117000000007,-0.9942016600000012,0.0004882800000000004
402.0,-0.06236537794498251,-0.02794117594741946,-0.039203335455156474,-0.04000000000000002,-0.3000000000000004,-9.8,-0.016847196334709342,-0.02071501310575192,-0.01773995024515316,192.1875,-0.1875,178.1875,0.01593018000000001,0.10620117000000007,-0.9942016600000012,0.0004882800000000004
403.0,-0.06215539368713144,-0.02796314380497525,-0.0378721391915981,-0.04000000000000002,-0.3000000000000004,-9.8,-0.008614871947338128,-0.024723718298119965,-0.025500454857895025,192.1875,-0.1875,178.1875,0.01593018000000001,0.10620117000000007,-0.9942016600000012,0.0004882800000000004
404.0,-0.06224897180516324,-0.026988484344883948,-0.038498281577365866,-0.04000000000000002,-0.3000000000000004,-9.8,-0.007979670996710538,0.0019750584136640336,-0.024326968340365844,192.1875,-0.1875,178.1875,0.01593018000000001,0.10620117000000007,-0.9942016600000012,0.0004882800000000004
405.0,-0.06262549027455372,-0.02830723204994799,-0.03774301608900985,-0.04000000000000002,-0.3000000000000004,-9.8,-0.016509036727233917,-0.010635122335174364,-0.011923468809199818,192.1875,-0.1875,178.1875,0.01593018000000001,0.10620117000000007,-0.9942016600000012,0.0004882800000000004
406.0,-0.06174770871688144,-0.029279046265908926,-0.03728598014888338,-0.04000000000000002,-0.3000000000000004,-9.8,-0.014420471297259799,-0.0035240568051442137,-0.007708712712452307,192.1875,-0.1875,178.1875,0.01593018000000001,0.10620117000000007,-0.9942016600000012,0.0004882800000000004
407.0,-0.06164908848955413,-0.027971989314015865,-0.038213749699831906,-0.04000000000000002,-0.3000000000000004,-9.8,0.003325664455428373,0.0042375813789055205,0.01796536268643774,192.1875,-0.1875,178.1875,0.01593018000000001,0.10620117000000007,-0.9942016600000012,0.0004882800000000004
408.0,-0.059743899083486735,-0.029824704334427295,-0.03674397162410951,-0.04000000000000002,-0.3000000000000004,-9.8,-0.005914452718522372,-0.024662123289041864,-0.008171216506243495,192.1875,-0.1875,178.1875,0.01593018000000001,0.10620117000000007,-0.9942016600000012,0.0004882800000000004
409.0,-0.06261960539171775,-0.03079460863162738,-0.037158228131563206,-0.04000000000000002,-0.3000000000000004,-9.8,0.004833522248649719,-0.005603631088965377,-0.0016752039872487317,192.1875,-0.1875,178.1875,0.01593018000000001,0.10620117000000007,-0.9942016600000012,0.0004882800000000004
410.0,-0.06437581553606528,-0.02950357080917697,-0.03870818571098228,-0.04000000000000002,-0.3000000000000004,-9.8,-0.013053028942239399,-0.011134164199411987,-0.038728026980823546,192.1875,-0.1875,178.1875,0.01593018000000001,0.10620117000000007,-0.9942016600000012,0.0004882800000000004
411.0,-0.0646338374886762,-0.02800228568474538,-0.03662696566426406,-0.04000000000000002,-0.3000000000000004,-9.8,-0.005835127294300681,0.007287366391449053,-0.01733012451258419,192.1875,-0.1875,178.1875,0.01593018000000001,0.10620117000000007,-0.9942016600000012,0.0004882800000000004
412.0,-0.06432238873376167,-0.028884843595942237,-0.03747997047094748,-0.04000000000000002,-0.3000000000000004,-9.8,-0.013808998403892804,0.020921506189510886,0.0075956587577216544,192.1875,-0.1875,178.1875,0.01593018000000001,0.10620117000000007,-0.9942016600000012,0.0004882800000000004
413.0,-0.06424208754404417,-0.029744921157930166,-0.0379144123988122,-0.04000000000000002,-0.3000000000000004,-9.8,-0.07374452696372316,0.03947310988559005,0.014589770063064616,192.1875,-0.1875,178.1875,0.01593018000000001,0.10620117000000007,-0.9942016600000012,0.0004882800000000004
414.0,-0.06324367562046038,-0.029201697650137647,-0.03915689897974403,-0.04000000000000002,-0.3000000000000004,-9.8,-0.009390504649296295,0.033625443831683914,0.01983168738688305,192.1875,-0.1875,178.1875,0.01593018000000001,0.10620117000000007,-0.9942016600000012,0.0004882800000000004
415.0,-0.06414615936680979,-0.028154356249543995,-0.03949396408280596,-0.04000000000000002,-0.3000000000000004,-9.8,0.012185828064496756,0.05907142647293361,0.029021066427696515,192.1875,-0.1875,178.1875,0.01593018000000001,0.10620117000000007,-0.9942016600000012,0.0004882800000000004
416.0,-0.0637165867140087,-0.028066740533689256,-0.03917842873091419,-0.04000000000000002,-0.3000000000000004,-9.8,0.01631806074933058,0.003530848925150886,0.008304105233226729,192.1875,-0.1875,178.1875,0.01593018000000001,0.10620117000000007,-0.9942016600000012,0.0004882800000000004
