time,linaccel_x,linaccel_y,linaccel_z,gravity_x,gravity_y,gravity_z,gyro_x,gyro_y,gyro_z,euler_x,euler_y,euler_z,quaternion_w,quaternion_y,quaternion_x,quaternion_z
0.0,0.06302325581395347,-0.007209302325581397,-0.009534883720930231,2.0574418604651155,0.7467441860465118,9.552558139534888,-0.8226744186046512,0.11046511627906977,-0.2369186046511628,127.64825581395348,12.11046511627907,-4.4563953488372094,0.4380478972093025,-0.08123211465116281,-0.0779802188372093,-0.891862735813953
1.0,0.060849021779254345,0.0014064230343300097,-0.01730527870062754,2.0964488741232925,0.7057401255075677,9.546725729051312,0.1027593207825766,-0.6159560723514211,-0.12262366186784791,127.68632336655591,12.347337578442229,-4.212647655961609,0.43769716462532304,-0.08021961631229238,-0.08079328818383166,-0.8918707560649686
2.0,0.0441966190900637,0.00966198617847593,-0.01090086857204595,2.121335231767125,0.6783485555311178,9.543718692241502,-0.21380001234753687,0.29525227561245715,-0.23635090735102887,127.87340687834973,12.489451296684301,-4.057162584262292,0.4362276897871593,-0.0793986860153727,-0.08264568922164212,-0.8924969902299342
3.0,0.037275495412761435,0.008411365907679009,-0.015233413463702748,2.1357125390523013,0.6679122527437898,9.541475227111075,-0.12741561551828143,0.07680878552971579,0.06449965787033286,127.84011020176646,12.575565076664056,-4.005537661273623,0.4364370288275038,-0.0793251730835967,-0.0834946273928639,-0.8923274819447008
4.0,0.03905035492322559,0.007879539571303976,-0.014867166268919152,2.115559830724232,0.6758715201448446,9.545260670568341,-0.0171058661878013,0.4618967241810452,-0.0893742054851692,127.88499955999453,12.448238093931149,-4.047994413673104,0.4361388545632314,-0.07917150881925186,-0.08240106400729974,-0.8925866046276204
5.0,0.05316305121576562,0.011552208609643701,-0.01723371173803904,2.1772835412685922,0.6857071672099212,9.529647446704884,0.08612921958712674,-0.9106182795698926,-0.2781930238657225,128.050323610955,12.82756008579671,-4.119554578322281,0.43465795256472217,-0.08097429166947662,-0.0852366855247087,-0.8928616704765652
6.0,0.05982617605620919,0.011205318751290608,-0.021238314805182134,2.3585195079257617,0.6720864275302276,9.48591006636677,0.05194852720148678,-1.5092835708927232,-0.3143345178629152,128.2707243121756,13.917895469076328,-4.047060382255842,0.43249179006768235,-0.08429255334143643,-0.09420566925040495,-0.8926616450559156
7.0,0.057248641428649855,0.013388965708326034,-0.030325760882729404,2.4954412993492276,0.6795219797980853,9.450275765805566,-0.041016569473378804,0.1508037070243171,0.24036867230744968,128.3294394482767,14.739281728097529,-4.107009711922754,0.4316363697760328,-0.08768977733966593,-0.10046936416383713,-0.8920707581049618
8.0,0.042524381095273824,0.012217875897545815,-0.023258135962562074,2.5020730182545634,0.6784228199907119,9.449774407887688,0.12886480548708606,0.32930888972243066,-0.17017312363805237,128.37857120530134,14.780747642267709,-4.105907057121423,0.4312394985635694,-0.08778873111599328,-0.10081184899992857,-0.8922480920403316
9.0,0.055349804350042206,0.013291227859229614,-0.027508109605798668,2.5166056148183387,0.7101253884899796,9.444139292662888,0.02448799264275999,-0.698343030879671,-0.20484310428652458,128.60352226013822,14.868940449398064,-4.300160569323515,0.42941735697501465,-0.08943479874783591,-0.10098798806343137,-0.8929553446126688
10.0,0.04698534389694985,0.008677291274038022,-0.021877298592940922,2.5406762666276324,0.6946603114193182,9.43896785171903,-0.6220861617843486,0.7792870473715989,0.21026636232228785,128.47795523576016,15.008790688525789,-4.204299169304521,0.4303457814908605,-0.08929763681865589,-0.1023446274775401,-0.8923619030080692
11.0,0.04745591275867747,0.018875779920589905,-0.03414645124695809,2.454878268347575,0.6520510859422171,9.46442991235614,0.1916200848992735,1.2859769820503906,0.08967462902310942,128.32983939582456,14.48457632700858,-3.942823815710025,0.431810149908221,-0.08550597628404663,-0.09909901390756225,-0.8923839828513715
12.0,0.04247064205075659,0.017057544874023386,-0.02393819186503943,2.233100799590142,0.697153825041626,9.513979397288345,0.12958254807604336,1.1004903664940626,-0.0004880793369074002,128.28626722229336,13.155707143249227,-4.191413783323879,0.43270338773955686,-0.08256083593347119,-0.08768792126961006,-0.8933611730145831
13.0,0.054075531077891426,0.014675059008654606,-0.01854523996852872,2.192914240755311,0.6811455546813532,9.52569787568843,-0.15114083398898506,-0.12053501180173098,-0.00020653029110936395,128.3970298977183,12.919718725413059,-4.08763768686074,0.4319370368292684,-0.08083559499449253,-0.08630646203540518,-0.894068506729347
14.0,0.06539901090255143,0.015342849649694654,-0.028308249971900644,2.2618728035667455,0.664121164437451,9.511327451200778,0.3319323461091753,-0.13893634558465404,-0.04923850736203215,128.48207377955114,13.337451528605147,-3.9961108145067628,0.431107366617961,-0.08157330399606608,-0.08995837451101493,-0.8940585417809936
15.0,0.06991167434715821,0.010795698924731183,-0.022124039938556068,2.284698156682027,0.6777173579109066,9.505707373271889,-0.009374999999999994,-0.15123847926267284,0.0011712749615975515,128.438964093702,13.470703725038401,-4.082282066052228,0.4313466183026114,-0.08276309987634409,-0.09070040586290323,-0.8937732515564516
16.0,0.062314900153609826,0.009485023041474656,-0.02212135176651306,2.351739247311828,0.684272657450077,9.48902995391705,-0.04729502688172044,-0.49352198540706604,-0.04330597158218126,128.5697100614439,13.877592165898616,-4.123703917050691,0.4301388069293394,-0.08446807140591397,-0.09382827200115207,-0.8938722391263441
17.0,0.05058955810381166,0.011098194191404995,-0.022709775658200267,2.4117208052013,0.7120082342014077,9.471717902689957,-0.07714350462615654,0.026114452720322923,-0.15265272791412138,128.7309857040153,14.234577450166114,-4.300207641196013,0.42870859025555497,-0.0869870840432608,-0.09611898333394062,-0.8940795321094023
18.0,0.042687636194762985,0.005351516450541207,-0.022078198120958813,2.440642660665166,0.7315068052727466,9.463424427535458,0.2007499642767835,0.16894960347229665,-0.25423655020898084,128.88193030400456,14.412436814560781,-4.419122637802308,0.4274250848656807,-0.08842973839567034,-0.09718480227449716,-0.894440643581967
19.0,0.03972400242917873,0.010934590790554782,-0.024363983853106133,2.4776009002250556,0.7406888865073409,9.453272889650982,0.2102588147036759,0.011956560568713609,-0.15530087879112636,129.02928120422962,14.635409075483157,-4.47935778587504,0.42616959283145794,-0.08958163093977065,-0.09882348597595828,-0.894745167767942
20.0,0.04629210874147109,0.006657771585753582,-0.023408566427321118,2.433070803415139,0.7460387596899221,9.463505876469121,-0.17990323473725575,0.27036960132890364,0.08011645768585003,129.0687640660165,14.363667479369841,-4.505539107991283,0.42597642890958454,-0.08878294076558424,-0.0966377797137856,-0.8951583390406532
21.0,0.04136341228164185,0.00731582895723931,-0.023722716393384063,2.4065776444111027,0.7457881970492621,9.470577823027188,-0.05524059586325153,0.23127255028042726,-0.2593561336762762,129.10721229414497,14.204812810345443,-4.503571205301325,0.4257455604148538,-0.08814927991505017,-0.09542378464491122,-0.8954633917192514
22.0,0.05532411674347158,0.0006251920122887864,-0.02500768049155146,2.4341827956989244,0.7243417818740399,9.46544930875576,-0.3378072196620583,-0.0055011520737327235,0.051867319508448556,129.2929963517665,14.371466973886328,-4.375456029185868,0.4242472706843318,-0.08760943158525346,-0.09732535200076806,-0.8960213463970812
23.0,0.056456221198156686,-0.00042473118279569863,-0.02469662058371736,2.40555529953917,0.6992254224270353,9.474068740399389,0.12105894777265747,0.31867799539170505,0.20047283026113671,129.30445228494622,14.195574116743472,-4.219266033026113,0.42426111852572973,-0.08577547980568356,-0.0965216217953149,-0.8962808011478494
24.0,0.0639900153609831,0.0029623655913978498,-0.024938940092165907,2.377425115207373,0.7219615975422427,9.479692012288792,-0.0823180683563748,0.021923003072196634,-0.0032858102918586624,129.16196956605222,14.03225326420891,-4.346248559907835,0.4254255304297234,-0.08630303092703531,-0.09464536975614438,-0.8958752049827188
25.0,0.07456247424225394,0.0025738263834251245,-0.027720355175901996,2.3729469203102163,0.6751863455846538,9.483837154846206,-0.19099122831666104,0.19078668839683788,-0.07033696985875387,129.21885911917875,14.003064820538757,-4.071891859615601,0.4250395474081151,-0.0839970114351935,-0.09544546893894945,-0.8961902120937395
26.0,0.08559383312727137,0.0065649469858753895,-0.02907983964632274,2.3661307182196247,0.6259351466786556,9.489577947622799,-0.4544649881982691,0.15268021055786593,-0.06417074107377017,129.24479342287663,13.959968950207934,-3.773040303847739,0.42489687609269045,-0.08149757613483946,-0.0962248026034993,-0.8964060253141508
27.0,0.08608186280019484,0.013822412049005282,-0.024182008916863368,2.353554606421641,0.5986442246450114,9.494656101307559,0.12202825858903754,0.026618523097673374,0.05027350043085685,129.2327221722678,13.886642501217638,-3.6082223408639615,0.42509183254864924,-0.07994867355052265,-0.0962520341604286,-0.8964542766294257
28.0,0.08083279007905286,0.014805215241092504,-0.02666704132479114,2.3625269191862426,0.6120248772994641,9.491426360945642,0.03398359934060172,-0.0412222284665243,-0.09304681353265146,129.21544902776216,13.941938762129556,-3.6867340582968042,0.4251755107781648,-0.08077834114008468,-0.09637870531830953,-0.8963314806618712
29.0,0.08315065003184595,0.01684346783560002,-0.02841032557791017,2.3990330448465773,0.6309033756697013,9.481131767262378,-0.1447929545539695,0.16198297178824322,-0.13196887527631038,129.253308231239,14.16695632422914,-3.8050653778427184,0.42474627757955863,-0.08248167231197782,-0.09773517036960025,-0.8962292097472181
30.0,0.07892780337941627,0.012687403993855609,-0.03190476190476192,2.4755921658986173,0.640247311827957,9.459921658986175,-0.12964189708141322,-0.25745007680491555,-0.10469950076804915,129.56085829493088,14.625321620583716,-3.8693356374807983,0.42212283935944694,-0.08437847385483871,-0.10138264299923197,-0.896868493343318
31.0,0.0858617511520737,0.012196236559139786,-0.031685867895545325,2.4542937788018433,0.6114447004608295,9.467633640552997,-0.13888968894009215,0.46003264208909367,-0.030412346390168966,129.5764400921659,14.493656394009216,-3.6891801075268815,0.42206154852764977,-0.08250471554877112,-0.10096992240591399,-0.8971202043444702
32.0,0.0834485407066052,0.003067972350230414,-0.029537634408602163,2.398422043010753,0.5907565284178187,9.483349462365592,0.01518337173579111,0.9851358486943165,0.14564132104454683,129.5057387672811,14.152700172811059,-3.5597638248847927,0.4228100074927035,-0.0803517755579877,-0.09871579340745007,-0.8972175210721969
33.0,0.06752134462186975,-0.0009925517093559114,-0.021502875718929736,2.32692848212053,0.6011843407280392,9.500270380095023,0.17243719411995856,0.6327387092308792,0.14686651573607684,129.37264913326544,13.727538078716107,-3.6139685591040616,0.42402246029745827,-0.07934797991768477,-0.09503643091312114,-0.8971248537032027
34.0,0.0704070137743495,-0.006459493793308955,-0.02650674863837911,2.341279740666874,0.5891670130076073,9.498207082258372,-0.07932157799902939,-0.21241027264655887,0.3067325792685105,129.13376936895372,13.81599600139582,-3.542009604099631,0.42586480021668743,-0.07929505750791793,-0.09582222569770926,-0.8961737618452088
35.0,0.05857140243248965,-0.009631436604795799,-0.02165583207648602,2.315927888766617,0.5926864250905932,9.504614293817356,0.01911897290524721,0.4180124135999156,-0.16640617580353279,129.1568664433094,13.660662171204823,-3.559383258271014,0.425740965081462,-0.07884480331233071,-0.09454487888956126,-0.8964173396092404
36.0,0.050522260356029774,0.001140502895758782,-0.017325611890777574,2.262353345304968,0.6138278515621937,9.515966901132945,0.25262304252021195,0.5492279809935061,-0.21134728913064504,129.20960161643197,13.33546741432745,-3.6869976967238323,0.4254794172258308,-0.07860943258166458,-0.09158382238256865,-0.8968712121548506
37.0,0.04902073079245421,0.005570251447879392,-0.01928492576105699,2.2922865036816695,0.6774400394523716,9.503574848415937,0.057283103441365585,-0.3057671538964881,-0.45717614072507673,129.69235841190263,13.514843922217487,-4.0700253460577684,0.4215595886513178,-0.081862510192522,-0.09200368111831968,-0.89836291724486
38.0,0.03867015534371397,0.01365909421606273,-0.01805956715659752,2.265235524909102,0.6932586543848505,9.50932680905418,-0.3125765653085745,0.2756376158499555,-0.2705516862665144,129.9312317190796,13.353469410471085,-4.161091067627535,0.4197414810435883,-0.08179953519003444,-0.09056192273845468,-0.8993786030672912
39.0,0.05931732933233308,0.01552870360447255,-0.020525309898903298,2.1804961954774402,0.6772073375486731,9.530544600435826,0.17087754081377488,0.37772501161004535,-0.5475810917014967,130.05226194941594,12.846079823527312,-4.056597854820848,0.41901473868895783,-0.07907430980459401,-0.08698633415050191,-0.9003089170305076
40.0,0.04486603793805594,0.011769728146322298,-0.016372485978637517,2.1766152252348805,0.6997134998035226,9.52987675490301,-0.05074594541492518,0.06297444896938521,-0.003389240167184615,130.36160044475406,12.820409343407281,-4.189325233093988,0.41657427061176006,-0.0797697295259529,-0.08651641265512806,-0.9014318327280033
41.0,0.03836773479084057,0.00724123888114886,-0.01325767156074733,2.1787638338155966,0.6857062122673527,9.530007501875467,0.011469385203443712,-0.02246342835708926,0.13374124781195298,130.3199563283678,12.836783972778909,-4.1066777855178085,0.416924627773622,-0.0792139365402422,-0.08688963270621228,-0.9012930079146928
42.0,0.05267671863020701,0.0017465795020183623,-0.013826637978175864,2.2362340969857843,0.6545599476792276,9.518715200778217,-0.09062962856098639,-0.2899430901681464,0.37132641676902745,130.19805937061187,13.183396638994914,-3.9299211478693854,0.4177591600049133,-0.07915469543985995,-0.09018085928734931,-0.9005843916094793
43.0,0.05928884693700899,0.0018260279355553173,-0.016062606310918395,2.2714261257622095,0.625053417200454,9.512339595887983,-0.23965089830149844,-0.18188546106306794,-0.14212655155547124,130.15078793736896,13.395791530300157,-3.7555410315490962,0.41806103950808304,-0.0785934917791948,-0.09244133413954864,-0.900267855362129
44.0,0.05743731681379204,0.0020314338166423137,-0.018104675156996167,2.3102755754604685,0.6151062559260827,9.504230380162719,-0.13932403568762733,-0.14198864749858062,-0.10167687429931724,130.2124976043495,13.626333476712116,-3.697818706175807,0.4174649062307217,-0.07894954699777078,-0.09453656719565944,-0.9002978266905426
45.0,0.059678719850828434,0.003108650856093814,-0.018192122524734646,2.3715202762094965,0.6063818530014438,9.489488461970758,-0.19679815455656327,-0.20888314863408294,-0.08816082578253112,130.2874123966448,13.991210133133324,-3.654376903011099,0.4167071700623654,-0.07979878374082089,-0.09766368049491111,-0.9002395239481897
46.0,0.06444114985460384,-0.004158892510584093,-0.0225263327021785,2.3888986117475492,0.6073410051789281,9.484818975281215,0.1708678631229772,0.2603874235193078,0.0013789940717556862,130.29865431988023,14.096614360429761,-3.6585398726306475,0.4165906837201087,-0.08021809182389196,-0.09846983111930845,-0.9001686917397322
47.0,0.06652316323854483,-0.007186973137012477,-0.024623028361620024,2.4229625903862724,0.6517020343936157,9.472911515117456,0.26868291277958856,-0.4891916399722753,0.09772910344310816,130.22044456698887,14.306786522142295,-3.9296886708066388,0.4170710234475385,-0.08314834566935485,-0.09910678619735117,-0.8995995788445075
48.0,0.07426286014012215,-0.0025008429807800393,-0.02674571953092804,2.518387471432318,0.6666539282904349,9.44670113521412,-0.25343514667865574,-0.7568468772245326,-0.09506247424225395,130.30758963695627,14.88690710351804,-4.030279401296317,0.4160852873440486,-0.08588950651455549,-0.10340619123262523,-0.8993074362500468
49.0,0.0717065677569218,-0.0045195009553782185,-0.029175377468060405,2.64723464838335,0.6421200404630775,9.412095650219175,-0.13690640103405644,-0.49156269903712857,-0.11714669738863287,130.41799131729795,15.665857170956501,-3.8998269547787645,0.4148741964989322,-0.08750801961605037,-0.11010088503173354,-0.8989054061297439
50.0,0.07125727773406766,-0.0031030684500393388,-0.029392604248623146,2.659346970889064,0.6215531077891423,9.410879622344613,-0.11273603461841071,0.22557041699449254,-0.08024193548387097,130.46108379228951,15.734411880409125,-3.780035405192762,0.414537882638867,-0.08677511742092842,-0.11108393637608183,-0.8990304869504326
51.0,0.07853107789142408,-0.009374508261211644,-0.0285940204563336,2.622846577498033,0.6085468135326513,9.422315499606611,0.10533536585365855,0.7723937844217152,0.11478166797797008,130.44412372147914,15.513011408339889,-3.6896341463414632,0.41481362552635714,-0.0853740892541306,-0.10961162024862312,-0.8992249497498033
52.0,0.0924166011014949,-0.013463808025177028,-0.03137018095987412,2.5259433516915806,0.60540243902439,9.44829386309992,-0.2779037175452399,0.14384343036978764,-0.2134343036978757,130.39289191581432,14.927261998426435,-3.6592594413847364,0.4155184238056647,-0.08312526046105428,-0.10502948416837134,-0.899644131169158
53.0,0.11346580307968979,-0.014755020418867785,-0.033043563373421764,2.494824922258439,0.5767261717432841,9.459656466599231,-0.2648826500505788,0.5626067775654715,0.03788683451350641,130.46365096146639,14.73507549361208,-3.4790913837997826,0.41502861086390536,-0.08100850441826832,-0.10421386517548985,-0.9001665923228053
54.0,0.12209137911655613,-0.010675602262935074,-0.037418221497883195,2.327513759319621,0.6227032707654265,9.497227426848006,0.6287045492862764,1.4485326865797459,-0.17710792027275113,130.27614774174816,13.727544631149076,-3.746473062080851,0.416901480934313,-0.07963786782892174,-0.09515306756237119,-0.9003895614027482
55.0,0.10774494211531976,-0.012363174852946688,-0.03221058596530667,2.255521730171219,0.6499822412049006,9.513255039151776,-0.1821686734292458,-0.1652270428234236,-0.18540929058484135,130.36289684491027,13.298073554756286,-3.903907508617137,0.4163832277325971,-0.07924358827234836,-0.09132221903325088,-0.9010663938845958
56.0,0.0941748904124986,-0.009931587426473345,-0.026496422014911397,2.224978607021093,0.6400233786669665,9.521994455059762,0.08182392941440936,0.7302897043947398,0.09272882244951483,130.34478007568094,13.110226293507175,-3.841444681727923,0.4166145149993631,-0.07807741268052901,-0.09003580915372222,-0.9012029592527815
57.0,0.07610160728335393,-0.010105840920160357,-0.02431430070061069,2.159880334195047,0.6163161739912331,9.538772994642391,-0.007804597055187143,0.5289774643138137,0.08698203514293208,130.23875510471692,12.716467395376718,-3.6925555430669514,0.4176459338710427,-0.07562787064553594,-0.08738608019684539,-0.9012010793274134
58.0,0.07153343823760816,-0.005180959874114871,-0.0211675845790716,2.2422092840283234,0.5819905586152636,9.521640440597956,-0.4622098741148702,-0.4183221872541306,-0.14419748229740362,130.29336644374507,13.21292781274587,-3.494467938630999,0.41703328924154204,-0.07580746520849724,-0.09206085770023603,-0.9010039302745867
59.0,0.06686933797909406,-0.000272282791952344,-0.02036049604735679,2.234837735566295,0.5663189839271666,9.524591341650744,-0.08590969334232512,0.33665608257465063,-0.04055721029560526,130.38697138080252,13.17212391349144,-3.4015135017421603,0.4163362272677307,-0.07485173592746619,-0.09211523115951069,-0.9014057779125735
60.0,0.04435145742010414,0.00082148477014724,-0.015273537896669291,2.261436326851748,0.5864986324978457,9.517166788430558,0.28827688874526997,0.20795750440223293,-0.2514848169795062,130.46961809458242,13.330965435446405,-3.527926958057023,0.4156038809436327,-0.07634413677250758,-0.09296885547072983,-0.9015407146703851
61.0,0.053981098497620915,0.005445262448016185,-0.01825006556517178,2.325530712599753,0.5667233524408977,9.502722752987903,-0.30596297675246337,-0.3107500538571054,0.11221244988947582,130.6008526399348,13.719452893765688,-3.410418657037953,0.4144211259722097,-0.07669666445195009,-0.09652456767114384,-0.9016789416694766
62.0,0.05699861376493949,0.006164999438012813,-0.016818777865198007,2.3624839833651796,0.5202802442770971,9.496478213630066,-0.1519285526956652,0.24810095163163612,-0.017285789217339198,130.65302208609643,13.943194803491814,-3.1358065452774344,0.4139465446229066,-0.07530072647971225,-0.0993246904207411,-0.9017146055632983
63.0,0.052031171555955186,0.003739462740249523,-0.008239444007343298,2.2739996628076877,0.5051110112022779,9.51882919336106,-0.12037812371211269,0.8804086583492563,-0.10049478288561689,130.76758106665167,13.412947716458731,-3.0332701097748305,0.41332005947431727,-0.07255281553096549,-0.09551550846686152,-0.9026297515464011
64.0,0.05672065490240155,-5.844666741598205e-06,-0.013857817241766887,2.15516188977558,0.5069702521449178,9.546130418493124,0.025659632460379903,0.833301487392754,0.11508959012401185,130.62623004945488,12.699667022591886,-3.037919617099397,0.4147031279330111,-0.0701494243177101,-0.08979456049072722,-0.9027606499106813
65.0,0.05442407553107789,0.002167584579071597,-0.012304484657749803,2.067560975609756,0.5152785208497247,9.565480723839496,0.029578088119590867,0.276750590086546,-0.07948957513768685,130.5921616837136,12.171233280881196,-3.082400668764752,0.4151623532706531,-0.06864571657513768,-0.08543729078914242,-0.9030937908017309
66.0,0.06381707317073171,0.0026927616050354047,-0.012607789142407554,2.083103855232101,0.5013017309205351,9.562618410700239,-0.40011555861526354,-0.23972265932336745,-0.34162322974036186,130.79667092840282,12.266183123524783,-3.0008285798583794,0.4135052222214791,-0.06818870153697876,-0.08662412403343825,-0.9037840045983481
67.0,0.07814771833202204,0.007412470495672699,-0.01587116443745083,2.1185936270653025,0.48200413060582226,9.55673800157357,-0.026154356805664802,-0.32853068450039336,-0.13235764162077102,131.03240804484656,12.47984116837136,-2.8835033929976395,0.41154416781412284,-0.06785521999744296,-0.08886188820869395,-0.904491336897915
68.0,0.09894885916601101,0.008460267505900865,-0.021221872541306065,2.1602322974036197,0.4756512588512982,9.548369000786785,-0.1297858477576711,-0.18160405192761606,-0.1889358772619984,131.14740361919746,12.714769374508261,-2.845909962627852,0.410505015201416,-0.06829345585759242,-0.09101494349547604,-0.9047147626707315
69.0,0.12177281667977972,0.0024801337529504327,-0.025651258851298202,2.1869185680566483,0.472176435877262,9.543668371361136,-0.08709554484657749,-0.13994517112509836,-0.13272398701809596,131.2110505999213,12.87316089693155,-2.8253491345397324,0.409899669415224,-0.06857806324331234,-0.09239829647757675,-0.9048346221418171
70.0,0.14212431156569633,-0.0011510621557828476,-0.02981353265145556,2.197628638867034,0.4701809598741149,9.5411487018096,-0.06050845790715971,0.005355035405192762,-0.17152832415420927,131.26023800157355,12.942225609756097,-2.8135818253343823,0.40957947463099903,-0.06866565652084974,-0.09298786212588514,-0.9049200976475211
71.0,0.16072462627852085,-0.003598347757671125,-0.03533949645948074,2.2299826907946505,0.4697797010228167,9.53332336742722,-0.11282208890637294,-0.2327080055074744,-0.16366542092840283,131.2915322580645,13.13861870574351,-2.8111231313926046,0.40924049241148674,-0.06936770967820613,-0.09450693681746655,-0.9048597782879617
72.0,0.16546774193548386,-0.016572580645161296,-0.0336209677419355,2.235096774193549,0.46548387096774213,9.530838709677418,-0.12232862903225807,0.25105846774193546,-0.13860887096774194,131.30302419354837,13.1703125,-2.7850806451612904,0.409078683983871,-0.06937236240322579,-0.09484321785483872,-0.9049010258387095
73.0,0.17521658986175112,-0.021215821812596007,-0.03556566820276499,2.13174846390169,0.4914592933947774,9.552500768049153,0.22595046082949308,0.6530025921658986,0.16043346774193548,131.0591541858679,12.554497887864823,-2.938575268817204,0.41130252461751154,-0.06854945400153609,-0.08926182723771123,-0.9044918461382487
74.0,0.1527924019332359,-0.011684425461766137,-0.033919832527818376,2.166496478213629,0.49759825409313985,9.543858566558008,-0.0516441637630662,-0.0106809177250759,-0.05171616837136114,130.95709479553034,12.766233995073247,-2.9793928665093103,0.4120206970278746,-0.06969454728204263,-0.09075258566734104,-0.9039430149188492
75.0,0.14479942677306956,-0.009124470795399199,-0.033197819489715646,2.1962563036229437,0.503541062530441,9.53625186392416,0.09323033747330561,-0.3373969104754412,0.010633851298190396,130.9537742122813,12.936015183020494,-3.019333530028849,0.41195187357845353,-0.07063494157650521,-0.09195460693850925,-0.9037895912981344
76.0,0.146602703158368,-0.014288533588100855,-0.03395532201865799,2.1876334625903864,0.5446776909819789,9.536329511820464,0.10154177672249073,0.48813364055299535,-0.2523861624704956,130.98128816829643,12.883603087182944,-3.2676083464463677,0.4117512366566539,-0.07234957954533362,-0.09066972561117043,-0.9038693712729853
77.0,0.12724086770821624,-0.0162370087295343,-0.025759919073845127,2.20662721516616,0.551609006781312,9.532277659136035,-0.13443576486456105,0.23761520737327188,-0.14058320220298975,131.21221666479337,12.99522896294631,-3.303814253868345,0.4098943895259076,-0.07287008524847326,-0.091597247083811,-0.9045829711163313
78.0,0.11357435090479936,-0.024364280094413854,-0.024926042486231315,2.1734779701022813,0.5630955940204563,9.539088906372934,0.29569974429583007,0.03538306451612902,-0.04347708497246261,131.3040297993706,12.803739673485445,-3.3666920731707317,0.40923896052793085,-0.07260273726632571,-0.0898826861309992,-0.90507301024941
79.0,0.10190440597954367,-0.016017702596380804,-0.023298583792289537,2.2485218332022026,0.5475045239968528,9.522070810385525,-0.3429546125098348,-0.5878651160503541,0.09048116640440598,131.43560557631787,13.256246311959087,-3.281511850904799,0.4080265624370575,-0.07339222653717545,-0.0938640220041306,-0.9051437145739576
80.0,0.06975727773406766,-0.011554681353265145,-0.014775767112509835,2.2110133752950425,0.5524468922108575,9.531086939417783,0.29452694728560186,1.1475314712824547,0.1346872541306058,131.37893636900077,13.02656372934697,-3.3106559795436663,0.40859531971243124,-0.07286147875649096,-0.09190799875688432,-0.9051267516904011
81.0,0.06920026805481859,-0.010271695972773682,-0.018588275117559876,2.2006443745082604,0.5822720619179185,9.531765452033742,0.13513810998481326,-0.3699993595959965,0.22176847565549923,131.1989255793369,12.967753142553931,-3.495448843155911,0.41001905645859793,-0.07422963809771192,-0.09069690097451191,-0.90449208976182
82.0,0.06631834483010995,-0.008678421129672664,-0.02412759592337109,2.332175900682488,0.6150195643423053,9.497302549722797,0.5670392350374178,0.06691212627852089,0.3702029737617331,130.73004055129636,13.758556569401495,-3.708399355936545,0.4133404370000229,-0.07904402433852215,-0.09587345619055677,-0.9020070922172753
83.0,0.060793268439060986,-0.0030988692295024984,-0.023551607414048634,2.347164094377253,0.6536807311583994,9.491535652205734,-0.06943365986313649,0.47440751193896036,0.06701376182460249,130.56634834203976,13.844970684363163,-3.940093807750718,0.41454419095865735,-0.08128021502006752,-0.09563501109921688,-0.9013007822364509
84.0,0.05398995219188073,0.003487047720118181,-0.019654451940511262,2.3189624235327124,0.6607643287128402,9.498497472800256,-0.035346870254148885,-0.2181965896526396,-0.1634185223135052,130.5961914041228,13.676398792642411,-3.977724995273208,0.414363314984321,-0.08096350187082485,-0.09420472773202013,-0.9015765958177262
85.0,0.04987853235085775,0.005256505764071678,-0.017895676009594734,2.342463115778944,0.6677267748992999,9.492313252529161,0.19188104953067533,0.2521576060391405,-0.31427712110954564,130.8560225313297,13.818111866816878,-4.022472843820711,0.41226062279507164,-0.08159740459001509,-0.0953570177369778,-0.9023657615241267
86.0,0.05850115664804703,-0.00018945154407068714,-0.019160891268113194,2.3245541385346336,0.6766510843738807,9.496147624014014,-0.18437642947322197,0.2218730640848366,-0.36412937075732343,131.18819037294165,13.708136953663502,-4.0697135411901755,0.4097055014215419,-0.08130779020198428,-0.09456710824883399,-0.9036391909541112
87.0,0.04755890540579395,0.0033801429451439514,-0.016720730705324413,2.2667886971742934,0.6915370950751626,9.508446655217806,-0.025355881653340184,0.6320918208646238,-0.0070881287395019865,131.2199344587889,13.362062662878262,-4.154169411255253,0.4096034650356022,-0.0807452201144955,-0.09152963290536223,-0.9040484409354201
88.0,0.04539766213330336,0.004814694091641376,-0.01868925855157169,2.365337791765014,0.6847485669326739,9.484154621407964,-0.35370279307631786,-0.6693443014499268,0.051253933910306824,131.31423209134164,13.959760312464876,-4.121900406504065,0.4086015063283878,-0.08249945113907309,-0.09646021416159004,-0.9038142203530777
89.0,0.0625763178599528,0.007289142407553106,-0.022431156569630212,2.401033044846577,0.6504126671911881,9.477763965381587,0.3987903225806451,0.5361796813532651,0.13553058615263575,131.20123672305272,14.173409225019668,-3.9226445712037767,0.40943511806884336,-0.08175008003068449,-0.09874110552989773,-0.9032604255228166
90.0,0.06815620433854108,0.002801028436551646,-0.026812408677082164,2.342298396463227,0.6778864504889289,9.49067622044884,-0.13710520400134876,-0.06794571437937885,-0.03795854642014161,131.05026430959873,13.819116755179646,-4.081961030871829,0.41074117724336856,-0.08187819098720543,-0.09530424428493686,-0.9030310579120208
91.0,0.07453551759019894,0.004262729009778577,-0.026167612678430936,2.3349481754149335,0.6533361245363607,9.494944325802704,-0.02516403001011576,0.8435577535498857,-0.16135547797010225,131.1696277537372,13.772406897456069,-3.9346751948222245,0.40984424635762057,-0.08045634322471995,-0.09550694390515528,-0.9035469969218838
92.0,0.07556142519950546,-0.0025053388782735747,-0.023546139148027428,2.2301936982503463,0.6383264021580309,9.52108388595407,-0.07180088793975498,0.46189492712899477,-0.21228363493312352,131.34952793076317,13.144440073432992,-3.833839121801356,0.4087111435382713,-0.07735799332321758,-0.09101058674309692,-0.9047853553130267
93.0,0.06481847813869844,0.0036812408677082175,-0.016858042036641565,2.198895432917463,0.6339004158705182,9.528207560600954,-0.4031358885017421,-0.23465540819002662,-0.12386900078678205,131.48156963021242,12.955500917912406,-3.800928215503353,0.4077501400334944,-0.07635555176389046,-0.08972585490734704,-0.9054385238862538
94.0,0.06081600539507699,0.006844554344160954,-0.01768944588063392,2.2182832790079043,0.6049250309092951,9.525516054100633,-0.1429280937394627,0.8494700929152148,-0.27485739575137685,131.70974134539733,13.071947941253605,-3.6289849574763027,0.4059332030592334,-0.07525207601963207,-0.09138215127350041,-0.9061805848243226
95.0,0.048367427222659326,0.011124311565696302,-0.013510621557828482,2.1067954366640436,0.575855232100708,9.553117230527143,-0.2720249803304484,0.6425501573564123,-0.09613493312352477,131.8732985837923,12.4051140833989,-3.4456333595594018,0.40490878745633346,-0.0713651425570417,-0.08679322168214004,-0.9073978597584575
96.0,0.04906963021243116,0.017686467348544455,-0.01666876475216365,2.0549240755310776,0.5706931549960661,9.56483949645948,-0.02143735247836348,-0.08701563729346967,0.08246459480723839,131.80009343036977,12.099267309205349,-3.4160946105428796,0.405612024416601,-0.07009945996459482,-0.08441778255625493,-0.9074181460987409
97.0,0.06780464388745269,0.010951060282492226,-0.013775729646697387,2.08560785470758,0.5558051590423738,9.559076299127044,-0.17791923073320595,0.12906907993331088,-0.03624700273500431,131.90548745363606,12.282195660522273,-3.327311523547263,0.4047309387724982,-0.06997126774202914,-0.08625696796184107,-0.9076516392239238
98.0,0.0681813157993331,0.011708441047544116,-0.020236175115207373,2.095006884343037,0.5495070342062867,9.558007427597317,0.15634688424937246,0.1721994305196508,-0.036052648832939946,131.95602233664906,12.333678955453149,-3.2878181081638003,0.40431266503121843,-0.0698303504167135,-0.08683872440949195,-0.9077999872527068
99.0,0.05509872241579559,0.006725188265707543,-0.01833179723502304,2.0780236034618413,0.5789914203289499,9.560273875088983,0.031424450189202355,-0.35704544603049715,-0.18566745344872804,132.04315733767936,12.233371735791092,-3.468657037952868,0.40362329255996404,-0.07081098400674385,-0.08548370896684274,-0.9081590172069984
100.0,0.06258888764002847,0.0028768498744895284,-0.017729646697388635,2.1405692555543068,0.5755280806264286,9.546447117005734,0.006940541755647976,0.2696714248248473,-0.10246244052302274,132.24198418942717,12.606204806863737,-3.4523420816005395,0.4019015211192537,-0.07182721367434715,-0.0886528117531003,-0.9085358725789966
101.0,0.05705683563748079,0.0013149001536098314,-0.015251920122887862,2.0927818740399386,0.5854485407066053,9.556221198156681,0.052275345622119815,0.6975422427035329,-0.2188748079877112,132.4215821812596,12.320785330261135,-3.5036002304147464,0.4005845595069124,-0.07112476464362519,-0.08629738231950845,-0.9093963113563749
102.0,0.0579801056535911,0.0017289723127646025,-0.01008905623618448,2.0141709003034736,0.6064746918436926,9.571565789966652,0.012535241279832153,0.49753205668577416,-0.14701912629725375,132.58851848469521,11.854665781536847,-3.6198437675620996,0.3994041494181372,-0.07032895468983928,-0.08224474864795252,-0.9103471058467837
103.0,0.07069268667341051,-0.0009717133116031614,-0.011671668352628228,2.0684334700835487,0.5834639204226145,9.560934818852797,-0.18985654106253042,-0.5904634872241579,-0.43249292832790076,132.9159130769735,12.175817866977631,-3.4889698306545274,0.396705332291868,-0.07014414880505601,-0.0854840806190757,-0.911234095703074
104.0,0.07318170919036379,0.006153797160091417,-0.01677348169795062,2.140268367614552,0.5839319995504104,9.544711606908692,-0.27056814562961296,-0.5419917996703009,-0.21080291577685362,133.09876655520588,12.606848867595819,-3.4961002772470122,0.3950848368779364,-0.07151703625235098,-0.08903230700397138,-0.911488503460998
105.0,0.07566151511745532,0.008122981529354464,-0.020402869881233368,2.1832102206736352,0.5910750627552359,9.535201425574162,-0.027277160372410167,-0.2560189413098048,-0.09668890028474017,133.21837809327113,12.865036376962271,-3.5437010602824923,0.39403765020932147,-0.07264653546872543,-0.09100166768401334,-0.9116609770799613
106.0,0.06280656401034057,0.008962946311490765,-0.02245438537334682,2.2155217114383117,0.6095994904649509,9.526728859915323,0.11218200891686336,-0.09250777415608255,-0.33119075718406954,133.40324453935784,13.059104660747067,-3.6571573751451796,0.3924795377415608,-0.07404157391817467,-0.09227199836049604,-0.9121017009175378
107.0,0.05415683189089955,0.006658049529804054,-0.022450264133977743,2.2454831216514926,0.6045213742460005,9.519967404743168,0.014438387471432307,-0.03417584579071596,-0.4976747780150613,133.71977445580904,13.23933160990596,-3.6318492188378104,0.3899019652373459,-0.07419275627664756,-0.09403026439399048,-0.9130181836341837
108.0,0.0521767637031209,0.01231800981604286,-0.02548162301899517,2.2737211044921506,0.5959821662732757,9.514330673260645,-0.027792607995204374,0.4575137686860739,-0.11801028436551647,134.00411421452924,13.403989172380204,-3.5855695740137126,0.38756849925517967,-0.07409854557341428,-0.09567986434491026,-0.9138457826353454
109.0,0.06403488067138736,0.00997883181596793,-0.02397212543554007,2.23585740511783,0.5638644112247575,9.52494267730695,-0.17673560376156755,0.6491443745082612,0.06215929526806788,134.07717020718593,13.17428510546626,-3.386879004158705,0.3870768992578023,-0.07172727818796598,-0.0945573503313851,-0.9143650839533928
110.0,0.06320407628039415,0.008764377505526206,-0.016886216327601063,2.2128518976434006,0.5293784421715186,9.532329249559773,-0.06638239481473156,0.5533068262710277,0.2658386722116069,134.00440691618897,13.037627383762317,-3.1793746019257423,0.3877477928009442,-0.06971124266157132,-0.09411371174403355,-0.9142827262470499
111.0,0.06422108575924469,0.008529841519613352,-0.01346071709565022,2.214113558877524,0.5095674571953094,9.53280450339065,-0.42734325240717846,-0.038357967105016655,0.03746347083286501,133.856516475591,13.046836948784234,-3.056631917125623,0.3889507817981718,-0.0688997060745195,-0.094493603012064,-0.9137963027537372
112.0,0.06921883781049792,0.008619759469484099,-0.013504552096212204,2.207360158855045,0.5075909482597132,9.534585815443403,0.04724907272114193,-0.03199580382900603,-0.14673485444531867,133.83155604885542,13.006137368401333,-3.0445890000374654,0.38918825096437004,-0.06871394454647634,-0.09417789088007195,-0.9137378344490651
113.0,0.06032707654265483,0.008577423101419956,-0.014902026900453337,2.264307444456933,0.5407399497958115,9.518974935371471,0.20693070697988086,-0.19667912404930502,-0.21535348994042935,133.94239397175076,13.353117623918173,-3.24948016185231,0.38811086170431985,-0.07138034021617773,-0.09634672564122738,-0.9137611589033754
114.0,0.06691244239631336,0.007112135176651307,-0.019377880184331803,2.3562980030721965,0.5543625192012289,9.495890937019968,0.06264400921658986,-1.230270737327189,-0.32037250384024574,134.19887672811058,13.90937019969278,-3.3389016897081416,0.3858209892396313,-0.07371026430107526,-0.10068761589093701,-0.9140674693625191
115.0,0.07166820276497696,0.00885253456221198,-0.026814132104454692,2.501907834101382,0.5736635944700461,9.456924731182795,-0.06140552995391704,0.17849462365591395,-0.19253072196620583,134.57020929339478,14.781979646697389,-3.467981950844854,0.3824771155238095,-0.07720664124116744,-0.10750509275729647,-0.9143868962380952
116.0,0.07766796644215998,0.0021744062389223687,-0.029118988538343386,2.4797250384024574,0.5819236677301194,9.46271322226161,-0.0640021269053527,0.24378766394895426,-0.3080549155145929,134.71006292095,14.642693932411674,-3.515036039229588,0.381407152718185,-0.07701633694753635,-0.10634361534266809,-0.915011080449486
117.0,0.06861892945763913,0.0009489542715349166,-0.029317090462645155,2.4532427784646504,0.5575663072830657,9.471339189528017,-0.16285158422746934,0.18207329321609417,0.05917935821063283,134.85923582711544,14.485751049042749,-3.36763823804048,0.3803083157976672,-0.07520320695968102,-0.10563552336922846,-0.9157107645218843
118.0,0.08496698973724937,-0.00029703760702974016,-0.036671396004991606,2.4485491926117415,0.5975771291388914,9.470002234979813,0.43294878639587525,0.062413351302513395,0.5036188462403057,134.682788457936,14.461013778052529,-3.609180781191009,0.38172282541719194,-0.07719481413998813,-0.10452326293644068,-0.9150720394953094
119.0,0.07465641832596986,0.0015217071153341803,-0.029029564848998372,2.4831654209284024,0.5941610684096915,9.461364123746694,-0.11882823690209607,-0.1265846912889104,0.18910101953842115,134.14775042113013,14.6714414503016,-3.593628010954427,0.38590711670076555,-0.07824313830439891,-0.10589179309704655,-0.9130660811081318
120.0,0.08845263312611856,0.007596107013888289,-0.037446042025113625,2.573488816454984,0.5380098736825725,9.439916508877953,-0.4374935155324613,-0.7027568713741018,0.1191412835787344,133.98009880887537,15.215948259713011,-3.2590715899626206,0.3870028110579481,-0.07758266324263723,-0.11126550448823139,-0.9120068508681981
121.0,0.07540249522310889,0.014444869056985499,-0.031129968903375667,2.575873440485556,0.520437525757746,9.440498370237158,0.19154583942152784,0.8779691656363569,-0.1861282829418156,133.9825638792102,15.222355850286613,-3.152225000936645,0.3870075728639616,-0.07676862703405643,-0.11165948155925216,-0.9120418067508899
122.0,0.06705608632123186,0.013286950657525007,-0.02761297815743135,2.5205212993143755,0.507243939904837,9.456866809036754,-0.41571409838522344,-0.05078725038402454,0.0302836162002173,133.98932973661533,14.888007193435989,-3.0613554194297703,0.3871280043926417,-0.07495734235809824,-0.10930294845940577,-0.9124281447334308
123.0,0.07759649319995503,0.014276048106103185,-0.03349728372859766,2.4672283915926716,0.48840245775729646,9.471695402944814,0.03798775804578325,0.503082968041662,-0.1567946592484358,134.051239415908,14.567179245813195,-2.9453806994867184,0.38677286383754816,-0.07291966328841183,-0.10712856045865647,-0.9129994530016486
124.0,0.07001382488479262,0.012115207373271892,-0.02182181259600614,2.409043778801843,0.4948141321044547,9.486082949308756,-0.14628936251920122,-0.12066052227342544,-0.10445948540706605,134.1838661674347,14.216373847926267,-2.9860263056835636,0.3858425348786483,-0.07193608184562214,-0.10429589017818741,-0.9137974516274963
125.0,0.061370967741935484,0.01332258064516129,-0.01817741935483871,2.4364112903225803,0.5019032258064516,9.47861290322581,0.3153729838709678,0.5443548387096775,-0.4578125,134.5016633064516,14.382308467741936,-3.0374495967741937,0.3832094257096774,-0.07257611710483872,-0.10565894383870966,-0.9147044518951614
126.0,0.0595311059907834,0.01640745007680492,-0.023063364055299546,2.4038437019969274,0.5334281874039939,9.485080645161295,-0.15078965053763435,0.04391081029185867,-0.6073468701996927,134.84051699308753,14.187852822580645,-3.2182027649769585,0.38058753180683563,-0.07309236304953917,-0.10372265736251918,-0.9159783472269584
127.0,0.06866793484085304,0.011855169149430217,-0.023983763798092382,2.4499858982602793,0.5185911567177508,9.474363090772698,0.03898357401850465,0.3372773997070696,-0.13818850918086664,134.99222316739898,14.460975009377343,-3.1334602065694996,0.3792894897536616,-0.07316584611038472,-0.10629102001828136,-0.916212416983978
128.0,0.07948404609863266,0.011102741931127383,-0.02507626427512802,2.461009963292217,0.5173818293423529,9.471797595740405,0.0773909559707,0.19542985839012017,-0.03821613204912726,135.09283660336902,14.5348486130679,-3.124047791128967,0.378476582736882,-0.07324105357702554,-0.10694627848543889,-0.9164734280879765
129.0,0.08266786884003231,0.009422437055256846,-0.026090256449129705,2.4566434552889094,0.49679319633915453,9.473829954439832,-0.44440223051189626,-0.23350249311021132,-0.019012791634319723,135.2190745516845,14.509842923764477,-2.999162467555042,0.37748639378799254,-0.0720458237801532,-0.10723734904405698,-0.9169437669905854
130.0,0.09059718326794242,0.011727731584464059,-0.028893438516423536,2.436040621653671,0.47921591460582924,9.47991075294956,0.08937842583468167,0.4379170522160157,0.23048736378345458,134.91171061493594,14.381415557504358,-2.8914615141154627,0.37999884789802857,-0.07106815345152054,-0.10637119949341865,-0.9160699796510146
131.0,0.08759121836208181,0.014839288219267364,-0.02431999114761269,2.489220003607173,0.48239674378524955,9.46547150550704,-0.3057476150396484,-1.0557582557660323,-0.06784483577340328,135.02209954709932,14.704719875526372,-2.9160792593618785,0.37895056560953655,-0.07219217117506901,-0.10898196144102576,-0.9161081038877193
132.0,0.08635832303023491,0.007551384361769886,-0.029886103930163728,2.5896061593795663,0.4780500543254282,9.438879697276239,0.1682093214941366,-0.05023837623168864,-0.23827647896294632,135.15641976696264,15.311503877711589,-2.8998543516541155,0.377630132563336,-0.07386978329781574,-0.11397840966183356,-0.9159122425733769
133.0,0.07713246691463807,0.008407734337765626,-0.026877346514328933,2.6428674128462424,0.4831436482814083,9.423596070620444,0.19081655213454932,0.3621256795034995,-0.008171663996138417,135.24216989025132,15.635611232947609,-2.9317019640363053,0.3767937514852249,-0.07510754675192141,-0.11652867623074845,-0.9158389026313539
134.0,0.060985588296028716,0.009239272361644419,-0.01854882274575613,2.619207113189447,0.48917213885352884,9.4305785231151,-0.42197469010109667,-0.2787129273607601,-0.25347115851262464,135.3017251890281,15.492422060218887,-2.9677933502321574,0.3763809072256967,-0.07486097284094892,-0.11531189657721527,-0.9161912373935683
135.0,0.06505500612958116,0.007588146165461226,-0.022289004306825837,2.660724908361237,0.4849816147416645,9.419317679376292,-0.21801979512735323,-0.1826072317295352,-0.11233465759732615,135.46053041325445,15.741194709064896,-2.9449901851007176,0.37500387845539834,-0.07532335663936847,-0.11750452838461378,-0.916442781381116
136.0,0.07221524893418475,0.004007291021361612,-0.02731287351454589,2.7077868247549692,0.467381444664302,9.407305476194832,-0.055283746894911855,0.2736575367709523,-0.3561267603486238,135.75133314034082,16.02603721487863,-2.844193681260036,0.3725723286834427,-0.07511273966645843,-0.12027007159130376,-0.9170910036672496
137.0,0.058782683475746986,0.00501702080572408,-0.02026540607277255,2.645238809702425,0.4927859229615767,9.423696011110788,0.13610714307496735,0.6873057550101811,-0.19938025664952824,136.03196574404927,15.645148819870471,-2.990768162423881,0.3704594126344043,-0.07481067322032597,-0.11693713245576204,-0.9183972395008162
138.0,0.0748654602675059,0.004810085796710502,-0.02200442096586865,2.62905376344086,0.45837570716721,9.429489415907984,-0.0022811996553145225,0.20731566820276492,0.17665552058746395,135.8373913491439,15.546491326664418,-2.776544996440748,0.3720989792061743,-0.07302027964692218,-0.11672891711910383,-0.9178920455523587
139.0,0.07539889850511408,0.007017946124161703,-0.02037750552620734,2.6044788880146865,0.4693389157393879,9.435796635570043,0.016311209771083888,-0.10502627290097788,-0.14500721216889587,135.96128025364354,15.39870298040538,-2.841498304671987,0.3711621605377843,-0.07294560674714323,-0.11540252296238432,-0.918457024340302
140.0,0.08198977183320219,0.005344610542879625,-0.030024390243902445,2.712605035405193,0.5178914240755312,9.401600314712825,0.205640243902439,-0.274301730920535,0.32924370574350903,135.92035306845003,16.060060975609755,-3.14948859166011,0.3711488017450826,-0.07748251220613689,-0.1197316045003934,-0.9174978338560187
141.0,0.07156136900078677,0.0113426435877262,-0.031365460267505904,2.731837529504327,0.5369276160503541,9.395560188827698,0.3705718922108576,0.3381392604248623,0.08370623524783637,135.54610788749017,16.178314319433518,-3.269964594807238,0.37407470977498025,-0.07918192098111723,-0.12003076311172303,-0.9161396309248621
142.0,0.06747170394515004,0.01036953467460942,-0.03167969540294482,2.740739865497733,0.5471939043123148,9.392845659585632,-0.0835886277209546,0.275047534749541,-0.33439847467311073,135.62644085319022,16.2259050335319,-3.3310490895807576,0.3734232968943464,-0.07973586800507662,-0.12028898364589184,-0.9163426671620675
143.0,0.059561312802068105,0.019854698212880748,-0.03044910269379192,2.713749157019219,0.5523173822636844,9.400536117043202,-0.042774776610093275,0.2811897619984264,-0.23201178533962757,135.77920424955977,16.063250135813572,-3.3628555739762467,0.37227321979548345,-0.07927838084700836,-0.11896015351572625,-0.9170293887486602
144.0,0.08282746993368549,0.017457148477014725,-0.030032379828406577,2.6924409632460375,0.545477829605485,9.406766091566446,0.03759606468472519,0.7777881589299763,-0.12105912339365328,135.90275613736839,15.93116160409876,-3.3150688668465023,0.3713365367784459,-0.07838530774352778,-0.11812794868557752,-0.917591654723268
145.0,0.05963246037990333,0.01886478588288187,-0.029866996365816204,2.6144003596717993,0.5512936945037654,9.428308793226181,-0.3815541755647971,-0.16433910306845007,-0.3429714135851035,136.17534234386125,15.457881401970702,-3.3384684912517324,0.3693283331006706,-0.07681793388258215,-0.11443135730433479,-0.9189995217582706
146.0,0.07367502154284215,0.02230995466636694,-0.029767337304709453,2.5852259188490496,0.5224622531939606,9.437914090892065,-0.009477679742235207,0.5808477108388597,-0.42518662657824735,136.45160236596604,15.277934275598515,-3.1586513244164696,0.3672134191203027,-0.07458211623393654,-0.11373393596774192,-0.9201106791424076
147.0,0.06470233412011539,0.02120490052826796,-0.025928215503353193,2.5379316998239103,0.550140496796673,9.449936308118847,0.011174178562062126,0.22588372485107341,-0.5264614008467274,136.8777069049492,14.995269941178673,-3.322749241317298,0.3639097879856505,-0.07458742959162265,-0.11122018101382489,-0.9217313087493912
148.0,0.07131430070061068,0.018620883443857483,-0.030314338166423142,2.515620995841295,0.572504964220149,9.454069536547903,0.1239626653178974,0.12470261511370875,-0.29373665280431605,137.13979431268967,14.862746337716832,-3.461873852609494,0.3618385790273875,-0.07501290194634896,-0.10987093013824885,-0.9226752256573378
149.0,0.07684949983140382,0.010545127571091379,-0.03127496159754224,2.541225132066989,0.5701899516691018,9.447332808811964,0.03402364092765352,0.47276469596493204,0.4848614701584804,137.13550681877786,15.012462065864899,-3.451844722940317,0.36184730717395375,-0.07537913353190213,-0.11114169212618485,-0.9224892413341577
150.0,0.06632104454685099,-0.0020506912442396314,-0.018102918586789557,2.508824884792627,0.583079877112135,9.455591397849465,0.10075844854070659,-0.43735599078341003,-0.17617127496159746,137.13839285714286,14.817444316436251,-3.529569892473118,0.36188062938556065,-0.07538052768817205,-0.1093477168202765,-0.9226945216359446
151.0,0.06297834476040613,0.004228578921733918,-0.02455884005844667,2.5518759132291784,0.5918410700236034,9.444178749391181,-0.17270100408377353,0.04809088269454129,-0.2814853321344273,137.3371419673298,15.080416853995729,-3.583575690307594,0.3601707897220037,-0.07641917378161178,-0.11139232044696715,-0.923038409332734
152.0,0.05713049342474992,0.0027786519800681872,-0.017939942302648837,2.6282037016222692,0.6053829006031994,9.42186280019482,-0.24327254505263946,-0.023981632385448245,-0.3870944325802705,137.9655419898093,15.543304625154546,-3.668779972649957,0.3549076617120003,-0.07786781198681204,-0.11532539838784606,-0.9244508945511595
153.0,0.05073564122738002,0.007796260911917873,-0.01646978382226219,2.5724217901165183,0.5790028474017457,9.438719231201528,-0.24492338241354764,0.18892135925967557,-0.10677990708478513,138.201660906298,15.207757296466973,-3.505773247536623,0.35316075077404363,-0.075352027558353,-0.1132468223166985,-0.9255949547471057
154.0,0.07438162676557641,0.014804053800906672,-0.025214491776254164,2.577505151549211,0.5419470982728261,9.439489340976358,0.09707977408115095,0.2572590011614402,-0.19428365366602973,138.09730339814917,15.23627697538496,-3.2828329305758497,0.35402378965737513,-0.07379184693866847,-0.11406395708160053,-0.9253021763794913
155.0,0.06764527368775992,0.018069386684650256,-0.030138998164175194,2.6258330523397397,0.5772264059046119,9.422625604136226,0.20209059233449475,-0.18651183919673298,0.13650200442096586,138.29496131654867,15.53078518976434,-3.505465325390581,0.3522376919549661,-0.07622160697501029,-0.116005193302986,-0.9255142078629499
156.0,0.07598066764077781,0.014018957701097748,-0.03005376344086022,2.7003881458169414,0.535691806226818,9.40340451837698,0.1754196170993968,-0.6260642632347981,0.8149446442621108,137.58243298302799,15.981925087108014,-3.2565998370237157,0.3578164365055637,-0.07638620779401296,-0.11990613358885013,-0.9228254275712785
157.0,0.08397254365856271,0.015981007446983695,-0.036324081020255056,2.665176032684129,0.5698422950685407,9.41128161831399,0.23364138072845736,1.1648970605020594,0.501760403079864,136.85508011366954,15.76493393818838,-3.4606112329476097,0.3637301265132398,-0.07805407036273007,-0.11698007878206484,-0.9207385300973063
158.0,0.09551105546421448,0.01546099939619051,-0.03691892485316451,2.606875978576525,0.5559557659449705,9.428662052272653,-0.05961518689776972,-0.27593069870255005,-0.009077508924269395,136.72550917563888,15.41447916421614,-3.3709920838223493,0.36493818950760337,-0.07637325208144369,-0.11436071310464374,-0.9207559118425162
159.0,0.08205293135130473,0.01848502369494813,-0.03494490695844693,2.5994671002245333,0.5637387012258293,9.430972253516344,-0.43744921421993127,-0.38137604958730964,-0.1644620432111512,136.82138460355506,15.372365467237888,-3.4149856170488615,0.36419106314089844,-0.07650364262372734,-0.11393495549882068,-0.9211190581926978
160.0,0.08469208329957054,0.01575470696942528,-0.0339539641007813,2.6352811504269797,0.5665798148143308,9.421428691667693,0.04898782404660393,0.06338357237392972,-0.001212138836102744,136.9615036707783,15.591213221423821,-3.440975302623565,0.3629645972565232,-0.07720509684372835,-0.11567466396577541,-0.9213410848186148
161.0,0.0709335992534719,0.01610315993632554,-0.030686659469745487,2.638910160466946,0.5388805372074726,9.421912502515873,-0.32197306186302677,0.3480608338060125,-0.1705177437652096,137.06317311035076,15.608529037747243,-3.2748943333394323,0.36216895176958264,-0.07584955242647247,-0.11644058836230398,-0.9216793719215961
162.0,0.06419748229740363,0.015641227380015735,-0.02267191188040913,2.627582612116443,0.5445948072383949,9.425107789142409,0.04347708497246261,-0.22936418174665618,-0.3863419551534225,137.34765932336742,15.543602478363493,-3.3065253737214793,0.359902731127852,-0.07564816122974036,-0.11600447867702596,-0.9226414854716758
163.0,0.06741345397324944,0.012741935483870967,-0.024085759244689225,2.6836221479150275,0.5370967741935484,9.409666404405982,-0.0064626770259638144,0.23137908143194333,0.023366197875688444,137.46739771833202,15.876689122738,-3.2667068253343823,0.3588339072673091,-0.07621829141345397,-0.11891311608516915,-0.9226372518231707
164.0,0.07110660896931553,0.014836152635719907,-0.027749803304484667,2.71974114870181,0.5666485051140833,9.397369197482295,0.15484854445318644,0.028710169158143187,-0.4167178894571204,137.78367918961447,16.097883064516125,-3.4455792682926827,0.35616788965893,-0.07798463791778126,-0.1203448550391424,-0.9233333337909126
165.0,0.06488010940017234,0.018878713798658724,-0.028580738825821444,2.7102154284215656,0.574333661159192,9.3994781855307,0.12574176454610167,0.39768121745157536,0.15986182140047206,137.81655637668126,16.04049539170507,-3.4893218922108575,0.35591846899267543,-0.07811427214168634,-0.1197457248507924,-0.9234989518768311
166.0,0.0706548462028399,0.018996300251020944,-0.032351935109212845,2.617851026563261,0.5897393128769995,9.424825147053312,-0.3087441108426061,0.0966253254842456,-0.21681992525570415,137.759023172605,15.47986610655277,-3.578116394571204,0.3565932011662826,-0.07716755073223183,-0.11492415944821288,-0.9239249086941197
167.0,0.08031935858529093,0.01596185980292983,-0.029216290135251587,2.5769134165074368,0.573966430632048,9.43712225094601,-0.037512176389045,0.07963826758083248,-0.42085955940204567,138.0740680379154,15.232977408115094,-3.4794059795436665,0.35416787732104454,-0.07535775236611592,-0.11343961209104193,-0.9251851304478662
168.0,0.07500310966243304,0.01852931699823911,-0.03161050541380991,2.6190751189539547,0.5455316024127982,9.42701509872241,-0.024150462702783714,0.43225619122550674,0.5628933910306845,138.17642229590498,15.489492244576825,-3.307789142407553,0.35326518276280383,-0.0746470827684238,-0.11607949202899852,-0.9252623206621706
169.0,0.07784616537409614,0.015182833164737175,-0.033362294406354215,2.6532999512944437,0.5844534487280355,9.415014237008727,0.20434392679180247,0.031175302536435495,0.0877360346184107,137.9549204319808,15.703002416544903,-3.54713808025177,0.35491044335150423,-0.07742701046052976,-0.11692668506564009,-0.9242904024373011
170.0,0.09096066089693156,0.010877261998426436,-0.03168882769472856,2.642161290322581,0.5780456333595592,9.419309598741151,-0.15845544846577492,-0.3019005704169945,-0.21634785601888273,137.89369836742722,15.630775472069237,-3.5104764948859164,0.35546085073564126,-0.07698131851966955,-0.11646163248898506,-0.9241850630582218
171.0,0.08592486231313928,0.0013552321007081047,-0.02999468922108576,2.6677918961447675,0.5729999999999998,9.412259047993707,-0.15067737018095986,-0.5508814417781275,-0.3497406077891424,138.32172624901654,15.792325186860738,-3.4815856117230526,0.3519208234756097,-0.07678947518036978,-0.11812455262922897,-0.9253408919697087
172.0,0.07802464313813647,-0.000515164287587576,-0.034858519725750256,2.7281597729571763,0.5866858678955452,9.393791774380876,-0.18134506949908208,-0.5456560146678655,-0.22702684191300437,138.74485289985387,16.1542019079465,-3.571842393035105,0.3483566409344254,-0.07812332525896368,-0.12112133697072049,-0.926188656899601
173.0,0.083970270877824,0.00358592784084523,-0.036178299801431196,2.806588719043872,0.5702188940092165,9.371073114532987,-0.14346631355138434,0.07634753990109028,-0.23619367249260048,138.9435622026151,16.63244129575512,-3.4795307875313775,0.34652285060718974,-0.07858334248547263,-0.1253889567130868,-0.9262604862295624
174.0,0.0846867483421378,0.009083286501067777,-0.03429882732007044,2.8413346821025813,0.5398433179723503,9.362528492750368,0.0447486980630175,0.2827554231763516,-0.3721038926979131,139.0355915851785,16.843186373684013,-3.2957129744108498,0.34574638274714325,-0.07766405519838149,-0.12769541859847888,-0.9263288248204264
175.0,0.0779775205125323,0.016685624367764416,-0.0327945749503578,2.826842006668914,0.5563095425424299,9.366571878161178,-0.10502041886778316,0.16382066988872654,0.016878816829642956,139.27291971076392,16.75027631036679,-3.395024071784497,0.3438393532193624,-0.07789646739777455,-0.12682607412693417,-0.9271427644393242
176.0,0.08427058962542833,0.009254874158099965,-0.026391941391941395,2.802518019614793,0.5705815904525581,9.37338650596715,0.1940993146638308,0.2235311059907834,-0.5188703769348931,139.4181215290086,16.603025670565994,-3.482088207491433,0.3427017225158927,-0.07800408263098194,-0.12546876532588916,-0.9277294377572964
177.0,0.08115209822959626,0.005413469824170061,-0.032326295524564605,2.8271247510684967,0.5613879815437643,9.366660845055808,-0.07048984568408252,-0.18744169382938067,0.11150972273857795,139.49471885149993,16.755006639374265,-3.4303500729862844,0.3420613852203306,-0.07794995812368474,-0.12688356594101585,-0.927784230330823
178.0,0.08118159030845892,0.006478605580100467,-0.03507242429744397,2.8766300762573382,0.5779334160463193,9.350391978857752,-0.055618714569589875,-0.4165912667191187,-0.32669615208093766,139.70577881337124,17.058932687264218,-3.5379295464403153,0.3401920145900461,-0.07941282250288992,-0.12922979971332385,-0.928023719680042
179.0,0.072887070115827,0.009272712928299082,-0.03409343181078036,2.913372449803016,0.5737800720784592,9.339293147647002,-0.08850084153978725,0.26197126372185386,-0.13370257872864086,139.83002314324477,17.28031599800999,-3.5179747098561025,0.33906910105539173,-0.07973224687260472,-0.13117684345247604,-0.9281346716798828
180.0,0.07682030531755159,0.011806399737162916,-0.03718784493764825,2.8454994625096903,0.5752445797056341,9.359393918434042,0.09688352887605445,0.6010780787531378,-0.1988352095059412,140.01581003247998,16.86928430211278,-3.5130220716865095,0.3377598685092065,-0.07834847044299,-0.12793120896522306,-0.9291760759214718
181.0,0.07812183882207485,0.011162564160203812,-0.035471507249634715,2.832240455584279,0.5813615076242928,9.36353602337867,-0.19727857704844332,0.11908742647334308,-0.12877702221722678,140.17128901127722,16.790847102019406,-3.5515342250196698,0.33653534071035174,-0.07824822030834361,-0.12731031742010412,-0.9297241268547454
182.0,0.06484133228429059,0.010473193211194784,-0.033093552133678025,2.8316657300213546,0.5666048480761305,9.364586564759657,-0.1870059195983665,0.32184537859203477,0.048504177438087756,140.19415720654905,16.782705312652205,-3.459998220373909,0.33636817807313324,-0.07747781598104228,-0.12754959847776404,-0.9298192980690121
183.0,0.07959886313041674,0.012916595873707103,-0.043543921694709393,2.87143704044478,0.556405821838735,9.353100008451587,0.5110864497483255,-0.40248416851599655,0.4346492764306059,140.03805908467535,17.025183370102106,-3.3997667807631355,0.337532290161482,-0.07790310047785029,-0.12957282264875886,-0.9290777238282958
184.0,0.06086701989086122,0.004664903159587807,-0.03303540170756975,2.839727736812251,0.603053141334114,9.359261217743462,0.08911657356847924,0.672461832792693,-0.08595877192294588,139.90576629348973,16.83423627030451,-3.684354396525961,0.3386519006145352,-0.07973219909837215,-0.12707538990732875,-0.9288578125170663
185.0,0.06501857607258957,-0.0003613403350837714,-0.035780373664844795,2.8349565962919296,0.5757291108491408,9.362883578037366,-0.23928973314757257,0.5980256224770478,0.01010967027471154,139.88165010002498,16.805957069624547,-3.5160173972064444,0.3388892921994784,-0.0783339625711785,-0.12731061217107847,-0.9288602828828634
186.0,0.0878741113849891,0.00014575072339513388,-0.04156146179401995,2.803430679098345,0.5803261529668129,9.372494016361234,0.05599837459364841,0.15709172828921517,0.1485840210052513,139.8299619547744,16.615896161540384,-3.5380586217983065,0.3394033675436716,-0.07804089114350013,-0.12568840134283574,-0.9289182041987281
187.0,0.06121966031577581,-0.009396234075940589,-0.031485275500059695,2.733226616758719,0.613598129497531,9.390958053102127,0.05531761860325709,0.4451576199799079,-0.46775516832169717,140.15886234189207,16.18209866055364,-3.73750651295228,0.3368551996301776,-0.07803219720675811,-0.12179923689917253,-0.9303551837503887
188.0,0.04545951818965194,-0.004564272601251359,-0.029230826870480692,2.740391143081938,0.6260222546925929,9.388493499681541,0.04419209658686449,0.26487978157431347,-0.5539577947622795,140.41020498482635,16.22319555280806,-3.817886881345772,0.33480680027855836,-0.07850203225057133,-0.12210695632198117,-0.9310220728442171
189.0,0.045141433441984194,-0.001986437375894497,-0.03403169607732944,2.797645648345884,0.6053690382525945,9.371596980255514,-0.09092718519351091,-2.0950226668165297,-0.07704610168221496,140.7063745738264,16.580827807126,-3.695401774006219,0.33224491897568464,-0.07822890178580795,-0.1256134147662133,-0.9314655131771008
190.0,0.0498994042935821,-0.004818852796822901,-0.031751714060919416,2.7869064478663215,0.620119328612641,9.373114345659584,-0.09258855981416957,0.7290566108426062,0.040192621108238735,140.69206614589189,16.513276947285604,-3.7810369131917123,0.33237449289460863,-0.07871012138511108,-0.12473614734442319,-0.9314873553147127
191.0,0.05011876662545427,-0.0010400509535049276,-0.030225544190925782,2.746550522648083,0.583739837398374,9.387859952793075,0.0003769997377393239,0.9175236971263722,-0.2974832340489303,140.70575755872767,16.25828462777715,-3.552988366865235,0.33237985295755124,-0.07617911708216253,-0.12331674284927502,-0.9319029244588062
192.0,0.06200666891461539,0.005813570117267994,-0.02772882244951482,2.686776441497133,0.5802098085496984,9.405759244689223,-0.2633589037503278,0.05524099883855982,-0.020987879809673676,140.85971394852197,15.902155689183619,-3.5220931212768347,0.3313257040436851,-0.07479245629875239,-0.12057739445768233,-0.9327599340586713
193.0,0.06838335019294893,0.0055385710539133035,-0.026633884080776292,2.6649696526919184,0.5678783110411749,9.412317073170732,-0.0013932599003409485,0.5972752987898543,-0.13778052527069048,140.88142070360794,15.76534810422989,-3.448251517365404,0.331186618579671,-0.07380533191019444,-0.11968402004945485,-0.9330056458216253
194.0,0.0705019669551534,0.007793863099921321,-0.030634146341463418,2.692394964594807,0.5486703383162863,9.405852084972459,-0.04861329661683713,-0.07778324154209287,0.0662863886703383,140.84773800157353,15.92976986624705,-3.336467348544453,0.3313826448827695,-0.0733963262108576,-0.12131375490952007,-0.9327591293186468
195.0,0.08261998426435876,0.01576081825334382,-0.03509520062942566,2.6910715971675847,0.5592352478363493,9.406177812745867,-0.16127065302911092,-0.10113099921321796,0.004828874901652232,140.94076514555468,15.923662470495671,-3.3988690007867817,0.3306021152321007,-0.07376391079307631,-0.12117309091581432,-0.9330349641054287
196.0,0.08124232887490164,0.009127458693941777,-0.033591660110149496,2.662885916601102,0.5849638080251771,9.41286388670338,0.3024193548387097,0.2718135326514556,-0.38457415420928404,140.98101888276946,15.755109166011014,-3.556977773406766,0.3303684862911094,-0.0745024940928403,-0.11937017678599529,-0.9332877632014163
197.0,0.07790047206923681,0.007084579071597166,-0.038971282454760045,2.713438237608182,0.6204370574350906,9.39599370574351,0.06667977970102282,-0.38571990558615266,-0.3441409323367427,141.21636506687648,16.063790814319432,-3.772769964594807,0.32829807159559404,-0.0768687491880409,-0.12147899633870968,-0.933550014286782
198.0,0.06750499231950845,0.018206221198156684,-0.03492511520737328,2.7621428571428575,0.6191286482334868,9.382102918586789,-0.21346966205837173,0.16181835637480796,-0.10404425883256528,141.55995583717356,16.357058851766514,-3.773331893241167,0.32539651507526884,-0.07727035556682027,-0.12409822617242705,-0.9341880338544546
199.0,0.059507680491551466,0.020374423963133645,-0.033737711213517665,2.7540330261136714,0.5736839477726574,9.38776574500768,0.024678379416282634,0.6378312211981566,-0.048751920122887864,141.36892281105992,16.306389208909373,-3.4919234831029184,0.3270043692150538,-0.07512956366167434,-0.12432797078302613,-0.9337759269231949
200.0,0.061101794612416174,0.023038215128695066,-0.03134200666891462,2.7656583305233973,0.5787374302199244,9.383597467311077,0.006445700329699145,0.18929818337641896,-0.10067415046270278,141.4783650739013,16.38399343411637,-3.524714323180098,0.32608984598262525,-0.07548518680143118,-0.12494701106509686,-0.9339861627324471
201.0,0.05885970926529543,0.019787203551759017,-0.03365998838559814,2.7469373477951367,0.5630434790753437,9.389981660484807,-0.41084395254954853,0.03683228897381139,-0.06783560001498633,141.53247583455095,16.269258715484618,-3.4264688354688846,0.32569919181418827,-0.07431374512652203,-0.12430669337951933,-0.9343062715958654
202.0,0.07364759656813158,0.01755085984039564,-0.03844692967667004,2.7195372222846648,0.5562717395376718,9.398144056048855,-0.23558830691993554,0.22864799932561536,0.08281607096024876,141.63902017534,16.099195890000374,-3.3797918774118614,0.32490241538290054,-0.07336836649874488,-0.12310864004863062,-0.9348137083100295
203.0,0.0773138136450489,0.010121052040013487,-0.034728073133265897,2.7379990258888762,0.5500076055599266,9.39375328762504,0.15350000936645314,0.1938122869131917,-0.22590667266119666,141.81270325203252,16.20654878985426,-3.3445426360945634,0.323444460234461,-0.07318577559960288,-0.12419908888913866,-0.9351927377686859
204.0,0.0728119590873328,0.010494099134539733,-0.033454760031471284,2.7015271439811173,0.5600464201416208,9.403904012588512,0.1592397718332022,0.3891424075531078,0.1228412667191188,141.79154701022816,15.985921518489379,-3.4041109362706523,0.3236962685043273,-0.0730858349425649,-0.12220018153029111,-0.9353731863941777
205.0,0.06155434416095312,0.0183516541156195,-0.03542581769135664,2.7367948184781383,0.5469881046045484,9.394282941815593,-0.17198060675883253,-0.21919069161889776,-0.20498705087857333,141.82667015567046,16.203907332996142,-3.329818571803229,0.32333515494809106,-0.07302387477299466,-0.12422624044425082,-0.935240022676876
206.0,0.064345228728785,0.017224607545614626,-0.033247920647409245,2.797295914353153,0.5451069555280805,9.3761658611517,0.12012200975984415,0.21996799014649132,0.1793219741673223,141.89196902748117,16.569449732587763,-3.3277977595444157,0.32264664944886845,-0.0739219260332322,-0.12729302433699557,-0.9349832023179816
207.0,0.07255971113858603,0.012499400547000862,-0.0404425087108014,2.784869731370125,0.5561542842156533,9.379220027350042,-0.14697024512007795,-0.4178385855719156,-0.01626139194859691,141.93572745728898,16.497754100164848,-3.3896549281593047,0.32231900533330526,-0.07418495039564835,-0.12656416034994938,-0.9351796630904423
208.0,0.07575969427897042,0.013935184144468173,-0.04268899629088457,2.7454993818140943,0.5625610130755686,9.390436626578246,-0.1841454048181035,0.35436195721404223,-0.36919420403881453,142.1673344947735,16.254144187179197,-3.426707504402233,0.3205118361464913,-0.07358047282282416,-0.12460966374755536,-0.9361106543355439
209.0,0.08375396200966617,0.012593083811022442,-0.03682522198493875,2.7368212880746325,0.5589453373796409,9.392679367577085,0.08022273425499231,0.103002182383575,-0.23310221610280618,142.46509427335056,16.201580354801244,-3.404389354089393,0.3180987384603424,-0.072935054317785,-0.12442957837417107,-0.9370040106760332
210.0,0.09899449252557044,0.013099921321793863,-0.045426435877262,2.747311565696302,0.5486424075531076,9.39052478363493,-0.024596774193548387,0.45971921715184894,-0.3605699252557042,142.64702006294254,16.261715676632573,-3.3414707907159715,0.31659960547364274,-0.07238921962509834,-0.12519903892210854,-0.9374525260354051
211.0,0.09688512981904011,0.013465774980330449,-0.04033713611329662,2.714127852084972,0.5339435483870967,9.401206530291105,-0.5014309598741149,-0.2949486132966168,-0.0631773701809599,142.73509539732493,16.061104691188042,-3.2480859067663257,0.3159590617218725,-0.0710346393680173,-0.12386786720298973,-0.9379582534189614
212.0,0.1069315499606609,0.009247442958300552,-0.0449571203776554,2.6948570023603455,0.5419533831628638,9.406290519276158,0.15075113099921322,0.8043150078678205,-0.026814516129032268,142.83928378245474,15.94603289732494,-3.2946228363493315,0.31514256968391025,-0.07099426067427222,-0.12283732675963806,-0.9383673511687647
213.0,0.09483367052564537,0.0018011408339889856,-0.03699891349143907,2.7038165580158102,0.5344995410437976,9.403862425536696,0.040173712581019816,-0.03719301449926943,-0.2292074692780338,143.02785641695704,16.001874695590274,-3.2505012223221312,0.31358678445889054,-0.07058033431409466,-0.12352460912674681,-0.9388246285690214
214.0,0.08773096736727737,0.0014564459930313592,-0.0307797946873478,2.733312848900378,0.5229865216739724,9.395982288037164,-0.42777820707354536,-0.03117331216514931,-0.17629848310291857,143.2363888459593,16.184587501404966,-3.1804949467985466,0.31180044565436843,-0.07024766621119478,-0.12534970074079277,-0.9392026884433048
215.0,0.08174778015061257,0.009719006406653928,-0.039719006406653934,2.7647491663856734,0.5055921471657114,9.387612303772805,-0.12483140384399234,-0.6147250009366453,0.09715821812596007,143.28273575362482,16.38351878910494,-3.0826893896819154,0.3113714768895882,-0.0699165115979169,-0.12722698188153309,-0.9391158478543329
216.0,0.08568506238057771,0.010174216027874567,-0.03603574238507362,2.830785283428871,0.4986969390431233,9.36808624630025,0.030572102956052595,0.24294237758045795,-0.23466243302986023,143.37440288861413,16.784353808399835,-3.0466308868157803,0.3104470041017572,-0.07057392605072871,-0.13068490855681691,-0.9388951054063168
217.0,0.07068281443183096,0.016837698100483307,-0.03849387433966506,2.817603499306882,0.4897221910007118,9.373047843842496,0.15557912779588623,0.7610020699861376,-0.24719943051965082,143.5182645835675,16.69752210482934,-2.9933685511970327,0.3093056973459218,-0.06974961608988048,-0.13021238094245252,-0.9393995754726312
218.0,0.06762017159342101,0.011646622457007979,-0.03538758382975535,2.721462103330711,0.5232318009816044,9.39896350829868,-0.09803632310516655,0.11830415683189088,-0.1597682739500206,143.77927016597351,16.111814375632235,-3.1891367876812406,0.30738030847626535,-0.06953180512682178,-0.12506490734086395,-0.9407402878299802
219.0,0.06816422627988325,0.012017278551503573,-0.03277827732194374,2.769091266719119,0.5039011958406137,9.38618019012197,-0.029328174120660362,-0.057693945184110404,0.14422475144839425,143.73692421858235,16.39833928528854,-3.0706541360553947,0.30764038145500183,-0.06938752587300451,-0.1276823115223381,-0.940311036864997
220.0,0.07682998354910234,0.010060796795651243,-0.03202417566697662,2.774655604034046,0.4994177812745869,9.385091910449894,0.2993392818825549,0.7064989986410127,-0.10938505829339817,143.79304055503897,16.433306809241113,-3.047153279450683,0.3071648349245405,-0.06919760972605679,-0.12806499003361704,-0.9404343766576067
221.0,0.06830371831158613,0.006331960722204626,-0.030358309406303123,2.725165649980756,0.5232984901277584,9.398505829339815,-0.18148950446354062,-0.12811477140745442,-0.2502652409222039,143.9630736101035,16.135208582395837,-3.1869252403772466,0.30587290718314997,-0.06937566322202579,-0.1253684445125187,-0.941206806683492
222.0,0.05866124434181082,0.006237053007312645,-0.024345353047162652,2.7260772613172297,0.517085909107939,9.398853903767357,-0.21456223752643894,0.11243234866366253,-0.3461141779149254,144.19166498496259,16.14108762827783,-3.1472202070156436,0.3040065698375005,-0.06881006137066971,-0.12564724436427327,-0.9418211607824564
223.0,0.06492542940930036,0.0037943722943722946,-0.026363077782432624,2.725037843876554,0.5197711213517665,9.398908462505238,0.01518642647674906,0.5107893450635386,-0.0934790008378718,144.42464346809103,16.131145702415864,-3.165875052366988,0.3020851420761067,-0.06867989163734114,-0.125653111007471,-0.9424500983408741
224.0,0.053670925848345194,0.0064770981706465565,-0.02366540985895825,2.730922147744728,0.4963137131685519,9.398714495182235,-0.27081587767071635,-0.23932673509286412,-0.1762620444072057,144.61577206395754,16.166787110738724,-3.0199151654796816,0.3004957962418656,-0.06739297996236557,-0.1264586770895126,-0.942942892446097
225.0,0.053155558053276375,0.009774830467198679,-0.020257352665692556,2.707361957214042,0.4880444719193736,9.40565999775205,0.06240516466224574,0.4983707054812484,-0.08105892435652468,144.72994431643625,16.023859634333668,-2.9718254748791724,0.29962976501064026,-0.06649467158326776,-0.12543065339848636,-0.9434183935164286
226.0,0.06160466074706831,0.0010318084747667749,-0.026130980480311712,2.627406017009479,0.518849424899779,9.426386066464351,-0.2204295221235622,0.3197738704057548,-0.1255429030384774,144.96532258064514,15.53924356524671,-3.1474670769173128,0.29785623985555054,-0.06647762645215616,-0.12115876235208496,-0.9445273869003035
227.0,0.0917028233539221,0.0019687674531873364,-0.03340343186842007,2.654468467726688,0.4990608714896495,9.41969769511193,0.2468438116171029,0.6143336942140588,-0.34306083190004816,144.76809983745937,15.699512737504932,-3.0300669298422163,0.2994101730670422,-0.06614231443316557,-0.12268462154068718,-0.9438628732620692
228.0,0.09141592780599331,0.00637954501691625,-0.037919457869693904,2.6334116532181824,0.5350223712286959,9.42391739594306,-0.16571619903015822,-0.4495115803123254,-0.44494271433712085,145.2116708864716,15.580351126816982,-3.245023384275947,0.29579578502948883,-0.06712924205932472,-0.12137656458889198,-0.9450936385020022
229.0,0.08952651229009344,0.004072837024587157,-0.038875051515492115,2.650330826609091,0.5482652178724126,9.418962730229595,-0.0991635430634662,0.16178654855351474,-0.0904149055556572,145.44983745936486,15.6761886682472,-3.3253090711702313,0.29377710867200246,-0.0677585829288559,-0.12210362814928469,-0.945597410484872
230.0,0.09757521523237953,0.012666630943450146,-0.043416282642089105,2.6764101025256313,0.5524512556710606,9.410195763226518,0.07860469581681134,-0.5076688815060907,-0.6250953363340835,145.6989106651663,15.83891062051227,-3.362221805451363,0.291653044152681,-0.06814197918275998,-0.12349797228549995,-0.9460442156130103
231.0,0.09669467366841708,0.008774943735933982,-0.03951612903225807,2.7385975243810954,0.5402655663915978,9.393130907726931,-0.12428732183045763,0.27102635033758443,0.4048246436609152,145.70079941860465,16.21735277569392,-3.2896122468117026,0.29151364751950487,-0.06848763143623406,-0.1268299714883721,-0.945616750755814
232.0,0.07575059008654601,0.0229697088906373,-0.042275767112509854,2.7889352871754527,0.4945192761605035,9.380501376868608,-0.1518636900078678,0.5168703284815106,0.5135154405979543,145.30548165814318,16.52227330841857,-3.015513129425649,0.29469702039122736,-0.06748994127911094,-0.12980846181667982,-0.9442867055241935
233.0,0.06522281942436828,0.027399520611860288,-0.04266601558926318,2.7833959069035554,0.45652876786269736,9.384169761952684,-0.018998471035441798,0.08884765017473878,0.4505217863154813,144.94688643578576,16.493809666212286,-2.78366909753353,0.2976781267724141,-0.06595837546710612,-0.12995138538039547,-0.9434457330767065
234.0,0.07666481254459954,0.026507785482956105,-0.042478070737196505,2.8470522020749094,0.4693860401075878,9.364550065870127,0.16122693973798327,-0.3149265879732128,0.03950718052988858,144.83456266124455,16.882930231414562,-2.869823705926482,0.2984471566075879,-0.06772885648561836,-0.13290830712125595,-0.9426651502778302
235.0,0.0693851206704115,0.027895513512524475,-0.034831875651839796,2.8782302709823804,0.480922662067956,9.355055619087697,-0.2060499595173183,-0.6495309326569447,0.027645383144566642,144.80185548483155,17.070915966415384,-2.9405139871095827,0.29862303001917556,-0.0688204225012671,-0.13427453553505755,-0.9423499778986515
236.0,0.057775686886074235,0.021153918873714678,-0.03854724469109773,2.908177583795574,0.4712052309512651,9.34598448861746,0.020622533682201058,0.08144123859295033,0.11804493102637761,144.60202304328425,17.252005103761867,-2.883990580196644,0.3001865700989178,-0.06904947014114224,-0.13576246312422852,-0.941630342011774
237.0,0.06797124234154224,0.019801192324347502,-0.036485266720057134,2.850566368609038,0.47647751712787484,9.363165336362231,0.15228608981513672,0.3194824210273957,0.042323016260631764,144.43892458222433,16.895401647081563,-2.9122057542997384,0.30167658295583183,-0.06857182100212109,-0.13265644508296398,-0.9416184011026609
238.0,0.07538279973370454,0.013552179789787972,-0.03479497266436685,2.8080981258447824,0.4914907300934051,9.375087050374223,0.2988755573039601,0.299519104682362,0.07123252435998306,144.27868879743386,16.632666081623597,-2.9959228550101877,0.303117466543969,-0.06878762767632998,-0.13017168834473158,-0.9414788777519416
239.0,0.071785851180029,0.005023064530538958,-0.03809940832836192,2.794397307649078,0.5202021107662336,9.37832037880818,0.07269842830916787,0.45786200260531495,0.16418371000884768,144.16485744618612,16.550789411873204,-3.1712642262012833,0.30405212528090136,-0.07010380859089063,-0.12896669623504609,-0.9412572559862328
240.0,0.06043078479349133,0.006958911531688872,-0.03457666081623596,2.8201161166397206,0.5358750990682541,9.370470743523455,-0.14530026507062307,0.209533076908667,0.041704879994120744,144.1785097991112,16.70810610678333,-3.265754860468668,0.3038632744558566,-0.07124742349236562,-0.1300206010396691,-0.9410898961679695
241.0,0.05734170694241504,-0.0020321831328912344,-0.03479748791727548,2.85177435277809,0.5214741204900528,9.3615316024128,-0.18310520165973548,-0.1703464533925293,-0.037633764658499116,144.26952489837396,16.90050894964595,-3.1800090620433856,0.3030325827383856,-0.07094540848610954,-0.13188653496211267,-0.941125645560648
242.0,0.058904724438949466,-0.0017096399535423907,-0.03825761492637968,2.9064960473567867,0.48575722153534917,9.34612063991608,-0.1741382863137387,0.27589028136825144,-0.21375135813570117,144.4291928927354,17.233369394177814,-2.965256547150725,0.3016324307361283,-0.06988745060192572,-0.13526810527541117,-0.9411722538730658
243.0,0.07974347158218126,0.0015960061443932418,-0.036525345622119815,2.854056835637481,0.47062211981566815,9.362817204301074,-0.07391513056835637,0.4990879416282642,0.10186251920122888,144.46888440860215,16.920362903225808,-2.87272465437788,0.30143468232872506,-0.06828125756374807,-0.13292011314439323,-0.9416912870860213
244.0,0.0654715821812596,0.0027757296466973894,-0.03359447004608295,2.789342549923195,0.4748771121351767,9.38236866359447,-0.09924155145929339,0.04106182795698923,-0.14726382488479264,144.55745967741936,16.524817588325654,-2.8922523041474655,0.3008210684439324,-0.06732766502150538,-0.1296661052764977,-0.9424032327619046
245.0,0.07486384923757072,0.001486025251957588,-0.03669139410288113,2.8136671911880407,0.4821040800269755,9.374548668090366,-0.11290521617773783,-0.053896093252407185,-0.14789090892060996,144.6639919589,16.671560638417446,-2.939699009029261,0.29990807611043047,-0.06798644974043684,-0.1308495297876625,-0.9424897069686973
246.0,0.07873170731707316,0.004936467348544452,-0.03426829268292684,2.8331573564122734,0.5134933123524784,9.366771636506689,0.27339816089693153,0.37541428992918957,-0.34053402832415414,144.83518759834777,16.790851199842646,-3.1368287765538945,0.29844892112450827,-0.06969573484933123,-0.1314361846449646,-0.9427456834919357
247.0,0.0801638567307332,-0.0003460904424712448,-0.03366909257802256,2.7738782173766436,0.528182140047207,9.38374123299989,-0.20955067953617326,0.3251411407403244,-0.33697928374733055,144.9589352450264,16.429049351841442,-3.214434933591847,0.297566660889251,-0.06927838537320632,-0.1283129956099247,-0.943487362625576
248.0,0.08894896219699525,0.0008792757858454158,-0.035408602150537635,2.7475289985388334,0.5378215971675846,9.390938378104982,0.38712019032632716,0.38561529401296313,0.16482258767000116,145.04344406822526,16.272510513843617,-3.27505713536398,0.29691145081854364,-0.06927290912257876,-0.12688921275028098,-0.943878737489519
249.0,0.0894619909332734,0.0026450863586976884,-0.034198793600839245,2.750150612566034,0.5187096774193549,9.391546588737778,-0.08766531789741866,0.2737767412236334,-0.20183769810048324,145.01119759469483,16.285049267543364,-3.156834232512832,0.29718829430669513,-0.06838695029860252,-0.12729943423401144,-0.943799978116219
250.0,0.08132501592297028,0.0076372560038964424,-0.039558877524259115,2.7380705855906484,0.5149158143194337,9.39553804653254,-0.06666900827994457,-0.12284805739762467,0.16757052939192987,145.09909801056534,16.21236137649395,-3.1300546064216404,0.29649508047514145,-0.06790598713513918,-0.12681873638057772,-0.944121568987299
251.0,0.07446659922820426,0.010868195271814467,-0.03437031209021768,2.729397212543554,0.48900393391030683,9.39918916488704,-0.4243406017009479,0.08833501929489342,-0.06676056535910982,145.18116289198605,16.162214323180095,-2.974793235547563,0.29584692338076507,-0.06641742926780562,-0.1268270568212881,-0.9444371411458916
252.0,0.07660349930688248,0.012035480124386495,-0.030656738226368448,2.769026563261024,0.4431041174927878,9.390278146191598,-0.04075133003634182,-0.09336129219587125,-0.09633631186542281,145.25309584691468,16.402631739163013,-2.701850342812184,0.29519512918654234,-0.06471391846262785,-0.12954905772324005,-0.9443897735952193
253.0,0.06289079325580525,0.008622995034472905,-0.02853386560925946,2.71444677110044,0.47251257326526747,9.404660782791517,-0.1295405324545422,0.952744133877546,-0.2523381008579671,145.42787801970093,16.06866875963329,-2.8757940029432447,0.29385052949263624,-0.06508443642634437,-0.1264410443001138,-0.9451986724012362
254.0,0.05729455926699445,0.003994911402066545,-0.024304211288013647,2.584726476479747,0.47324590860258614,9.440793356440157,0.22441897359139434,1.026263650244007,-0.31141290603574234,145.6115367487887,15.279997712026002,-2.8697431762121717,0.2926096166128649,-0.06291024525880555,-0.12000408440812144,-0.9465454206710386
255.0,0.06064151926483362,0.005240735270925745,-0.026914202418200375,2.5122407343996276,0.4540112031492193,9.4606052035657,0.04617046029800133,0.5482040697456594,-0.12178028174290959,145.60020601840355,14.84477636177337,-2.7458546910246726,0.29284681380028804,-0.06084590024345807,-0.11672698540471357,-0.9470135165720784
256.0,0.0808361018826135,0.010629621691137068,-0.03424463258671811,2.5230155753224013,0.4878828635730361,9.455471010609795,0.00119114600078591,-2.2025450559068336,-0.5351862519201229,145.88432264316077,14.917871208873645,-2.951619601328903,0.2904616751714714,-0.06238432185171292,-0.11699325089200871,-0.9475935392106953
257.0,0.06237273604115314,0.0056274068517129265,-0.028297431500732325,2.6478633944200336,0.5099790661951202,9.420027363983854,0.04961151002036223,0.18675070553352624,0.5256720430107527,145.79188770406887,15.670605151287821,-3.091045975779659,0.29098224712413817,-0.06547092490972743,-0.12282166120330083,-0.9464774338488191
258.0,0.056301000337192306,0.01116548649357461,-0.03020830991720056,2.670896182233712,0.4763610955003559,9.41588572927204,-0.1642386478588288,0.39472317447828853,0.4592856674534487,145.75783386722117,15.807910437975348,-2.886442059121052,0.2912234082106702,-0.0641910096417519,-0.12443598554209286,-0.9463126308219999
259.0,0.052121314300700605,0.015052789329736617,-0.030626428384099517,2.6560702109325245,0.47519283653666033,9.420876812408679,0.1257099771458544,0.3406267562099584,-0.0438546701135214,145.63071704881793,15.713863053089057,-2.885425330635795,0.2923100307220786,-0.06407335619568394,-0.12359920227949496,-0.9461113421544717
260.0,0.06275036529167133,0.011351279457495037,-0.030436102056873113,2.6986764265108087,0.46403267018845307,9.409919973024618,-0.26070971956839384,0.4597959049866996,0.033588217938630996,145.69239865497732,15.971562862950057,-2.818000683751077,0.2917135502573527,-0.06408107245268066,-0.12595765253375668,-0.9459912670872206
261.0,0.07017140609194109,0.0059218837810497945,-0.02626100558240606,2.6567299370574355,0.4572720392641716,9.421922539432769,-0.09546716355700423,0.8468673897568468,-0.19010147381139708,145.72671265595142,15.718236893990483,-2.7736580214304443,0.2915236228562812,-0.0630687478253812,-0.12395220702368774,-0.9463842836710878
262.0,0.07012026525795212,0.007245888127084037,-0.024441946723614702,2.465931212768349,0.4499201978194898,9.471917874939116,0.14489434640890186,0.8226368438799594,-0.1604801243864973,145.8707007980218,14.561865422801693,-2.7183718294556214,0.2907269136270653,-0.059635930120639905,-0.11459513272900976,-0.9479857582218729
263.0,0.06960458581544342,0.007359372072983404,-0.02435079240193324,2.405402270428234,0.4443692255816567,9.488798433929038,-0.2852632909969653,0.09769234011464534,-0.3595771983065453,146.07293891199282,14.197238769622718,-2.6778375669701395,0.2891450065995279,-0.058198034800681864,-0.11176154613083061,-0.9489180756852873
264.0,0.07596204713199206,0.0013194709827282613,-0.021099359334607173,2.4063831628638863,0.4306677157094151,9.489764040313215,0.02318056648308417,-0.0940733767936758,-0.25411655614251993,146.20079357273985,14.202066005395075,-2.594016709752351,0.288118063534787,-0.05740839298943464,-0.11208385733884081,-0.9492586673111536
265.0,0.07581182055095656,-0.0024639025610061044,-0.024465569354010976,2.598404581110435,0.46742223709237407,9.434896488059298,0.1995613831593787,-1.4469569809699812,-0.14308795513338265,146.46379288092928,15.36979271494703,-2.8295957427945835,0.2855209248571838,-0.061877640039621394,-0.12138072917106367,-0.9485512752190035
266.0,0.07596724181045261,0.010057996642017649,-0.036567391847962,2.705053888472118,0.5121240667309683,9.40288434608652,0.28228720126460183,0.18054580609438065,0.43615758850426894,146.29162748276354,16.011720005894333,-3.1132695004108166,0.286721074558336,-0.06592650368527846,-0.12593074138407814,-0.947332890229486
267.0,0.06316411245668559,0.012022085878612511,-0.030330546922444898,2.684427865895045,0.5741649519522737,9.406181036330509,0.8908315806630228,0.5888328108812917,-0.2253495851641482,146.03130241265671,15.88489226101168,-3.4888304107276817,0.2888685143913031,-0.06897097026429821,-0.12378913039634014,-0.9467719270118244
268.0,0.05738965991497874,0.011661772586003642,-0.02693601078841139,2.584463740935234,0.6568989122280571,9.428591478226698,0.1764437761226021,0.823861489926053,-0.6978334427356839,146.76341306308717,15.276649519522737,-3.977579327867681,0.28297982167203406,-0.07076773793168828,-0.11800952852055868,-0.9491368434321795
269.0,0.06028757189297324,0.007701854034937306,-0.03356074732968957,2.5978044511127782,0.688921230307577,9.423702997177863,-0.3720099667774086,-0.3523081663272961,-0.31003063265816455,147.27278516057584,15.359292501696853,-4.174727163933841,0.2787539407594042,-0.0720213536714893,-0.11857229606673095,-0.9502429834741544
270.0,0.06366902701285078,0.008098909744857816,-0.029548199767711968,2.556709939680042,0.6809024390243903,9.435955115956688,-0.09872077666629203,0.5942965325390581,-0.17738657225281929,147.53547005544937,15.107823798284066,-4.123058100108651,0.2766408185136563,-0.07073882996219699,-0.11674249202637592,-0.9512008004464803
271.0,0.06144749166385673,0.0053326589487093035,-0.02558364242628602,2.4918307669251814,0.6890364167696978,9.452781986437378,0.2486011202277921,0.4076308493499682,-0.32464126484582817,147.80374845453522,14.720214444943988,-4.162852412798321,0.2745595458588663,-0.06990656022490727,-0.11351947123985615,-0.9522594834195424
272.0,0.05951790865834926,0.00342669813794912,-0.028748042411299697,2.4965336630324826,0.7011733543141883,9.449778089992883,-0.44386380240530515,-0.5111183310853846,-0.08774785976546398,148.09131835169154,14.74994017178075,-4.23782021561575,0.2721141680446405,-0.07027660326145517,-0.11377660370364544,-0.9528996302235959
273.0,0.06738184219399798,0.004973717732569031,-0.033164343786295014,2.5656785058633993,0.6441849874489527,9.435346034243754,-0.29458455097223785,0.05000439052489597,-0.21886912957551233,148.1419773402083,15.170260984507888,-3.89725592193998,0.2716037432120284,-0.06839772727588887,-0.11806706907916527,-0.9526598627385259
274.0,0.06621108238732157,-0.0001502379079090328,-0.027373646547525388,2.5710842606121913,0.6395875014049679,9.434907272114195,-0.25366228316661044,0.016761267843093147,-0.2726270091041924,148.3747869131917,15.197650893559626,-3.8705977670375784,0.26967717054437823,-0.06797677779251432,-0.11850816256416022,-0.9531912809437635
275.0,0.05176171743284254,0.0008273200704357277,-0.022176988497995584,2.5554107377018465,0.6233492188378106,9.44032303023491,0.02591276085571914,0.4340493986737102,-0.06140693492188379,148.50088185156045,15.101107114757784,-3.771756397287475,0.2686734313036604,-0.06683126692772845,-0.1180238916990746,-0.9536208984443444
276.0,0.050078341013824884,-0.002734254992319508,-0.022855606758832567,2.565337941628264,0.6318571428571431,9.437023041474657,0.078465821812596,-0.03410138248847927,-0.4149481566820276,148.66397849462365,15.167425115207372,-3.828187403993855,0.2673001846620584,-0.06726450162672812,-0.11854160807219663,-0.9539129253102918
277.0,0.045533026113671285,-0.006172043010752687,-0.0209815668202765,2.556701996927803,0.613110599078341,9.440483870967743,-0.1219758064516129,0.37898425499231947,-0.23356374807987712,148.92880184331796,15.115841013824884,-3.714132104454685,0.265065904592934,-0.06593094424577574,-0.11848752984639016,-0.9546334499001536
278.0,0.0553709677419355,-0.006548387096774194,-0.019182027649769586,2.5423832565284177,0.5785606758832564,9.446727342549924,-0.31489535330261137,-0.20201612903225805,0.054589093701996924,149.1124711981567,15.032742895545315,-3.501689708141321,0.26358918235023043,-0.06381392905376344,-0.11838222804992321,-0.955198418765745
279.0,0.06264024390243902,0.004359559402045637,-0.023836546026750595,2.559975019669551,0.5535554681353264,9.44383733280881,-0.033301780094413855,0.23280881195908731,-0.4192540322580645,149.2124926239182,15.132242083005508,-3.3558000590086543,0.2627174862785209,-0.06272473615027538,-0.11964119819453187,-0.9553595913046814
280.0,0.06142515267318571,-6.445993031358723e-05,-0.02294573077067176,2.499246918436926,0.5715941703195833,9.458661561949722,-0.26575443267393506,0.3251265641976696,-0.2142497119815668,149.63189915374096,14.762716423607209,-3.454880156232438,0.25936511649102695,-0.06231986934587501,-0.11657962987011539,-0.9566682966993836
281.0,0.08216861488891386,0.010764780263010008,-0.0215422989022517,2.443214725937582,0.5552848900378404,9.474340714098389,-0.18636180032595256,-0.012258462590386265,-0.48907988647858824,150.11773397399872,14.427967058184407,-3.351498398336518,0.2553886997917369,-0.060253945426773065,-0.11423358962378705,-0.9581483164312221
282.0,0.08724422089843017,0.015476508935596269,-0.03450069311753027,2.4773993574613167,0.5309713199205727,9.466924881046046,-0.10177342081600539,0.15290892763478328,0.24480776525795211,150.1077298410513,14.637545193136262,-3.206631624423963,0.25543864884502265,-0.05953140402259188,-0.1163072277554419,-0.9579367266763703
283.0,0.08127533625566671,0.0030504664493649575,-0.02961747405492489,2.487581207148477,0.5260574725562925,9.464328799970028,0.010890843355438162,-0.4446512869506575,0.5519533737964107,149.73014780263009,14.691012419916825,-3.179147465437788,0.25857447365254205,-0.05980505896444494,-0.11664689114308194,-0.9570291076553894
284.0,0.07342962047131993,-0.0023974373384286814,-0.02406054475291297,2.50900659398299,0.5266454984826345,9.458542767224909,-0.056688115844292085,0.026106646435127973,0.5458499587876062,149.60771421078266,14.820263618822825,-3.184171396725488,0.259560936033869,-0.0602543481358885,-0.1176600985446405,-0.9566144576450862
285.0,0.08772774204003964,0.0007908858747788009,-0.025000300597797537,2.4738762652335557,0.5530375886654589,9.46674977106646,0.3183732017499148,0.30016639612864887,-0.07659041284711426,149.37390363488083,14.603033271384048,-3.34114963845491,0.2615808375489604,-0.06131432096457913,-0.1153242012309349,-0.9562843331855089
286.0,0.09409597172812367,0.0029564185471454988,-0.0318117159952009,2.522276448903166,0.524957031940912,9.455491329278313,-0.18461257300387815,-1.0731662118491294,-0.31079225599082705,149.44209048777873,14.900552827666846,-3.174902120564984,0.2609503624290828,-0.06054892381037768,-0.11826945799548316,-0.9561345987800085
287.0,0.10547954497335135,0.011129920981987654,-0.03868036259936064,2.733949415054112,0.5214473740386316,9.39426552631189,0.13769366775491781,-0.39338133749465237,0.028885270098012283,149.72368976935002,16.188945837286845,-3.1754448575122876,0.25818944630840635,-0.06301029510583656,-0.12919431939159,-0.9552506079527547
288.0,0.08690381654647111,0.006973581374437685,-0.036442669029626756,2.770573767135164,0.49866306733477805,9.38644882474974,-0.40568929253219227,-0.356272784441755,0.03704974044033656,149.35541774163053,16.41122704456602,-3.037995343783681,0.2611686357700662,-0.06277409743143537,-0.13113041244634763,-0.9542296039855567
289.0,0.09501198470349295,0.014554004354747224,-0.03919254203794853,2.826495343348032,0.43405906354637447,9.373119133441898,0.028719832397123668,0.5352542403893658,0.22453707939179915,149.05196306698627,16.743264322178103,-2.6492850346733023,0.2636293271134247,-0.060730003880848246,-0.13460947268256088,-0.9532108708469801
290.0,0.08729804402320093,0.01942784476606957,-0.034663787898194076,2.750969022743491,0.4556721497447533,9.394415494117432,0.05490435108777194,0.30721781055019853,0.16410581303862548,148.9005475454229,16.282784110661808,-2.7748785519550623,0.2650307177507182,-0.06089803160631621,-0.13041842693209887,-0.9534033276222715
291.0,0.0815981434382986,0.020068910955961985,-0.03318517782755795,2.746584694954226,0.44849341255174424,9.395980554372041,0.2502274087685684,0.6474668536472097,0.07405629717533913,148.69804924009748,16.259320383231696,-2.7327909394596035,0.2667182663162567,-0.06070616722536035,-0.13019151331393825,-0.9529837714867567
292.0,0.07716782299787807,0.014297907704674028,-0.03333541098293263,2.722481462937797,0.4766595822221314,9.402056634684484,0.1890544054686462,0.0170388554534896,0.19281567501473088,148.53292499855246,16.110087116528895,-2.8973300499657695,0.26812511421486973,-0.06191925925340853,-0.12848905436139524,-0.9527541987004813
293.0,0.070043766880903,0.016203316746196364,-0.03369385662855373,2.730680992230953,0.49299672003841943,9.398873471139403,-0.018192206429814617,-0.10348461858099936,0.1244627061896928,148.47078816148445,16.162517753686124,-2.9962231906567074,0.2686252101698904,-0.06292652520161715,-0.12865738501404966,-0.9525295140064919
294.0,0.06837357502188345,0.013172468758621395,-0.0310365427910668,2.796414453629245,0.5034338438901775,9.378638151777405,0.0010337158252185855,-0.4495835760096185,-0.08765062959594827,148.57857858113562,16.566162496040544,-3.070938109883822,0.2676351643414362,-0.06429813574793682,-0.1319335077981342,-0.9522601971055277
295.0,0.06373438782565456,0.009351773325022735,-0.029259420097343003,2.75778629841179,0.5973266780426498,9.384252199413487,0.6606024204617831,0.3527554189188729,-1.4440023407617821,149.30689353919092,16.333091082796038,-3.6418075679238147,0.26156061079384946,-0.06763897017137202,-0.12912515075980666,-0.9540606556220006
296.0,0.059017731547235885,0.012214289120268663,-0.03353139975681283,2.665997603890995,0.7329298520781604,9.399883396173717,-0.3729437974496,0.3971678400277928,-1.1415960244515517,150.5719615545417,15.771576263364226,-4.45552839993733,0.2510781138685069,-0.07176307762792872,-0.12347157989987262,-0.9572468271773596
297.0,0.06255460642164026,0.012384324304072533,-0.032710464201416226,2.6962509834775767,0.7050037465812444,9.394307444456928,-0.383816173991233,0.11596956839384062,-1.2060736765201754,151.65609077029708,15.957293657037953,-4.286112359971526,0.24196146574987826,-0.06952594068731033,-0.12599006422708026,-0.9594458521649618
298.0,0.06454535236596606,0.004433329586752088,-0.028340639166760342,2.548774493274887,0.7064534861938478,9.434219774455809,0.07474897905661082,1.2859273725225728,-0.18997040200816745,152.05233973998725,15.061020100408378,-4.279096886590986,0.23894687673822634,-0.06725666722153535,-0.11867050939080588,-0.9613189745963056
299.0,0.0662020905923345,0.009052114945112584,-0.02820688621632761,2.330277247012102,0.7022438275073994,9.48929938930726,-0.29496365816192727,0.8958590910793899,-0.012937413360308694,152.03886609718631,13.746799014649135,-4.229028511483271,0.2394020272998389,-0.06421640738338764,-0.10767279114233261,-0.9626929645060132
300.0,0.08018639241691958,0.008605897118879019,-0.030740324453935788,2.2853008504739423,0.6840425611629388,9.503539582630847,0.23890660709602485,0.6955785658086995,-0.09255343561500129,152.06174951294443,13.47179526806789,-4.113272029897718,0.23930121959611855,-0.06271112623112658,-0.10565797810160729,-0.9630885400434603
301.0,0.08225881383237796,0.012491476527668502,-0.03125435540069686,2.263598216627328,0.7089037503278258,9.50767262373084,0.4040079052864261,0.7023645610880072,0.0077647896294631286,152.06742909594993,13.345306002023154,-4.264052021280582,0.2392732502274175,-0.06369589866209582,-0.10427560912442393,-0.9632044727383762
302.0,0.07769903712862013,0.00894046682402308,-0.02644149713386535,2.235150799895096,0.7367571466037242,9.512671874414593,-0.3457930575849538,0.25571119478475884,-0.09758790416245175,152.11522025214492,13.175529672923457,-4.427290566108426,0.23889660715540817,-0.06467854844198419,-0.10252429489266043,-0.9634348655981417
303.0,0.06635401446180361,0.01131411337154846,-0.02025626615713162,2.214912891986063,0.7036231313926045,9.520514405604882,-0.10006650181709194,0.33900706230564603,0.070448606271777,152.01070234348657,13.050630362294406,-4.2240151174553215,0.23982875439005658,-0.06284513968210256,-0.10182286823030234,-0.9634000048529465
304.0,0.06209003906028772,0.008198852849100775,-0.0249187950297679,2.2129421031215992,0.6815331925315825,9.522598323796974,-0.1214350299247286,0.36826862421180206,-0.10898529837163122,152.09739594632978,13.04118187103396,-4.090900719517858,0.23911059957267625,-0.06165513021426959,-0.10203923601732315,-0.9636349902527155
305.0,0.060265449637670734,0.006180839634995857,-0.018684435917341705,2.242077810393365,0.6753326484931337,9.516237717966074,-0.21091912786559008,-0.18899356807843076,-0.09267909311822728,152.34869317285768,13.218723616008532,-4.056923094013921,0.23697086164117687,-0.06150562984599808,-0.10373976580436049,-0.9639884082715191
306.0,0.05824444787154976,0.009372874577529399,-0.02317778050784473,2.2564480318685947,0.6803885901789037,9.512886758274934,-0.2458509880083261,-0.1301970200738338,-0.25375496748751647,152.562008860229,13.302295521615594,-4.089043765732374,0.23513302657196528,-0.061746332932440424,-0.10453282606504413,-0.9643385000562945
307.0,0.047945984754028226,0.008466925093642748,-0.02749290284243535,2.2527574541719053,0.6290699835237556,9.516416628547383,-0.18222919187985148,0.44120066384191864,-0.18680077249277477,152.7225071838517,13.276088752153196,-3.779607445415361,0.23380030404522734,-0.05896768719084649,-0.10495073526304918,-0.9647798298605625
308.0,0.05688644635026352,0.006085547519284003,-0.022288544261500915,2.249064801043466,0.6004791302355206,9.518876292243789,-0.21300188940963463,0.0458707882545549,-0.05156325013309076,153.02626637713433,13.259553030679273,-3.6054901900562246,0.23127109324369943,-0.057208734424691536,-0.10531301774167406,-0.9654604238555369
309.0,0.05306017009478851,0.012272001798358995,-0.019102206736353076,2.3729380690120268,0.5938512607245887,9.488136113296617,-0.32267103143381665,-1.5240308062642838,-0.373829193361058,153.24436420516278,14.009117539620096,-3.5767379453748456,0.2292496089275786,-0.05817643309152898,-0.11184673782679555,-0.965117941072646
310.0,0.07030120639916075,0.01884721441684463,-0.02433220935895995,2.4962040575474878,0.5505892248323404,9.459129500580719,-0.06103309636206962,-0.3903996197220037,0.2882918165299164,153.060570159417,14.747838339702522,-3.3264114074032447,0.2306181578585665,-0.05771417343516541,-0.11848963129050989,-0.9640249326983814
311.0,0.05113329399423025,0.013993237420853469,-0.02397570342062868,2.5036142238956947,0.5554385935334007,9.457346811659361,0.32764631570566854,0.20636883687385257,-0.0413477974785508,152.94152622841034,14.789522041605785,-3.3594783236858863,0.23162260416767827,-0.05819614842568656,-0.11872233675540442,-0.9637445384215748
312.0,0.06610908171293693,0.006261211644374507,-0.028315424674984078,2.512503540519276,0.5862189127421229,9.454514611666855,-0.3291743939904837,0.124324971432318,-0.21530355503727844,153.05288316988873,14.841649221647746,-3.5448709302761228,0.23065943651356263,-0.059717519427129,-0.11886672108507548,-0.9638771007520699
313.0,0.0649320370162227,0.0018372110449215082,-0.021133902813682517,2.4776926304746922,0.5783974748042412,9.464498857292725,-0.26300789591997303,-0.004049351841444684,-0.019994567457195286,153.23611540406878,14.635938378104978,-3.4917519013899816,0.2291638572126185,-0.0587001961870668,-0.11730510839680042,-0.9644924188234236
314.0,0.0885616582717108,0.0023079162647804794,-0.03226887078912586,2.5195306326581646,0.5289928017718715,9.455895706069377,-0.11641671578608938,-0.5052712955024471,0.2515803057907334,152.9282013583753,14.886504996784911,-3.1963178294573646,0.23173031910756264,-0.05706817669251241,-0.11984992659177296,-0.9636579175879327
315.0,0.07573899855625926,0.002265194129542838,-0.029261519430380252,2.52500865678092,0.5373336868624823,9.453479961235956,0.20078987653054375,0.6637236821727208,-0.17383390109286906,152.84743272463368,14.91679051214241,-3.2490905255712885,0.23238125858959863,-0.05764077718284906,-0.119953329164906,-0.9634542403641586
316.0,0.07649154884539952,0.0018645994251176037,-0.028346829738793586,2.517357396840499,0.5678587199064576,9.45363720721121,0.10900098173498077,0.32956480627125423,0.07958457384380936,152.92110707337113,14.872941504104247,-3.4341280224237245,0.23174704066852078,-0.05899240204746308,-0.11925260713467567,-0.9636174467137473
317.0,0.06503167603747625,0.00044796042216129026,-0.024095766973102162,2.5318859592947014,0.6132550689937294,9.447099409869889,0.36030406229606177,-0.27775440702510124,0.20171952831413426,152.70628711729324,14.963405158780983,-3.71208691218972,0.2335130177946403,-0.06169402022065186,-0.11936315026903505,-0.9630102775199809
318.0,0.055252593636213924,0.0007425026988454422,-0.03186632023859623,2.6571595337858858,0.6468298172104003,9.409601485737287,0.394146936124275,-1.292684070407846,0.06956845918796771,152.49911029586664,15.725928814520703,-3.931108539329954,0.23502728329734868,-0.06519627224434157,-0.125247387071341,-0.9616372841461583
319.0,0.06978226263883043,-0.007989680346915997,-0.030856494611457744,2.684125848535305,0.6704943918906557,9.40038113186833,0.004053986057489967,0.9003931623149689,0.17565595667209483,152.32962623277768,15.877887535908366,-4.07185561634311,0.23640612973944705,-0.06684837579346056,-0.12617221606352808,-0.961065455604084
320.0,0.07779829103617367,-0.007063290212797101,-0.02935428979196019,2.648683695314072,0.6350072274166103,9.412845955391283,-0.16430365213254533,0.7249064552723545,-0.0637750901139919,152.37190890710482,15.66693845717527,-3.8545253691471646,0.2361457016163797,-0.06458700514299306,-0.1248299392748797,-0.9614752563661648
321.0,0.06438537683201287,-0.005881763123707756,-0.024946224360968293,2.596640038058295,0.6313533383345835,9.428005196421054,-0.18437940277752363,0.18229488774632682,-0.1328710226337072,152.55870720728961,15.349150778548296,-3.827862605895376,0.23467269889630948,-0.0635538607131173,-0.12229878482469396,-0.9622364557771028
322.0,0.07312187803048323,-0.0038283717270781114,-0.020533694399209563,2.5275883117120745,0.597203813148409,9.44882557224672,-0.33674615300166505,0.43477942656395807,0.10934143596874828,152.72109239200043,14.932684161894134,-3.6142263462207014,0.2334236412310029,-0.06079051750132655,-0.11929404168693392,-0.9630927217178196
323.0,0.05891502753737214,-0.0028324154209284033,-0.018414634146341466,2.4162517702596378,0.5835538945712038,9.478358772619984,-0.23383162863886703,0.8301288355625491,-0.11298682140047205,152.83752950432728,14.264358772619984,-3.5203727380015737,0.23261819586231314,-0.058614092074744294,-0.1138970185216365,-0.9640711440149489
324.0,0.059429976396538166,-0.003422501966955153,-0.019293863099921323,2.370077104642014,0.5556203776553894,9.492291109362704,0.11570121951219513,0.678833103855232,-0.09497197088906371,152.81404897718335,13.981092643587726,-3.350641719118804,0.23289793957946506,-0.05666733912155783,-0.11185433869040126,-0.9643665901152635
325.0,0.04823190401258852,-0.002623918174665618,-0.015492722265932337,2.278539732494099,0.5670194728560187,9.513828481510622,-0.11738050747442955,0.5982186762391817,-0.19353240558615264,152.80299714791505,13.431513080251769,-3.405970938237608,0.2331172148723446,-0.05609799074488591,-0.10709328602891421,-0.9648842467728166
326.0,0.06147482297403621,-0.0012393784421715181,-0.018637490165224237,2.287019866247049,0.5254008654602675,9.514019079464989,-0.29503097954366636,0.23214865263571988,0.20461988591660113,152.8974159126672,13.485514604642013,-3.15709333202203,0.2323075483031078,-0.054023982666797796,-0.10807737117171516,-0.9650823957291503
327.0,0.061043863099921325,-0.005881785995279307,-0.007379228953579861,2.259038158929976,0.5229907553107789,9.52157808811959,-0.11596307041699447,-0.40310410110149497,-0.0017223151062155523,152.91045190794648,13.318840971675845,-3.142760375688434,0.23224278920397323,-0.05357495880114083,-0.10672610295279304,-0.9652838274895752
328.0,0.05625177025963808,0.0008292682926829289,-0.014383162863886707,2.2390755310778916,0.5352171518489377,9.526083398898503,-0.017432140047206925,0.12962234461054284,-0.10043273013375292,152.86757474429584,13.191930566483084,-3.216566679779701,0.23263524375924471,-0.05395051117073171,-0.10548294039575136,-0.9653085206923683
329.0,0.06020317710089542,-0.002340976359072346,-0.011039320370162226,2.260111554456559,0.5318279757221536,9.520986137649395,-0.041142730695740135,-0.30360421115731895,0.17280707916526172,152.8691190382526,13.324716313551384,-3.1924233589974147,0.23262886169154395,-0.05402521226196097,-0.10662649047549733,-0.9651831358502867
330.0,0.06290552995391704,-0.0031052227342549914,-0.01712019969278034,2.2960426267281107,0.5127960829493088,9.513664362519197,0.09565812211981567,0.1900441628264209,-0.11624903993855605,152.82750096006143,13.540853014592933,-3.083311731950845,0.23293615510675886,-0.053596131147465434,-0.10865576209792625,-0.9649071847388635
331.0,0.07054245813195459,0.002098057397624667,-0.015888286313738714,2.3322096493199953,0.49122957176576376,9.506009207223407,0.0623949786444869,0.1350557655202128,-0.09341292476864861,152.95019447098272,13.753501472874753,-2.9569298874152334,0.2318448430716721,-0.05283991969765089,-0.11076457550755872,-0.964969445185915
332.0,0.07192297965606384,0.007886263159866621,-0.018948568805964558,2.3368647577835224,0.4865738732156907,9.505082790079053,-0.47624620658648986,-0.49092080429732865,-0.12309685380839984,153.02907171424823,13.788234681165935,-2.922746021599041,0.23115453794555277,-0.052560821730414736,-0.11113221050584465,-0.9651075748033233
333.0,0.057416544902776215,0.014904087520137874,-0.019454123112659694,2.3563189839271668,0.4824379004158705,9.500047394252745,0.17923527593570865,0.9230136094563711,-0.3304988104604548,153.10070693304857,13.900230883069199,-2.8983880334195047,0.23053042164399984,-0.05252847301056536,-0.11216873570473193,-0.9651339453066576
334.0,0.06870750440223296,0.009217788767749428,-0.015273912554793748,2.2952746993368556,0.49437102394065413,9.514354726312241,-0.009590311340901436,0.5840058446667417,-0.34637939754973585,153.40490895807574,13.5353208946836,-2.967425583530029,0.22804041714150836,-0.052100118518339504,-0.10911582298831068,-0.966092956344573
335.0,0.06301809598741148,0.007439811172305272,-0.017087332808811955,2.2780535011801737,0.46400944138473643,9.520154209284026,-0.14593823760818253,0.11111329661683714,0.25343233674272225,153.32786191974824,13.433664437450824,-2.7856117230527144,0.2287372145177026,-0.050449700970889064,-0.10856123973878834,-0.9660861209394177
336.0,0.07571870668015436,0.008521336780188078,-0.021452699411786742,2.2345005057884686,0.4646659173504177,9.530987711213518,0.017439399048368345,0.27787877936383054,0.16362584766400656,153.17508874714323,13.169950779288898,-2.788727005357611,0.23008326926664419,-0.05008733759214717,-0.10626202782095084,-0.9660408513775054
337.0,0.08239739987261621,0.013514536735229107,-0.02377887677494287,2.332746300251021,0.459255704169945,9.506567251133339,0.025321737664381245,-0.6403471675845791,0.1572608744520625,153.02368506706378,13.764030361357761,-2.7639309598741146,0.23122702792244582,-0.05117163523120153,-0.11126812860175712,-0.9651342026032557
338.0,0.09005078490877073,0.014798181034805742,-0.023824922258439178,2.397679995129444,0.4700070810385524,9.489798181034804,0.24312900415870517,-0.020739083398898517,0.21455687310329324,152.86407502763103,14.154059830560863,-2.8313655586152633,0.23246594508553448,-0.05267019439608857,-0.11434688808136637,-0.9643954897453728
339.0,0.1024528118092241,0.012507961485144808,-0.028122138548574423,2.5067795136937545,0.5006325727773409,9.459217638904502,0.05533466336967516,-0.5630409126671911,-0.2646973698999663,153.08473408639617,14.815260762054624,-3.0247049567269864,0.23042320341373496,-0.055308436520624935,-0.11964642109310253,-0.96407862202188
340.0,0.09339477726574502,0.01223195084485407,-0.02885099846390169,2.520245775729646,0.5169677419354838,9.45558678955453,0.03358294930875576,0.28104838709677427,-0.18338133640552995,153.20145929339478,14.899654377880184,-3.129032258064516,0.2293975499861751,-0.05622161984331797,-0.1201979769784946,-0.9642206755192011
341.0,0.11010733955265821,0.013767243640178336,-0.03277147727698476,2.556309523809523,0.5095442471244989,9.446550466449363,-0.04504936120789779,-0.13160580813757444,0.10938424937244766,153.09247780150613,15.116035484807613,-3.085161547900041,0.23026988600897308,-0.05638396305483122,-0.12206025707865947,-0.963781120078547
342.0,0.10327179573639055,0.009291455921471656,-0.027764386871979324,2.501541858678955,0.5046415552058745,9.46150872016785,0.1564067710089543,0.174932502997265,0.25748110318084744,152.88074830935523,14.78140003887078,-3.0490131856243674,0.2321599413570211,-0.055661927015126816,-0.1192255793265801,-0.9637188183726069
343.0,0.08429606290945559,-0.0034183193010796234,-0.019140539272448784,2.5501523059336266,0.5271173830042878,9.447209255057672,-0.14771207773633302,-1.2696294677436781,-0.07104025298572031,152.78362012241953,15.0716294314759,-3.1926863330597457,0.2328955273970964,-0.05751430960274345,-0.12136175940119327,-0.9631626659587154
344.0,0.0938467373812094,0.02177546150474901,-0.04182636491004285,2.667434742614225,0.5501560283363525,9.41204977006447,0.42268489323986047,0.2848231834199839,0.07154804680046317,152.89794694699373,15.786976920351602,-3.346479138022746,0.23173398576128265,-0.06003536742271457,-0.12712459701333106,-0.9625120644759819
345.0,0.08883312291487505,0.02237256178156037,-0.02572558644887703,2.461896902797128,0.5322091585614174,9.46585649025497,0.0884041785707751,1.5320633294212056,-1.4039017158470801,153.44004250191466,14.54510976393924,-3.2181740448178244,0.22746760772472735,-0.05608476311074285,-0.11712241205985292,-0.9649291520171768
346.0,0.06795127353266887,0.025074482906440897,-0.02481120280070018,2.32961204586861,0.6658891508591432,9.491503232951098,0.18429495766798842,1.8534265262744256,-1.238991667559747,154.52211043832386,13.73921382131247,-4.007931670417604,0.21847451037223592,-0.06015535867556175,-0.10941400859464864,-0.967651533164184
347.0,0.05909084413960633,0.020194691530025365,-0.02088486407316115,2.1526938877576534,0.725767156074733,9.52992212338799,-0.007146876004715461,1.0866354981602544,-0.9815110027506877,155.4060725002679,12.675050459043332,-4.349515950416175,0.21117864686814564,-0.06031989567034616,-0.10024565287643339,-0.9702747424077449
348.0,0.05784660450826992,0.017222877147858393,-0.018745400635873256,2.137542957167863,0.7276329796734897,9.534455756796342,-0.07202023720215768,0.48324804415389555,-0.04761681491801517,155.79717027471153,12.58402993605544,-4.362333887043189,0.20791539082377736,-0.05986552805844318,-0.09963685145357767,-0.9711350041406782
349.0,0.06650019647769084,0.01171346408030579,-0.018311184939091917,2.057046047226092,0.7196041867609759,9.553394420033577,-0.3117743721644697,0.19466697031400707,-0.005030275425999375,155.92411495731074,12.105171382131246,-4.304150814489336,0.20693945633837033,-0.05839524745382774,-0.09573533874629372,-0.9718738542571358
350.0,0.059844830545615485,0.005240138431820498,-0.014403522483408308,1.8945909865968233,0.7234900406286242,9.585830813103968,0.1728940510388921,1.3547002005292264,-0.05032853923411165,155.97684359569857,11.135386307378237,-4.316967716450018,0.2066512348594553,-0.05679914282782805,-0.08745775230906158,-0.9727809094486383
351.0,0.06881642448939762,-0.0002793163447656344,-0.015043543115744094,1.8008784426071676,0.7346213644003334,9.60313814080698,-0.19206679936534654,0.4930903076378851,-0.0032028640871019183,155.96386822642071,10.578349835716768,-4.370009395859418,0.2068298052254266,-0.056317248575972395,-0.08261091944178117,-0.9732186742058861
352.0,0.07547964081612737,-0.008000641275301404,-0.013512554968010296,1.8144484378934453,0.7238160585442528,9.602371681770617,-0.10155375298528466,-0.02594428550517419,0.23378163247257808,155.91917009631328,10.663454871775436,-4.305276395318342,0.2072136471442033,-0.05593899618122736,-0.08343675768940058,-0.9730979720491796
353.0,0.08081585727442313,-0.004461150130738261,-0.019394526331931415,1.8416020991310542,0.7067313779664428,9.599273398488991,0.2372895597592778,-0.17260635934244886,-0.0426953972813761,155.77014092373267,10.825415031893863,-4.207793727613088,0.2084873013101969,-0.05549143115128957,-0.08492503481628247,-0.9727282263625313
354.0,0.07150088044659247,-0.004562586639691283,-0.01897118879022892,1.8676872353976997,0.7484721441684465,9.590963995354235,-0.07982559664306321,0.11551178299801432,-0.48285704919261174,156.07624995316772,10.976970233412011,-4.460525083361432,0.20585075678430934,-0.05766078089018771,-0.08593289684800119,-0.9730816026982879
355.0,0.07125192012288786,-0.0014132104454685104,-0.01951612903225807,1.9095084485407063,0.7478648233486941,9.582949308755756,-0.11535138248847926,-0.10503072196620583,-0.2285426267281106,156.36127112135176,11.233822964669738,-4.457517281105991,0.20330951099078343,-0.05784815466205837,-0.08824328825652841,-0.9734023137711211
356.0,0.0754301075268817,0.005637480798771118,-0.021912442396313368,1.981221198156682,0.7537711213517664,9.56711213517665,-0.16892281105990783,-0.6299923195084485,0.016129032258064516,156.49270353302612,11.660378264208909,-4.498271889400922,0.20213221736559145,-0.05880287248079877,-0.09188186473886328,-0.9732496787557601
357.0,0.08902551421827581,0.009602862388070885,-0.026496009890974493,2.080415121201903,0.7057466936420516,9.550062942564901,-0.10465372222846653,-0.17446423888202015,0.2520395451650369,156.48819241504626,12.250366462477988,-4.215944747293095,0.20212529360870707,-0.05746477999438012,-0.09738462423307481,-0.9727889242027274
358.0,0.08316942040388146,0.01739762466749092,-0.026818028548949095,2.079073470458207,0.7041560825746506,9.551583117904908,0.1488153778427185,0.26797422352103706,0.3375037465812446,156.25941796860366,12.2422071110112,-4.20914470233412,0.20406075891424075,-0.05754417907684237,-0.09719714859147277,-0.9724073213165487
359.0,0.09670375782098833,0.021929227080289243,-0.026528829942677308,1.9765505601138957,0.6878906372934696,9.573756996740475,-0.16268428496496945,1.0744729028511484,0.010572149788318164,156.11165982915588,11.62112275673448,-4.104605953317598,0.2054569501191788,-0.05571688887482672,-0.09204655309681165,-0.9726985816137275
360.0,0.09077142107826608,0.01949792064740924,-0.026541268592409427,1.882915327263872,0.6600886815780598,9.594312090217677,-0.13044284590311342,0.7692194934622157,-0.09809439511445806,156.22356201528606,11.06172281855307,-3.933331460042711,0.20462708893589604,-0.05324725342283916,-0.08766047266029747,-0.9734194500856468
361.0,0.08690401258851299,-0.008826121164437446,-0.045109362706530286,1.8061990558615264,0.618915027537372,9.611252557041698,-0.19208300550747442,0.8040617623918174,0.1176042486231314,156.31606510621555,10.61306549960661,-3.6834382376081827,0.20393714185995276,-0.05030928172462628,-0.08428802870416993,-0.9740216749905586
362.0,0.09750155526686549,-0.0020969937606352784,-0.03706669350264395,1.8137155965820724,0.6213408504565165,9.610393628895029,-0.15991837136113296,-0.390546836404223,-0.27987381753975077,156.52412693493494,10.657858957879714,-3.6955920763727512,0.20215923259639912,-0.05036035775406656,-0.08476219953862549,-0.9743578581365981
363.0,0.08104818125263022,0.0024905237633450197,-0.031860123567477236,1.8709278968261227,0.6173784916176781,9.59954228670408,0.2345206483458844,0.18318631541596198,-0.33687946431294236,156.79633063617604,10.997032725352504,-3.677140433300834,0.19980079664101177,-0.05056518192206718,-0.08777381238967166,-0.9745663843843233
364.0,0.07301081367902951,0.009645930646424675,-0.026966253758561595,1.8690025990818262,0.6227076368395235,9.599969609127019,0.04697978719418533,0.5631866372516474,-0.0788609064286978,156.89342925888266,10.9842786807329,-3.7091851360052557,0.19899348927310226,-0.05072308794352769,-0.08766450850374614,-0.9747359615889949
365.0,0.06571499347632406,0.016069107065026778,-0.017293169446207707,1.8273169706256636,0.6204364103623066,9.608366656123964,-0.39840244334736863,0.07181629064462577,-0.36209872874946153,156.99616211678222,10.738314495201124,-3.6976207206786955,0.1981774943264783,-0.050120998378247746,-0.08562802964334758,-0.9751190528313551
366.0,0.049842547878996016,0.015318581856667596,-0.019123374652293468,1.9599283515598815,0.5813244207594381,9.583895365827521,-0.2451197897303326,-0.128244097006562,0.11522817299741711,157.1252643786114,11.526857877026211,-3.4719073312284117,0.1969330970822006,-0.04943438242279816,-0.09277766260294837,-0.974724558139517
367.0,0.05427761302426921,0.015838585752039724,-0.021737981399665113,1.9878336431467827,0.5631640858485861,9.5794443070698,-0.012479249703875983,0.1742266011591346,-0.01672481072559752,157.29289287947825,11.69217987624754,-3.363129209500177,0.1954604453137935,-0.048660239023102,-0.09444234587611786,-0.9749125001912887
368.0,0.06492298469953858,0.021068294412118174,-0.025799866275869426,1.9390896326332991,0.5502302764112361,9.590167622044884,-0.15068086909156936,-0.29295102353717617,0.07593098941446699,157.1896492047161,11.402445544882603,-3.2797308873921773,0.1964203198919198,-0.0475746229255295,-0.09206112862546292,-0.9750086645887317
369.0,0.07071558548977905,0.018123596833274254,-0.017457461892945766,1.9340811768876287,0.5371583362873684,9.592007680491555,-0.16200002954035214,0.08594248493442042,-0.1927759068888101,157.19687093820158,11.372172249793216,-3.203037486706841,0.19636553283457403,-0.04687732216524873,-0.09192873941445115,-0.9750752199085432
370.0,0.07493746955902737,0.015373908808212508,-0.017534234386122664,1.960800700610693,0.5545557865947323,9.585790097785772,0.07621518021055787,0.1602402261061781,-0.05079872428908621,157.32617420197818,11.530996754523997,-3.305982470683002,0.19521806031195907,-0.04791152205662021,-0.09315539757645835,-0.9751343911404967
