time,linaccel_x,linaccel_y,linaccel_z,gravity_x,gravity_y,gravity_z,gyro_x,gyro_y,gyro_z,euler_x,euler_y,euler_z,quaternion_w,quaternion_y,quaternion_x,quaternion_z
0.0,-0.01676923076923078,-0.24676923076923082,-0.005846153846153848,-0.16999999999999996,-9.799999999999999,-0.21000000000000033,-0.03076923076923077,0.004807692307692308,0.0019230769230769232,86.75,-0.9375,91.1875,0.5083007799999997,0.4998779300000002,-0.5107421899999993,-0.48046875
1.0,-0.01717948717948719,-0.24789743589743596,-0.009128205128205131,-0.16999999999999996,-9.799999999999999,-0.2100000000000003,-0.011538461538461539,0.01698717948717949,0.0,86.75,-0.9375,91.1875,0.5083007799999997,0.4998779300000002,-0.5107421899999993,-0.48046875
2.0,-0.018185148185148197,-0.24710755910755916,-0.009453213453213455,-0.16999999999999996,-9.799999999999997,-0.21000000000000033,-0.0228021978021978,0.014855977355977356,0.012445887445887446,86.75,-0.9375,91.1875,0.5083007799999997,0.49987793000000014,-0.5107421899999993,-0.48046874999999994
3.0,-0.018183372183372196,-0.24865019425019427,-0.009179176379176382,-0.16999999999999996,-9.799999999999997,-0.21000000000000035,-0.008620823620823621,0.0023873348873348875,-0.005808080808080808,86.75,-0.9375,91.1875,0.5083007799999997,0.49987793000000014,-0.5107421899999993,-0.48046874999999994
4.0,-0.018406346341830224,-0.24553545379351838,-0.009046996014737952,-0.16999999999999993,-9.799999999999997,-0.21000000000000033,-0.014593202496428304,0.00016260621099330793,-0.011247086247086247,86.75,-0.9375,91.1875,0.5083007799999997,0.49987793000000014,-0.5107421899999993,-0.48046875
5.0,-0.017508384089029258,-0.2455965110158659,-0.011019775923001733,-0.16999999999999993,-9.799999999999999,-0.2100000000000003,-0.010770546657643432,-0.0009887961500864724,-0.014587562974659749,86.75,-0.9375,91.1875,0.5083007799999997,0.49987793000000014,-0.5107421899999993,-0.48046875
6.0,-0.016860891796375677,-0.24612952101661784,-0.01202973907812618,-0.16999999999999993,-9.799999999999999,-0.2100000000000003,-0.01039457853973983,-0.0028827355440258664,-0.009798434092788931,86.75,-0.9375,91.1875,0.5083007799999997,0.4998779300000002,-0.5107421899999993,-0.48046875
7.0,-0.016727122340025574,-0.24730171530977987,-0.01257633674569159,-0.16999999999999993,-9.8,-0.2100000000000003,0.01271585717150233,0.0055132591422913995,-0.017027265968798225,86.75,-0.9375,91.1875,0.5083007799999997,0.4998779300000002,-0.5107421899999993,-0.48046875
8.0,-0.01678527166470055,-0.2460279068352178,-0.011982165456319346,-0.16999999999999993,-9.8,-0.2100000000000003,0.04014136047203869,0.00923994167152549,-0.008691158504005543,86.75,-0.9375,91.1875,0.5083007799999997,0.4998779300000002,-0.5107421899999993,-0.48046875
9.0,-0.016750035976430967,-0.2454691683379644,-0.013838837470815565,-0.16999999999999993,-9.8,-0.2100000000000003,0.030802189881420763,-0.0015925081524706657,-0.00408193160932287,86.75,-0.9375,91.1875,0.5083007799999997,0.4998779300000002,-0.5107421899999993,-0.48046875
10.0,-0.016709178451408208,-0.24575593199678164,-0.014332511019467812,-0.16999999999999993,-9.8,-0.2100000000000003,0.022181590430883295,-0.00025320393641099954,-0.005858071637896301,86.75,-0.9375,91.1875,0.5083007799999997,0.4998779300000002,-0.5107421899999993,-0.48046875
11.0,-0.017416113679398177,-0.24718166982253237,-0.014948757460826523,-0.16999999999999993,-9.8,-0.2100000000000003,0.022694715285680983,0.012943686143136852,-0.0012894066891354552,86.75,-0.9375,91.1875,0.5083007799999997,0.4998779300000002,-0.5107421899999993,-0.48046875
12.0,-0.017874723506365764,-0.24684224300138397,-0.01452250981080241,-0.16999999999999993,-9.8,-0.2100000000000003,0.016347677663321798,0.018344602928199248,-0.01741377656525385,86.75,-0.9375,91.1875,0.5083007799999997,0.4998779300000002,-0.5107421899999993,-0.48046875
13.0,-0.017875937191493912,-0.24532691005375717,-0.01430461820524256,-0.16999999999999993,-9.8,-0.2100000000000003,-0.01323119716882724,0.008973993690434896,-0.00968291846608704,86.75,-0.9375,91.1875,0.5083007799999997,0.4998779300000002,-0.5107421899999993,-0.48046875
14.0,-0.01700488606953228,-0.24544397211644878,-0.014445993565920731,-0.16999999999999993,-9.8,-0.2100000000000003,-0.011903559842718271,-0.001273228881189339,-0.0013675138236142392,86.75,-0.9375,91.1875,0.5083007799999997,0.4998779300000002,-0.5107421899999993,-0.48046875
15.0,-0.017148581842195275,-0.244110525833861,-0.01558705208249954,-0.16999999999999993,-9.799999999999999,-0.21000000000000033,0.0031266192780078066,-0.001141374017934892,0.008241905239661482,86.75,-0.9375,91.1875,0.5083007799999997,0.49987793000000014,-0.5107421899999994,-0.48046875
16.0,-0.01683131485450035,-0.24506254699601482,-0.01762443134822168,-0.16999999999999993,-9.799999999999999,-0.21000000000000033,-0.0028266487376870436,-0.0004731323783743139,0.006592336594856755,86.75,-0.9375,91.1875,0.5083007799999997,0.49987793000000014,-0.5107421899999993,-0.48046875
17.0,-0.016566546356868946,-0.24586628693886764,-0.019298988645762852,-0.16999999999999993,-9.799999999999997,-0.21000000000000033,0.00916610271448981,0.006228029363110009,-0.0005671244078502141,86.75,-0.9375,91.1875,0.5083007799999997,0.49987793000000014,-0.5107421899999994,-0.48046875
18.0,-0.01784158583352133,-0.24572966952402442,-0.020460908714940988,-0.16999999999999993,-9.799999999999999,-0.21000000000000033,0.024077468230694038,-0.002841320306038048,0.004213956406496729,86.75,-0.9375,91.1875,0.5083007799999997,0.49987793000000014,-0.5107421899999993,-0.48046875
19.0,-0.01607960184976315,-0.24471098860816612,-0.024914077186254623,-0.16999999999999993,-9.799999999999999,-0.2100000000000003,-0.004439243552146777,-0.002242620450785773,0.0019984174092036993,86.75,-0.9375,91.1875,0.5083007799999997,0.49987793000000014,-0.5107421899999993,-0.48046875
20.0,-0.015701655199639078,-0.24405596050454928,-0.03219814694713889,-0.16999999999999993,-9.8,-0.20150372208436737,0.07292442100909843,-0.005076259845665088,-0.002253385475411685,86.75,-0.9375,91.16119727047146,0.5084582898759308,0.49974852763771693,-0.5106118183473943,-0.4805991216526059
21.0,-0.01572885179336793,-0.24491356492969402,-0.036671150086472676,-0.16999999999999993,-9.8,-0.19542928039702237,0.09253579921422664,-0.011626461576058348,-0.014310286487705841,86.75,-0.9375,91.1420905707196,0.5085685465508691,0.49965571656079366,-0.5105194919156328,-0.4806914480843678
22.0,-0.014777915632754348,-0.24549441687344917,-0.03542013027295286,-0.16999999999999993,-9.8,-0.19239205955334987,0.05954074906947891,0.0010293889578163774,-0.012058002481389577,86.75,-0.9375,91.13253722084367,0.5086236748883383,0.4996093110223321,-0.510473328699752,-0.4807376113002487
23.0,-0.015339330024813904,-0.2459928660049628,-0.033563663151364775,-0.16999999999999993,-9.8,-0.1908734491315136,-0.0030770200062034715,0.00963380117866005,-0.002198356079404466,86.75,-0.9375,91.1277605459057,0.5086512390570728,0.4995861082531013,-0.5104502470918116,-0.48076069290818924
24.0,-0.01545766129032259,-0.24682676799007447,-0.033387562034739464,-0.16999999999999993,-9.8,-0.1901141439205955,-0.016403342121588088,0.0023670130272952852,-0.008543346774193548,86.75,-0.9375,91.12537220843672,0.5086650211414401,0.4995745068684859,-0.5104387062878415,-0.4807722337121595
25.0,-0.016373991935483882,-0.2459791408188586,-0.03377566687344914,-0.16999999999999993,-9.8,-0.18999999999999995,-0.02098082738833747,-0.0016700915012406946,-0.012615345843672458,86.75,-0.9375,91.125,0.5086669900000009,0.49957274999999957,-0.5104370100000002,-0.4807739300000007
26.0,-0.016065402003910077,-0.24618078191969323,-0.03453423189713513,-0.16999999999999993,-9.799999999999999,-0.18999999999999995,-0.021525188101548992,0.006779850693661178,-0.005409388158884127,86.75,-0.9375,91.125,0.5086669900000009,0.49957274999999957,-0.5104370100000002,-0.4807739300000007
27.0,-0.015357756671189516,-0.24761415570467088,-0.034286555043415906,-0.16999999999999993,-9.799999999999997,-0.18999999999999995,-0.019372753309922303,0.007984047728871993,-0.014583775236158482,86.75,-0.9375,91.125,0.5086669900000009,0.49957274999999957,-0.5104370100000002,-0.4807739300000007
28.0,-0.015319152040384598,-0.24636170601986684,-0.03462338880827086,-0.16999999999999993,-9.799999999999997,-0.18999999999999995,0.007450720119232396,0.011044245836012807,-0.006927198543712747,86.75,-0.9375,91.125,0.5086669900000009,0.49957274999999957,-0.5104370100000002,-0.4807739300000007
29.0,-0.013920121925899497,-0.24663246591315927,-0.033850155942596966,-0.16999999999999993,-9.799999999999997,-0.19539950372208453,-0.033014714382071146,0.004110832595425758,0.01860525928893767,86.75,-0.9375,91.14236972704714,0.5085535844615392,0.4996701637965263,-0.5105344237965261,-0.48067651374193615
30.0,-0.014543187513818239,-0.2456164810955375,-0.03177619459660866,-0.16999999999999993,-9.799999999999999,-0.20302233250620372,-0.027099788952822175,-0.006288256158862804,0.005099776046453948,86.75,-0.9375,91.1659429280397,0.508389776263028,0.49981046851116673,-0.5106747285111661,-0.4805362050967748
31.0,-0.015404536083399837,-0.24431850447738754,-0.02717108850065038,-0.16999999999999993,-9.799999999999999,-0.20683374689826328,0.003877402688789302,-0.013453878812569231,-0.0020016760041435045,86.75,-0.9375,91.17772952853598,0.5083078721637723,0.4998806208684869,-0.5107448808684862,-0.48046605077419413
32.0,-0.015740800418219784,-0.24471834616995916,-0.023850807794356194,-0.16999999999999993,-9.8,-0.20873945409429312,-0.019822930205994724,0.005923422455680519,-0.009841284387655354,86.75,-0.9375,91.18362282878411,0.5082669201141444,0.499915697047147,-0.5107799570471462,-0.48043097361290377
33.0,-0.016447718658956962,-0.2451897157646378,-0.022934611477665602,-0.16999999999999993,-9.8,-0.20969230769230798,0.006233826260166008,0.0006514402033392665,0.008591659543630148,86.75,-0.9375,91.18656947890818,0.5082464440893305,0.499933235136477,-0.5107974951364762,-0.48041343503225864
34.0,-0.017676993084381233,-0.24614604654797168,-0.02225534704196256,-0.16999999999999993,-9.8,-0.2100000000000003,-0.006125762768420157,0.0045345770615671755,-0.000548883267486935,86.75,-0.9375,91.1875,0.5082397500000004,0.4999389600000006,-0.5108032199999998,-0.48040771000000054
35.0,-0.015918541367292677,-0.24666143278331107,-0.022550550331995455,-0.16999999999999993,-9.8,-0.2100000000000003,-0.022492762117420677,0.00305122753662686,-0.010540690733239185,86.75,-0.9375,91.19218262226848,0.508232128522373,0.499947598335068,-0.510815414630593,-0.4803990724141525
36.0,-0.016463174933518336,-0.24622962192160947,-0.019752737723601418,-0.16999999999999993,-9.8,-0.2100000000000003,-0.05786486464165965,0.0013286011595064662,-0.014857208925887384,86.75,-0.9375,91.22209937565036,0.5081729353902191,0.5000062881997918,-0.5109038257023936,-0.4803403873361089
37.0,-0.015346282807260966,-0.245242307120559,-0.018959830203326568,-0.16999999999999993,-9.8,-0.2100000000000003,0.007085872850701159,0.00794476652957402,-0.014309044811125975,86.75,-0.9375,91.23705775234131,0.5081433388241421,0.5000356331321536,-0.5109480312382939,-0.48031104479708714
38.0,-0.01642964504567003,-0.24648171547495173,-0.019037667442974422,-0.16999999999999993,-9.8,-0.2100000000000003,0.007054903126703337,-0.006547257734172406,-0.020682097847810645,86.75,-0.9375,91.24453694068677,0.5081285405411037,0.5000503055983345,-0.510970134006244,-0.48029637352757626
39.0,-0.016012309115326813,-0.245111505300111,-0.017264291177662674,-0.16999999999999993,-9.8,-0.2100000000000003,0.0048451894965942845,0.005033022857879779,-0.01567003315507478,86.75,-0.9375,91.24827653485951,0.5081211413995844,0.500057641831425,-0.5109811853902191,-0.4802890378928208
40.0,-0.015519161841742497,-0.24517833644849782,-0.017487898749995533,-0.16999999999999993,-9.799999999999999,-0.21000000000000033,-0.012599832962736188,0.0015227352172916694,-0.002133490389538777,86.75,-0.9375,91.25,0.5081176800000007,0.5000610399999994,-0.5109863300000006,-0.48028564000000085
41.0,-0.01647880076912336,-0.24632886938330495,-0.017538810427923338,-0.16999999999999993,-9.799999999999997,-0.21000000000000035,-0.014146236827688442,0.013485091017853114,0.02367520192620999,86.75,-0.9375,91.25,0.5081176800000006,0.5000610399999994,-0.5109638949657871,-0.48028564000000085
42.0,-0.016298330701556514,-0.24637976774569526,-0.021065406703511553,-0.16999999999999993,-9.799999999999997,-0.21000000000000035,-0.0028008449883449886,0.006502530147943454,0.018415476492593428,86.75,-0.9375,91.25,0.5081176800000006,0.5000610399999994,-0.5109436079667644,-0.48028564000000085
43.0,-0.015999849612752845,-0.2468200616587714,-0.022578539739830074,-0.16999999999999993,-9.799999999999997,-0.21000000000000035,0.0033611549740582,0.013357207308820212,-0.0026016993758929234,86.75,-0.9375,91.25,0.5081176800000006,0.5000610399999994,-0.510933464467253,-0.48028564000000085
44.0,-0.016401909918038957,-0.24541251221896393,-0.022391006842619757,-0.16999999999999993,-9.799999999999997,-0.21000000000000033,-0.002816941123392736,-0.000532934807128356,-0.01552231370779758,86.75,-0.9375,91.25,0.5081176800000007,0.5000610399999994,-0.5109283927174972,-0.48028564000000085
45.0,-0.015459019475148515,-0.244636852394917,-0.0251006842619746,-0.16999999999999993,-9.799999999999999,-0.2100000000000003,-0.05485116362132491,-0.006284307090758704,-0.02103400631626438,86.75,-0.9375,91.25,0.5081314619354845,0.5000536561290316,-0.5109189663587484,-0.4802930238709686
46.0,-0.014084418269902147,-0.24547569008052886,-0.024391798165991727,-0.16999999999999993,-9.799999999999999,-0.2100000000000003,-0.06348970809656293,-0.006099433720401462,-0.010768655627526595,86.75,-0.9375,91.25,0.5081245709677426,0.5000573480645154,-0.5109218447580641,-0.48028933193548473
47.0,-0.013992588504685285,-0.24558451449983712,-0.021469627147046512,-0.16999999999999993,-9.8,-0.2100000000000003,-0.02628050432989949,0.005142807461355849,-0.015311508607879575,86.75,-0.9375,91.25,0.5081211254838716,0.5000591940322574,-0.510923567379032,-0.4802874859677428
48.0,-0.014852738882980825,-0.24619774065540198,-0.020671274961597555,-0.16999999999999993,-9.8,-0.2100000000000003,-0.019949415224112803,0.011994552266729686,0.005526907568238213,86.75,-0.9375,91.25,0.5081194027419361,0.5000601170161284,-0.5109244286895158,-0.4802865629838718
49.0,-0.01485687083973375,-0.24516441052227347,-0.020221454173067088,-0.16999999999999993,-9.8,-0.2100000000000003,-0.0011305723566308254,-0.004026257680491552,-0.0029311875960061438,86.75,-0.9375,91.25,0.5081185413709683,0.5000605785080638,-0.5109248593447577,-0.4802861014919363
50.0,-0.014774705581157201,-0.24566436251920126,-0.022973630312340003,-0.16999999999999993,-9.8,-0.2100000000000003,-0.045250896057347674,0.0017041090629800301,0.0029761904761904765,86.75,-0.9375,91.25,0.5081176800000007,0.5000610399999994,-0.5109252899999996,-0.48028564000000085
51.0,-0.015993875300326924,-0.2470970203631494,-0.025559523809523824,-0.16999999999999993,-9.8,-0.20944416873449156,-0.006104759935405095,-0.0025418857576115644,0.0004795383827641893,86.75,-0.9375,91.2455334987593,0.5081399732803975,0.5000435919801485,-0.5109088121439203,-0.48030599549379727
52.0,-0.015473876481941005,-0.24631490507700188,-0.030978903265193605,-0.16999999999999993,-9.8,-0.20606947890818883,0.0032232216708023157,0.00045815239867659204,-0.0292328862893379,86.75,-0.9375,91.21550868486352,0.5082722801786606,0.4999355120992555,-0.5108002523424314,-0.4804155292704717
53.0,-0.016398438031502555,-0.24601901749684013,-0.03471721311842281,-0.16999999999999993,-9.799999999999999,-0.20287344913151362,0.013061070873570875,0.024362984405827147,-0.015993985852856822,86.75,-0.9375,91.20049627791563,0.5083209878312658,0.4998722631464024,-0.5107367634292803,-0.48047659753846134
54.0,-0.014390325400406053,-0.24627793208135956,-0.03482518657417852,-0.16999999999999993,-9.799999999999999,-0.20127543424317607,-0.012600042766373413,0.01051640102169336,-0.02170076227535905,86.75,-0.9375,91.19299007444168,0.5083453416575685,0.4998406386699758,-0.5107050189727047,-0.4805071316724561
55.0,-0.012979772915256791,-0.24577772764869543,-0.03560869238288593,-0.16999999999999993,-9.799999999999997,-0.20047642679900726,0.022519550342130986,-0.005604744717647943,-0.009021354989096925,86.75,-0.9375,91.18923697270472,0.5083575185707199,0.4998248264317625,-0.510689146744417,-0.48052239873945357
56.0,-0.012079554853748408,-0.24502022708474328,-0.036199263102488916,-0.16999999999999993,-9.799999999999997,-0.20009429280397,0.01468907436649372,-0.011491465523723588,0.0116493721332431,86.75,-0.9375,91.1875,0.5083629103622831,0.4998174655632762,-0.5106817255632756,-0.4805293961637711
57.0,-0.011992631024889094,-0.24575577111060987,-0.035546281675313936,-0.16999999999999993,-9.799999999999997,-0.1999999999999998,-0.0216411948266787,-0.004318933754417625,-0.0021777953229566134,86.75,-0.9375,91.1875,0.5083618200000002,0.49981689000000085,-0.51068115,-0.4805297899999994
58.0,-0.011927400556432821,-0.24528502143018277,-0.036355741033160395,-0.16999999999999993,-9.799999999999999,-0.1999999999999998,0.003445042860365439,0.00312523498007369,-0.001058350251898639,86.75,-0.9375,91.1875,0.5083618200000002,0.49981689000000085,-0.51068115,-0.4805297899999994
59.0,-0.01269819159335289,-0.24544151815926013,-0.03496074892849087,-0.16999999999999993,-9.799999999999999,-0.1999999999999998,-0.009280890480487256,0.00414481351981352,-0.006647351304609368,86.75,-0.9375,91.1875,0.5083618200000002,0.49981689000000085,-0.5106811499999999,-0.4805297899999994
60.0,-0.012633017967695392,-0.245092983629274,-0.035659632482213134,-0.16999999999999993,-9.8,-0.1999999999999998,0.0021847188429849704,-0.002711899435689758,-0.0059449343219504505,86.75,-0.9375,91.1875,0.5083618200000003,0.49981689000000085,-0.5106811499999999,-0.4805297899999994
61.0,-0.01161709549411163,-0.24352400892118645,-0.036031184765055735,-0.16999999999999993,-9.8,-0.1999999999999998,0.01205887946059317,-0.003601184321950451,-0.009524886515813935,86.75,-0.9375,91.1875,0.5083618200000003,0.49981689000000085,-0.5106811499999999,-0.4805297899999994
62.0,-0.011608755863601083,-0.2444881711139191,-0.03443462704193715,-0.16999999999999993,-9.8,-0.1999999999999998,0.0017260298207472371,-0.012252945478833226,0.01060516260137423,86.75,-0.9375,91.1875,0.5083618200000003,0.49981689000000085,-0.5106811499999999,-0.4805297899999994
63.0,-0.011981293254381187,-0.24603692829889506,-0.0344400957790331,-0.16999999999999993,-9.8,-0.1999999999999998,0.0034304292248897475,-0.008835646126513387,0.011855000655525824,86.75,-0.9375,91.1875,0.5083618200000003,0.49981689000000085,-0.5106811499999999,-0.4805297899999994
64.0,-0.01249178269989925,-0.24661437428769636,-0.035766794881324025,-0.16999999999999993,-9.8,-0.1999999999999998,0.0148783070503609,-0.002960479793287415,0.008180394512990767,86.75,-0.9375,91.1875,0.5083618200000003,0.49981689000000085,-0.5106811499999999,-0.4805297899999994
65.0,-0.012024181160497504,-0.24634354147052512,-0.03671340256098972,-0.16999999999999993,-9.8,-0.1999999999999998,0.006175072624002774,0.005336196355276414,-0.009142649645706356,86.75,-0.9375,91.1875,0.5083618200000003,0.49981689000000085,-0.5106811499999999,-0.4805297899999994
66.0,-0.012431290332109797,-0.24512412030101943,-0.03674717119364622,-0.16999999999999993,-9.8,-0.1999999999999998,-0.00023665335921449352,0.011679855699350365,-0.004878590641711739,86.75,-0.9375,91.1875,0.5083618200000003,0.49981689000000085,-0.5106811499999999,-0.4805297899999994
67.0,-0.013286404791445121,-0.2458607073929655,-0.0354235335676868,-0.16999999999999993,-9.8,-0.1999999999999998,0.03230232888751034,0.006669142209716806,-0.01248742227194848,86.75,-0.9375,91.1875,0.5083618200000003,0.49981689000000085,-0.5106811499999999,-0.4805297899999994
68.0,-0.01301302460979881,-0.24554643385288555,-0.03123105747299297,-0.16999999999999993,-9.799999999999999,-0.19999999999999976,0.017034175501917437,0.016609807083597408,-0.0059597156875382685,86.75,-0.9375,91.1875,0.5083618200000002,0.49981689000000085,-0.5106811500000001,-0.4805297899999994
69.0,-0.01286549382517125,-0.24641167524232044,-0.028782451419548206,-0.16999999999999993,-9.799999999999997,-0.19999999999999976,-0.005079418789096209,0.017054554428546365,-0.009886481685876847,86.75,-0.9375,91.1875,0.5083618200000002,0.49981689000000085,-0.5106811500000001,-0.4805297899999994
70.0,-0.012814769907511849,-0.2461584047672758,-0.02653128994661254,-0.16999999999999993,-9.799999999999997,-0.19999999999999976,-0.02743439356342582,0.009785539561245208,-0.012347351069629295,86.75,-0.9375,91.1875,0.5083618200000002,0.49981689000000085,-0.5106811500000001,-0.4805297899999994
71.0,-0.012692143206256116,-0.24614522238514178,-0.025341214565004905,-0.16999999999999993,-9.799999999999997,-0.19999999999999976,-0.01997800586510264,0.0036360963465298145,0.001661970002443793,86.75,-0.9375,91.1875,0.5083618200000002,0.49981689000000085,-0.5106811500000001,-0.4805297899999994
72.0,-0.013313782991202353,-0.24570381231671562,-0.026041055718475092,-0.16999999999999993,-9.799999999999997,-0.19999999999999976,0.0012218963831867047,-0.010905425219941348,0.005529081133919843,86.75,-0.9375,91.1875,0.5083618200000002,0.49981689000000085,-0.5106811500000001,-0.4805297899999994
73.0,-0.012565756823821345,-0.24554552973907817,-0.025602977667493813,-0.16999999999999993,-9.799999999999997,-0.1999999999999998,0.006535735769606737,-0.001894879314234153,0.018630160162418228,86.75,-0.9375,91.1875,0.5083618200000002,0.49981689000000085,-0.5106811500000001,-0.4805297899999994
74.0,-0.012959320249642836,-0.24633092713737875,-0.0255874125874126,-0.16999999999999993,-9.799999999999997,-0.19999999999999976,-0.001207327618617941,-0.007576227535904955,-0.002201293330325588,86.75,-0.9375,91.1875,0.5083618200000002,0.49981689000000085,-0.5106811500000001,-0.4805297899999994
75.0,-0.01272599443567186,-0.24613467177983311,-0.02602440033085196,-0.16999999999999993,-9.799999999999997,-0.1999999999999998,0.0006793273930370703,-0.01542667681780585,-0.00892078351755771,86.75,-0.9375,91.1875,0.5083618200000002,0.49981689000000085,-0.51068115,-0.4805297899999994
76.0,-0.014144033385968879,-0.24619539063087456,-0.028745337995338013,-0.16999999999999993,-9.799999999999999,-0.1999999999999998,0.014651125084592827,0.0013897896458380321,-0.009241061357996842,86.75,-0.9375,91.1875,0.5083618200000002,0.49981689000000085,-0.51068115,-0.4805297899999994
77.0,-0.013702026468155508,-0.24817345289119483,-0.02530864162719003,-0.16999999999999993,-9.8,-0.1999999999999998,-0.007169183303255884,0.0021000756635837278,-0.008286219828558539,86.75,-0.9375,91.1875,0.5083618200000002,0.49981689000000085,-0.5106811499999999,-0.4805297899999994
78.0,-0.011985087045570922,-0.24744073802541544,-0.02732161767444027,-0.16999999999999993,-9.8,-0.1999999999999998,0.0059579267618582125,-0.001634195497602756,-0.015904108772052318,86.75,-0.9375,91.1875,0.5083618200000003,0.49981689000000085,-0.5106811499999999,-0.4805297899999994
79.0,-0.012413434459805434,-0.24696444572452636,-0.026110071044546865,-0.16999999999999993,-9.8,-0.1999999999999998,0.08608100918458782,0.012694312435995902,0.026208677355350745,86.75,-0.9375,91.1875,0.5083663199078343,0.49981689000000085,-0.5106811499999999,-0.4805297899999994
80.0,-0.011330245135688689,-0.2477284946236559,-0.02835877496159756,-0.16999999999999993,-9.8,-0.1999999999999998,0.09627616167434716,0.01643805203533026,0.028717337909626217,86.75,-0.9375,91.1875,0.5083955693087556,0.49981689000000085,-0.5106811499999999,-0.4805297899999994
81.0,-0.012543122759856636,-0.24810547875064004,-0.030470030081925257,-0.16999999999999993,-9.8,-0.1999999999999998,0.09480406746031746,0.015103966653865847,0.011940264176907321,86.75,-0.9375,91.1875,0.5084101940092163,0.49981689000000085,-0.5106811499999999,-0.4805297899999994
82.0,-0.012365591397849467,-0.24618535586277526,-0.028643113159242208,-0.16999999999999993,-9.8,-0.1999999999999998,0.04272273425499231,0.003936251920122888,0.0004480286738351262,86.75,-0.9375,91.1875,0.5084175063594466,0.49981689000000085,-0.5106811499999999,-0.4805297899999994
83.0,-0.013471582181259607,-0.24568868407578093,-0.029580133128520245,-0.16999999999999993,-9.8,-0.1999999999999998,0.004160266257040447,-0.001024065540194572,-0.010688684075780847,86.75,-0.9375,91.1875,0.5084211625345617,0.49981689000000085,-0.5106811499999999,-0.4805297899999994
84.0,-0.012836661546338972,-0.2457706093189965,-0.03183819764464928,-0.16999999999999993,-9.8,-0.1999999999999998,-0.011264720942140299,0.008800563236047106,-0.008960573476702507,86.75,-0.9375,91.1875,0.5084228499999995,0.49981689000000085,-0.5106811499999999,-0.4805297899999994
85.0,-0.011171274961597547,-0.2457334869431644,-0.03252432155657964,-0.16999999999999993,-9.8,-0.1999999999999998,-0.009312596006144393,-0.001448092677931388,-0.031169994879672296,86.75,-0.9375,91.1875,0.5084228499999995,0.49981689000000085,-0.5106811499999999,-0.4805297899999994
86.0,-0.01385918114143921,-0.24590723344755608,-0.033285714285714293,-0.16999999999999993,-9.8,-0.1999999999999998,-0.026475786758044823,-0.023776844794989958,-0.0160012702351412,86.75,-0.9375,91.1875,0.5084228499999995,0.49981689000000085,-0.5106811499999999,-0.4805297899999994
87.0,-0.014752309070857464,-0.24716977332703144,-0.03828719130332034,-0.16999999999999993,-9.8,-0.1999999999999998,-0.019529496041592816,-0.02319080728858955,-0.013283680924809957,86.75,-0.9375,91.1875,0.5084228499999995,0.49981689000000085,-0.5106811499999999,-0.4805297899999994
88.0,-0.014415906897761743,-0.2451426299954526,-0.03530893568796796,-0.16999999999999993,-9.799999999999999,-0.20062561094819142,-0.04638236427550944,-0.00661181196715471,-0.004823542273139046,86.75,-0.9375,91.18994379276637,0.5084090084359723,0.49982930024438,-0.5106935600097752,-0.4805173796774188
89.0,-0.013096521362003434,-0.2462512639472949,-0.02712359685331521,-0.16999999999999993,-9.799999999999997,-0.21063538611925714,-0.06811274368485791,-0.004091389090317083,-0.012923966305120011,86.75,-0.9375,91.22097996089931,0.5082269176050827,0.5000121118963841,-0.5108763666177905,-0.4803345680645155
90.0,-0.013745459483543266,-0.24592583664129167,-0.022020681613363374,-0.16999999999999993,-9.799999999999997,-0.21564027370479,-0.015420542785732964,-0.018490224267788062,-0.02568203141746714,86.75,-0.9375,91.23649804496578,0.5081358721896378,0.500103517722386,-0.5109677699217982,-0.48024316225806385
91.0,-0.013386229241790153,-0.246715371933475,-0.02240225221737019,-0.16999999999999993,-9.799999999999997,-0.21814271749755643,-0.013333442756890038,-0.026827331310961544,-0.020528925415781458,86.75,-0.9375,91.24425708699901,0.5080903494819156,0.500149220635387,-0.511013471573802,-0.48019745935483804
92.0,-0.014106228388847557,-0.2467427525130944,-0.022006900978976097,-0.16999999999999993,-9.799999999999997,-0.2193939393939396,-0.03921193154462292,-0.009146897477422271,-0.0008074546621730048,86.75,-0.9375,91.24813660801564,0.5080675881280543,0.5001720720918874,-0.5110363223998039,-0.48017460790322514
93.0,-0.014411374213974124,-0.24660451408645925,-0.02119651011803155,-0.16999999999999993,-9.799999999999997,-0.22000000000000025,-0.010136268802614493,-0.0008161173604120161,0.01910079368553129,86.75,-0.9375,91.25,0.5080566399999995,0.5001831100000009,-0.5110473599999994,-0.4801635699999993
94.0,-0.014558933283054621,-0.24477238777912824,-0.02044907539900319,-0.16999999999999993,-9.799999999999997,-0.21849131513647657,0.05788462660754428,0.0030809324682699746,0.01335534851122237,86.75,-0.9375,91.24305210918114,0.5080891114243171,0.5001496688089337,-0.5110139196823815,-0.48019798048138895
95.0,-0.015307814637617247,-0.24698063708078152,-0.03066806728819247,-0.16999999999999993,-9.799999999999999,-0.20892307692307688,0.013473575052775825,0.01496299800344095,-0.013043498388948556,86.75,-0.9375,91.21228287841191,0.5082958148684864,0.49994344985111716,-0.510807705449131,-0.4804240715583119
96.0,-0.015143036175294248,-0.24607348565413084,-0.0334760042824559,-0.16999999999999993,-9.799999999999999,-0.20413895781637703,0.013076775375162473,0.023926252958511023,-0.006281017369727047,86.75,-0.9375,91.19888337468983,0.5083967435632758,0.4998427637965265,-0.5107070217568234,-0.4805458414243168
97.0,-0.01499331671912318,-0.24591064312032057,-0.03621747428199042,-0.16999999999999993,-9.8,-0.2017468982630271,0.020162532360113006,0.015369162647388454,0.012194290924129634,86.75,-0.9375,91.19218362282878,0.5084472079106704,0.4997924207692311,-0.5106566799106695,-0.48060672635731927
98.0,-0.01435638465477176,-0.24656235968332746,-0.03680619559651818,-0.16999999999999993,-9.8,-0.20055086848635217,-0.004795322285241639,0.01361077878214975,0.011534584367245658,86.75,-0.9375,91.18883374689827,0.5084724400843679,0.4997672492555834,-0.5106315089875926,-0.48063716882382046
99.0,-0.013474718381976454,-0.2479089714049392,-0.039295157351608975,-0.16999999999999993,-9.8,-0.1999999999999998,-0.008352996130213872,0.010225054403481823,0.0031385700992555827,86.75,-0.9375,91.18737593052109,0.5084840414392066,0.49975570853598045,-0.5106199685359797,-0.4806513147295277
100.0,-0.013656714029697908,-0.2472758256528418,-0.036499935995903746,-0.16999999999999993,-9.8,-0.1999999999999998,-0.016312043970814132,0.013277849782386072,-0.0028351814516129033,86.75,-0.9375,91.1875,0.5084838900000006,0.4997558600000003,-0.5106201199999996,-0.48065185999999915
101.0,-0.014490927419354847,-0.24677923387096778,-0.03726814516129033,-0.16999999999999993,-9.8,-0.1999999999999998,-0.026997227822580645,0.004630796370967742,-0.01452242943548387,86.75,-0.9375,91.1875,0.5084838900000006,0.4997558600000003,-0.5106201199999996,-0.48065185999999915
102.0,-0.015264112903225815,-0.2470283808933003,-0.03881808312655087,-0.16999999999999993,-9.8,-0.1999999999999998,0.0019885041873449125,-0.004246471774193549,-0.002290438895781637,86.75,-0.9375,91.1875,0.5084838900000006,0.4997558600000003,-0.5106201199999996,-0.48065185999999915
103.0,-0.015555443548387105,-0.24630148883374695,-0.03808847704714641,-0.16999999999999993,-9.8,-0.1999999999999998,0.015059902295285359,0.0027280745967741935,-0.00939874767369727,86.75,-0.9375,91.1875,0.5084838900000006,0.4997558600000003,-0.5106201199999996,-0.48065185999999915
104.0,-0.014799395161290328,-0.24562492245657574,-0.03148317307692308,-0.16999999999999993,-9.8,-0.20349379652605465,-0.06231922689205954,0.024082564361042186,0.004312383684863524,86.75,-0.9375,91.20883995037221,0.5083573974937972,0.49986151423325037,-0.5107451583722086,-0.4805248794739454
105.0,-0.014995540078201376,-0.2455193435596662,-0.025986500394766535,-0.16999999999999993,-9.799999999999999,-0.20690818858560817,0.016154982869952633,0.00590841240412813,-0.00452891782276863,86.75,-0.9375,91.23042803970223,0.5082316321339957,0.4999661993746894,-0.5108716507990079,-0.4803993529627796
106.0,-0.014210716031280556,-0.24617792691179793,-0.024580264493570956,-0.16999999999999993,-9.799999999999997,-0.2086153846153849,0.08050778606474171,-0.0013973677532145264,-0.003809966914805624,86.75,-0.9375,91.22802560342882,0.5082088417317093,0.4999794020040602,-0.5108819163672456,-0.4803757295703439
107.0,-0.01412002077223852,-0.24727341341454245,-0.02868790651552749,-0.16999999999999993,-9.799999999999997,-0.19453252124219883,0.26556406672964133,-0.008317207825776374,-0.017715852695691404,86.75,-0.9375,91.14324667268215,0.5085916981825702,0.49962850146146304,-0.5104951830321076,-0.4807357385583879
108.0,-0.013921798631476055,-0.2465958342732536,-0.033291976840363946,-0.16999999999999993,-9.799999999999997,-0.17271103090457945,0.1582609594706369,-0.01702383637867509,-0.014471012858109632,86.75,-0.9375,91.00897059929318,0.5091955147559967,0.49906596028107353,-0.5098884703625836,-0.4813200194160461
109.0,-0.014164222873900293,-0.24696969696969695,-0.046265884652981426,-0.16655913978494624,-9.799999999999997,-0.1519159335288368,0.17124877810361683,0.0010386119257087007,-0.0114247311827957,86.75,-0.9375,90.8918010752688,0.5097166423264905,0.4985527581622675,-0.5093626020821116,-0.481851439032258
110.0,-0.014423264907135878,-0.24754154447702836,-0.05259042033235581,-0.16311827956989253,-9.799999999999997,-0.14529814271749752,0.039192326490713594,0.00803396871945259,-0.021627565982404694,86.75,-0.9375,90.84949291300097,0.5098956302932552,0.49837806435972654,-0.5091907420918869,-0.4820293517155425
111.0,-0.01318768328445748,-0.2467575757575758,-0.06244003308519436,-0.16139784946236568,-9.799999999999997,-0.14152003910068423,0.09427400556432813,-0.023637115572599444,-0.028618693134822168,86.75,-0.9375,90.8243523949169,0.5100134641984362,0.4982757120772242,-0.5090821245943307,-0.4821328353176931
112.0,-0.013195353034062716,-0.24642055793668705,-0.06967486277163695,-0.16053763440860225,-9.799999999999999,-0.14009775171065492,0.04454705240995563,-0.01951462515978645,-0.027716369651853524,86.75,-0.9375,90.81439393939394,0.5100600607869016,0.49823570786901317,-0.5090400616617794,-0.4821729577223851
113.0,-0.013391420407549447,-0.24690529363110014,-0.07527487029099933,-0.16010752688172053,-9.799999999999999,-0.1398484848484848,0.014407568238213396,-0.02548922851342206,-0.02577167456199714,86.75,-0.9375,90.81228616813294,0.5100704719452593,0.49822780235581676,-0.5090319472580649,-0.4821803852883676
114.0,-0.011460989727118764,-0.2450557748702911,-0.0772520141149173,-0.1600000000000001,-9.8,-0.14002932551319644,-0.011479593435238597,-0.012553329287200255,-0.01020348379219347,86.75,-0.9375,90.81277492668622,0.5100689504496583,0.4982309942815255,-0.5090347214467257,-0.4821767456011731
115.0,-0.011146288747095202,-0.24616692760644382,-0.0785756183780377,-0.1600000000000001,-9.8,-0.13999999999999996,-0.015087304048997597,-0.004969671905155776,0.000522618062940643,86.75,-0.9375,90.8125,0.5100708000000003,0.4982299800000005,-0.5090332000000003,-0.48217772999999997
116.0,-0.012455558525472685,-0.24739876036929895,-0.07777176020158587,-0.1600000000000001,-9.8,-0.13999999999999996,0.0030597859007393344,0.02595909264743812,0.006542826681354258,86.75,-0.9375,90.8125,0.5100708000000003,0.4982299800000005,-0.5090332000000004,-0.48217772999999997
117.0,-0.011175670081594903,-0.2481879382215946,-0.07879398991212855,-0.1600000000000001,-9.8,-0.13999999999999996,0.01009487187825182,-0.0036693961316750096,-0.02906444076937053,86.75,-0.9375,90.8125,0.5100708000000003,0.4982299800000005,-0.5090332000000004,-0.48217772999999997
118.0,-0.011512974249706823,-0.2474983069884215,-0.07981418165601308,-0.1600000000000001,-9.8,-0.13999999999999996,0.012436408833391144,0.004301694663297159,-0.024906884363179886,86.75,-0.9375,90.8125,0.5100708000000003,0.4982299800000005,-0.5090332000000003,-0.48217772999999997
119.0,-0.010925457938985517,-0.24607122210660198,-0.07960243132979863,-0.1600000000000001,-9.8,-0.13999999999999996,-0.008646746940191269,-0.005033612473778967,-0.021750037163668797,86.75,-0.9375,90.8125,0.5100708000000003,0.4982299800000005,-0.5090332000000003,-0.48217772999999997
120.0,-0.012511884115422102,-0.24688806684124065,-0.07965520755114926,-0.1600000000000001,-9.8,-0.13999999999999996,-0.030786359408888027,-0.00554247680288263,-0.010042472991224292,86.75,-0.9375,90.8125,0.5100708000000003,0.4982299800000005,-0.5090332000000003,-0.48217772999999997
121.0,-0.012625388947969596,-0.24775280633345154,-0.0797208239788885,-0.1600000000000001,-9.8,-0.13999999999999996,-0.011829434006853361,-0.0016478593091496319,-0.012147977470558114,86.75,-0.9375,90.8125,0.5100708000000003,0.4982299800000005,-0.5090332000000003,-0.48217772999999997
122.0,-0.012265548071999689,-0.24802087518216553,-0.07788042065461417,-0.1600000000000001,-9.8,-0.13999999999999996,0.05981822836661546,-0.009228898341801567,-0.0020722557012879594,86.75,-0.9375,90.8125,0.5100708000000003,0.4982299800000005,-0.5090332000000003,-0.48217772999999997
123.0,-0.01211866986060535,-0.24827962718285296,-0.08330668614539583,-0.1600000000000001,-9.799999999999999,-0.13311827956989247,0.052656751850300235,-0.012610597288016643,-0.0011888648985423178,86.75,-0.9375,90.7699780058651,0.5102192425415444,0.49807724209188686,-0.508880464672532,-0.4823471757086999
124.0,-0.012696443341604637,-0.24766283179186405,-0.08831070005263553,-0.1600000000000001,-9.799999999999997,-0.126236559139785,0.038538611925708705,0.0007613354387547939,0.0016486201970072937,86.75,-0.9375,90.72672287390029,0.5103655373998044,0.4979330949169111,-0.5087363213685241,-0.4825144734995112
125.0,-0.013004135649296944,-0.24730460936912552,-0.0929188660801564,-0.1600000000000001,-9.799999999999997,-0.12279569892473124,0.020595533498759304,-0.004413865704188285,-0.00556056846379427,86.75,-0.9375,90.70509530791787,0.5104386848289344,0.4978610213294233,-0.5086642497165202,-0.48259812239491684
126.0,-0.011770208286337323,-0.24765801939995494,-0.09639596962177607,-0.1600000000000001,-9.799999999999997,-0.12107526881720439,0.015550041356492968,0.012882547559966914,0.0013469057823896537,86.75,-0.9375,90.69428152492668,0.5104752585434994,0.49782498453567936,-0.5086282138905183,-0.4826399468426197
127.0,-0.011715542521994138,-0.24783968719452593,-0.09748778103616813,-0.1600000000000001,-9.799999999999997,-0.12021505376344097,0.018908846529814272,-0.010386119257086997,-0.004795943304007819,86.75,-0.9375,90.68887463343108,0.5104935454007818,0.49780696613880737,-0.5086101959775173,-0.4826608590664711
128.0,-0.011143619821039178,-0.24727678772840067,-0.0994060455673359,-0.1600000000000001,-9.799999999999997,-0.1200000000000001,0.05191273779983457,-0.009415181592600946,0.004565192871644485,86.75,-0.9375,90.6875,0.5104980499999998,0.49780272999999997,-0.5086059600000002,-0.4826660199999999
129.0,-0.011649522520490266,-0.24642920520339884,-0.0998178810436875,-0.1600000000000001,-9.799999999999999,-0.1200000000000001,0.04625512256560643,-0.005929487179487178,0.00020537258440484277,86.75,-0.9375,90.6875,0.5104980499999997,0.49780273,-0.5086059600000002,-0.4826660199999999
130.0,-0.012303255883901049,-0.2465699300699301,-0.0987481389578164,-0.1600000000000001,-9.799999999999999,-0.1200000000000001,0.007991319836077898,0.01382105797428378,0.018446405744792838,86.75,-0.9375,90.6875,0.5104980499999996,0.49780273,-0.5086059600000002,-0.4826660199999999
131.0,-0.011787014061207612,-0.24686512143770215,-0.09866048199112717,-0.1600000000000001,-9.8,-0.1200000000000001,-0.018349770189487934,0.015005592525753815,0.009101013234077748,86.75,-0.9375,90.6875,0.5104980499999996,0.4978027300000001,-0.5086059600000004,-0.4826660199999999
132.0,-0.01244831105419035,-0.24588368486352363,-0.09869848114944368,-0.1600000000000001,-9.8,-0.1200000000000001,-0.022074267839990395,-0.002888742695909708,0.0036779346434003043,86.75,-0.9375,90.6875,0.5104980499999996,0.4978027300000001,-0.5086059600000004,-0.4826660199999999
133.0,-0.012525033860231575,-0.24684699820788536,-0.09867895029152833,-0.1600000000000001,-9.8,-0.1200000000000001,-0.025187208755553903,0.0068877311373734375,0.017494861606626694,86.75,-0.9375,90.6875,0.5104980499999996,0.4978027300000001,-0.5086059600000004,-0.4826660199999999
134.0,-0.011800711374560232,-0.24660978302611372,-0.09835637222717739,-0.1600000000000001,-9.8,-0.1200000000000001,-0.035768837592702704,-0.006765287817129973,0.013930762536544274,86.75,-0.9375,90.6875,0.5104980499999996,0.4978027300000001,-0.5086059600000004,-0.4826660199999999
135.0,-0.010691182300183344,-0.2463416858678956,-0.09655469821036289,-0.1600000000000001,-9.8,-0.1200000000000001,-0.02497237242538361,-0.011966943303726277,-0.013762945344631088,86.75,-0.9375,90.6875,0.5104980499999996,0.4978027300000001,-0.5086059600000004,-0.4826660199999999
136.0,-0.01057120558941579,-0.2473150281618024,-0.09846388104322548,-0.1600000000000001,-9.8,-0.1200000000000001,0.007152070635746497,-0.029292713443337795,-0.005345374362023685,86.75,-0.9375,90.6875,0.5104980499999996,0.4978027300000001,-0.5086059600000004,-0.4826660199999999
137.0,-0.009283321517192487,-0.24762649671117415,-0.09949096557564299,-0.1600000000000001,-9.8,-0.1200000000000001,-0.004966748641143801,-0.012319803852061917,-0.0006550573082831144,86.75,-0.9375,90.6875,0.5104980499999996,0.4978027300000001,-0.5086059600000004,-0.4826660199999999
138.0,-0.009918316002993425,-0.24718159685296787,-0.09984536856512663,-0.1600000000000001,-9.8,-0.1200000000000001,0.012804988750049234,-0.010386141636141637,0.014064777068809327,86.75,-0.9375,90.6875,0.5104980499999996,0.4978027300000001,-0.5086059600000004,-0.4826660199999999
139.0,-0.010258854720548268,-0.24539409906849424,-0.09963578838276418,-0.1600000000000001,-9.8,-0.1200000000000001,-0.00033762930058292995,-0.022242777383906412,0.01679793660640435,86.75,-0.9375,90.6875,0.5104980499999996,0.4978027300000001,-0.5086059600000004,-0.4826660199999999
140.0,-0.011404939146874633,-0.24498089723896177,-0.09886880144944662,-0.1600000000000001,-9.8,-0.1200000000000001,0.03976968372129663,-0.016824707550514,0.015976899444641382,86.75,-0.9375,90.6875,0.5104980499999996,0.4978027300000001,-0.5086059600000004,-0.4826660199999999
141.0,-0.010377171215880896,-0.2450570719602978,-0.09887344913151366,-0.1600000000000001,-9.8,-0.1200000000000001,0.052047146401985114,-0.0042183622828784115,0.008436724565756823,86.75,-0.9375,90.6875,0.5104980499999996,0.4978027300000001,-0.5086059600000004,-0.4826660199999999
142.0,-0.009900744416873452,-0.24549875930521098,-0.10189081885856079,-0.1600000000000001,-9.8,-0.1200000000000001,0.042183622828784115,0.013213399503722086,0.009615384615384616,86.75,-0.9375,90.6875,0.5104980499999996,0.4978027300000001,-0.5086059600000004,-0.4826660199999999
143.0,-0.010337468982630276,-0.247166253101737,-0.1016575682382134,-0.1600000000000001,-9.8,-0.1200000000000001,0.007227047146401985,-0.0012096774193548383,0.010794044665012407,86.75,-0.9375,90.6875,0.5104980499999996,0.4978027300000001,-0.5086059600000004,-0.4826660199999999
144.0,-0.010723325062034744,-0.24586228287841194,-0.09858064516129031,-0.1600000000000001,-9.8,-0.1200000000000001,0.011910669975186102,0.00044199751861042193,0.00911910669975186,86.75,-0.9375,90.6875,0.5104980499999996,0.4978027300000001,-0.5086059600000004,-0.4826660199999999
145.0,-0.009256932135964395,-0.24490483083225023,-0.09997798259088583,-0.1600000000000001,-9.8,-0.1200000000000001,0.023659852692110756,-0.0077854213438890854,0.015095119933829611,86.75,-0.9375,90.6875,0.5104980499999996,0.4978027300000001,-0.5086059600000004,-0.4826660199999999
146.0,-0.009720316869510418,-0.2442523287644256,-0.102464118318957,-0.1600000000000001,-9.8,-0.1200000000000001,0.025655303477884122,-0.00502533700618378,0.016748641143802433,86.75,-0.9375,90.6875,0.5104980499999996,0.4978027300000001,-0.5086059600000004,-0.4826660199999999
147.0,-0.010115859722714563,-0.24358596980976022,-0.10107321083933987,-0.1600000000000001,-9.8,-0.1200000000000001,-0.010198068060971285,-0.005553601584347552,0.01178795442908346,86.75,-0.9375,90.6875,0.5104980499999996,0.4978027300000001,-0.5086059600000004,-0.48264801741935515
148.0,-0.010448748719918074,-0.2460870295698925,-0.09986911162314388,-0.1600000000000001,-9.8,-0.12056451612903234,-0.059619815668202764,0.0035197252624167945,0.01778913850486431,86.75,-0.9375,90.69153225806451,0.5104842678225803,0.49781503588709675,-0.5086182653225809,-0.48261370112903257
149.0,-0.01020673323092678,-0.2451824116743472,-0.09664618535586275,-0.1600000000000001,-9.8,-0.1254435483870968,-0.05822372631848438,0.006864439324116744,0.010304659498207884,86.75,-0.9375,90.72177419354838,0.5103651511693545,0.49793489584677436,-0.508738120403226,-0.48248234830645137
150.0,-0.010533671078025919,-0.24403588660443506,-0.09655571310410019,-0.1600000000000001,-9.8,-0.12788306451612902,0.0015616076351963465,0.02155424100988617,0.004320030328094844,86.75,-0.9375,90.7368951612903,0.5103055928427416,0.49799482582661314,-0.5087980479435484,-0.4824166718951608
151.0,-0.01066129770766868,-0.243150126531175,-0.0966129623065107,-0.1600000000000001,-9.8,-0.12910282258064512,0.019175334913742174,0.01825329128756548,0.00435338630903147,86.75,-0.9375,90.74445564516128,0.5102758136794351,0.49802479081653256,-0.5088280117137097,-0.4823838336895155
152.0,-0.010088364256711035,-0.24465447489338624,-0.09737062489481843,-0.1600000000000001,-9.799999999999999,-0.1297127016129032,0.016645573708325725,0.006762857997737031,0.004997237305705048,86.75,-0.9375,90.74823588709677,0.5102609240977819,0.49803977331149224,-0.5088429935987903,-0.482367977167338
153.0,-0.009014963531092565,-0.24500387784258756,-0.09721964773577677,-0.1600000000000001,-9.799999999999997,-0.12999999999999995,0.015415990819216626,0.008080002434841145,0.028513556336136982,86.75,-0.9375,90.75,0.5102539099999996,0.4980468800000003,-0.5088500999999999,-0.48236083999999924
154.0,-0.00903827355440259,-0.24438784871042943,-0.0982455823746146,-0.1600000000000001,-9.799999999999997,-0.12999999999999995,0.011520603052861116,-0.002962628769080382,0.016652567862245282,86.75,-0.9375,90.75,0.5102539099999996,0.4980468800000003,-0.5088500999999999,-0.48236083999999924
155.0,-0.009428528460786527,-0.24464922174599602,-0.09706594480788028,-0.1600000000000001,-9.799999999999997,-0.12999999999999995,0.0003844274005564332,0.002359199939845101,0.0034542070832393424,86.75,-0.9375,90.75,0.5102539099999996,0.4980468800000003,-0.5088500999999999,-0.48236083999999924
156.0,-0.009154447702834802,-0.24432062561094825,-0.09819159335288365,-0.1600000000000001,-9.799999999999997,-0.12999999999999995,-0.017014907135874877,-0.011760752688172043,0.0114247311827957,86.75,-0.9375,90.75,0.5102539099999998,0.4980468800000003,-0.5088500999999999,-0.48236083999999924
157.0,-0.0095039100684262,-0.24528836754643213,-0.09775415444770283,-0.1600000000000001,-9.799999999999997,-0.12999999999999995,-0.03189149560117302,-0.003283846529814272,0.003100562072336266,86.75,-0.9375,90.75,0.5102539099999996,0.4980468800000003,-0.5088501,-0.48236083999999924
158.0,-0.009461143695014666,-0.24497556207233634,-0.09722996089931574,-0.1600000000000001,-9.799999999999999,-0.12999999999999995,-0.015609726295210166,0.005261791300097751,-0.0244761119257087,86.75,-0.9375,90.75,0.5102539099999996,0.4980468800000003,-0.5088501,-0.48236083999999924
159.0,-0.009180718475073315,-0.246217008797654,-0.09862964320625611,-0.1600000000000001,-9.799999999999999,-0.12999999999999995,0.03141801075268817,0.005868921065493646,-0.018362811583577714,86.75,-0.9375,90.75,0.5102539099999996,0.4980468800000003,-0.5088501,-0.48236083999999924
160.0,-0.008200073895638413,-0.24647116324535684,-0.10110123411534702,-0.1600000000000001,-9.8,-0.12999999999999995,0.010726141018479728,0.0038210627298328912,-0.00749257043359866,86.75,-0.9375,90.75,0.5102539099999996,0.4980468800000003,-0.5088501,-0.48236083999999924
161.0,-0.007868444225591728,-0.24608567464446765,-0.10106231573014221,-0.1600000000000001,-9.8,-0.12999999999999992,-0.03522064121781213,0.0210381367633335,-0.003011176586269264,86.75,-0.9375,90.75,0.5102539099999996,0.4980468800000003,-0.5088501,-0.48236083999999924
162.0,-0.009519468600829164,-0.2475205948664586,-0.10007452089836974,-0.1600000000000001,-9.8,-0.12999999999999992,-0.035095971948656324,0.02136643196777497,0.006897828557801892,86.75,-0.9375,90.75,0.5102539099999996,0.4980468800000003,-0.5088501,-0.48236083999999924
163.0,-0.008786712026989083,-0.24704362756635787,-0.1009094362684373,-0.1600000000000001,-9.8,-0.12999999999999995,-0.013467474821614388,0.01814319342244355,-0.004468092409527113,86.75,-0.9375,90.75,0.5102539099999996,0.4980468800000003,-0.5088501,-0.48236083999999924
164.0,-0.009083296169664537,-0.24684422641758752,-0.09979931618849411,-0.1600000000000001,-9.8,-0.12999999999999995,0.0058625687527872755,0.007953025122640107,-0.007165361808962226,86.75,-0.9375,90.75,0.5102539099999996,0.4980468800000003,-0.5088501,-0.48236083999999924
165.0,-0.008778719257387314,-0.2458952314883637,-0.10073299142758038,-0.1600000000000001,-9.8,-0.12999999999999995,0.04996629461704904,-0.01369661851906909,-0.027320200105709992,86.75,-0.9375,90.75,0.5102539099999996,0.4980468800000003,-0.5088501,-0.48236083999999924
166.0,-0.01031547825512446,-0.24656624217498313,-0.09817346761805659,-0.1600000000000001,-9.8,-0.12999999999999995,0.017195035966172802,-0.0008812176882546287,-0.016212779553375287,86.75,-0.9375,90.75,0.5102539099999996,0.4980468800000003,-0.5088501,-0.48236083999999924
167.0,-0.009504293197841587,-0.2472690732206862,-0.09926115148292566,-0.1600000000000001,-9.8,-0.12999999999999995,-0.013165919541927605,0.0026918953582260033,0.0065218020107133,86.75,-0.9375,90.75,0.5102539099999996,0.4980468800000003,-0.5088501,-0.48236083999999924
168.0,-0.009626465828078733,-0.24657942326490723,-0.09999598094557774,-0.1600000000000001,-9.799999999999999,-0.12999999999999995,0.020170752466619403,-0.027730822325076357,0.008420503947217658,86.75,-0.9375,90.75,0.5102539099999996,0.4980468800000003,-0.5088501,-0.48236083999999924
169.0,-0.008791215504925185,-0.24723181254229648,-0.10176537004662005,-0.1600000000000001,-9.799999999999999,-0.12999999999999995,0.016601239402398677,-0.03616591531788104,-0.004562740267125348,86.75,-0.9375,90.75,0.5102539099999996,0.4980468800000003,-0.5088501,-0.48236083999999924
170.0,-0.007856781994886836,-0.24861835006391464,-0.10273179609369126,-0.1600000000000001,-9.799999999999997,-0.12999999999999995,0.01954349833634108,-0.022908016462703962,0.0023689956716670428,86.75,-0.9375,90.75,0.5102539099999996,0.4980468800000003,-0.5088500999999999,-0.48236083999999924
171.0,-0.008509662380630126,-0.246539288668321,-0.1028415670351154,-0.1600000000000001,-9.799999999999997,-0.12999999999999995,0.009077750206782465,-0.020945183848409654,0.00712835551545229,86.75,-0.9375,90.75,0.5102539099999996,0.4980468800000003,-0.5088500999999999,-0.48236083999999924
172.0,-0.006537634408602152,-0.24673787502819766,-0.10110301526430557,-0.1600000000000001,-9.799999999999997,-0.12999999999999995,0.00670304158207384,0.0026153282201669317,0.002121400105271073,86.75,-0.9375,90.75,0.5102539099999996,0.4980468800000003,-0.5088500999999999,-0.48236083999999924
173.0,-0.008508308895405674,-0.24655808707421617,-0.10351094067223096,-0.1600000000000001,-9.799999999999997,-0.12999999999999995,0.02108429205203399,0.0046526054590570725,0.0043292728776599745,86.75,-0.9375,90.75,0.5102539099999996,0.4980468800000003,-0.5088500999999999,-0.48236083999999924
174.0,-0.008571772313707801,-0.24640807579517265,-0.10281254229641323,-0.1600000000000001,-9.799999999999997,-0.12999999999999995,0.00635480111286563,-0.0078939205955335,-0.005000375968117903,86.75,-0.9375,90.75,0.5102539099999996,0.4980468800000003,-0.5088501,-0.48236083999999924
175.0,-0.00830250394766524,-0.24534792089630808,-0.10444439431536204,-0.1600000000000001,-9.799999999999999,-0.12999999999999995,0.06977780284231898,-0.006260339123242349,-0.016518159260094745,86.75,-0.9375,90.75,0.5102539099999996,0.4980468800000003,-0.5088501,-0.48236083999999924
176.0,-0.00836942627265208,-0.24657086999022493,-0.10463974734942472,-0.1600000000000001,-9.799999999999999,-0.12999999999999995,0.012090664711632455,0.00311536581697872,-0.001990751184299572,86.75,-0.9375,90.75,0.5102539099999996,0.4980468800000003,-0.5088501,-0.48236083999999924
177.0,-0.008705729754116851,-0.2460762463343109,-0.10555545529739074,-0.1600000000000001,-9.8,-0.12999999999999995,0.020112414467253176,0.0036654541694864278,-0.014573699150312053,86.75,-0.9375,90.75,0.5102539099999996,0.4980468800000003,-0.5088501,-0.48236083999999924
178.0,-0.007410049627791564,-0.24551612903225814,-0.10470099255583123,-0.1600000000000001,-9.8,-0.12999999999999995,-0.004133064516129032,0.009316842431761787,-0.00134537841191067,86.75,-0.9375,90.75,0.5102539099999996,0.4980468800000003,-0.5088501,-0.48236083999999924
179.0,-0.00888616625310174,-0.2456736972704715,-0.10708002481389578,-0.1600000000000001,-9.8,-0.12999999999999995,-0.02626008064516129,0.01045866935483871,0.0035301643920595534,86.75,-0.9375,90.75,0.5102539099999996,0.4980468800000003,-0.5088501,-0.48236083999999924
180.0,-0.008426954094292807,-0.24542617866004968,-0.10779807692307691,-0.1600000000000001,-9.8,-0.12999999999999995,-0.018247906327543424,-0.009814089640198512,0.003711422146401985,86.75,-0.9375,90.75,0.5102539099999996,0.4980468800000003,-0.5088501,-0.48236083999999924
181.0,-0.0077866780397022346,-0.2467019230769231,-0.10954792183622829,-0.1600000000000001,-9.8,-0.12999999999999995,-0.050245231079404463,-0.004589116780397022,-0.010946708281637716,86.75,-0.9375,90.75,0.5102539099999996,0.4980468800000003,-0.5088501,-0.48236083999999924
182.0,-0.007958126550868489,-0.2462776054590571,-0.1079287375930521,-0.1600000000000001,-9.8,-0.12999999999999995,0.027041815291563274,0.02988475108560794,-0.009018300248138957,86.75,-0.9375,90.75,0.5102539099999996,0.4980468800000003,-0.5088501,-0.48236083999999924
183.0,-0.008483715880893302,-0.2468695719602978,-0.11041253101736974,-0.1600000000000001,-9.8,-0.12999999999999995,0.04421913771712159,0.010239609181141439,-0.011646053039702233,86.75,-0.9375,90.75,0.5102539099999996,0.4980468800000003,-0.5088501,-0.48236083999999924
184.0,-0.009706103372434022,-0.24740696433942405,-0.11209550530115048,-0.1600000000000001,-9.799999999999999,-0.12999999999999995,0.030689631269268366,0.006904243270170689,-0.013278474297879539,86.75,-0.9375,90.75,0.5102539099999996,0.4980468800000003,-0.5088501,-0.48236083999999924
185.0,-0.007305168621700879,-0.24588815653432594,-0.10943072552447554,-0.1600000000000001,-9.799999999999997,-0.12999999999999995,0.02423697564196556,0.0034358933237461464,-0.03063565928359275,86.75,-0.9375,90.75,0.5102539099999996,0.4980468800000003,-0.5088500999999999,-0.48236083999999924
186.0,-0.008150537634408605,-0.24594360478231453,-0.11063613805549291,-0.1600000000000001,-9.799999999999997,-0.12999999999999995,0.016847131363260395,0.0031684713136326042,-0.026654259718775847,86.75,-0.9375,90.75,0.5102539099999996,0.4980468800000003,-0.5088500999999999,-0.48236083999999924
187.0,-0.0076192194901872345,-0.24561455748552527,-0.10920460184976315,-0.1600000000000001,-9.799999999999997,-0.12999999999999995,-0.006905594405594405,-0.0023563801789608244,-0.01809064591322656,86.75,-0.9375,90.75,0.5102539099999996,0.4980468800000003,-0.5088500999999999,-0.48236083999999924
188.0,-0.007966764418377324,-0.24612903225806457,-0.11057673509286411,-0.1600000000000001,-9.799999999999997,-0.12999999999999995,-0.06207233626588465,0.016556695992179862,-3.054740957966762e-05,86.75,-0.9375,90.75,0.5102539099999998,0.4980468800000003,-0.5088500999999999,-0.48236083999999924
189.0,-0.006824798857056922,-0.24651063989773675,-0.11070614331904655,-0.1600000000000001,-9.799999999999997,-0.12999999999999995,-0.02234754492819009,-0.027018478832994956,0.01460589142040755,86.75,-0.9375,90.75,0.5102539099999996,0.4980468800000003,-0.5088501,-0.48236083999999924
190.0,-0.008896270396270398,-0.24511993382961128,-0.10814632679148808,-0.1600000000000001,-9.799999999999999,-0.12999999999999995,-0.020017247537408828,-0.006941546356868935,-0.005053481464771786,86.75,-0.9375,90.75,0.5102539099999996,0.4980468800000003,-0.5088501,-0.48236083999999924
191.0,-0.008671197082487408,-0.24540018046469664,-0.10872622001654261,-0.1600000000000001,-9.799999999999999,-0.12999999999999995,-0.026492710918114143,-0.005005428039702232,-0.01109317429881946,86.75,-0.9375,90.75,0.5102539099999996,0.4980468800000003,-0.5088501,-0.48236083999999924
192.0,-0.00921818011737367,-0.24613734294379463,-0.10710586008973105,-0.1600000000000001,-9.8,-0.12999999999999995,-0.0322759369886386,-0.025452546445489995,-0.007954013951997824,86.75,-0.9375,90.75,0.5102539099999996,0.4980468800000003,-0.5088501,-0.48236083999999924
193.0,-0.009390196049470246,-0.24550082712985946,-0.10524415101028005,-0.1600000000000001,-9.8,-0.12999999999999995,0.030723212439442274,-0.01788442152605459,-0.005275999202410493,86.75,-0.9375,90.75,0.5102539099999996,0.4980468800000003,-0.5088501,-0.48236083999999924
194.0,-0.008942843111189886,-0.2462434617353973,-0.10277359781795267,-0.1600000000000001,-9.8,-0.12999999999999995,0.012010253271593994,-0.02269004447053842,0.018929657651935876,86.75,-0.9375,90.75,0.5102539099999996,0.4980468800000003,-0.5088501,-0.48236083999999924
195.0,-0.007574540155185318,-0.24723943440072477,-0.1049007838040096,-0.1600000000000001,-9.8,-0.12999999999999995,-0.011136220410413959,-0.02383857182244279,0.01601874827681279,86.75,-0.9375,90.75,0.5102539099999996,0.4980468800000003,-0.5088501,-0.48236083999999924
196.0,-0.008229357646631321,-0.24519283814809315,-0.10462993244470871,-0.1600000000000001,-9.8,-0.12999999999999992,-0.009738945873181044,-0.01811625621459128,-0.0062796277026245795,86.75,-0.9375,90.75,0.5102539099999996,0.4980468800000003,-0.5088501,-0.48236083999999924
197.0,-0.005873181044877196,-0.2444010042449169,-0.10438977255834694,-0.1600000000000001,-9.8,-0.12999999999999992,-0.05212823943313017,-0.009898956113836444,-0.011384470541598532,86.75,-0.9375,90.75,0.5102539099999996,0.4980468800000003,-0.5088501,-0.48236083999999924
198.0,-0.00769849528434336,-0.24588969823100942,-0.10508531126637265,-0.1600000000000001,-9.8,-0.12999999999999995,-0.018767652742678755,0.0008268916307417867,-2.7872751598038113e-05,86.75,-0.9375,90.75,0.5102539099999996,0.4980468800000003,-0.5088501,-0.48236083999999924
199.0,-0.006744792957071834,-0.24504418347290358,-0.10466247130138907,-0.1600000000000001,-9.8,-0.13024577572964663,-0.05178654014502089,0.007533901524536279,-0.0012140131807145335,86.75,-0.9375,90.75204813108039,0.5102649098566305,0.4980313772862267,-0.508836598310292,-0.4823808411469531
200.0,-0.006495796376129364,-0.24553668467039957,-0.10117020134449889,-0.1600000000000001,-9.8,-0.13528417818740393,-0.04450246106073369,0.019775975339841104,-0.004831276943659878,86.75,-0.9375,90.78328213005632,0.5101649015412186,0.49813363186892007,-0.5089378523809527,-0.4822763321863798
201.0,-0.006008043869646368,-0.24529695836017382,-0.10196387278463237,-0.1600000000000001,-9.8,-0.1378033794162826,-0.02664118890705779,0.0005064840278810098,-0.011032964174223277,86.75,-0.9375,90.79889912954428,0.5101148973835128,0.4981847591602668,-0.5089884794162829,-0.4822240777060931
202.0,-0.006914411753121431,-0.24505018413486157,-0.10051727618259876,-0.1600000000000001,-9.8,-0.13906298003072193,-0.002891754303044624,-0.004164481911457718,-0.021137229705778093,86.75,-0.9375,90.80670762928827,0.5100898953046598,0.49821032280594013,-0.5090137929339481,-0.4821979504659498
203.0,-0.005806039838297902,-0.24530077516569457,-0.10423294335592724,-0.1600000000000001,-9.799999999999999,-0.1355481078061723,0.06817457855764307,0.0026293333122970218,0.004895647587179846,86.75,-0.9375,90.78421891728343,0.5101637872271101,0.4981252582162643,-0.5089290820290464,-0.4822970562300425
204.0,-0.007813181442213699,-0.24414529052936318,-0.10001667183622828,-0.1600000000000001,-9.799999999999997,-0.12823069403714568,0.04714557955485374,0.014791892834987594,0.058671058444243925,86.75,-0.9375,90.73967497556207,0.5103268753861192,0.497967223362659,-0.5087697323558165,-0.4824505128739006
205.0,-0.010609303331077527,-0.24533701782088888,-0.09769505695916986,-0.1600000000000001,-9.799999999999997,-0.1289540566959922,-0.007109219325701181,0.004463872401120386,0.01431002213512294,86.75,-0.9375,90.74382942326491,0.5103563499511238,0.4979410894232649,-0.5087439590811341,-0.4824716336950152
206.0,-0.010062410707572002,-0.2468107376494474,-0.09888036694488306,-0.1600000000000001,-9.799999999999997,-0.12931573802541543,0.039597902097902093,0.0025312053537859987,-0.009668020151891119,86.75,-0.9375,90.74590664711633,0.5103710872336261,0.49792802245356793,-0.508731072443793,-0.4824821941055725
207.0,-0.011241446725317697,-0.2459872922776149,-0.1,-0.1600000000000001,-9.799999999999997,-0.12949657869012704,0.016587243401759526,-6.109481915933523e-05,0.002504887585532747,86.75,-0.9375,90.74694525904204,0.5103784558748773,0.4979214889687194,-0.5087246291251224,-0.48248747431085115
208.0,-0.011577261448229195,-0.2458411910669976,-0.10050815850815853,-0.1600000000000001,-9.799999999999997,-0.12971652003910064,-0.011756523046845628,0.010238551770809836,-0.011146984735694414,86.75,-0.9375,90.74828934506354,0.5103794404154443,0.4979101340011276,-0.5087133024534181,-0.4824977568720961
209.0,-0.009664486051582828,-0.24738784871042938,-0.10249503722084366,-0.1600000000000001,-9.799999999999999,-0.12999999999999995,0.022485008271298592,-0.002364839461613655,-0.008338032934807128,86.75,-0.9375,90.75,0.5103759799999994,0.4978877276823817,-0.5086909516079412,-0.4825199883920598
210.0,-0.009297052409955639,-0.24649206707271226,-0.10099825174825175,-0.1600000000000001,-9.799999999999999,-0.12999999999999995,0.01121195672606963,0.015527013309271373,0.0028568877359199936,86.75,-0.9375,90.75,0.5103759799999994,0.4978747644863518,-0.508677986287842,-0.482532953712159
211.0,-0.008593273214240959,-0.24745610661739695,-0.10311828986425761,-0.1600000000000001,-9.8,-0.12999999999999995,-0.011611123531486434,0.006227408344343828,0.010667580627258045,86.75,-0.9375,90.75,0.5103759799999994,0.49786828288833695,-0.5086715036277925,-0.48253943637220853
212.0,-0.009505755445271578,-0.24716774981291112,-0.10170588886919531,-0.1600000000000001,-9.8,-0.12999999999999995,0.04958561963350269,0.00111139420615227,0.0020477618259876324,86.75,-0.9375,90.75,0.5103759799999994,0.49786504208932947,-0.5086682622977676,-0.48254267770223336
213.0,-0.010544834869431648,-0.2453763440860215,-0.09935843894009216,-0.1600000000000001,-9.8,-0.12999999999999995,-0.011003204205069124,0.02173539106502816,0.035190252176139275,86.75,-0.9375,90.75,0.510350476344086,0.4978897694674856,-0.5086929937275991,-0.48251844634408647
214.0,-0.01054963517665131,-0.245611559139785,-0.10041762672811061,-0.1600000000000001,-9.8,-0.12999999999999995,-0.03563328052995392,0.01461643545186892,0.03274759584613415,86.75,-0.9375,90.75,0.5103317236559142,0.49790826908858143,-0.5087114963799286,-0.4824996936559146
215.0,-0.01028993855606759,-0.24509718775847814,-0.10045710740872033,-0.1600000000000001,-9.8,-0.12999999999999995,-0.004881912442396314,0.015225159025562252,0.007732310252471541,86.75,-0.9375,90.75,0.5103223473118284,0.4979175188991294,-0.5087207477060934,-0.4824903173118287
216.0,-0.01017825140809012,-0.2465419374532278,-0.10340221158769547,-0.1600000000000001,-9.8,-0.12999999999999995,0.016913636318878256,0.005179193006813975,0.011534584367245658,86.75,-0.9375,90.75,0.5103176591397853,0.4979221438044034,-0.5087253733691759,-0.48248562913978565
217.0,-0.010716680944503528,-0.24721050947260628,-0.10201360333215172,-0.1600000000000001,-9.8,-0.12999999999999995,0.025587268354405453,-0.00032406689412737806,0.01926280205010044,86.75,-0.9375,90.75,0.5103153150537639,0.4979244562570404,-0.5087276862007171,-0.4824832850537642
218.0,-0.008585840570719606,-0.24664314516129038,-0.10446727667493796,-0.1600000000000001,-9.8,-0.12999999999999995,-0.006417687655086846,0.005617536445409429,0.020982281327543425,86.75,-0.9375,90.75,0.5103149400000004,0.49792479999999995,-0.5087280300000002,-0.48248291000000076
219.0,-0.00897255432739304,-0.24541544477028354,-0.10033160387999099,-0.1600000000000001,-9.799999999999999,-0.12999999999999995,-0.012070456425295134,0.005142303932626513,0.0080635762087375,86.75,-0.9375,90.75,0.5103149400000004,0.49792479999999995,-0.5087280300000002,-0.48248291000000076
220.0,-0.008851041431686595,-0.24628588615685396,-0.10198466050078955,-0.1600000000000001,-9.799999999999999,-0.12999999999999995,-0.025297014813143847,-0.010099443567185503,-0.01059290172193398,86.75,-0.9375,90.75,0.5103149400000004,0.49792479999999995,-0.5087280300000002,-0.48248291000000076
221.0,-0.0072816001203097995,-0.2462694939469134,-0.10486081660275208,-0.1600000000000001,-9.799999999999999,-0.12999999999999995,0.041352733288217154,0.005945935784645462,-0.0149738702158057,86.75,-0.9375,90.75,0.5103149400000004,0.49792479999999995,-0.5087280300000002,-0.48248291000000076
222.0,-0.009508045717723141,-0.24679851868561553,-0.10274306338822467,-0.1600000000000001,-9.8,-0.12999999999999995,0.04024832694187533,0.004074084517632904,-0.017482282502443793,86.75,-0.9375,90.75,0.5103149400000004,0.4979247999999999,-0.5087280300000002,-0.48248291000000076
223.0,-0.009486032784419885,-0.24596377547184003,-0.10465192871644484,-0.1600000000000001,-9.8,-0.12999999999999995,0.02731243890518084,0.005363655162042258,-0.008120793856680953,86.75,-0.9375,90.75,0.5103149400000004,0.4979247999999999,-0.5087280300000002,-0.48248291000000076
224.0,-0.009588941076844305,-0.2457808450510064,-0.10607125132931583,-0.1600000000000001,-9.8,-0.12999999999999995,0.02983470942140297,0.00670172121785025,-0.01987231798219701,86.75,-0.9375,90.75,0.5103149400000004,0.49792479999999983,-0.5087280300000002,-0.48248291000000076
225.0,-0.009404695438969636,-0.24507018541494355,-0.10527246051439598,-0.1600000000000001,-9.8,-0.12999999999999995,0.013458553655126234,-0.013670536452794516,-0.014591226146165662,86.75,-0.9375,90.75,0.5103149400000004,0.49792479999999983,-0.5087280300000002,-0.48248291000000076
226.0,-0.008868167562724016,-0.24620191692268312,-0.10628072196620582,-0.1600000000000001,-9.8,-0.12999999999999995,-0.006241399449564771,-0.015881016385048644,0.005287838421658984,86.75,-0.9375,90.75,0.5103149400000004,0.49792479999999983,-0.5087280300000002,-0.48248291000000076
227.0,-0.009406362007168462,-0.2450470270097287,-0.10590943666548502,-0.1600000000000001,-9.8,-0.12999999999999995,-0.01863907751634566,0.003938659766532751,0.011379912929812124,86.75,-0.9375,90.75,0.5103149400000004,0.4979247999999999,-0.5087280300000002,-0.48248291000000076
228.0,-0.009165852069077877,-0.24595940976586145,-0.10714994682736616,-0.1600000000000001,-9.799999999999999,-0.12999999999999995,-0.035917263739844385,0.0018590728268147623,0.007613488661875759,86.75,-0.9375,90.75,0.5103149400000004,0.49792479999999995,-0.5087280300000002,-0.48248291000000076
229.0,-0.009197039519620167,-0.24680016757436118,-0.10682242488694099,-0.1600000000000001,-9.799999999999997,-0.12999999999999995,-0.003303148464438785,-0.008973642844610587,-0.0015623265623265622,86.75,-0.9375,90.75,0.5103149400000004,0.49792479999999995,-0.5087280300000002,-0.48248291000000076
230.0,-0.008455807820275805,-0.24602459563653598,-0.10850081817823753,-0.1600000000000001,-9.799999999999997,-0.12999999999999995,-0.0059207429814074,-0.016460841490932968,-0.010731889679891606,86.75,-0.9375,90.75,0.5103149400000004,0.49792479999999995,-0.5087280300000002,-0.48248291000000076
231.0,-0.007066427393822676,-0.2468045987073431,-0.11046695240243626,-0.1600000000000001,-9.799999999999997,-0.12999999999999995,-0.02069241543242506,-0.006980886229802937,-0.014058864823188365,86.75,-0.9375,90.75,0.5103149400000004,0.49792479999999995,-0.5087280300000002,-0.48248291000000076
232.0,-0.007162245954975855,-0.24712810580528446,-0.11200146627565982,-0.1600000000000001,-9.799999999999997,-0.12999999999999995,0.0012077625071125336,-0.016967490261303453,-0.019893886505886985,86.75,-0.9375,90.75,0.5103149400000004,0.4979247999999999,-0.5087280300000002,-0.48248291000000076
233.0,-0.008677633993353783,-0.2460744296226964,-0.11213927738927738,-0.1600000000000001,-9.799999999999999,-0.12999999999999995,-0.017429899481837374,-0.000543298480527657,-0.01695592889096139,86.75,-0.9375,90.75,0.5103149400000004,0.49792479999999995,-0.5087280300000002,-0.48248291000000076
234.0,-0.010006437906233288,-0.2457004834423588,-0.11088007019861858,-0.1600000000000001,-9.799999999999999,-0.12999999999999995,0.03279825255857394,-0.0025263389949535834,-0.01495110599926741,86.75,-0.9375,90.75,0.5103149400000004,0.4979247999999999,-0.5087280300000002,-0.48248291000000076
235.0,-0.010788548289783987,-0.24609585030676345,-0.10627770419400231,-0.1600000000000001,-9.8,-0.12999999999999992,-0.010000321590624663,-0.0003516889190991688,-0.025890081553534335,86.75,-0.9375,90.75,0.5102773409989599,0.4979629103017691,-0.5087661371383977,-0.4824453109989594
236.0,-0.010626550828781584,-0.24702199767584138,-0.10498903596331406,-0.1600000000000001,-9.8,-0.12999999999999995,-0.05410221241752525,0.0003056409009680342,-0.013197420565437278,86.75,-0.9375,90.75,0.5102331366285124,0.4980068641831428,-0.5088100874401665,-0.48240110662851154
237.0,-0.009700716210601751,-0.2458503085537425,-0.09982254697551263,-0.1600000000000001,-9.8,-0.12999999999999995,-0.027397628386181976,-0.0066061121212005695,0.01888467065366129,86.75,-0.9375,90.75,0.5102110344432889,0.4980288411238296,-0.508832062591051,-0.48237900444328763
238.0,-0.009605941231851744,-0.24566584906595318,-0.09616685661430718,-0.1600000000000001,-9.8,-0.12999999999999995,-0.03982319384569645,0.012577837239647853,0.01167558594717804,86.75,-0.9375,90.75,0.510199983350677,0.49803982959417303,-0.5088430501664932,-0.48236795335067567
239.0,-0.008653457047057465,-0.24806845960722135,-0.09551046363741472,-0.1600000000000001,-9.8,-0.12999999999999995,-0.08573980992848058,0.011913278578861305,0.011086128867086204,86.75,-0.9375,90.75,0.510194457804371,0.49804532382934474,-0.5088485439542143,-0.48236242780436966
240.0,-0.00852130172694689,-0.2467454207978402,-0.09553437601824696,-0.1600000000000001,-9.799999999999999,-0.12999999999999995,-0.019557797153563282,-0.007744859307359307,-0.0031580202951170698,86.75,-0.9375,90.75,0.5101928700000005,0.4980468800000003,-0.5088501,-0.48236083999999924
241.0,-0.008238912744961134,-0.24598175010473403,-0.09387131685518782,-0.1600000000000001,-9.799999999999997,-0.12999999999999995,0.020609955400782014,-0.02001746293580971,-0.004006801889866406,86.75,-0.9375,90.75,0.5101928700000005,0.4980468800000003,-0.5088500999999999,-0.48236083999999924
242.0,-0.009452743157380256,-0.24643313172043016,-0.09169477028347994,-0.1600000000000001,-9.799999999999997,-0.12999999999999995,-0.01853177694281525,-0.0014758217253176935,0.020184200879765395,86.75,-0.9375,90.75,0.5101928700000005,0.4980468800000003,-0.5088500999999999,-0.48236083999999924
243.0,-0.0097339320625611,-0.24759634288236243,-0.09233766559431579,-0.1600000000000001,-9.799999999999997,-0.12999999999999995,-0.0681325775813017,0.013201966364110532,0.003770068964196612,86.75,-0.9375,90.75,0.5101928700000005,0.4980468800000003,-0.5088811292152144,-0.48236083999999924
244.0,-0.00951124144672532,-0.24746370785369343,-0.09397659794867304,-0.1600000000000001,-9.799999999999997,-0.12999999999999995,-0.017387403160152318,0.016202893158839236,-0.004137578237843043,86.75,-0.9375,90.75,0.5101928700000005,0.4980468800000003,-0.5088971139624461,-0.48236083999999924
245.0,-0.00938905180840665,-0.24606811981149973,-0.09478888548460043,-0.1600000000000001,-9.799999999999997,-0.12999999999999995,-0.016238911746254067,0.0021752491209640953,-0.006177415707386819,86.75,-0.9375,90.75,0.5101928700000005,0.4980468800000003,-0.508905106336062,-0.48236083999999924
246.0,-0.008535228212647569,-0.2458070879529715,-0.0963231215903339,-0.1600000000000001,-9.799999999999997,-0.12999999999999995,-0.032345666490466676,-0.0038674002534137344,-0.004501173076642504,86.75,-0.9375,90.75,0.5101928700000005,0.4980468800000003,-0.5089091025228699,-0.48236083999999924
247.0,-0.007749154071734719,-0.24684320109356223,-0.10110689503082376,-0.1600000000000001,-9.799999999999999,-0.12999999999999995,0.028897049828681992,-0.0012007972768685333,-0.01190145314483302,86.75,-0.9375,90.75,0.5101928700000005,0.4980468800000003,-0.5089111006162739,-0.48236083999999924
248.0,-0.00879517256936612,-0.24598172794946993,-0.09987254680803068,-0.1600000000000001,-9.799999999999999,-0.12999999999999995,0.005396082412211444,0.015325400406045566,-0.0012886307241145945,86.75,-0.9375,90.75,0.5101928700000006,0.4980468800000003,-0.5089111300000004,-0.48236083999999924
249.0,-0.008925934280772992,-0.2462582149033762,-0.10000714339424016,-0.1600000000000001,-9.8,-0.12999999999999995,0.011312410707571996,0.005341097074968043,-0.015581998646514775,86.75,-0.9375,90.75,0.5101928700000006,0.4980468800000003,-0.5089111300000004,-0.48236083999999924
250.0,-0.009078163771712161,-0.245832506203474,-0.10340942928039701,-0.1600000000000001,-9.8,-0.12999999999999995,-0.007033188585607942,-0.006063895781637718,-0.0016982009925558313,86.75,-0.9375,90.75,0.5101928700000006,0.4980468800000003,-0.5089111300000004,-0.48236083999999924
251.0,-0.007640818858560796,-0.24460111662531026,-0.10408064516129031,-0.1600000000000001,-9.8,-0.12999999999999995,0.0037647332506203467,-0.006893610421836229,0.007261941687344913,86.75,-0.9375,90.75,0.5101928700000006,0.4980468800000003,-0.5089111300000004,-0.48236083999999924
252.0,-0.008311724565756826,-0.2467794665012408,-0.10624131513647642,-0.1600000000000001,-9.8,-0.12999999999999995,-0.03324480459057072,0.02679513027295285,0.0044064050868486354,86.75,-0.9375,90.75,0.5101928700000006,0.4980468800000003,-0.5089111300000004,-0.48236083999999924
253.0,-0.008920130272952857,-0.24632273573201002,-0.10282785359801486,-0.1600000000000001,-9.8,-0.12999999999999995,0.002081071650124066,0.015863446029776674,-0.0033954326923076924,86.75,-0.9375,90.75,0.5101928700000006,0.4980468800000003,-0.5089111300000004,-0.48236083999999924
254.0,-0.008522332506203475,-0.24789919354838713,-0.10300201612903226,-0.1600000000000001,-9.8,-0.12999999999999995,-0.006190873138957817,-0.0034196650124069493,-0.016609801488833748,86.75,-0.9375,90.75,0.5101928700000006,0.4980468800000003,-0.5089111300000004,-0.48236083999999924
255.0,-0.007116616051257362,-0.2480996282545091,-0.10370781521980668,-0.1600000000000001,-9.799999999999999,-0.12999999999999995,0.032454635650068515,0.007717133161734748,-0.0027134411688455994,86.75,-0.9375,90.75,0.5101928700000005,0.4980468800000003,-0.5089111300000004,-0.48236083999999924
256.0,-0.007445771368737185,-0.24712242531982548,-0.10326664893443901,-0.1600000000000001,-9.799999999999997,-0.12999999999999995,0.019932623146393005,0.017669814137074608,-0.013827700545322116,86.75,-0.9375,90.75,0.5101928700000005,0.4980468800000003,-0.5089111300000004,-0.48236083999999924
257.0,-0.006891434997357001,-0.24719196707641583,-0.10404145749932944,-0.1600000000000001,-9.799999999999997,-0.12999999999999995,0.009095047545938253,0.005000095394895588,-0.009336677204996896,86.75,-0.9375,90.75,0.5101928700000005,0.49804688000000025,-0.5089111300000004,-0.48236083999999924
258.0,-0.00688913429693401,-0.24756816189748307,-0.1046112994692677,-0.1600000000000001,-9.799999999999997,-0.12999999999999995,0.016192666264885813,0.00045196137516792306,-0.012317879921394607,86.75,-0.9375,90.75,0.5101928700000005,0.4980468800000003,-0.5089111300000004,-0.48236083999999924
259.0,-0.00799791702439753,-0.24688829931102443,-0.10209721301006809,-0.1600000000000001,-9.799999999999997,-0.12999999999999995,-0.015011607314207216,0.016959851655325896,0.014669223811014855,86.75,-0.9375,90.75,0.5101928700000005,0.4980468800000003,-0.5089111300000004,-0.48236083999999924
260.0,-0.007937331165063474,-0.24597303747448193,-0.10162154824793244,-0.1600000000000001,-9.799999999999999,-0.12999999999999995,0.0055087606182936,0.00315373420513045,0.018746804972430874,86.75,-0.9375,90.75,0.5101928700000005,0.4980468800000003,-0.5089111300000004,-0.48236083999999924
261.0,-0.00761259333936272,-0.24600192626877754,-0.09994508962924949,-0.1600000000000001,-9.799999999999999,-0.12999999999999995,-0.00044000594975558737,0.010877826000298315,-0.0030455741464708707,86.75,-0.9375,90.75,0.5101928700000006,0.4980468800000003,-0.5089111300000004,-0.48236083999999924
262.0,-0.006897866470447117,-0.24575038805280744,-0.10005695379888926,-0.1600000000000001,-9.8,-0.12999999999999995,0.017249294164616742,0.004505121894234797,0.0052088676332627945,86.75,-0.9375,90.75,0.5101928700000006,0.4980468800000003,-0.5089111300000004,-0.48236083999999924
263.0,-0.006832876728428238,-0.24524551534573652,-0.09919861217519904,-0.1600000000000001,-9.8,-0.12999999999999992,-0.013609432790299074,0.010638317576890677,0.02105901080398674,86.75,-0.9375,90.75,0.5101928700000007,0.4980468800000003,-0.5089111300000004,-0.48236083999999924
264.0,-0.007038597567018483,-0.244896852753415,-0.09927656789389358,-0.1600000000000001,-9.8,-0.12999999999999995,0.012869404287035664,0.007879568808532777,0.0006770594608377523,86.75,-0.9375,90.75,0.5101928700000006,0.4980468800000003,-0.5089111300000004,-0.48236083999999924
265.0,-0.008715871364154405,-0.24542977718315911,-0.09768263878565644,-0.1600000000000001,-9.8,-0.12999999999999995,-0.00963132608228862,0.008633584807492194,-0.006072130551839188,86.75,-0.9375,90.75,0.5101928700000006,0.4980468800000003,-0.5089111300000004,-0.48236083999999924
266.0,-0.006417587499793537,-0.24600469913945464,-0.09773788877326857,-0.1600000000000001,-9.8,-0.12999999999999995,-0.025889011735460744,0.005020837462629866,0.004924444196686653,86.75,-0.9375,90.75,0.5101928700000006,0.4980468800000003,-0.5089111300000004,-0.48236083999999924
267.0,-0.006920361751787352,-0.24537428229649877,-0.09830799279342461,-0.1600000000000001,-9.8,-0.12999999999999995,-0.030858267733105137,0.007008922020140803,-0.015611796177287852,86.75,-0.9375,90.75,0.5101928700000006,0.4980468800000003,-0.5089111300000004,-0.48236083999999924
268.0,-0.00708292961518768,-0.24515004037181462,-0.09862157824254597,-0.1600000000000001,-9.8,-0.12999999999999995,0.03289642844834377,0.0027480374128559613,0.004528259039347749,86.75,-0.9375,90.75,0.5101928700000006,0.4980468800000003,-0.5089111300000004,-0.48236083999999924
269.0,-0.006238946537333636,-0.24562883017520118,-0.09838261335438754,-0.1600000000000001,-9.799999999999999,-0.12999999999999995,0.02465383029269118,-0.0036095729707120838,-0.015531918518309646,86.75,-0.9375,90.75,0.5101928700000005,0.4980468800000003,-0.5089111300000004,-0.48236083999999924
270.0,-0.006111544164189205,-0.2455689137635756,-0.09740297013410279,-0.1600000000000001,-9.799999999999997,-0.12999999999999995,-0.013665304325849885,-0.002909472856925613,-0.005651092564402776,86.75,-0.9375,90.75,0.5101928700000005,0.4980468800000003,-0.5089111300000004,-0.48236083999999924
271.0,-0.006193983836737809,-0.2454156580059325,-0.09670353174349322,-0.1600000000000001,-9.799999999999997,-0.12999999999999995,-0.009103661143863358,0.0024238299816056194,0.009157152428697926,86.75,-0.9375,90.75,0.5101928700000005,0.4980468800000003,-0.5089111300000004,-0.48236083999999924
272.0,-0.006575148170718706,-0.24646277298371672,-0.09594489317455135,-0.1600000000000001,-9.799999999999997,-0.12999999999999995,-0.02013805885977287,0.009869990785975379,0.02370971389387374,86.75,-0.9375,90.75,0.5101928700000005,0.4980468800000003,-0.5089111300000004,-0.48236083999999924
273.0,-0.006021213580192877,-0.24592521264644526,-0.09359886783093331,-0.1600000000000001,-9.799999999999997,-0.12999999999999995,0.07654998468070207,-0.017678287448388556,-0.022250824324127158,86.75,-0.9375,90.75,0.5101928700000005,0.49804688000000025,-0.5089111300000004,-0.48236083999999924
274.0,-0.008005719204563692,-0.2472441312499089,-0.09049444857822322,-0.1600000000000001,-9.799999999999997,-0.12999999999999995,0.04337640974015553,-0.020416611954888315,-0.01104904363811441,86.75,-0.9375,90.75,0.5101928700000005,0.4980468800000003,-0.5089111300000004,-0.48236083999999924
275.0,-0.00729125632832903,-0.24700073678528184,-0.08974048379801869,-0.1600000000000001,-9.799999999999997,-0.12999999999999995,0.018483462453130248,-0.007154020950963656,-0.018185511226856917,86.75,-0.9375,90.75,0.5101928700000005,0.4980468800000003,-0.5089111300000004,-0.48236083999999924
276.0,-0.008150891717815169,-0.24667041877236878,-0.08667571599480602,-0.1600000000000001,-9.799999999999999,-0.12999999999999995,-0.01746563398886461,0.004241246536323571,-0.013444821558236338,86.75,-0.9375,90.75,0.5101928700000005,0.4980468800000003,-0.5089111300000004,-0.48236083999999924
277.0,-0.00863277025494166,-0.24813097813356605,-0.0894812038988134,-0.1600000000000001,-9.799999999999999,-0.12999999999999995,-0.009252850276562362,0.0156705813745715,-0.006790778791034568,86.75,-0.9375,90.75,0.5101928700000006,0.4980468800000003,-0.5089111300000004,-0.48236083999999924
278.0,-0.009549894997475643,-0.24655947077116436,-0.0934262061862868,-0.1600000000000001,-9.8,-0.12999999999999995,-0.00637173086769861,0.0065263113902226805,-0.01091073604934492,86.75,-0.9375,90.75,0.5101928700000006,0.4980468800000003,-0.5089111300000004,-0.48236083999999924
279.0,-0.009040064102564103,-0.24584641601677898,-0.09789415322580644,-0.1600000000000001,-9.8,-0.12999999999999995,0.05348176129426129,0.02923136311493166,0.010944954323230532,86.75,-0.9375,90.75,0.5101928700000006,0.4980468800000003,-0.5089111300000004,-0.48236083999999924
280.0,-0.007720636889991731,-0.24692774429871206,-0.09871774193548388,-0.1600000000000001,-9.8,-0.12999999999999995,0.023842695163259677,0.033674401315530345,0.02753963946000236,86.75,-0.9375,90.75,0.5101928700000006,0.4980468800000003,-0.5089111300000004,-0.48236083999999924
281.0,-0.0075278122415219206,-0.24630010043719724,-0.09834646401985109,-0.1600000000000001,-9.8,-0.12999999999999995,-0.0036183546516207806,0.029988565422033164,0.032752450002954035,86.75,-0.9375,90.75,0.5101928700000006,0.4980468800000003,-0.5089111300000004,-0.48236083999999924
282.0,-0.008859912265154205,-0.24581902103273073,-0.09848966826184566,-0.1600000000000001,-9.8,-0.12999999999999995,-0.020426368826066407,0.016074351835440544,0.05365861107418567,86.75,-0.9375,90.75,0.5101928700000006,0.4980468800000003,-0.5089111300000004,-0.48236083999999924
283.0,-0.00934671444147251,-0.2455659132534133,-0.09678775324138228,-0.1600000000000001,-9.799999999999999,-0.12999999999999995,-0.04299150949856595,0.010543972716351747,0.03100714110038707,86.75,-0.9375,90.75,0.5101928700000005,0.4980468800000003,-0.5089111300000004,-0.48236083999999924
284.0,-0.009061162963380706,-0.2453188186141816,-0.09717208765696667,-0.1600000000000001,-9.799999999999999,-0.12999999999999995,-0.05552993293668697,0.022834218033310774,0.05121982562128732,86.75,-0.9375,90.75,0.5101928700000005,0.4980468800000003,-0.5089111300000004,-0.48236083999999924
285.0,-0.01107437119332281,-0.24558073445371842,-0.09664361042183621,-0.1600000000000001,-9.799999999999997,-0.12999999999999995,0.041244495591773817,0.005930985177456951,0.007337311545980902,86.75,-0.9375,90.75,0.5101928700000005,0.4980468800000003,-0.5089111300000004,-0.48236083999999924
286.0,-0.010579369219490192,-0.24598301329047306,-0.09773589649597714,-0.1600000000000001,-9.799999999999997,-0.12999999999999995,0.004516243585043989,0.006456826523610798,0.034848631711030906,86.75,-0.9375,90.75,0.5101928700000005,0.4980468800000003,-0.5089111300000004,-0.48236083999999924
287.0,-0.009969546582449813,-0.2464765019926311,-0.09651101586585457,-0.1600000000000001,-9.799999999999997,-0.12999999999999995,0.009292521994134897,0.01558810812843071,0.027176855402661855,86.75,-0.9375,90.75,0.5101928700000005,0.4980468800000003,-0.5089111300000004,-0.48236083999999924
288.0,-0.008954959019475153,-0.2480757951725694,-0.09174313858184827,-0.1600000000000001,-9.799999999999999,-0.12999999999999995,0.0438829987217084,0.023102300924881573,0.010488570569215731,86.75,-0.9375,90.75,0.5102006249578168,0.49803912504218373,-0.5088946521439209,-0.48236859495781587
289.0,-0.010223137077975793,-0.24798826979472144,-0.092763628844274,-0.1600000000000001,-9.799999999999999,-0.12999999999999995,-0.0037641458004361236,0.019545877509587188,-0.02108946161365516,86.75,-0.9375,90.75,0.5102282519950373,0.4980114980049624,-0.508839887200993,-0.4823962219950372
290.0,-0.00908203355784001,-0.2451277056277057,-0.09292012378302703,-0.1600000000000001,-9.8,-0.12999999999999995,0.03743898910229555,0.011973806883081077,-0.005386582503517986,86.75,-0.9375,90.75,0.5102420655136475,0.4979976844863518,-0.5088125047295291,-0.4824100355136478
291.0,-0.00872176434676435,-0.24549244751664112,-0.09287490153215958,-0.1600000000000001,-9.8,-0.12999999999999995,0.01207034173264012,0.01354520535468116,-0.005734213143487337,86.75,-0.9375,90.75,0.5102489722729526,0.4979907777270465,-0.5087988134937971,-0.4824169422729531
292.0,-0.009043106758832567,-0.24640312241521922,-0.09716729439914923,-0.1600000000000001,-9.8,-0.12999999999999995,0.048332277881169006,0.00024049231458505693,-0.01498505135097877,86.75,-0.9375,90.75,0.5102524256526051,0.4979873243473938,-0.5087919678759312,-0.48242039565260575
293.0,-0.01020921338965694,-0.24607894905273944,-0.09797035010240654,-0.1600000000000001,-9.8,-0.12999999999999995,0.05574206749231951,-0.01674557171658986,-0.02839281714029698,86.75,-0.9375,90.75,0.5102539099999996,0.49798583999999924,-0.5087890600000007,-0.48242188000000036
294.0,-0.007382173382173384,-0.2451367915238884,-0.0964631139469849,-0.1600000000000001,-9.8,-0.12999999999999995,0.03863139548623419,-0.008144275079758952,-0.01837163732325023,86.75,-0.9375,90.75,0.5102539099999996,0.49798583999999924,-0.5087890600000007,-0.48242188000000036
295.0,-0.007848359525778881,-0.24515034069872788,-0.09611831895702863,-0.1600000000000001,-9.8,-0.12999999999999995,0.037374453503485755,-0.013565422033163969,-0.017270274528339045,86.75,-0.9375,90.75,0.5102539099999996,0.49798583999999924,-0.5087890600000007,-0.48242188000000036
296.0,-0.007640200274769365,-0.24463740143663118,-0.09562967861860493,-0.1600000000000001,-9.799999999999999,-0.12999999999999995,0.060798578594678736,-0.014244681119982035,-0.015311624260829847,86.75,-0.9375,90.75,0.5102539099999996,0.4979858399999992,-0.5087890600000006,-0.48242188000000036
297.0,-0.009377750372454275,-0.24587639750181883,-0.09685594157621119,-0.1600000000000001,-9.799999999999997,-0.12999999999999995,0.0574192003898311,-8.770852535898346e-05,-0.010220339896555592,86.75,-0.9375,90.75,0.5102539099999996,0.49798583999999924,-0.5087890600000005,-0.48242188000000036
298.0,-0.010059400718042994,-0.24534591648120782,-0.09735875326727517,-0.1600000000000001,-9.799999999999997,-0.12999999999999995,0.02964056886781971,-0.0014868557056809347,-0.029380814178599446,86.75,-0.9375,90.75,0.5102539099999996,0.49798583999999924,-0.5087890600000005,-0.48242188000000036
299.0,-0.010114067604679068,-0.24538263565995877,-0.10098458755175174,-0.1600000000000001,-9.799999999999997,-0.12999999999999995,0.009547331580311838,-0.011180772765991833,-0.005602317759274908,86.75,-0.9375,90.75,0.5102539099999996,0.49798583999999924,-0.5087890600000006,-0.48242188000000036
300.0,-0.008442100348696403,-0.24409525797585507,-0.10165659184339973,-0.1600000000000001,-9.799999999999997,-0.12999999999999995,0.04424702844900245,0.002035656928531266,-0.00010922715544766553,86.75,-0.9375,90.75,0.5102539099999996,0.49798583999999924,-0.5087890600000006,-0.48242188000000036
301.0,-0.008388525453041583,-0.24523580720354923,-0.1017811865553801,-0.1600000000000001,-9.799999999999997,-0.12999999999999995,0.03272520490262426,0.029035077825400407,0.010081585081585081,86.75,-0.9375,90.75,0.5102539099999996,0.49798583999999924,-0.5087890600000006,-0.48242188000000036
302.0,-0.007241672306188435,-0.245728851793368,-0.10067798330701555,-0.1600000000000001,-9.799999999999999,-0.12999999999999995,0.02001301789608241,0.01682386833596511,0.006644531543725091,86.75,-0.9375,90.75,0.5102539099999996,0.49798583999999924,-0.5087890600000006,-0.48242188000000036
303.0,-0.007379738541028865,-0.24655478571607609,-0.10004550377937473,-0.1600000000000001,-9.8,-0.12999999999999995,0.026842495542092316,0.011033192837628322,0.006149355796533216,86.75,-0.9375,90.75,0.5102539099999996,0.49798583999999924,-0.5087890600000007,-0.48242188000000036
304.0,-0.00582248575796963,-0.2463856287082094,-0.09946172152220537,-0.1600000000000001,-9.8,-0.12999999999999995,0.02791325218240541,0.002770082180364439,0.006891783731501473,86.75,-0.9375,90.75,0.5102539099999996,0.49798583999999924,-0.5087890600000007,-0.48242188000000036
305.0,-0.007213342964123403,-0.24664274025200145,-0.09953015442616119,-0.1600000000000001,-9.8,-0.12999999999999992,0.04704341226721885,0.00011535279200796961,0.005450688794455053,86.75,-0.9375,90.75,0.5102539099999996,0.49798583999999924,-0.5087890600000007,-0.48242188000000036
306.0,-0.006264849898040223,-0.2469425310908952,-0.09956855929419353,-0.1600000000000001,-9.8,-0.12999999999999992,0.033197091562564396,0.01822673631546052,0.012991585295409195,86.75,-0.9375,90.75,0.5102539099999996,0.49798583999999924,-0.5087890600000007,-0.48242188000000036
307.0,-0.008525895292412414,-0.24620084410944348,-0.10112378602066596,-0.1600000000000001,-9.8,-0.12999999999999992,-0.00019253691252633584,-0.01177704140912718,-0.01436311490302381,86.75,-0.9375,90.75,0.5102539099999996,0.49798583999999924,-0.5087890600000007,-0.48242188000000036
308.0,-0.009137499617532375,-0.24478500986834184,-0.10163716182753729,-0.1600000000000001,-9.8,-0.12999999999999995,-0.01342512150285815,0.005808227887346291,0.011187618175728237,86.75,-0.9375,90.75,0.5102539099999996,0.49798583999999924,-0.5087890600000007,-0.48242188000000036
309.0,-0.009658355543533214,-0.2451600420565468,-0.10247244676118286,-0.1600000000000001,-9.8,-0.12999999999999995,0.02509747509086483,0.006072316708650103,0.02543507892913396,86.75,-0.9375,90.75,0.5102539099999996,0.49798583999999924,-0.5087890600000007,-0.48242188000000036
310.0,-0.0110622683024638,-0.24585785661620266,-0.1021285230684166,-0.1600000000000001,-9.8,-0.12999999999999995,0.018028055963746674,0.00861303140323244,-0.010028948568731669,86.75,-0.9375,90.75,0.5102539099999996,0.49798583999999924,-0.5087890600000007,-0.48242188000000036
311.0,-0.009255293122878974,-0.2462269798071047,-0.10265763907153083,-0.1600000000000001,-9.8,-0.12999999999999995,-0.007180852626677288,-0.01068046717272784,-0.004848709324840959,86.75,-0.9375,90.75,0.5102539099999996,0.49798583999999924,-0.5087890600000007,-0.48242188000000036
312.0,-0.008584982669660093,-0.24659824136437042,-0.10327230788924335,-0.1600000000000001,-9.8,-0.12999999999999995,-0.0025738570345425187,0.01069474600220568,-0.008225603361692072,86.75,-0.9375,90.75,0.5102539099999996,0.49798583999999924,-0.5087890600000007,-0.48242188000000036
313.0,-0.008984806188435224,-0.2449632271850014,-0.10402711423880776,-0.1600000000000001,-9.799999999999999,-0.12999999999999995,0.027461093174298817,-0.0072396143842716415,-0.019840353698720635,86.75,-0.9375,90.75,0.5102539099999996,0.49798583999999924,-0.5087890600000006,-0.48242188000000036
314.0,-0.0069117579329272885,-0.24512905575607197,-0.10368278394992102,-0.1600000000000001,-9.799999999999997,-0.12999999999999995,0.023475170243063385,-0.011047191635649297,-0.013476768107564478,86.75,-0.9375,90.75,0.5102539099999996,0.49798583999999924,-0.5087890600000005,-0.48242188000000036
315.0,-0.006671178284081512,-0.24595247762989708,-0.10427520866230541,-0.1600000000000001,-9.799999999999997,-0.12999999999999995,-0.0212215204150688,-0.021081472291149712,-0.014466313256635839,86.75,-0.9375,90.75,0.5102539099999996,0.49798583999999924,-0.5087890600000006,-0.48242188000000036
316.0,-0.00620035341003083,-0.2452888939017972,-0.10305571847507328,-0.1600000000000001,-9.799999999999999,-0.12999999999999995,-0.02473141777577261,0.003517886683209263,-0.01279302015189112,86.75,-0.9375,90.75,0.5102539099999996,0.49798583999999924,-0.5087890600000006,-0.48242188000000036
317.0,-0.007383215206576289,-0.24677836194329433,-0.10521192231285881,-0.1600000000000001,-9.8,-0.12999999999999992,-0.011340634846423087,0.012724584100429575,-0.01608043307282381,86.75,-0.9375,90.75,0.5102539099999996,0.49798583999999924,-0.5087890600000006,-0.48242188000000036
318.0,-0.00563686664532138,-0.24752896591788376,-0.10551407454841377,-0.1600000000000001,-9.8,-0.12999999999999995,-0.018148934236505775,0.011280424992541277,-0.004038505881475444,86.75,-0.9375,90.75,0.5102539099999996,0.49798583999999924,-0.5087890600000007,-0.48242188000000036
319.0,-0.005721659129112303,-0.24650153085728013,-0.10609037060754022,-0.1600000000000001,-9.8,-0.12999999999999995,-0.009410488623629233,-0.007235520641559272,-0.0054558365184503325,86.75,-0.9375,90.75,0.5102539099999996,0.49798583999999924,-0.5087890600000007,-0.48242188000000036
320.0,-0.006705742715920917,-0.24660932622268475,-0.10554890738813734,-0.1600000000000001,-9.8,-0.12999999999999995,0.012447361147242455,0.00039123471644120743,0.006104277770551508,86.75,-0.9375,90.75,0.5102539099999996,0.49798583999999924,-0.5087890600000007,-0.48242188000000036
321.0,-0.005598335067637877,-0.24556776795005208,-0.10726034079084286,-0.1600000000000001,-9.8,-0.12999999999999995,0.03137804045265349,-0.0022457888917793963,0.007761690296566076,86.75,-0.9375,90.75,0.5102539099999996,0.49798583999999924,-0.5087890600000007,-0.48242188000000036
322.0,-0.006075682382133997,-0.24503334367245663,-0.10859499069478906,-0.1600000000000001,-9.8,-0.12999999999999995,0.04940340027915633,-0.007435929745657568,0.0022046564826302727,86.75,-0.9375,90.75,0.5102539099999996,0.49798583999999924,-0.5087890600000007,-0.48242188000000036
323.0,-0.006704326923076925,-0.24595882444168737,-0.10658638337468983,-0.1600000000000001,-9.8,-0.12999999999999995,0.0012426333746898277,-0.022718284739454097,0.006451128256823821,86.75,-0.9375,90.75,0.5102539099999996,0.49798583999999924,-0.5087890600000007,-0.48242188000000036
324.0,-0.007794596868185581,-0.24523724763140092,-0.10381295586134295,-0.1600000000000001,-9.799999999999999,-0.12999999999999995,-0.012575164251071509,-0.018769753012444546,-0.000574247241333935,86.75,-0.9375,90.75,0.5102539099999996,0.49798583999999924,-0.5087890600000006,-0.48242188000000036
325.0,-0.0068236639033010015,-0.24626392256936616,-0.1014348259267614,-0.1600000000000001,-9.799999999999997,-0.12999999999999995,-0.008746648596698998,-0.015360236201970074,-0.00886378616343334,86.75,-0.9375,90.75,0.5102539099999996,0.49798583999999924,-0.5087890600000005,-0.48242188000000036
326.0,-0.006514925934280773,-0.2464732686668171,-0.10176735092864124,-0.1600000000000001,-9.799999999999997,-0.12999999999999995,-0.04137341153470186,0.0037972779908263784,0.00038912700203022794,86.75,-0.9375,90.75,0.5102539099999996,0.49798583999999924,-0.5087890600000006,-0.48242188000000036
327.0,-0.00600932400932401,-0.24530611324159718,-0.10334521392585906,-0.1600000000000001,-9.799999999999999,-0.12999999999999995,-0.023230130084968794,0.008040078201368525,0.004723099481163997,86.75,-0.9375,90.75,0.5102539099999996,0.49798583999999924,-0.5087890600000006,-0.48242188000000036
328.0,-0.006920294759004438,-0.24463816828332963,-0.10232397172719751,-0.1600000000000001,-9.799999999999999,-0.12999999999999995,-0.023471454620648168,0.0010811433190465454,0.005215147755470336,86.75,-0.9375,90.75,0.5102539099999996,0.49798583999999924,-0.5087890600000006,-0.48242188000000036
329.0,-0.006595417127675193,-0.24560470533051182,-0.1046652209797371,-0.1600000000000001,-9.8,-0.12999999999999995,-0.01695569775206872,-0.008431638925590538,-0.005462760805502741,86.75,-0.9375,90.75,0.5102539099999996,0.49798583999999924,-0.5087890600000007,-0.48242188000000036
330.0,-0.004840905510260349,-0.24473318169285918,-0.10332793237228718,-0.1600000000000001,-9.8,-0.12999999999999995,0.006944229046043561,0.0046720220863366016,0.0087929935208161,86.75,-0.9375,90.75,0.510253409928315,0.49798634007168385,-0.5087895600716852,-0.4824213799283158
331.0,-0.006233788222992177,-0.24558975581881415,-0.09937908665360537,-0.1600000000000001,-9.8,-0.12999999999999992,-0.052107510066748484,0.003540185380797373,0.015167528538203613,86.75,-0.9375,90.75,0.5102221554480288,0.49801759455197114,-0.5088208145519717,-0.4823901254480285
332.0,-0.006024442338503213,-0.24564151202451157,-0.10060661688799694,-0.1600000000000001,-9.8,-0.12999999999999992,-0.02496664625245693,0.011989815735303833,-0.0019210584316105917,86.75,-0.9375,90.75,0.5102065282078858,0.4980332217921148,-0.5088364417921148,-0.4823744982078848
333.0,-0.0061014431417529295,-0.2472396316071791,-0.10281896649529408,-0.1600000000000001,-9.8,-0.12999999999999992,-0.009974265005525134,-0.012932381347710326,-0.008987346210781498,86.75,-0.9375,90.75,0.5101987145878142,0.4980410354121866,-0.5088442554121864,-0.48236668458781307
334.0,-0.005979549015832942,-0.24851228892186913,-0.10293790106638744,-0.1600000000000001,-9.8,-0.12999999999999995,0.011573927405071535,-0.02102712257349674,0.0049789331414090456,86.75,-0.9375,90.75,0.5101948077777784,0.4980449422222225,-0.5088481622222223,-0.4823627777777771
335.0,-0.005241300759442723,-0.24720951009171954,-0.10580547422455612,-0.1600000000000001,-9.8,-0.12706203473945407,0.1144880744197755,-0.022696248671048656,0.039358287713719214,86.75,-0.9375,90.73511166253101,0.5102820455831267,0.49794704071464035,-0.5087706170818858,-0.4824718244962777
336.0,-0.005704638018859886,-0.24608134193451742,-0.09804629022929631,-0.1600000000000001,-9.799999999999999,-0.13244108579592445,0.08931930996869329,-0.0021104891386019304,0.028624115162002604,86.75,-0.9375,90.76797127603578,0.5101692056703513,0.4980618713250625,-0.5088805197921649,-0.4823795799509733
337.0,-0.00612132541059035,-0.2460776747196631,-0.09351783183618192,-0.1600000000000001,-9.799999999999997,-0.13638183322054287,0.025565553196436327,-0.0038242194376514843,0.008250860280209832,86.75,-0.9375,90.79124370253402,0.5100865346093693,0.498148878888338,-0.508959813121889,-0.4823072061045186
338.0,-0.005931838770548448,-0.24493193544806452,-0.09331693396209526,-0.1600000000000001,-9.799999999999997,-0.13835220693285208,-0.010254977996913483,0.0030816405816405813,-0.0054018562083078215,86.75,-0.9375,90.80287991578314,0.5100451990788782,0.49819238266997573,-0.5089994597867511,-0.4822710191812913
339.0,-0.005530039852620498,-0.2449686442589669,-0.09222798706669674,-0.1600000000000001,-9.799999999999997,-0.13933739378900667,-0.008572073088202122,0.008358711181291827,0.00043236333558914226,86.75,-0.9375,90.8086980224077,0.5100245313136327,0.49821413456079455,-0.5090192831191821,-0.48225292571967765
340.0,-0.006345665087600573,-0.24516918565305668,-0.094548236709527,-0.1600000000000001,-9.799999999999997,-0.13992179863147602,0.028034062711482066,0.019439901496353107,0.0010381419655613206,86.75,-0.9375,90.81207233626589,0.5100114106940372,0.4982281304838715,-0.5090316786265887,-0.4822404107233621
341.0,-0.0038666817053913836,-0.24615655312429507,-0.09536356117001277,-0.1600000000000001,-9.799999999999999,-0.13999999999999996,0.02249934205579367,0.008437194525904202,0.005687927663734115,86.75,-0.9375,90.8125,0.51000977,0.4982299800000005,-0.5090332000000003,-0.48223876999999943
342.0,-0.0036830964734190542,-0.2458031054966539,-0.0959980073689751,-0.1600000000000001,-9.799999999999999,-0.13999999999999996,-0.03452562222723513,0.009335288367546431,-0.016110703812316714,86.75,-0.9375,90.8125,0.51000977,0.4982299800000005,-0.5090332000000003,-0.48223876999999943
343.0,-0.00445221713770101,-0.2461969491082395,-0.09482707704481896,-0.1600000000000001,-9.8,-0.13999999999999996,-0.04624284765413797,0.012210672392124004,0.0009546792812921839,86.75,-0.9375,90.8125,0.51000977,0.4982299800000005,-0.5090332000000003,-0.48223876999999943
344.0,-0.005772051872858326,-0.24616054689038566,-0.0905342618850683,-0.1600000000000001,-9.8,-0.13999999999999996,0.01678876678876679,-0.005685963901689709,-0.019286834357398874,86.75,-0.9375,90.8125,0.51000977,0.4982299800000005,-0.5090332000000003,-0.48223876999999943
345.0,-0.006704293690180788,-0.24692583648430427,-0.09080590757808496,-0.1600000000000001,-9.8,-0.13926267281105986,0.06155323171452204,-0.00894060296782071,-0.01380171407893182,86.75,-0.9375,90.80789170506912,0.5100267709626216,0.49821247904761945,-0.5090166991090633,-0.4822552709728619
346.0,-0.006069268433179724,-0.24705845174091148,-0.09159650217613925,-0.1600000000000001,-9.8,-0.13447004608294927,-0.06931643625192012,0.002617167498719918,-0.0237045170890937,86.75,-0.9375,90.77793778801842,0.5101442782232462,0.4980952217818738,-0.5088989418125964,-0.4823730282283668
347.0,-0.005799251152073734,-0.2469087621607783,-0.09238847286226316,-0.1600000000000001,-9.8,-0.13207373271889394,-0.04127364151305683,0.010223654313876087,-0.011253720238095238,86.75,-0.9375,90.76296082949308,0.5102030318535583,0.498036593149001,-0.508840063164363,-0.4824319068561193
348.0,-0.0055148920300129994,-0.247557851087085,-0.09454974472212371,-0.1600000000000001,-9.8,-0.13087557603686628,-0.009783203048071999,0.01033086886791524,0.0015452912063295132,86.75,-0.9375,90.7554723502304,0.5102324086687144,0.4980072788325646,-0.5088106238402463,-0.48246134616999553
349.0,-0.005423195084485409,-0.24645979558076336,-0.09487377899877898,-0.1600000000000001,-9.8,-0.13027649769585248,-0.004150819498601755,0.004038873872543227,0.006349714074008429,86.75,-0.9375,90.75172811059906,0.5102470970762925,0.49799262167434644,-0.508795904178188,-0.48247606582693364
350.0,-0.004543743890518086,-0.24678247424618394,-0.09710849030002253,-0.1600000000000001,-9.799999999999999,-0.12999999999999995,-0.02087806766486202,0.00317296530754192,-0.001095961749943604,86.75,-0.9375,90.75,0.5102539099999996,0.49798583999999924,-0.5087890600000006,-0.48248291000000076
351.0,-0.0062526576246334335,-0.24655976718174305,-0.09711118552146773,-0.1600000000000001,-9.799999999999997,-0.12999999999999995,0.021027661854274758,-0.027959544655613202,-0.01908978118655538,86.75,-0.9375,90.75,0.5102539099999996,0.49798583999999924,-0.5087890600000005,-0.48248291000000076
352.0,-0.005696969696969699,-0.24684698097601326,-0.09733453643131058,-0.1600000000000001,-9.799999999999997,-0.12999999999999995,0.013698398375817732,-0.01817335889916535,0.0031628317918640497,86.75,-0.9375,90.75,0.5102539099999996,0.49798583999999924,-0.5087890600000005,-0.48248291000000076
353.0,-0.006257914128881872,-0.24734160463192725,-0.09681615159034512,-0.1600000000000001,-9.799999999999997,-0.12999999999999995,0.016464583803293478,0.0016608391608391605,0.010778066020001503,86.75,-0.9375,90.75,0.5102539099999996,0.49798583999999924,-0.5087890600000006,-0.48248291000000076
354.0,-0.007012331754267239,-0.24731596360628622,-0.09721949018723211,-0.1600000000000001,-9.799999999999999,-0.12999999999999995,0.020577205053011506,0.015269005188360028,-0.0017139446574930446,86.75,-0.9375,90.75,0.5102539099999996,0.49798583999999924,-0.5087890600000006,-0.48248291000000076
355.0,-0.007235393638619447,-0.24701086547860746,-0.09531795623731107,-0.1600000000000001,-9.799999999999999,-0.12999999999999995,0.005278827355440259,0.01365234228137454,-0.011808218663057373,86.75,-0.9375,90.75,0.5102539099999996,0.49798583999999924,-0.5087890600000006,-0.48248291000000076
356.0,-0.006071264756748629,-0.24687053537859993,-0.09682075719978947,-0.1600000000000001,-9.8,-0.12999999999999995,-0.0002625902323482969,0.013790980524851493,-0.01034875742537033,86.75,-0.9375,90.75,0.5102539099999996,0.49798583999999924,-0.5087890600000007,-0.48248291000000076
357.0,-0.006639179369018081,-0.24586009196896297,-0.09697726869904288,-0.1600000000000001,-9.8,-0.12999999999999995,0.0013131609653787072,0.014186138682106423,-0.009155724427901846,86.75,-0.9375,90.75,0.5102539099999996,0.49798583999999924,-0.5087890600000007,-0.48248291000000076
358.0,-0.00683944080113435,-0.2461099467288984,-0.09717721995746187,-0.1600000000000001,-9.8,-0.12999999999999995,-0.0036858512790972466,0.028425265370829886,0.013272634063964707,86.75,-0.9375,90.75,0.5102539099999996,0.49798583999999924,-0.5087890600000007,-0.48248291000000076
359.0,-0.007662896579227227,-0.2464321445803301,-0.09926354794399145,-0.1600000000000001,-9.8,-0.12999999999999995,0.0027321363951908306,0.004829878342983181,-0.0025758417769506502,86.75,-0.9375,90.75,0.5102539099999996,0.49798583999999924,-0.5087890600000007,-0.48248291000000076
360.0,-0.008477268699042894,-0.2460456706152271,-0.09719415765685924,-0.1600000000000001,-9.8,-0.12999999999999995,-0.0009420602918586789,-0.01216613247863248,-0.00888184536118004,86.75,-0.9375,90.75,0.5102539099999996,0.49798583999999924,-0.5087890600000007,-0.48248291000000076
361.0,-0.007911654877380684,-0.2466681340612793,-0.09823379376000341,-0.1600000000000001,-9.799999999999999,-0.12999999999999995,0.010344662058371736,-0.012137180975386621,-0.017968652091635964,86.75,-0.9375,90.75,0.5102539099999996,0.49798583999999924,-0.5087890600000006,-0.48248291000000076
362.0,-0.006577667963756674,-0.24747757585156788,-0.09900657709226256,-0.1600000000000001,-9.799999999999997,-0.12999999999999995,-0.018824841153470186,-0.0004275021853146852,-0.014737421516655387,86.75,-0.9375,90.75,0.5102539099999996,0.49798583999999924,-0.5087890600000005,-0.48248291000000076
363.0,-0.0071812042876077545,-0.24679386285356442,-0.09908392618455208,-0.1600000000000001,-9.799999999999997,-0.12999999999999995,-0.028544958491997487,0.0068123739524798745,-0.017565020038539537,86.75,-0.9375,90.75,0.5102539099999996,0.4979858399999992,-0.5087890600000005,-0.48248291000000076
364.0,-0.00619117361534309,-0.24618120092072915,-0.10069513250350995,-0.1600000000000001,-9.799999999999997,-0.12999999999999995,0.010010361569100134,0.0051516189636074084,0.0047086359315536026,86.75,-0.9375,90.75,0.5102539099999996,0.49798583999999924,-0.5087890600000005,-0.48248291000000076
365.0,-0.006622167753607331,-0.24729986431478976,-0.1015217898775915,-0.1600000000000001,-9.799999999999997,-0.12999999999999995,0.0055714827621423674,0.004003078449395252,0.0016249398170438134,86.75,-0.9375,90.75,0.5102539099999998,0.49798583999999924,-0.5087890600000005,-0.48248291000000076
366.0,-0.005852628353832013,-0.24681708758261484,-0.10233714127310661,-0.1600000000000001,-9.799999999999997,-0.12999999999999995,0.0034272369822442045,-0.0007477276374724617,-0.019776484148174085,86.75,-0.9375,90.75,0.5102539099999998,0.49798583999999924,-0.5087890600000005,-0.48248291000000076
367.0,-0.005619937757636362,-0.24669097104147658,-0.10331737881761953,-0.1600000000000001,-9.799999999999997,-0.12999999999999995,0.060030268239223465,0.001924241301949535,-0.022111905507427896,86.75,-0.9375,90.75,0.5102539099999996,0.49798583999999924,-0.5087890600000006,-0.48248291000000076
368.0,-0.005306396112847726,-0.24758882336301688,-0.10101773137257006,-0.1600000000000001,-9.799999999999999,-0.12999999999999995,0.038809488003036394,0.005841716527200398,-0.00921893966248805,86.75,-0.9375,90.75,0.5102539099999996,0.49798583999999924,-0.5087890600000006,-0.48248291000000076
369.0,-0.006991628443241348,-0.24730870205063754,-0.10079990976765169,-0.1600000000000001,-9.799999999999999,-0.12999999999999995,0.028369681393874944,0.004923168229619843,-0.010654220331639687,86.75,-0.9375,90.75,0.5102539099999996,0.49798583999999924,-0.5087890600000006,-0.48248291000000076
370.0,-0.006002563744499229,-0.24810775604323992,-0.1012669194604678,-0.1600000000000001,-9.8,-0.12999999999999995,0.02953055009506622,-0.0011531926854507495,-0.010928923227310323,86.75,-0.9375,90.75,0.5102539099999996,0.49798583999999924,-0.5087890600000007,-0.48248291000000076
371.0,-0.005415591461377102,-0.24661513050482875,-0.09966887107573888,-0.1600000000000001,-9.8,-0.12999999999999992,0.012133270822136586,0.002636794064993857,-0.0016859441287120783,86.75,-0.9375,90.75,0.5102539099999996,0.49798583999999924,-0.5087890600000007,-0.48248291000000076
372.0,-0.006143732553722149,-0.24451166939200245,-0.10132401764035474,-0.1600000000000001,-9.8,-0.12999999999999995,0.028845200931569295,-0.011047932874155557,-0.012744041425102819,86.75,-0.9375,90.75,0.5102539099999996,0.49798583999999924,-0.5087890600000007,-0.48248291000000076
373.0,-0.007086203194423798,-0.2453971557405481,-0.10084634061741238,-0.1600000000000001,-9.8,-0.12999999999999995,0.013654551310638717,-0.011828369918900614,-0.011028318715623604,86.75,-0.9375,90.75,0.5102539099999996,0.49798583999999924,-0.5087890600000007,-0.48248291000000076
374.0,-0.007356465652511438,-0.24742464033827202,-0.1020258328791107,-0.1600000000000001,-9.8,-0.12999999999999995,0.02013212716581603,-0.010010447120228597,-0.013402664222123118,86.75,-0.9375,90.75,0.5102539099999996,0.49798583999999924,-0.5087890600000007,-0.48248291000000076
375.0,-0.006931295176092263,-0.2465069162540547,-0.09860262064216278,-0.1600000000000001,-9.8,-0.12999999999999995,0.052762211520991434,-0.0202778317762709,-0.01694715707462846,86.75,-0.9375,90.75,0.5102539099999996,0.49798583999999924,-0.5087890600000007,-0.48248291000000076
376.0,-0.006124651781909848,-0.2462982662498792,-0.09862611402933982,-0.1600000000000001,-9.799999999999999,-0.12999999999999995,0.053832880269372205,-0.014635297498200724,-0.01932382133995037,86.75,-0.9375,90.75,0.5102539099999996,0.49798583999999924,-0.5087890600000006,-0.48248291000000076
377.0,-0.0058107996394286725,-0.24588732683087525,-0.10109071663103919,-0.1600000000000001,-9.799999999999999,-0.12999999999999995,0.04699206343611585,-0.012392681243487694,-0.004811384851707431,86.75,-0.9375,90.75,0.5102539099999996,0.49798583999999924,-0.5087890600000006,-0.48248291000000076
378.0,-0.006166895719631036,-0.24592262421818276,-0.10131057982700975,-0.1600000000000001,-9.799999999999997,-0.12999999999999995,0.012919832453245279,-0.0026340827864961224,-0.0027431468587583176,86.75,-0.9375,90.75,0.5102539099999996,0.4979858399999992,-0.5087890600000006,-0.48248291000000076
379.0,-0.008590458490314052,-0.2470329763319653,-0.10451495511389589,-0.1600000000000001,-9.799999999999997,-0.12999999999999995,0.035360152205361636,0.000764000884366797,-0.01187224547238991,86.75,-0.9375,90.75,0.5102539099999996,0.49798583999999924,-0.5087890600000005,-0.48248291000000076
380.0,-0.00778827383497581,-0.24710014107221617,-0.10506896714263106,-0.1600000000000001,-9.799999999999997,-0.12999999999999995,0.028549784351421328,-0.00011474743359673545,-0.00756547456715969,86.75,-0.9375,90.75,0.5102539099999996,0.49798583999999924,-0.5087890600000005,-0.48248291000000076
381.0,-0.007014860280146752,-0.24728418588312667,-0.10263467907473683,-0.1600000000000001,-9.799999999999997,-0.12999999999999995,0.009020737728007829,8.008962631013666e-05,-0.0005141644585554069,86.75,-0.9375,90.75,0.5102539099999996,0.49798583999999924,-0.5087890600000005,-0.48248291000000076
382.0,-0.0059590430432991835,-0.2482401078299008,-0.10483346856962647,-0.1600000000000001,-9.799999999999997,-0.12999999999999995,0.01378456241239101,-0.00028563756897892673,-0.004366883718111451,86.75,-0.9375,90.75,0.5102539099999996,0.49798583999999924,-0.5087890600000006,-0.48248291000000076
383.0,-0.005732160312805474,-0.24577065944807885,-0.10286908790134594,-0.1600000000000001,-9.799999999999999,-0.12999999999999995,0.021615347018572824,0.012655086848635236,0.013216219264606362,86.75,-0.9375,90.75,0.5102539099999996,0.49798583999999924,-0.5087890600000006,-0.48248291000000076
384.0,-0.0060772238514174,-0.24638239717271979,-0.10252203173170912,-0.1600000000000001,-9.799999999999999,-0.12999999999999995,-0.0022055229716520033,0.014834996992255055,0.025089292428002105,86.75,-0.9375,90.75,0.5102539099999996,0.49798583999999924,-0.5087890600000006,-0.48248291000000076
385.0,-0.006261185051507634,-0.24633192345289126,-0.10196952778404389,-0.1600000000000001,-9.8,-0.12999999999999995,-0.03473522445296638,-0.017365849875930525,0.02302757726144823,86.75,-0.9375,90.75,0.5102539099999996,0.49798583999999924,-0.5087890600000007,-0.48248291000000076
386.0,-0.006014267990074443,-0.24619137717121592,-0.10267586848635232,-0.1600000000000001,-9.8,-0.12999999999999995,-0.02479063275434243,-0.013723247518610423,0.014950372208436726,86.75,-0.9375,90.75,0.5102539099999996,0.49798583999999924,-0.5087890600000007,-0.48248291000000076
387.0,-0.006342121588089331,-0.2476341501240695,-0.10281436104218362,-0.1600000000000001,-9.8,-0.12999999999999995,-0.012209212158808932,-0.0033721696650124066,-0.0053039702233250614,86.75,-0.9375,90.75,0.5102539099999996,0.49798583999999924,-0.5087890600000007,-0.48248291000000076
388.0,-0.006178504962779156,-0.24765330334987595,-0.10099526985111659,-0.1600000000000001,-9.8,-0.12999999999999995,0.02024464950372209,0.004858580179900745,-0.009088089330024814,86.75,-0.9375,90.75,0.5102539099999996,0.49798583999999924,-0.5087890600000007,-0.48248291000000076
389.0,-0.006209212158808933,-0.2478261476426799,-0.10183080024813893,-0.1600000000000001,-9.8,-0.12999999999999995,0.013524542493796528,0.010226039081885855,0.00799375775434243,86.75,-0.9375,90.75,0.5102539099999996,0.49798583999999924,-0.5087890600000007,-0.48248291000000076
390.0,-0.006050241089555607,-0.24701759295811718,-0.10284562044138655,-0.1600000000000001,-9.799999999999999,-0.12999999999999995,0.007312594579479661,0.012242314976689976,0.013446367560530866,86.75,-0.9375,90.75,0.5102539099999996,0.49798583999999924,-0.5087890600000006,-0.48248291000000076
391.0,-0.005356117001278292,-0.2476333840890293,-0.1062965730506053,-0.1600000000000001,-9.799999999999997,-0.12999999999999995,0.00975766505000376,0.0038348748026167377,0.004657892510715091,86.75,-0.9375,90.75,0.5102539099999996,0.49798583999999924,-0.5087890600000005,-0.48248291000000076
392.0,-0.004995601173020529,-0.24648553932626516,-0.10724333126550868,-0.1600000000000001,-9.799999999999997,-0.12999999999999995,-0.006866881438454019,-0.0025899503722084365,-0.02023947994210091,86.75,-0.9375,90.75,0.5102539099999996,0.49798583999999924,-0.5087890600000005,-0.48248291000000076
393.0,-0.004635017726616186,-0.244738899436104,-0.10771688432835819,-0.1600000000000001,-9.799999999999997,-0.12999999999999995,-0.01004847349579084,-0.006808196918632643,0.0035473464331567967,86.75,-0.9375,90.75,0.5102539099999996,0.4979858399999992,-0.5087890600000005,-0.48248291000000076
394.0,-0.005075263205739856,-0.24581412248480142,-0.1092945076108292,-0.1600000000000001,-9.799999999999997,-0.12999999999999995,-0.0021410753024859903,0.020165225362023628,0.008808315741392294,86.75,-0.9375,90.75,0.5102539099999996,0.49798583999999924,-0.5087890600000006,-0.48248291000000076
395.0,-0.005446656857826815,-0.24650450656709688,-0.11175033809073287,-0.1600000000000001,-9.799999999999997,-0.12999999999999995,-0.0029811185444310138,0.00025478152885471256,-0.008419371111956571,86.75,-0.9375,90.75,0.5102539099999996,0.4979858399999991,-0.5087890600000006,-0.48248291000000076
396.0,-0.004156255716679405,-0.2463758716007152,-0.11302642101919905,-0.1600000000000001,-9.799999999999997,-0.12999999999999995,-0.014080791620512373,-0.003270186121052755,-0.006133702399349968,86.75,-0.9375,90.75,0.5102539099999996,0.4979858399999992,-0.5087890600000006,-0.48248291000000076
397.0,-0.0047443057664530944,-0.24761608829302623,-0.10622239917040109,-0.1600000000000001,-9.799999999999999,-0.13282258064516117,-0.036915762379171144,0.0015265638309692234,0.02033246453835043,86.75,-0.9375,90.76764112903226,0.510151528548387,0.4980719795161286,-0.5088914414516134,-0.48239627838709714
398.0,-0.00820095816557059,-0.24662487397586103,-0.09651151750405482,-0.1600000000000001,-9.8,-0.13657258064516123,-0.07511296980182391,0.001952850585192906,-0.023537178480456045,86.75,-0.9375,90.79107862903226,0.5100142076510497,0.4981864220161288,-0.5090287623489509,-0.48228208193548405
399.0,-0.006508547601155582,-0.2451154466733544,-0.08518131706468249,-0.1600000000000001,-9.8,-0.13844758064516122,0.0034534806798132422,-0.004450613849323022,-0.04894190629778025,86.75,-0.9375,90.80279737903226,0.5100080510835894,0.49821213875000014,-0.5090349189164112,-0.48225648822580625
400.0,-0.0063756184259438214,-0.24692657184927025,-0.08407486889249183,-0.1600000000000001,-9.8,-0.13938508064516122,-0.011962415677994352,0.005479098073089028,-0.015618632257314163,86.75,-0.9375,90.80865675403226,0.5100049727998592,0.49822499711693585,-0.5090379972001413,-0.48224369137096734
401.0,-0.006220787680913959,-0.24760712647534353,-0.08481643068413913,-0.1600000000000001,-9.8,-0.13985383064516121,-0.020161648885983485,0.02365976435712404,-0.006186407299712873,86.75,-0.9375,90.81158644153226,0.5100034336579942,0.49823142630040373,-0.5090395363420064,-0.4822372929435479
402.0,-0.004335512248035064,-0.24734907015011415,-0.0860230866938361,-0.1600000000000001,-9.8,-0.13999999999999996,0.007761317454089671,0.007639113969396632,-0.003801999012759662,86.75,-0.9375,90.8125,0.5100058635074245,0.4982319490322586,-0.5090371064925758,-0.4822368009677414
403.0,-0.0032123029750159952,-0.2471077147985594,-0.08764287975244797,-0.1600000000000001,-9.8,-0.13999999999999996,0.046619394006102696,0.006347718787053667,0.007843624149534146,86.75,-0.9375,90.8125,0.51000977,0.4982299800000005,-0.5090332000000004,-0.4822387699999995
404.0,-0.005339522175093045,-0.24802007848308666,-0.08834873516158377,-0.1600000000000001,-9.8,-0.13999999999999996,0.04138006640991919,0.016223417145868144,-0.0008791264508072483,86.75,-0.9375,90.8125,0.51000977,0.4982299800000005,-0.5090332000000003,-0.4822387699999995
405.0,-0.005904272741941837,-0.24768131614021316,-0.08871636815029113,-0.1600000000000001,-9.8,-0.13999999999999996,0.0052388067476517,0.010858016997455084,0.013191808047427193,86.75,-0.9375,90.8125,0.50999183666005,0.4982299800000005,-0.5090511333399504,-0.48222083666004945
406.0,-0.005905735841219713,-0.24667963577641003,-0.08542714633037213,-0.1600000000000001,-9.799999999999999,-0.13999999999999996,0.0025858997633191184,-0.0049965267707203186,0.0006820240691208434,86.75,-0.9375,90.8125,0.5099692988138962,0.4982299800000005,-0.5090736711861041,-0.4821982988138957
407.0,-0.007610990518068036,-0.24661411460737417,-0.08390026642698764,-0.1600000000000001,-9.799999999999997,-0.13999999999999996,-0.02571558463469874,-0.0004444005948579853,-0.005436551759373135,86.75,-0.9375,90.8125,0.5099580298908193,0.4982299800000005,-0.509084940109181,-0.48218702989081885
408.0,-0.007051550279282587,-0.24663783047316995,-0.0828964628695009,-0.1600000000000001,-9.799999999999997,-0.13999999999999999,-0.025868079521184962,0.0031191044551660825,0.009717429096340987,86.75,-0.9375,90.8125,0.5099523954292808,0.4982299800000005,-0.5090905745707195,-0.4821813954292804
409.0,-0.006741656032941542,-0.2463536546906793,-0.08281795848189685,-0.1600000000000001,-9.799999999999997,-0.13999999999999996,-0.039345330083173126,-0.0033101748195633607,0.0015708733571034965,86.75,-0.9375,90.8125,0.5099495781985117,0.4982299800000005,-0.5090933918014886,-0.4821785781985112
410.0,-0.005648743649225112,-0.24702794397064978,-0.08253553010943478,-0.1600000000000001,-9.799999999999999,-0.13944416873449128,0.026481181112259593,-0.004725807012759348,-0.00510786356958721,86.75,-0.9375,90.80902605459056,0.5099690852555836,0.49821350198511216,-0.5090738847444166,-0.48219808565260547
411.0,-0.006922612293820766,-0.24769530140858984,-0.08800530171160888,-0.1600000000000001,-9.799999999999999,-0.1324640198511166,0.03593731587382286,-0.017682429410582998,-0.036644840875702696,86.75,-0.9375,90.77850496277915,0.5101612102084369,0.4980509399441686,-0.5088817597915636,-0.4823902133908192
412.0,-0.007083020921730597,-0.24742836464610662,-0.09362890514503416,-0.1600000000000001,-9.8,-0.12590942928039706,-0.00322123552970327,0.011579913142413143,0.001315373694405951,86.75,-0.9375,90.76324441687345,0.5102754862332504,0.49795144835918076,-0.50876748376675,-0.4825044878244421
413.0,-0.007471129229193744,-0.24707439737681675,-0.09702217495765883,-0.1600000000000001,-9.8,-0.12263213399503728,0.039078531795265666,0.0036669116054196703,-0.03754184883217142,86.75,-0.9375,90.73595688585607,0.5104044878746893,0.497847064905397,-0.5086552188995043,-0.48261577052512417
414.0,-0.006826430737721059,-0.2463872518610422,-0.1016539052345504,-0.1600000000000001,-9.8,-0.1209934863523574,0.04543532324530308,-0.010315752515853321,-0.035047412265154204,86.75,-0.9375,90.70971231389578,0.5105231328083122,0.4977550024526986,-0.5085597100949137,-0.482711774778691
415.0,-0.007750844441141007,-0.24589994146722166,-0.1016093107378227,-0.1600000000000001,-9.8,-0.12019153225806462,0.0316966898784748,-0.015470651412012948,-0.011109614241117883,86.75,-0.9375,90.69669858870967,0.5105818191733866,0.4977094861643147,-0.5085125917943555,-0.4827591407913304
416.0,-0.00656695447863502,-0.24741317637877214,-0.10406070375600814,-0.1600000000000001,-9.8,-0.1200000000000001,0.04941374312472127,-0.021863979939877442,-0.00649986760442991,86.75,-0.9375,90.69109122983872,0.5106054765020156,0.4976915506149196,-0.5084947184979844,-0.482777137862903
