time,linaccel_x,linaccel_y,linaccel_z,gravity_x,gravity_y,gravity_z,gyro_x,gyro_y,gyro_z,euler_x,euler_y,euler_z,quaternion_w,quaternion_y,quaternion_x,quaternion_z
0.0,0.05621621621621622,-0.027567567567567567,-0.040000000000000015,0.43648648648648664,-0.3364864864864865,9.786216216216205,0.34290540540540543,-0.5506756756756757,0.6165540540540541,202.25,2.5557432432432434,1.9577702702702702,-0.19310698648648647,0.021410143513513506,-0.018777383513513518,-0.9807491824324323
1.0,0.07984984984984984,-0.006411411411411411,-0.03537037037037038,0.43234734734734737,-0.4254954954954955,9.781701701701692,-0.07204079079079079,0.17176551551551553,0.23445320320320318,202.15046296296296,2.5289977477477477,2.483608608608608,-0.19228738031031029,0.025854162652652647,-0.017700959504504503,-0.9808210622922923
2.0,0.07834834834834836,-0.007033462033462034,-0.0365873015873016,0.39799013299013297,-0.47219648219648214,9.780729300729291,-0.10230319605319604,0.14305823680823682,0.2721069283569283,201.9672619047619,2.3239355426855424,2.763808451308451,-0.19074531108537107,0.027834990184470176,-0.015533291057486057,-0.9811128663792364
3.0,0.07641441441441443,-0.005060060060060059,-0.038851851851851874,0.36261761761761757,-0.5154694694694695,9.780340340340334,-0.22459334334334333,0.40379754754754754,0.0399461961961962,201.90601851851852,2.1150588088088087,3.016629129129129,-0.19013300532132132,0.029623776604604603,-0.01336323553053053,-0.9812051751251252
4.0,0.08572023636539768,0.00027559817882398573,-0.03471326164874553,0.3216966966966967,-0.5526465174852271,9.780164680809836,-0.18842330233459265,0.09144325777390293,-0.2073737043495108,202.00739247311827,1.8773582049791726,3.2338528044173205,-0.19096780013755688,0.031107159002228036,-0.010920116403661726,-0.9810298483221934
5.0,0.0775244599438148,0.009649568923762467,-0.03665915915915917,0.3970863605541026,-0.6201898672866415,9.772588879201777,-0.5478679284122833,-0.1450477695437373,-0.1136312724014337,202.1679290177274,2.3150685968226288,3.6298132810229586,-0.19232091108011234,0.0352265082761794,-0.013954773602877071,-0.9805702369814976
6.0,0.0712622299719074,0.006047902741451126,-0.0374380025186477,0.44020536665697957,-0.6597902741451128,9.768561464690494,-0.2739059624140269,-0.27735699409086506,-0.2895945340501792,202.32248377409667,2.5739489489489484,3.8593174828053862,-0.19362971712607768,0.03768922655744454,-0.015727646142836386,-0.9802025854799961
7.0,0.058758355129322884,0.013897607284704057,-0.03331129516613389,0.4508016080596725,-0.6735420904775743,9.767112273563882,-0.10715907439697762,0.09860868933449579,-0.02060931899641577,202.55825129565048,2.6381729511769834,3.9336629976750945,-0.1956362450280926,0.03849098779933159,-0.016060171570522135,-0.9797730886629371
8.0,0.05828150731376538,0.011590380703283928,-0.03076407052213504,0.4911624527753559,-0.7191007943427299,9.76266007943427,-0.3564749225031483,-0.5836481642933257,0.16974686379928317,202.5064161944202,2.87483804368885,4.206722851884143,-0.1952130314387775,0.04120163346507799,-0.01764055228615713,-0.9797218386907873
9.0,0.06918676741257387,0.021333430204397947,-0.03218202073040783,0.6339668700959022,-0.7594904582001356,9.749987406761598,0.13462958926668603,-0.05666654557783593,0.3918707013465078,202.12601109173687,3.7097742904194515,4.448964085052795,-0.19187968728421972,0.04456990121815364,-0.024562360863121184,-0.9800412172968129
10.0,0.0733384190642255,0.02586723820594789,-0.03181173108592464,0.5836462268720333,-0.7549229875036327,9.75475879104911,-0.05219382689140756,0.2852534994672092,0.25507513561949047,201.96634941393006,3.409153104717621,4.423137351060738,-0.19056886113411797,0.04383154935750268,-0.022099151938874358,-0.9804126987830573
11.0,0.06741208950886371,0.031864525816138724,-0.03021795989537926,0.5483960573476702,-0.759670638380316,9.757298750363264,-0.048624733604572326,0.18886376295650492,0.15309866317930834,201.83530405405406,3.1978424997578223,4.447952993315896,-0.1894864384926862,0.043714753655671804,-0.020318551172866413,-0.9806811639322386
12.0,0.07337450353579386,0.039538893732442126,-0.028970987116148414,0.5470878136200715,-0.765256466143563,9.757547224643996,-0.13270730407827183,-0.09673635328877264,0.07430918822047855,201.7834674392134,3.1926992516710255,4.477952751138234,-0.18905735601157608,0.04391797668894701,-0.020252418162598082,-0.9807636148559045
13.0,-0.01715683425360847,0.05403467984113144,-0.06047563692724983,0.7538172043010752,-0.912050276082534,9.713486873970743,0.395787925021796,-4.310268938293133,-0.39939334495786105,201.23147946333432,4.410557735154509,5.351039547612128,-0.1840352032611644,0.053243060602538014,-0.02973375273273273,-0.980521485389422
14.0,-0.06106025380218928,0.2653821563498983,-0.1458263101811489,1.1381054441538314,-1.196779279279279,9.605044802867383,-1.8709450377797152,2.8573316259808195,1.0794615179695823,199.86428666569796,6.663003729535987,7.07270930204398,-0.1718085928942652,0.07121726943136683,-0.04775922327811681,-0.9797274330143855
15.0,0.09195582679453648,0.041256902063353654,0.010736220091058846,0.8401680712971036,-0.8388089702605831,9.686432723045627,1.7530938196260775,1.2246409716167779,-1.4281156156156156,202.43107623752786,4.9171177225612706,4.939059018696115,-0.1941870208452,0.05068123669572798,-0.03491515155817106,-0.9775365615354064
16.0,0.05405114792211567,-0.017906858471374604,-0.02025089605734765,0.7605591882204786,-0.42733822532209625,9.731028044173204,2.927821975201007,-0.38370174610093966,1.5373316865252347,202.06299343698535,4.454935278019955,2.516172926959217,-0.1912420217085634,0.028955128975588485,-0.034576314214133486,-0.9794407309769446
17.0,0.1033248571151797,-0.08497045432529304,-0.028028673835125438,0.7690833575510996,-0.0005642739513707085,9.743824953986245,4.664403819141722,-0.1717735881042333,5.323269337886273,198.6069895500339,4.494408723239369,0.0028501283541606526,-0.1615784936455003,0.0061494100254286515,-0.03836226689649327,-0.984662432343311
18.0,0.11654146081565436,-0.0805497432916788,-0.055143369175627246,1.0033902450837935,0.36173399205657264,9.716052261939357,-0.48928666569795576,2.3722785285285286,1.242307832025574,195.32301202412089,5.863803823985275,-2.131219425070231,-0.13325623766056377,-0.01212438880897026,-0.05264138804054054,-0.9881159078114404
19.0,0.08023636539765572,-0.030023249055507125,-0.04137944396008912,0.5578727114210985,0.2508669960282863,9.762797636346026,-0.3424573767315703,1.5680700862152475,-1.2046401239949627,196.19064225515837,3.255915189382931,-1.4782524459943813,-0.1409513134040492,-0.009324726982466338,-0.029827211730117216,-0.9885768001375569
20.0,0.013374503535793853,0.004151409473990111,-0.045885885885885894,0.42350043591979075,0.14727307953114405,9.78108495592367,-0.7633984791242854,0.34198513029158195,-1.0308564613000097,196.81317204301072,2.4704815702799574,-0.8653794923956214,-0.14638229240821465,-0.004712303513029158,-0.022528047538990605,-0.9884723132466338
21.0,0.018590283832219313,0.03609294778649617,-0.051518453937808795,0.32673035939164974,0.0990714908456844,9.790656785818081,-0.2916575850043591,0.7988532887726436,-0.3286335730892182,197.35951879298653,1.9016380291581902,-0.5806602973941684,-0.15113862540395234,-0.0028034141773224837,-0.017372786727937614,-0.9880942237607768
22.0,0.03712220284800931,0.039610093964932674,-0.04812481836675387,0.29029618328005424,0.035664777680906715,9.796027317640227,-0.3873162476993122,0.16600370531822148,-0.4365782112757919,197.84065769398427,1.6884142206722852,-0.20946097306984401,-0.15529366982563209,0.0004412426649229879,-0.015082041182069166,-0.9876256771357648
23.0,0.04740966773224839,0.024401821176014724,-0.04509735541993608,0.19429235687300206,0.00016661823113435937,9.799823694662411,-0.13370628693209338,0.49961251574154797,-0.18426692821854113,198.1420190351642,1.129825389906035,0.0018163324614937429,-0.15789026378378376,0.0017310502392715301,-0.009976164224547127,-0.9873854698537246
24.0,0.12754964642061417,0.13454179986438047,-0.012657657657657653,0.26188898575995345,-0.3947423229681294,9.762248377409671,-3.375647825244599,-3.966682408214666,7.899148140075559,193.19265838419062,1.5547230698440375,2.3250417756466146,-0.1148906615954664,0.021083620250411706,-0.01305855826746101,-0.9903412823854499
25.0,0.12484815460621915,0.19421607090961934,-0.07443984306887529,0.6058669960282864,-0.8002443572604861,9.718211275791923,-1.4739114114114114,1.7663258016080596,-4.549451164874553,189.0837480625787,3.5478225201007456,4.694597319093287,-0.07918782062917755,0.0421665002201395,-0.029303841062433403,-0.9926651878932964
26.0,0.13862564177080308,0.07069408117795217,-0.007984113145403444,0.5244226484549066,-0.6473837547224643,9.747536568826888,0.6618897122929381,0.33617892085634027,-4.192090780296426,195.6722579434273,3.0684394071490844,3.789470417998644,-0.13621190325099292,0.035766140665504216,-0.023389733915770608,-0.9865741928986245
27.0,0.08514167393199654,0.04549937033808003,-0.01861571248668021,0.6343439407149083,-0.5372178630243146,9.755130291581903,-0.25065236607575314,-0.28341143562917753,-2.409189431366851,199.13709223336238,3.7132071587716746,3.143363121185702,-0.16611211466313086,0.03243935338830767,-0.028292683073476703,-0.9831025928785238
28.0,0.07341228325099294,0.010785139978688364,-0.027719655139009973,0.6905356969873098,-0.4928402596144531,9.758872905163225,0.17109549065194224,0.9179835077012497,-0.3237007168458782,200.43283808001547,4.0376071636152275,2.880712365591398,-0.17736989705269784,0.03118470820740095,-0.030774747032354936,-0.9820735400949338
29.0,0.03731207013465078,0.0015521166327617942,-0.03135619490458201,0.5930877651845393,-0.423517872711421,9.771437808776517,0.3960951879298653,0.6242810350673255,-0.3372535842293908,201.07451503923278,3.4668080378765866,2.479104608640899,-0.18300327836941777,0.02699873536738351,-0.02613630664365979,-0.9819678486743193
30.0,0.09633972682359779,0.02933788627337012,0.002673157027995726,0.4227714811585779,-0.2233270367141334,9.78539184345636,1.2492068681584811,2.2043616196842004,0.48902329749103945,200.76244793180274,2.461366608544028,1.302192313281023,-0.18042827567664438,0.015351095734767022,-0.01920297914172237,-0.983127152141819
31.0,0.04993436985372469,0.022200668410345816,-0.02807880461106269,0.20204736995059575,-0.147545045045045,9.793057735154512,0.44722646033129904,1.4520246052504118,-0.18596519907003778,200.82897413542574,1.1733870967741935,0.857961287900804,-0.18105300088976073,0.009469406588685458,-0.00870152144580064,-0.9832362645844233
32.0,0.04397219800445607,0.0255507120023249,-0.03727404824179019,0.08618957667344763,-0.14060592850915432,9.797111304853246,-0.01526627433885494,0.6592681391068489,0.09216979075850043,200.94577944880365,0.5012441877361232,0.8197350576382834,-0.1820227139131067,0.008108727258064514,-0.0029550430194710837,-0.9831742040661628
33.0,0.051243097936646324,0.041532984597500724,-0.03825486777099681,0.047273806064128635,-0.15131768865639833,9.799139784946242,-0.4550412307468759,-0.13675469824663367,0.2676714012399496,200.9055431439504,0.27884790031967455,0.8814631163421485,-0.18168061915794825,0.008302216672721107,-0.0009885926760631598,-0.9832878965724595
34.0,0.058839726823597796,0.028717669282185408,-0.04049040976460333,0.05883294584907487,-0.17394265232974912,9.79985663082438,0.01448525138041265,0.0003057492976848153,-0.0550061149859537,200.9783856437082,0.34253911169233753,1.0110660055216507,-0.18228483328102296,0.009530474811827956,-0.001434291931366851,-0.9831766482502663
35.0,0.06592972004262328,0.02065363750847622,-0.04383391455972103,0.06686718977041557,-0.19856630824372762,9.800000000000006,-0.11182099438147826,0.3280538603119248,-0.03257138186573671,200.9984894168362,0.388619466240434,1.1560426353773128,-0.18247132827133583,0.01084999448028674,-0.0016282706834253608,-0.9831393036009395
36.0,0.06756902063353676,0.02113629758791049,-0.04222851884142208,0.06628644773806064,-0.20993509638670935,9.799581517000878,-0.17118025283347865,-0.22040891698149762,0.024314637217863023,201.07354330136587,0.3883621524750557,1.2257761794052116,-0.18312630150925113,0.011462595281410443,-0.0015120934728276663,-0.9830113801995541
37.0,0.07045020827278893,0.013116826503923278,-0.03843771190545385,0.030658481061706863,-0.2044623655913979,9.799790758500443,0.1366048508185605,0.7059493969776227,-0.044394192579676445,201.06731328102296,0.17588152668797827,1.1926462753075655,-0.1830977337368013,0.010818178234524849,0.0003543339494333042,-0.9830221494599436
38.0,0.0637130679066163,0.009437663469921535,-0.03992976847815559,0.0526348929574736,-0.19642884820304177,9.799895379250223,-0.210070958054829,-0.3824106364428946,-0.15116729632858664,201.24992129226,0.30723566308243727,1.1461300009687108,-0.1846594259856631,0.01064683876876877,-0.0008775101651651651,-0.9827285861372662
39.0,0.06694371791145985,0.012785769640608352,-0.03619805289160129,0.10640414608156544,-0.22083623946527176,9.799804320449487,-0.0984633827375763,-0.07600140463043692,-0.0061331492783105596,201.20106800348736,0.6207361595466434,1.2835476605637894,-0.18421473779327713,0.01233477006926281,-0.0034088252729342237,-0.982788419818609
40.0,0.059493364332074014,0.006881236074784462,-0.043614259420711045,0.060782718202073045,-0.21858568245665022,9.799902160224747,-0.022349970938680616,0.6281059285091543,0.09258754722464402,201.12495156446766,0.3556469776227841,1.27181415286254,-0.1835694258500436,0.011780459362588393,-0.0010672074706965023,-0.9829241880679065
41.0,0.05203041751428848,-0.0007747263392424682,-0.04006926281119831,0.038255836481642935,-0.2224949142691079,9.7999641577061,-0.12034564806742226,0.29706722851884143,0.051776070425263984,201.0646674900707,0.2219543131841519,1.2919421437566598,-0.18302729912912913,0.0117556173612322,9.7515417998644e-05,-0.9830302943885014
42.0,0.0475879104911363,0.00760922212535116,-0.041928702896444854,0.05338467499757822,-0.23528528528528533,9.799982078853052,-0.10348251477283735,-0.03382313765378278,0.08415371016177468,200.99558025767703,0.30598542090477576,1.3702412089508864,-0.1824895681948077,0.012568919737963771,-0.0006227919887629564,-0.9831189556349899
43.0,0.05283832219316091,0.008561464690496949,-0.04137266298556623,0.05619199845006298,-0.2511004552940036,9.79999103942653,-0.22540988569214376,0.16419796812941978,-0.07331171897704156,201.0224498692241,0.32525670832122444,1.4640335900416543,-0.18270762396565918,0.013401015618279572,-0.0006476776983435047,-0.9830690196706384
44.0,0.049806257870774,0.010472488617649909,-0.04252324905550714,0.06970890245083794,4.41659134941393,9.6589247311828,-0.2350167708030611,-0.05418573815751232,0.02676819965126416,201.06078810665505,0.4085400925118667,1.6429150925118665,-0.18301786972924539,0.015064457329749106,-0.0010741991448706767,-0.9829896158568247
45.0,0.048044899738448124,0.021255691175046016,-0.039831444347573394,0.10934563595853919,2.0445321127579197,9.726672478930546,-0.031952315218444244,-0.11280635474183859,0.35999558025767703,200.95378796134844,0.6376658916981497,1.7793322556427396,-0.1820619125782234,0.016586842318366754,-0.002863222789644483,-0.9831372887019278
46.0,0.0468047079337402,0.028096483580354555,-0.03925263973651072,0.13439504020149184,0.8716477768090674,9.761902547709004,-0.14058413251961638,-0.06805192289063255,0.18159389227937614,200.6927037925022,0.7832146662791823,1.769958466531047,-0.17987864644144141,0.01671558891455972,-0.004157219876005038,-0.983531227505086
47.0,0.05652693015596243,0.03171655526494237,-0.03813595853918436,0.17293955245568152,0.26302528334786424,9.775789983531922,-0.24119078756175527,-0.06944444444444443,0.05587190012593238,200.58133990845684,1.0064994429913785,1.8877521674900706,-0.17885867747723527,0.018109626159788825,-0.005922106963576479,-0.9836832620258162
48.0,0.06503317833962997,0.03362709483677227,-0.03776421582873196,0.18845006296619204,-0.04716119345151579,9.78273370144338,-0.11040274145112854,0.14135304659498207,0.004778467984113143,200.5370017194614,1.0980077860118183,1.9852907342826698,-0.17847722563377894,0.019069692681148886,-0.006540743786447738,-0.9837310106052022
49.0,0.08106945655332753,0.03869078756175532,-0.0385416061222513,0.20467306015693115,-0.3559372275501308,9.790614162549648,-0.17773721301947107,-0.32302867383512546,0.012889906035067325,200.508812239659,1.1904969485614645,2.079058897607285,-0.1781658791475346,0.02002088838806549,-0.00721936327763247,-0.9837633896081568
50.0,0.09744393241167436,0.03300076804915515,-0.03798284690220176,0.27754838709677415,-0.37698156682027667,9.790232974910396,-0.21598982334869432,-0.45627240143369174,-0.011853558627752175,200.48304371479773,1.6222062211981567,2.1951356886840756,-0.1779731450450589,0.02170248473220686,-0.010753340355094728,-0.9837250645158735
51.0,0.11995852534562215,0.018682283666154643,-0.038870455709165405,0.33899820788530477,-0.3878277009728625,9.788422939068102,-0.05560355862775217,-0.2635864695340502,0.041508256528417824,200.45469950076807,1.9802339349718383,2.250401625704045,-0.1778432053988735,0.02275241458832565,-0.01371712995801331,-0.9836927915097289
52.0,0.1257319508448541,0.01594956477214542,-0.04062698412698415,0.3998530465949822,-0.40774449564772164,9.785197132616485,-0.420274897593446,-0.5409274193548387,-0.024804787506400403,200.46147273425498,2.3354070660522273,2.377188940092166,-0.17785764575499236,0.02437262127265745,-0.016607591448540706,-0.9836010164134665
53.0,0.11975217613927294,0.016590373783922172,-0.039780337941628274,0.519146953405018,-0.4510586277521762,9.77727598566308,-0.24432763696876603,-0.516263440860215,0.014423323092677933,200.51282642089092,3.0342469918074757,2.639143305171531,-0.1782322269411163,0.027686368606758834,-0.0221968411812596,-0.9833268493402457
54.0,0.10550332821300565,0.01821454173067076,-0.03789196108550949,0.5869749103942651,-0.46760368663594476,9.772168458781355,-0.05997183819764467,0.3439068100358422,-0.04963197644649257,200.56555299539173,3.4278257808499744,2.7345302099334354,-0.17865064139170508,0.029155734061443932,-0.02540998868202765,-0.9831361676763953
55.0,0.09510752688172043,0.02343189964157706,-0.04013440860215056,0.5266487455197133,-0.43716845878136207,9.776353046594975,0.032146057347670245,0.2538082437275985,-0.1616823476702509,200.6981406810036,3.080141129032258,2.559587813620072,-0.1798421676523297,0.02710004652329749,-0.022662528727598562,-0.9830423447311831
56.0,0.08747977470558116,0.011188428059395805,-0.038449564772145436,0.5345192012288784,-0.4310430107526881,9.77703225806451,-0.14119943676395288,-0.05722926267281109,-0.07771697388632873,200.8260528673835,3.122435035842294,2.527680171530978,-0.18099008702534558,0.02689198066999487,-0.02306124993701997,-0.9828407198361497
57.0,0.09326497695852534,-0.0019416282642089082,-0.042486431131592436,0.5560140809011778,-0.4295985663082436,9.775612903225799,-0.03128520225294419,-0.07761776753712238,0.07102054531490015,200.88754480286738,3.2461693548387096,2.529269073220686,-0.1815196004884793,0.02706601874449565,-0.02410126890220174,-0.9827168619431645
58.0,0.0958573988735279,-0.0067055811571940585,-0.041547875064004106,0.5347409114183308,-0.4335627240143367,9.776534050179205,0.016783474142345108,0.5448604710701485,-0.29773905529953915,201.06552419354838,3.124204749103943,2.539948156682028,-0.18302756486789556,0.027036026074756782,-0.022979947067588324,-0.9824599587135178
59.0,0.06179906173454559,0.016681840827002123,-0.03483840522550201,0.465294993149832,-0.4334768478155574,9.780138089702604,0.09201189957238345,0.665513338799629,-0.016329477518993663,201.24211711711712,2.716231049597985,2.530682871811904,-0.18452930289602282,0.02639180861158163,-0.019460109854631126,-0.9822685865141985
60.0,0.047010641978383914,0.018488769875866652,-0.038960421250743844,0.4247577116286795,-0.4180690690690691,9.782062772449871,0.11945465050303761,0.5410620009410332,0.01583279708279708,201.30407827182023,2.474798992540928,2.4339122244364177,-0.18510196789514405,0.02523355729414207,-0.01753147949272775,-0.9822322380465257
61.0,0.04725647306292468,0.021645306596919503,-0.0374663857405793,0.39319913231203557,-0.4279654101105713,9.783423091294058,-0.06259410331990978,0.3030482815765073,-0.3277114816429333,201.41111171655527,2.2900204640123993,2.493857033877195,-0.18600627153743376,0.025432305163200067,-0.01581012519797678,-0.982087218479484
62.0,0.05270408657505433,0.03657861086893346,-0.03723520294488038,0.41304960490444365,-0.46249270699270706,9.780964185383535,-0.19429926758555793,-0.09937721419576256,0.09430791678775546,201.47776203622976,2.4083723844812552,2.7004629485476257,-0.18652643384812695,0.027392539079468873,-0.016490031750882216,-0.9819192714823071
63.0,0.05730186407605763,0.030932674610093972,-0.036888210791436615,0.41653824331243683,-0.4615823750017301,9.780526895559149,-0.10081786855980404,-0.10622422537745116,0.05843868061609996,201.46020718298945,2.426044391165359,2.6960256050981855,-0.18641911016331073,0.0273034989438563,-0.016677109661283405,-0.9819557748361354
64.0,-0.19462427865653678,0.32149656107720626,0.25355482902257087,2.701832523768007,-2.220909854555016,7.5197093452899875,-2.1597097673710577,-48.789986083433654,23.994666642448898,180.6995619611547,17.699263477186864,22.96311379063395,-0.03176846479055781,0.07842233339859674,-0.19832219147115315,-0.9060631856981218
65.0,-0.09423188165123654,0.39155884917175254,0.21535328877264356,3.1620118736247766,-2.6573674042706297,7.211465880627168,0.38771450021449994,24.402262631294896,-7.166316719945753,178.3829494817398,20.44981231231231,26.536253476979283,-0.013759451227134963,0.10181110254934196,-0.2258051402906962,-0.8991902386216075
66.0,0.018193839000290597,0.22578659304465762,0.0833110529884723,1.7826828441344569,-1.5510190835997286,8.497523006877843,0.3779394313668506,13.406389252155384,-4.174825026639543,189.78914499176597,11.403691998450064,14.567470696502953,-0.09891609744357259,0.06407165981691368,-0.12099950343311051,-0.9407871741577059
67.0,0.043693451516032156,0.14679090380703289,0.02476605637895958,1.0543240821466626,-1.0300368110045528,9.138787658626363,-0.1751383439891505,6.81862255400562,-2.478202496851691,196.0518699142691,6.652614307856243,8.772879734573284,-0.14630514417368978,0.04654356933885498,-0.0662401545684394,-0.9606759664700181
68.0,0.060256223965901384,0.11286229778165265,-0.006810520197616993,0.8098009299622202,-0.7830112370434948,9.454375908166229,-0.8849762060447544,2.8020924149956414,-1.0043622251283544,199.3155014893926,4.979252942458588,5.952412089508863,-0.17104949083236456,0.039674217160466915,-0.0447007322842197,-0.9702475207170882
69.0,0.06889518550808874,0.05605444153831252,-0.031141141141141155,0.5482902257095805,-0.6407255642739511,9.68448077109367,0.02874951564467698,3.908850382640705,-1.2721532015886854,201.4817821854112,3.261824324324324,4.123347137460041,-0.18733767271481155,0.03573824736268527,-0.024468817991862832,-0.9776214291983919
70.0,0.061000920275113835,0.020230553133778945,-0.03308389034195487,0.4425864574251672,-0.6087363169621234,9.772026784849361,-0.2681194299137847,0.11120495495495497,0.03445279957376731,202.28084132519615,2.579997336045723,3.560465707643127,-0.19332372871427878,0.03513883282984597,-0.01631324294100552,-0.9803541931766444
71.0,0.051947592754044376,0.0245059575704737,-0.03454373728567278,0.4324401821176015,-0.635264215828732,9.771080596725755,-0.0061755303690787244,-0.12545711033614257,-0.2919133851593529,202.25718813571635,2.52448567519132,3.7150446817785525,-0.19309883383294585,0.036342020657754534,-0.015579338558316377,-0.980375540051584
72.0,0.05783759566017631,0.02851641964545191,-0.03249588297975396,0.41434733120216993,-0.609787125835513,9.77367649907972,0.17242746779037102,0.4141979681294197,0.012057420323549367,202.42499303739223,2.4176247820401047,3.5631114985953696,-0.19454584492274535,0.034909108957909524,-0.01487584525138041,-0.9801513422793762
73.0,0.26023152184442505,0.32856824566501985,0.3562699796570764,0.14407778746488423,-1.3034553908747455,9.408536278213695,-35.949796570764306,1.9286211614840647,25.893853530950306,199.17505812263877,0.7329779376150343,8.592375641770804,-0.16764459818269883,0.07674446671461783,-0.0026676641489876956,-0.9710832087382542
74.0,0.1942114695340502,0.4616308243727597,0.2905645161290322,-2.720689964157706,-4.732311827956989,5.5684229390681,-23.83254928315412,4.015064964157706,15.56137992831541,168.76960125448028,-16.927363351254478,43.453349014336915,0.054916709802867364,0.3531905963530466,0.0805188795878136,-0.8456630363709676
75.0,0.376237527850431,0.5672936646323742,0.4332415479996125,-2.387087087087087,-4.205461590622882,6.444172236752881,30.265485747844615,-6.539632374309793,-17.436894555846166,175.42855153540637,-14.705227404824178,36.54914390196649,0.009285716890681014,0.2970572067812167,0.08331951258597307,-0.8788048742836384
76.0,0.21175675675675673,0.28832873195776415,0.19713600697471667,-0.9310973069844037,-2.524854451225419,8.096324469630924,14.066742649907969,-4.242038409377119,-8.874865288675771,177.45385910103653,-5.816211372662985,20.746850176789692,0.00718229849462365,0.16968258998111016,0.02771256676789693,-0.9340787605737189
77.0,0.1346996996996997,0.15045747360263487,0.08246100939649326,-0.17004044366947596,-1.7241133875811296,8.916877845587525,6.839929647389324,-2.8282687929865347,-4.10808237673157,159.68177552552555,-1.1762175481933541,13.077997856727697,0.16681961328150724,0.10226741224280733,-0.008200237943669466,-0.9402983064571829
78.0,0.08818318318318319,0.07583357551099486,0.013694662404339815,0.37315630146275314,-1.3533066937905645,9.322533904872614,4.642747081759178,-1.5533593068875324,-2.9241968783299424,144.13983489537927,2.097151082534147,9.394481679259904,0.3003648208970261,0.06385688387678003,-0.03674944297273079,-0.9225494702581614
79.0,0.07671191929256446,0.03215488299359267,-0.013310886923790158,0.7660216991184734,-1.0689413653284623,9.636082492630877,2.447808032687065,-1.108922516987033,-1.4940100815100812,134.9774291284372,4.469777698205117,6.528941268457397,0.37847794170964977,0.034447742493433534,-0.05555716049596602,-0.9088280298753684
80.0,0.08150669102282007,0.006279902021837505,-0.03356089730283279,0.9685683425360846,-1.0201759040146134,9.697739492949172,-0.38795179107679106,-0.8497757261870165,-0.07551298418233902,128.88215336592353,5.667006450574998,5.993788661933823,0.4287778742956851,0.024944135554573012,-0.0672635436447669,-0.8954558956617955
81.0,0.11296660716015557,-0.0007489378779701361,-0.040956075891559786,1.091640802092415,-1.052838848064654,9.681302542173512,-0.23337441704377188,-0.9060146552082036,-0.05405353510192219,125.77583810769295,6.389982839982839,6.2017554420780225,0.4539602372419286,0.022327932481587577,-0.07449368818887092,-0.8869530118362738
82.0,0.1395647721454173,-0.0033120839733742956,-0.04461879160266259,1.2161003584229388,-1.0661070148489502,9.664364823348695,-0.05614279313876088,-0.6294034818228367,-0.003411418330773165,124.76470814132104,7.128062596006144,6.3049699180747565,0.4616444405138248,0.019583297049667183,-0.08078718119508448,-0.8830736013806963
83.0,0.17155657962109577,-0.006140809011776755,-0.04948233486943167,1.2826738351254483,-1.0824531490015363,9.656541730670764,-0.05615719406041987,0.24174987199180753,-0.013242447516641062,124.46949564772146,7.51726830517153,6.399740783410138,0.46375176303021004,0.018546475245263705,-0.08426359402048131,-0.8817341067342551
84.0,0.18462365591397853,-0.008198924731182796,-0.04945340501792117,1.0695340501792114,-1.039094982078853,9.684426523297493,0.36256720430107525,1.654233870967742,0.043794802867383506,124.47591845878135,6.262656810035843,6.12494399641577,0.46409891256272406,0.02163958862007169,-0.07347385915770609,-0.8823769417741938
85.0,0.15262544802867384,0.0006093189964157704,-0.04079749103942654,0.9435573476702508,-0.987867383512545,9.70305555555556,0.3212925627240143,0.9262432795698925,0.24238351254480286,124.38144041218638,5.520273297491039,5.814796146953405,0.46508767195340506,0.02227444126344086,-0.06655593936379928,-0.8824057089068099
86.0,0.12879928315412187,0.004722222222222221,-0.03912186379928317,0.890958781362007,-0.9678763440860214,9.710797491039433,0.037466397849462374,0.471046146953405,0.07168458781362007,124.2718974014337,5.208389336917563,5.694556451612903,0.46605083491039423,0.02257135860215053,-0.06368345873655915,-0.8821363007706092
87.0,0.11045771578029642,0.0023067422260970643,-0.03957497820401048,0.8693647679938001,-0.9540061028770705,9.714570376828451,0.05625787077399981,0.2556609028383222,0.27366227114210984,124.12720078949918,5.083743521747554,5.60496131211857,0.4672261197854306,0.02233809593311053,-0.06239897083720817,-0.8816307171585296
88.0,0.09689552455681488,0.0012832994284607188,-0.04057153928121672,0.8097137460040684,-0.9341625496464205,9.721416012786987,-0.05621246246246246,0.3900952363653976,-0.0876592318124576,123.8585712728858,4.733824045820013,5.486536435629177,0.46935582707013457,0.022760094798992537,-0.05930193618473312,-0.8807107970873294
89.0,0.07964060835028579,-0.0039443475733798306,-0.02716942749200815,0.8050140463043689,-0.9442669282185411,9.72125641770803,-0.01410382156349898,-0.4010265305628209,-0.5171189334495786,124.1237437033808,4.710432710936743,5.545125266395427,0.4672937130301269,0.023453758050712002,-0.0592993863268914,-0.8817735707970068
90.0,0.09896008912137944,0.01780829216313087,-0.04274241983919404,0.9245321127579192,-0.985569844037586,9.705995592366559,-0.4206383803157997,-0.19858114162549648,-0.12644701152765672,124.49164335706674,5.407327690593819,5.79454404000775,0.4642706279666764,0.022726415033420516,-0.06562196000484355,-0.8829253452237724
91.0,0.10698004456068973,0.02511382350092027,-0.03567228518841423,0.9426155187445511,-1.0371442410152087,9.698710161774674,-0.20729499660951275,0.5855492589363556,-0.21308909716167784,124.56652620362297,5.51341966966967,6.099976993122154,0.46363982932383996,0.024683227910975488,-0.0676128869199845,-0.8830574154165458
92.0,0.09953622977816526,0.033066937905647575,-0.036436840065872333,0.857188317349608,-1.0436026348929577,9.70662622299719,-0.022920602053666583,0.8973953792502178,0.3681176135813232,124.48648345926571,5.011859137363169,6.130606412864477,0.4643456618022862,0.026956022346943713,-0.0639263614896348,-0.8828897007204786
93.0,0.09051632277438729,0.02542235784171268,-0.034889566986341186,0.8292482805386031,-1.0566400271238983,9.708057735154508,-0.10378220962898384,-0.14337220284800922,-0.17898442797636344,124.49318572604862,4.853739828538215,6.20217596628887,0.4643179418240821,0.028171760443185114,-0.06300431564177081,-0.8829516221389131
94.0,0.07264264264264263,0.03657342826697666,-0.031712438244696314,0.856995543931028,-1.0358701443378862,9.707180567664437,0.07632380364235201,0.37701158820110436,0.044689346604669195,124.69360136346023,5.013699687590817,6.083814661435629,0.4628008756592077,0.02668431886588201,-0.06370538633439891,-0.8837516116535888
95.0,0.06243115235050719,0.036244599438147826,-0.030117739859675356,0.8742199941877362,-1.046448513029158,9.704756950498883,-0.05595372157872159,-0.0033392839844452737,0.08252052455681488,124.7700861720015,5.115952026335091,6.1483717444402926,0.4622110273334439,0.02680997108258258,-0.06473125382746571,-0.8839915233111777
96.0,0.07023705733383152,0.029329071006490365,-0.028821342079406606,0.8833971713649135,-1.0581307759372276,9.702782911944198,-0.32437431671302636,-0.5400638830074315,0.4095496706383803,124.65130758638824,5.167757417555805,6.215394369023401,0.46310035723496756,0.02704587774474474,-0.06543361296635807,-0.8834672643696738
97.0,0.06330946153526798,-0.0011733992056572676,-0.03130014115497987,0.7820366656979562,-1.069601569311247,9.709041363944591,0.1282625655609527,1.1322069909771522,0.6610345224256514,124.09529137432364,4.5628334699907285,6.275659501667566,0.4674279247896237,0.0297127369000775,-0.06118562705956187,-0.8813631550410803
98.0,0.06116577406899987,0.013921921921921925,-0.03114980418206225,0.7555822919693888,-0.9863243243243244,9.7199827569505,1.2606478598414084,0.3777066813357135,0.40223893248086795,123.86217392507714,4.4097943565685505,5.7798866262575945,0.46931954984201707,0.026414249932771486,-0.058051353258299784,-0.8806592309142968
99.0,0.02940687231009811,0.007510219897316667,-0.024297172748785657,0.7358924731182797,-0.8597585973069843,9.733538312506054,1.0671518869099514,1.4002774664064985,2.334483677225613,122.95903426467942,4.298214285714286,5.037632332793623,0.47639519019709103,0.020830757954858083,-0.054263813660536106,-0.8771671332073179
100.0,0.02080257677031869,-0.014122832509929283,-0.027157802964254577,0.4373307178145888,-0.5157938583745034,9.763606994090866,1.4017818221447254,0.16384529690981298,2.6020173399205655,119.24703332364624,2.5492589363557103,3.015911072362685,0.5046647901428848,0.012294123266007942,-0.032437743303303304,-0.8614830129652232
101.0,0.015145548774581024,0.0017480383609415878,-0.030912041073331398,0.44294609125254286,-0.4496667635377313,9.77308510123026,0.0013728446188122634,-0.5031755545868449,0.009181560592850913,118.02079397946332,2.5836209193064033,2.628799162065291,0.5141432331650199,0.008525096929429429,-0.03128395072507992,-0.8564636694250702
102.0,0.025477089993219015,0.0185067325389906,-0.03346217184926863,0.4464714714714715,-0.4633861280635474,9.776470502760823,0.19118110045529396,1.2898775791920953,0.32377639736510716,117.53527014918143,2.5982181778552746,2.7083817688656397,0.5178810418875328,0.008712506388162355,-0.03191522536278213,-0.8545139629560204
103.0,0.03069989344182892,0.0320170977429042,-0.029563111498595373,0.334020391359101,-0.46134723433110536,9.782764942361716,0.12191223481546061,1.1048008694178049,0.29083266734476415,117.19254789063257,1.9461835827763247,2.694105395718299,0.5205739499726341,0.011389457016613386,-0.027065337202363655,-0.8531825802651847
104.0,0.03935193257773903,0.02601181826988279,-0.03388452969098131,0.16541848299912815,-0.4339465271723336,9.787094836772258,0.12215743969776227,1.305752324905551,0.0986843698537247,116.82760280441731,0.9617450111401724,2.5358725661145014,0.5233587715625303,0.014638138258258255,-0.018984750854887145,-0.8516920052087572
105.0,0.04297055119635765,0.014550033904872618,-0.033519325777390294,0.004677177177177166,-0.3720357454228421,9.792261939358717,0.35932051002615517,0.9825465586554296,0.15498008088733894,116.62538899786882,0.02844830717814595,2.1740046498111014,0.5248962612569021,0.016341316325196163,-0.01022351722343311,-0.8508625427743872
106.0,0.06330427201394945,0.013009783977525915,-0.03871306790661631,-0.06017485227162646,-0.31023830281894793,9.796166811973269,0.5100534001743678,0.5718904388259227,0.488472343311053,116.22250072653297,-0.3483150489198876,1.8131447980238302,0.5279479699743292,0.01534382071636152,-0.005797665910103653,-0.8490467852581612
107.0,0.059241499564080216,0.014756853627821368,-0.04081686525234913,-0.11502203816719946,-0.284940424295263,9.726043301365888,-0.3030868570183087,-0.3643108834641092,-0.3233041509251187,116.00385062481837,-0.6685995471277729,1.6636560956117408,0.5295709684701637,0.01574286582025574,-0.0027208361241887052,-0.8480826066700571
108.0,0.06014046304368886,0.01812215441247699,-0.04178388065484841,0.06984113145403469,-0.3699612515741549,9.756059285091549,-0.3264706238496561,-0.4176505134166424,-0.3010449966095128,116.51166993606509,0.4130400561852175,2.1591409958345444,0.5257536550101716,0.014404956328586651,-0.013171541072847045,-0.8503112172687203
109.0,0.04898915044076335,0.025068051922890633,-0.03883875811295168,0.10909667732248378,-0.40186379928315413,9.773029642545776,-0.23706922648454906,-0.007757253220962906,0.2263574057928897,116.55414032984598,0.6397970551196357,2.3453725903322677,0.5254413691877362,0.0146552857144241,-0.01577733524871646,-0.8505040780022766
110.0,0.059888840453356594,0.028273273273273274,-0.03508694178049018,0.11798023830281895,-0.43039426523297486,9.781398333817691,-0.03998958636055408,-0.11221756030223771,-0.016077569504988842,116.5250260340986,0.6910902838322193,2.517444359682263,0.5256499107856243,0.01562248981957764,-0.01698293355177758,-0.8503646912816042
111.0,0.06619442022667829,0.028285382156349903,-0.04178630243146374,0.12364961735929478,-0.4336200716845877,9.785546837159742,0.01607151506345056,0.259163397268236,-0.16748098905356967,116.5452751138235,0.7193130630630631,2.530535575898479,0.5255149628121669,0.01557096806839097,-0.017269591300978396,-0.8504550512680422
112.0,0.06178945074106364,0.030746875908166233,-0.040431076237527855,0.12269664826116439,-0.4446217184926864,9.789874551971328,-0.1979090986147438,-0.15068748183667538,-0.1447965102198973,116.68163930059092,0.7146587111304854,2.5958584592657172,0.5244853039387773,0.016080784417804903,-0.017527570240724592,-0.8510849496139687
113.0,0.05873970744938486,0.024047273079531147,-0.03745568148793957,0.08549258936355712,-0.4300169524363073,9.79057347670251,0.4655895815170008,0.5068415189382931,0.1836221301947108,116.64066284025961,0.4945661387193645,2.5113308873389517,0.5247995686718976,0.016450036196357647,-0.015488426455487744,-0.8509193398338661
114.0,0.23213794439600885,0.5876252058510122,0.3967080790467885,-1.4016739319965126,-3.189712050760437,7.524201298072266,-39.6080399956408,-6.6036792841228324,31.20643072507992,96.50946611934515,-8.68697477719655,26.144260692143757,0.5876624904257484,0.18505682327690598,-0.12165587556427394,-0.6940928999997578
115.0,0.25630194710839865,0.7549685169040006,0.17878862733701437,-3.159663130872809,-0.7278891795020819,5.318032548677711,5.052526821176013,-2.667039014821273,-4.890204216313087,76.98781997723529,-19.46218698537247,47.211999297684784,0.6478990026680713,0.3470066200210694,-0.20192213193984307,-0.5434149786423519
116.0,0.4027574348542091,0.4247432916787755,0.5188399690012592,-1.3078315412186383,-0.7334863896154213,7.498079046788725,18.829979172721107,-3.0243388549840162,-14.436122614550033,100.3491384529691,-8.12607163615228,25.741620652910978,0.5585178089131067,0.18287120808485904,-0.1234198259997094,-0.711152213814298
117.0,0.2621033129904098,0.22517751622590332,0.23266855565242656,-0.5331616293713068,-0.460851496657948,8.64848396783881,9.154043156059284,-0.6273763683037876,-6.988906749491426,112.32585155720236,-3.361323016564952,13.424322507991864,0.512662949581517,0.09289920335706674,-0.06952943123680133,-0.7977031637646517
118.0,0.18176402208660275,0.1207652814104427,0.09309503051438532,-0.1976426426426427,-0.3263576479705511,9.224385353095036,4.6876846604669185,0.1557898624430883,-3.676157003777971,117.41289777680907,-1.2887484258452,7.273261164390197,0.49669267792695926,0.04911688197423229,-0.04030053883076626,-0.8372650307667345
119.0,0.0987547224643999,0.05353869999031289,0.011961639058413239,0.010132471180858256,-0.18452581613871938,9.58316913687882,3.489548520294488,0.16641389373244214,-2.689593323161871,120.41416466870095,0.0049283154121864126,3.52716022474087,0.4880423590332267,0.022629740943524167,-0.022440737872227064,-0.8612234701523298
120.0,0.08395621427879493,0.023668991572217378,-0.01962849946720916,0.15137895960476605,-0.23511237043495112,9.796091736898195,0.8980280683909716,0.01687070134650781,-0.8440406131938389,122.11694456553327,0.8849686379928314,1.3763713310084278,0.4835315547854306,0.006868273142012981,-0.012969660844715682,-0.8750680472580644
121.0,0.06976799380025187,0.01996875908166231,-0.04706359585391845,0.18514022086602738,-0.2309171268042236,9.798141770803067,-0.2819689649326746,-0.11863526833284897,-0.12910945219412961,121.99090471519906,1.0859564201298073,1.3533992662016856,0.4845605694720528,0.005866603035696988,-0.014315688622009106,-0.874603344967306
122.0,0.07123704349510801,0.02060713939746198,-0.043034486099002234,0.19397244018211762,-0.264262326842972,9.795509057444548,-0.13888434805773514,-0.025743485420904773,0.003629637702218358,121.96837462462463,1.1345160684878426,1.546071272885789,0.48472070328441347,0.007113608099389712,-0.015547717366560108,-0.8744938708304271
123.0,0.09250024217766153,0.0024406664729245383,-0.0521713649133004,0.27975055700862156,-0.17852901288385162,9.791733023345927,2.936410200523104,-0.46627676063159934,3.307426377990894,121.37246016177468,1.6363944589751043,1.030260098808486,0.48919861010994864,0.0009492460210210212,-0.017002527294391168,-0.8718218967906615
124.0,0.04580548290225709,-0.008474522910006782,-0.04884505473215152,0.13243848687397078,0.06315484839678384,9.793355613678198,-0.21482672188317342,1.3069662404339824,0.6446950983241304,118.68734712535115,0.7769755642739514,-0.375018163324615,0.5093664338692725,-0.006025275642497335,-0.003968325905260099,-0.8599427987440666
125.0,0.06870919306403178,-0.007171849268623463,-0.048405502276470024,0.044834834834834844,0.0320478543059188,9.796677806839103,-0.5684908699021601,0.6576273854499661,-0.33278237915334685,118.42210658238884,0.2636557928896639,-0.1899732393684007,0.5114797769480771,-0.0024215373418579864,-0.000968004045820014,-0.8589895910297394
126.0,0.05651239949627047,-0.0052816526203622975,-0.045497432916787775,0.011615325002421774,-0.026796473893248105,9.798395572992352,-0.340097658142013,0.21847149568923763,-0.39486764990797246,118.7233135353095,0.06829258694178053,0.15934533323646227,0.509284024760002,0.0010996808626368305,-0.0011527815041654558,-0.8604398485619489
127.0,0.05343989150440763,0.001888743582291969,-0.04161072362685267,-0.01669233749878912,-0.058111498595369585,9.799309793664637,-0.29978113193838996,0.2211309091349414,-0.08509063498982854,118.86056469776227,-0.0952499878911169,0.3422454712777293,0.5083024267124383,0.0032596974922503145,-0.000733326195631115,-0.8610977194243437
128.0,0.056576576576576575,0.005769640608350286,-0.04534389227937616,-0.04538021892860604,-0.08528334786399305,9.799843068875333,-0.312945001453066,-0.10692446478736803,-0.24065799670638383,118.92325389906034,-0.2642188559527269,0.49851968904388255,0.5078913946599823,0.005225317684297201,-0.000168900485808389,-0.8613799485517776
129.0,0.0744531628402596,0.009198391940327427,-0.04688583745035359,-0.030405405405405414,-0.11266928218541124,9.800000000000006,-0.037472452291000685,-0.02530302479899256,-0.2412452775356001,119.03832461493751,-0.17957019519519518,0.6563514118957667,0.5070097031403177,0.006007964970696502,-0.0016090963360941583,-0.8619142448130388
130.0,0.0628189479802383,0.008027705124479317,-0.0473583260680035,-0.034271045238787184,-0.13226048629274437,9.800000000000006,-0.0495949578610869,0.02649726339242467,-0.06775525525525525,119.29944965126415,-0.2013676983435048,0.7730976944686622,0.5050363825612709,0.007021148168652523,-0.0018826174450256707,-0.8630626108195294
131.0,0.06810084277826212,0.01681730117213988,-0.0503739223094062,-0.054332558364816444,-0.1518383706286932,9.800000000000006,-0.16978924489005134,0.8618542938099389,0.09699820788530467,119.309162489102,-0.31711802528334787,0.8850534001743678,0.5049595945166134,0.008418272467548192,-0.0014607281756756757,-0.8630962530102683
132.0,0.04928339629952533,0.01642836384771869,-0.043072265814201316,-0.08348348348348347,-0.1787462462462463,9.800000000000006,-0.23943651312602926,0.016976654073428243,-0.05723566308243727,119.35739822483774,-0.48575995350188894,1.0400849438147826,0.5045766774912815,0.010348966507071587,-0.0008605288862249346,-0.8632978600983241
133.0,0.06926620168555651,0.01574300106558171,-0.0405468371597404,-0.035743243243243246,-0.20041848299912823,9.800000000000006,-0.1437173060156931,-0.512621996996997,-0.05442034776712196,119.3628290588976,-0.2075250653879686,1.1599341276760633,0.5045630208975103,0.01003083157609222,-0.003554469828296038,-0.8632956110374892
134.0,0.061147437760340984,0.00524605250411702,-0.038705318221447266,-0.0468725176789693,-0.22117698343504805,9.800000000000006,-0.09095587523006876,0.17858483483483478,0.276833284897801,119.2189649326746,-0.27160527462946815,1.2804598953792503,0.5056193021064612,0.01124220478446188,-0.0035740809042913877,-0.8626620268449094
135.0,0.08277462946817786,0.01828901482127289,-0.0446742710452388,-0.06110118182698829,-0.2236249152378185,9.800000000000006,0.08497105976944687,0.31028861522813134,0.11052685750266394,119.0616644870677,-0.3544285212631987,1.3028310568633148,0.5068173838096968,0.011743656812941972,-0.0030221111883657857,-0.86196106803158
136.0,0.08401918047079339,0.02353216119345152,-0.036546788724208086,-0.07429841131454035,-0.2344938486873971,9.800000000000006,-0.3443781483095999,-0.7117147389324807,-0.12645609318996415,119.22805870386514,-0.4232433037876586,1.3618088854984016,0.5055334606432238,0.012508638839242466,-0.0027633558301850235,-0.8626989546473894
137.0,0.09684829991281604,0.03358955729923473,-0.039200813716942756,0.09136781943233555,-0.30925409280247995,9.794551971326168,-0.3419639397461978,-0.3466167780683909,-0.03584229390681003,119.16140838419065,0.5352701491814394,1.8044203477671217,0.5059749587983143,0.011423767488617648,-0.012186760271723336,-0.8623213408272787
138.0,0.07925675675675675,0.04035430591882205,-0.040200038748425856,0.09470260583163807,-0.31626174561658427,9.795125448028678,0.009046849268623453,0.4381841518938293,0.3799313426329555,118.75772395379249,0.5579273830281894,1.846939177080306,0.5090303643429719,0.011580574456311148,-0.012580451133149278,-0.860528405068294
139.0,0.06372420807904679,0.03769010946430302,-0.03791291291291292,0.050915673738254376,-0.30410370047466806,9.797562724014341,0.032954325293034964,0.3388186573670445,0.06378656882689142,118.59866923374989,0.2990773031095611,1.775663264070522,0.5102404223856918,0.012215664881332945,-0.010326277370677128,-0.8598527136355711
140.0,0.06360941586748037,0.03756369272498306,-0.03878620556039912,0.009736510704252625,-0.2843591979075849,9.798781362007173,0.05366354257483289,0.2807444541315509,-0.06314479802383027,118.64823694662405,0.060604959798508176,1.6605970890245083,0.5098507093693692,0.012469352906616295,-0.007906193474765087,-0.8601140880901867
141.0,0.0632674610093965,0.032656688947011535,-0.03268575026639543,-0.017527366075753184,-0.2786191029739416,9.79939068100359,0.012183049985469336,0.043876537828150736,-0.278702593722755,118.75686573670444,-0.09710113339145598,1.6248077714811584,0.5090287377361231,0.012950228688607963,-0.006493091357163614,-0.8606120076588686
142.0,0.05943839000290614,0.01592511866705415,-0.030007749685169047,-0.028064758306693798,-0.2957880461106267,9.799865591397856,-0.08343020439794634,0.15197859149472054,-0.1822220405889761,119.08822229487552,-0.1584856025380219,1.7229381599341276,0.506533095749782,0.013989603416884627,-0.006388844486825536,-0.8620733206170688
143.0,0.07473263586166812,0.01711130485324034,-0.03484258452000388,-0.027755497432916797,-0.31448900513416644,9.79870967741936,-0.08853409861474378,0.015281410442700767,0.17515802092414995,119.10241087862056,-0.160027971519907,1.8339993219025477,0.5064504662530271,0.014834319141238011,-0.006875646208466531,-0.8621086632655239
144.0,0.07128136200716846,0.02349462365591398,-0.03706093189964159,0.00797491039426524,-0.3240322580645162,9.799354838709682,0.013104838709677422,0.12981630824372759,0.13424059139784944,119.01870519713262,0.04497087813620071,1.8860887096774193,0.507093585860215,0.014215011514336916,-0.008870880734767024,-0.8617227754838712
145.0,0.06341397849462366,0.0282078853046595,-0.034802867383512556,0.024874551971326174,-0.32020609318996424,9.799677419354843,-0.05297939068100359,0.09884632616487454,-0.09655017921146956,118.9988799283154,0.14196908602150538,1.8680555555555556,0.507236493969534,0.013562657105734767,-0.009611068620071682,-0.8616383323566308
146.0,0.0716923374987891,0.028721301947108403,-0.03161823113436017,0.012065048919887635,-0.3192042042042043,9.799838709677426,0.022301535406374112,0.09162035018889858,-0.12843438196260779,119.05365446091253,0.06823809696793567,1.8657700038748426,0.5068381461837643,0.013932900489198874,-0.008961515286253996,-0.8618755240564757
147.0,0.0727726920468856,0.023097210113339147,-0.03399907972488619,0.005938438438438441,-0.3235537150053279,9.799919354838716,0.015015015015015015,0.20752052455681488,0.0795720115276567,119.05874927346701,0.03235493558074203,1.89256242129226,0.506804008244212,0.01428686824639155,-0.008761285591155672,-0.8618934099762665
148.0,0.050432044948173986,0.027978785236849754,-0.03923592947786497,0.0022340889276373163,-0.3302194129613484,9.797768090671322,-0.15946944928799767,0.12687233604572315,-0.13021287416448707,119.12550857308922,0.013186573670444637,1.9323839969001257,0.5062909262588394,0.014676119004407632,-0.00877673376755788,-0.8621943877179599
149.0,0.054526058316380896,0.036301220575414135,-0.033753269398430694,-0.006450159837256613,-0.345414365978882,9.795873292647489,0.005362721592560307,0.257516589169815,-0.08437167005715393,119.22533269156253,-0.03675348735832607,2.0210755109948657,0.5055241661401725,0.015628203789838226,-0.008675621915140947,-0.862624088218299
150.0,0.04901482127288579,0.03281458878233073,-0.02724401821176015,0.022231909328683533,-0.36691417223675293,9.793348832703673,-0.100337232393684,-0.1277941247699312,0.12341676353773126,119.0952212292938,0.12762460040685847,2.13856194904582,0.5064966586883657,0.015708993646711224,-0.010638269237140365,-0.8620264218376441
151.0,0.04602150537634409,0.04116947592754045,-0.02979511769834351,0.05043398236946625,-0.37634093771190535,9.791513126029256,-0.12424773563886465,-0.04359046546546547,0.11284722222222222,119.08629849607672,0.2952130557977332,2.1997602441150828,0.5065371005415091,0.015381616365639833,-0.012239692693742126,-0.8619871091853143
152.0,0.05572507991862831,0.04821030708127484,-0.031472924537440675,0.06680422357841714,-0.3878053860311924,9.79059527269205,-0.2539565775452872,-0.13072447447447447,-0.16860408795892667,119.07769059381963,0.3918616196842003,2.266873728567277,0.5065969728949917,0.015444135380703284,-0.01329114862152475,-0.8619292329371304
153.0,0.07081952920662599,0.04551753366269497,-0.033229439116535905,0.07788142981691368,-0.40911629371306785,9.790206093189965,-0.23551928945074105,0.33987061658432627,-0.2118782088540153,119.34851787271141,0.4496785091543156,2.390172430495011,0.5045192461239465,0.016134885151361036,-0.014285398850140464,-0.8631160522546739
154.0,0.07101908359972878,0.04484210016468083,-0.034361135328877274,0.089478349317059,-0.43904291388162364,9.790035842293907,-0.17423925942071103,-0.0333857042526397,-0.07939340550227647,119.47567022667829,0.5190820861183765,2.562581734960767,0.5035499199929767,0.017140132768332848,-0.015546463959120412,-0.863646871611208
155.0,0.08780950305143853,0.05877264361135329,-0.03148697084180956,0.26920711033614264,-0.5236687493945558,9.780374891020049,-0.3183682674610094,-0.6599765087668312,-0.30713273757628595,120.1843410951274,1.5713425118667055,3.06115440036811,0.4980939240065872,0.0164911941923375,-0.025588653735832606,-0.8664763693911653
156.0,0.06398091640027125,0.054260873777002804,-0.02913058219509833,0.2728741644870677,-0.5435324033711131,9.780312893538696,0.0016861619684200302,0.2840350431076239,-0.0009566017630533719,120.07836566405115,1.5902747505570087,3.178006635667926,0.4989032890463043,0.0172210193766347,-0.026256297755013078,-0.8660308212995254
157.0,0.07250048435532308,0.046903758597306985,-0.03090792405308535,0.21506829410055214,-0.5393294100552164,9.783761503438921,-0.07424410297394168,0.5445622033323647,-0.097334229390681,120.15184085294973,1.25568663421486,3.1540098566308243,0.49838217261382345,0.01849767328901482,-0.023597673973408895,-0.8664028285704253
158.0,0.08034074396977622,0.049433062094352415,-0.03208926668604088,0.1679373728567277,-0.5314433788627337,9.786880751719462,-0.06851206044754432,0.1950801608059673,-0.21029345878136202,120.190699772353,0.9810299210500824,3.1057347670250897,0.4981060714189188,0.019312746586263682,-0.021316930826310185,-0.8666194693792988
159.0,0.07859779133972682,0.050670832122445025,-0.04013513513513514,0.10289789789789788,-0.4324062772449869,9.790734282669767,0.9808649375181633,0.7605105105105106,-0.5521953405017921,120.38774459943815,0.5987418870483386,2.522513440860215,0.4966738677927927,0.016663384547612133,-0.015719707348638964,-0.8675756646851691
160.0,0.08604693403080499,0.043853288772643606,-0.03899956408020924,0.12266516516516514,-0.37194420226678293,9.792899835319194,-0.1517591179889568,-0.7284249975782233,0.2212050760437857,120.58671776615324,0.7168186331492783,2.172247348154606,0.49519242560084276,0.013525241449917663,-0.015123782510413637,-0.868490565350431
161.0,0.09040249927346702,0.06542574832897415,-0.0460185992444057,0.19001985856824563,-0.4350402014918143,9.788878233071777,-0.4213376683134748,-0.4076152765668894,0.01080415092511866,120.43403988666086,1.1206741015208757,2.5442609948658337,0.4963128065683425,0.014571456697181052,-0.01980337794875521,-0.8677450733338177
162.0,0.08379758791049115,0.08242516710258646,-0.04368497529787853,0.21652257095805477,-0.49882786011818264,9.78432141819238,-0.35286042090477576,0.09234536956311154,-0.10643859585391845,120.49208533129904,1.2693333454422162,2.9142948391940324,0.49583829082994285,0.01672180613411799,-0.022585374187978305,-0.8679292124036133
163.0,0.06843553230650005,0.08783444735057638,-0.03850915431560594,0.20783565823888403,-0.5078279085537151,9.78515354063741,-0.08573240579288967,0.010554405211663294,-0.19768054344667246,120.79014548823017,1.2138837426135813,2.9681521238980917,0.4935834890305628,0.0173739248905357,-0.02235462552140851,-0.8692156844320933
164.0,0.07176063159934129,0.0716802286157125,-0.03578126513610386,0.17595369563111496,-0.4998391940327425,9.787505085730894,0.0039293325583648064,0.4250308776518454,0.4050784655623365,120.77410878620556,1.021756635667926,2.9197120507604377,0.49372221792599064,0.017839663157027997,-0.020719386723820597,-0.8691748615315315
165.0,0.060747602441150836,0.07436525234912332,-0.04137072556427396,0.2276101908359972,-0.4904843553230651,9.785958781362002,-0.23401021989731666,-0.5084747045432528,0.23205766250121088,120.66916109658045,1.3254005013077594,2.8677861329071006,0.4944680673157028,0.016094770334205172,-0.022820913466046693,-0.868719617909038
166.0,0.056074300106558186,0.04709725854887146,-0.03769834350479512,0.2524895863605541,-0.45785769640608354,9.786809067131642,0.1996512641673932,0.2530574929768478,0.1678200377797152,120.44529509348057,1.4672061174077302,2.6709017485227164,0.49619118860021305,0.013958535519713263,-0.02306534739319965,-0.867769199566502
167.0,0.05804489973844813,0.04419718105201978,-0.03868836578513998,0.26674222609706477,-0.45370556039910864,9.64490990990991,0.03893611353288773,0.14645391359101037,-0.42503844570376825,120.39047969340308,1.5550757410636442,2.6517439818851107,0.49659912481788243,0.013417672434854207,-0.02361641074203235,-0.8675394230211663
168.0,0.060232490555071204,0.04432965223287806,-0.036940811779521465,0.25909183376925315,-0.44463528044173195,9.717517678969292,0.09338976072847041,0.10840477574348542,0.1260716361522813,120.4719406906907,1.5079948900513416,2.600573355613678,0.496024038364332,0.013250470451903515,-0.02303125536278213,-0.8678951011648746
169.0,0.057578223384674984,0.040195921728179804,-0.03728470405889761,0.2511457425167103,-0.43023297491039425,9.753472101133394,0.047827060931899645,0.42395621427879493,0.07998219994187736,120.31255600358423,1.4613499588297976,2.5169781676838126,0.4972202913419064,0.012792623617407732,-0.022377074247311828,-0.8672320096650682
170.0,0.02982853821563498,0.04281749491426912,-0.03796134844521942,0.22865978882107918,-0.41675627240143365,9.771821176014726,0.023857526881720437,0.18991269495301755,0.10400319674513223,120.32627688172043,1.335597694468662,2.433080257677032,0.4971436337130678,0.01273494443863218,-0.021060262688172043,-0.8673116987707059
171.0,0.027684297200426228,0.03739973844812555,-0.03462341373631697,0.23058292163130883,-0.4152453259711324,9.780949820788532,-0.07469515886854595,0.14901948319287028,-0.09289329652232878,120.34771414559721,1.3443978252445994,2.42282403371113,0.49696580575898475,0.012636255411702026,-0.021110994920565725,-0.8674173644163516
172.0,0.025698924731182793,0.03237334108301851,-0.03857163615228132,0.21330814685653404,-0.4371766928218541,9.789964157706095,-0.13905235881042333,0.33688123607478443,-0.014736510704252644,120.4394828296038,1.2482623752785043,2.54961917562724,0.49627232909764596,0.014033991745132228,-0.020890326989731665,-0.8677990044463818
173.0,0.03822677516225903,0.0307861086893345,-0.03621016177467791,0.1877874648842391,-0.4506618715489683,9.789838709677422,-0.036081444347573384,0.2121809309309309,-0.009738569214375666,120.46952042768575,1.0935592850915432,2.630405102683328,0.4960431517560302,0.015300247051002615,-0.02008173258282476,-0.8679265558413252
174.0,0.050045287222706576,0.0305722658142013,-0.04144289450741065,0.16328441344570377,-0.44926910781749485,9.789928315412187,0.06070031725273661,0.273317167974426,0.08104021360069748,120.48736438050955,0.9489973844812554,2.6189379904097643,0.4959265005240725,0.015847019811343604,-0.018939556304853243,-0.8680111273740676
175.0,0.05492855758984791,0.034322871258355134,-0.04002252252252253,0.14294148987697375,-0.43529763634602336,9.789964157706095,-0.08050893635571055,0.13987879008040296,0.03309963188995447,120.4137090719752,0.8275452872227065,2.5374875883948462,0.4964967932100648,0.01575039378111983,-0.017671924442749204,-0.8677128255642738
176.0,0.04559139784946235,0.03436646323743098,-0.03847621815363751,0.10801220575414125,-0.42620846653104716,9.789982078853049,-0.02738423907778747,0.3824893441828925,0.048928969291872515,120.42939613000097,0.6254722464399883,2.4878578174949144,0.4963967503400174,0.016250340099292843,-0.015893961475346316,-0.8677941804925893
177.0,0.06081759178533371,0.03164462849946721,-0.03934224547127773,0.08750460137556913,-0.41774532597113245,9.789991039426525,0.03256078659304465,0.18928908747457132,0.3008557953114405,120.29224637944395,0.5107557153928122,2.445396505376344,0.4974411863634602,0.016391759214133488,-0.014830156000193741,-0.8672083568301364
178.0,0.07213019471083988,0.043241790177274045,-0.038374745713455394,0.16538046110626758,-0.4296122735638863,9.790000000000003,-0.12346217184926864,-0.23892642642642636,0.2887983749878911,120.0647961469534,0.9653474038554684,2.5103424997578223,0.49912976924682745,0.01487527223602635,-0.018605972690351642,-0.8661834165286253
179.0,0.05012423714036617,0.046647776809067135,-0.031915867480383615,0.19007822338467503,-0.43483749878911154,9.789856630824374,-0.09107696406083504,0.20826976169718112,-0.21405175336626947,120.02352150537634,1.110081856049598,2.5429456674416353,0.4994439627237722,0.014474016140414608,-0.01982531582098227,-0.8659854953879687
180.0,0.04161677806839097,0.03360166618231134,-0.03411653589072944,0.15868158481061706,-0.44962753075656303,9.789928315412187,-0.06446769349995157,0.3397419597016371,0.1664396251089799,120.09587813620072,0.9251126126126127,2.629755763828345,0.49890388645597217,0.015948327304078275,-0.018799398609415867,-0.8662940646294683
181.0,0.05162646517485227,0.035315315315315315,-0.03209265717330234,0.11664729245374407,-0.44475418967354446,9.789964157706095,0.08930301269010946,0.24426493025283347,0.11639815218444248,120.00764675966289,0.6810611014240047,2.5963518962510896,0.49956916257265327,0.016776960846653102,-0.016819925511237045,-0.8659396987600503
182.0,0.05711469534050179,0.034349510801123695,-0.030741063644289458,0.11450886370241208,-0.4329434272982659,9.789982078853049,0.00756199748135232,0.08008815266879782,-0.09169148987697376,119.9435937954083,0.6685405163227744,2.523448852077884,0.5000667230984209,0.016262699827569504,-0.016420890246052505,-0.8656737065915914
183.0,0.0573353191901579,0.03780829216313087,-0.03684781555749298,0.10469655139009978,-0.43227913397268225,9.789991039426525,-0.09762181536375085,0.13286169233749878,0.06451764264264262,119.93555501065582,0.6117816405114792,2.522092657173302,0.500125948278359,0.016506496583841908,-0.015988986686525236,-0.8656454387491523
184.0,0.04912912912912913,0.036171171171171176,-0.04008161387193646,0.10612515741547998,-0.4407229003196743,9.790000000000003,-0.08560526252058509,0.029132459071975193,-0.007699736026348936,120.00633597306984,0.6192028722270658,2.5707461493751813,0.4995744196275307,0.01684747402668798,-0.016272441273370145,-0.8659531276048629
185.0,0.05125811295166134,0.02434006587232394,-0.03479439116535891,0.1173905356969873,-0.44171001646808083,9.790000000000003,-0.0815291097549162,-0.06806705899447836,-0.008806185217475542,119.89463304029836,0.6838733895185508,2.5768157270173395,0.5004049171524749,0.016576579240046498,-0.016825636165358905,-0.8654645160336142
186.0,0.05891310665504215,0.024190642255158386,-0.03482999128160419,0.11197035745422843,-0.4488971229293811,9.790000000000003,-0.131490361329071,0.10491136297587911,-0.19274314637217863,120.05050312409183,0.6502924295263005,2.6225812506054442,0.4991882136210405,0.01708615763973651,-0.016734382159740383,-0.866159064136879
187.0,0.04936501017146179,0.029553908747457138,-0.03479075850043593,0.1140366172624237,-0.45005884917175243,9.790000000000003,-0.03237007168458782,0.2002324905550712,0.18354342245471278,120.08197562481837,0.6616762932287126,2.6309833018502373,0.49898500575995364,0.017114367259275405,-0.016841818852320056,-0.8662773529707934
188.0,0.08410006780974523,0.03145258161387193,-0.0382107914365979,0.09598784268139107,-0.4432955536181342,9.790000000000003,0.03192204301075269,0.4864289692918725,0.3417717112273564,119.97767576043785,0.5571206286932093,2.588425118667054,0.4997710438746005,0.017215124458490747,-0.015883714977235296,-0.8658373809791243
189.0,0.08010558946042816,0.031219122348154604,-0.03146202654267171,0.07760413639445898,-0.4159846943717911,9.790286738351256,0.2743055555555556,0.06663518357066744,0.32481170686815847,119.61128971713649,0.44914723190932865,2.4285091543156057,0.5025786432500243,0.01643138289232781,-0.014407044800445605,-0.8642454435047953
190.0,0.053848445219412955,0.031584810617068686,-0.0347808292163131,0.11233362394652721,-0.39934224547127767,9.791119829506927,-0.01941810762375276,-0.13259529690981303,-0.14720920517291486,119.665967378669,0.6492964738932481,2.330334871161484,0.5021571766516517,0.014833225385789016,-0.01550691336215247,-0.8644963378671414
191.0,0.07674949142691079,0.028444735057638285,-0.037475540056185225,0.1417761309696794,-0.4171263198682553,9.790559914753466,-0.20860578320255738,0.002754770899932188,-0.29893502373341085,119.83068754238109,0.8219600649036132,2.436700813716943,0.5009264652165069,0.014880566747554006,-0.017261185968710645,-0.865178489377119
192.0,0.07227283735348251,0.021688704833866125,-0.034093771190545394,0.14471689431366855,-0.4285408795892667,9.790279957376733,-0.23165504213891308,0.14375363266492297,-0.019188038845296934,119.91810762375277,0.8418928000581226,2.5011442894507407,0.500246626211857,0.015332254010219898,-0.017692815330088152,-0.8655565791339725
193.0,0.04945510026155188,0.03262133100842779,-0.038554441538312514,0.15004431851206046,-0.4513469921534437,9.789303012690112,-0.17302534389227936,0.2306045965320159,0.4340943766346992,119.57310132713357,0.8782724256514579,2.6367229124285574,0.5028287895727985,0.016143884328683522,-0.018608414784704062,-0.864015167275259
194.0,0.06308776518453939,0.031722851884142214,-0.030912525428654466,0.10300154993703381,-0.45492976847815536,9.789642545771581,-0.03003305725079919,0.4389470115276567,0.24096071878329942,119.11730783202557,0.6001465174852272,2.658835246536859,0.5062555324745713,0.017466324556814877,-0.016614862800058125,-0.862021917378669
195.0,0.0589850334205173,0.037674852271626466,-0.03284074396977623,0.11232902257095806,-0.45812312312312303,9.789790758500438,-0.1783502252252252,-0.4622778019955439,0.07871379443960089,119.02519707207207,0.6586990216022475,2.676845696502955,0.5069603430550711,0.017326774514675965,-0.0171705129824179,-0.861607813436501
196.0,0.05342172817979269,0.03362685265911073,-0.032406035067325395,0.11608834641092705,-0.44053109561174086,9.789178533372084,0.1590607744841616,0.259396493267461,-0.10126810278019953,118.92386085682456,0.6764037222706578,2.576018054344667,0.5077168098563886,0.016442908771674897,-0.016856203861280634,-0.8611878699440569
197.0,0.06427104523878717,0.03748668022861572,-0.03188704833866125,0.16573961057832026,-0.44332994284607197,9.789589266686043,-0.10832606800348735,-0.04926196357647972,-0.011382350092027496,119.02587062869321,0.9678145887823307,2.591842850915431,0.5069648780228615,0.015295112894991764,-0.019106744270560888,-0.8616066301254481
198.0,0.04872130194710839,0.025357696406083506,-0.03603894216797443,0.19839533081468563,-0.44529085537150065,9.788530465949819,-0.414426523297491,-1.365096447253705,-1.358513755691175,119.82523854499661,1.1584538167199456,2.6052640341954856,0.5008923326901094,0.014705128223142497,-0.02051236986656011,-0.8650867806061707
199.0,0.04432723045626271,0.036314055991475344,-0.03675385062481837,0.5752237721592561,-0.5437934708902452,9.760529400368108,-1.1551753366269495,-2.5730468371597404,-0.09950777390293519,120.28873934418289,3.370879952533178,3.188974256514579,0.49705437015111886,0.00960104042962317,-0.03974117379395524,-0.8664674826683134
200.0,0.06272546740288676,0.0322265814201298,-0.03946333430204399,0.6473575995350188,-0.5502295844231329,9.757917029933154,0.685735130291582,1.132795093480577,0.46350231279666765,120.8045490046498,3.7813332485711517,3.2232923447641193,0.4931430900043591,0.008253864094982077,-0.04290285025598179,-0.8686532309447349
201.0,0.05762714327230456,0.03209871161484065,-0.038183183183183186,0.4588438438438438,-0.49524411508282473,9.773004456068971,0.46869853724692434,1.0863060641286446,-0.1132362200910588,121.13034909909909,2.6744435968226288,2.8986274581032645,0.49085666112225124,0.010609173017533662,-0.03309287698876296,-0.8703865301293229
202.0,0.06602901288385159,0.025718056766443856,-0.03851424004649813,0.3793875326939843,-0.4645154024992735,9.780211905453834,0.04589872130194714,0.5916127821369755,0.08180458684490942,121.33238127240142,2.2131723457328296,2.7208947859149473,0.4893994779891989,0.011306832031386223,-0.028811421639784944,-0.8714182106768866
203.0,0.07018744551002615,0.034709386806161,-0.04154654654654656,0.3775477089993219,-0.4951385256223965,9.779984984984981,0.289638428751332,0.18071902547708993,0.5388301608059672,121.16935483870968,2.2042284219703574,2.9014700184055022,0.4906433891514095,0.012658403883076624,-0.029528838727598563,-0.8707125980490168
204.0,0.074884481255449,0.03222391746585295,-0.04277414511285481,0.33024290419451713,-0.475838661241887,9.78449554393102,-0.08717184926862345,0.30518623462171846,0.24429520246052505,120.79765148212729,1.9292720139494333,2.7836415044076332,0.49349359379540836,0.012885373393151217,-0.026977117977574343,-0.8692080789983532
205.0,0.06897897897897898,0.02095514869708418,-0.039922018792986555,0.36170299331589656,-0.4913557105492589,9.781911750460132,-0.2576316235590429,-0.3963540153056282,-0.356207013465078,120.78284231812458,2.1102453259711327,2.8772038167199456,0.49358169211275804,0.012775330231521845,-0.028784784091833764,-0.8691141372231911
206.0,0.05557928896638574,0.022149568923762478,-0.03542550615131261,0.3579284122832509,-0.49105855855855873,9.782402160224738,0.13941713891310667,0.45803363847718687,0.1661550663566793,120.87820431318416,2.089415019858568,2.8711493751816333,0.4928770430814685,0.012889816292744357,-0.02857152792792793,-0.8695163731926281
207.0,0.06815823888404532,0.02791000678097453,-0.03187639252155382,0.3370996803254867,-0.48403661726242386,9.783033033033028,-0.034066828925699885,0.10299967306015693,0.030758076625012114,120.84798508185605,1.9678827012496365,2.8234691344570377,0.4931024823689819,0.013086118629032258,-0.027469989628257294,-0.86942760930495
208.0,0.05282911944202266,0.028032064322386904,-0.03357260486292746,0.32786883657851396,-0.4783086312118572,9.783523684975297,-0.021429695824857112,0.24278007846556232,0.008294584907488137,120.93127300687783,1.9140208757144241,2.795947156834254,0.4924985560680034,0.013124929390681002,-0.026954767139397463,-0.8697889972241597
209.0,0.05382422745325971,0.023563644289450743,-0.03084713746004069,0.32736316962123413,-0.4788685459653203,9.78365131260292,-0.1459105274629468,-0.05284165213600697,-0.2581795505182602,120.96490694323356,1.9087171849268625,2.7997765911072365,0.4922370582267752,0.013149904464303011,-0.026935475858277633,-0.8699369418722755
210.0,0.05685386999903128,0.020962171849268622,-0.03797926959217283,0.3392252736607575,-0.5038072750169524,9.781987552068191,-0.020415576867189762,0.3484618691271917,-0.18525985663082437,121.21437566598857,1.9818881381381381,2.9446881357163615,0.49030701116947595,0.014006269183861279,-0.02806323668022861,-0.87097117289257
211.0,0.05698876295650489,0.07906083502857694,-0.09619393587135523,0.3642318124576188,-0.45820740094933643,9.782521553811874,1.6936452581613872,0.01879298653492198,-0.40949820788530467,121.48465199070037,2.1263047321515063,2.6664244890051343,0.4882615639673545,0.01130078044318512,-0.02791643294584907,-0.8721294266434176
212.0,0.10647849462365588,0.07067882398527559,0.035232490555071196,0.3341569795602054,0.18186597888210793,9.770590429138817,3.959574493848687,0.19160793858374503,0.4186131696212342,121.74942180083309,1.9491986946624045,-1.0815139736510706,0.4860809289772837,-0.01667677304925894,-0.01055520635667926,-0.8729799485077013
213.0,0.08177080306112561,0.03669136878814297,-0.02742492492492494,0.2587217863024315,0.6287987987987987,9.75723772159256,1.8523866608544026,0.5206683498014143,-0.31750853676256896,121.52095593577448,1.510265305628209,-3.691052443572605,0.4876693640819045,-0.03476762287368013,0.004069955005570086,-0.8717047893390971
214.0,0.08099292841228323,0.016741741741741735,-0.052534147050276085,0.345319674513223,0.6038438438438438,9.76339484645936,-2.1302582824760243,-1.2773842390777874,-2.5528794923956215,124.18282899835319,2.0201976169718106,-3.5322701733992057,0.4671939848232103,-0.03548579427734186,-0.0012138596522328782,-0.8826445873263586
215.0,0.07565775452872225,0.025655090574445413,-0.05260534728276664,0.3897435338564371,0.42384868739707454,9.776575365688267,-0.8695646251089799,0.6595587523006878,-0.9533959362588397,126.31749340065872,2.2732308921825046,-2.4724068826891408,0.450826488178824,-0.028276623664390196,-0.007874450266395428,-0.8915163022202847
216.0,0.06831274823210307,0.03189116535890729,-0.05541557686718979,0.30717911459846947,0.3840659207594692,9.783399690012594,-0.782200547321515,0.023047745325971092,-0.681279061319384,127.26165328635088,1.794545553618134,-2.2382195703768284,0.4436283116431754,-0.02467920878111983,-0.005338107534631405,-0.895540847588637
217.0,0.05676838128451032,0.034740385546837164,-0.05667732248377412,0.32545335658238883,0.24165213600697477,9.788339629952532,-0.9094134457037683,0.362582340404921,-0.2821157851399787,127.76918349801414,1.9036011818269882,-1.4061561561561562,0.4397454589891503,-0.018610501491814396,-0.009562197925021795,-0.8977173028668992
218.0,0.06130824372759857,0.030503487358326073,-0.052289547612128284,0.2751135813232587,0.1709234234234234,9.79505473215151,-0.5009081662307469,0.012814225515838412,-0.10130442942942944,128.08969201055893,1.607057662501211,-0.9904400368110046,0.437440071874697,-0.014254354659982562,-0.008942451893829311,-0.8990464429272018
219.0,0.07181003584229392,0.018876295650489202,-0.04986341179889569,0.28533904872614546,0.12655042138913103,9.79700765281411,-0.7309648358035454,-0.21239889082631022,0.4948506974716652,128.09690133682068,1.6725364477380604,-0.7333472585488714,0.43734397234863887,-0.012437126783396299,-0.010461421878814296,-0.8991287732960382
220.0,0.06239586360554103,0.016003099874067617,-0.047242080790467905,0.2658560980335174,-0.024244405696018642,9.79797636346024,-0.9147958442313281,0.2661305458684491,0.24611758936355713,127.67590271723334,1.553383524653686,0.1455593698537247,0.4406254803417126,-0.004944115396929187,-0.013020169365736703,-0.8975348958154123
221.0,0.05874721495689239,0.019954954954954956,-0.04242032354935582,0.28578199166908846,-0.10919209532112764,9.796138719364532,-0.4706147679938003,-0.014924198391940341,-0.16236347234331103,127.76531470987115,1.6680728107139395,0.6405160200523105,0.43989573871476306,-0.0013498803821563499,-0.015873156694517096,-0.8978727966756272
222.0,0.06206819722948756,0.013404533565823891,-0.04158892763731474,0.3167565145790952,-0.21305313377894025,9.792336045723143,-0.7792520342923569,-0.4170375012108883,0.1448040782718202,127.7165915915916,1.8479018332848978,1.2478461324227454,0.4402673589416835,0.002742203509396493,-0.019625027263392426,-0.897612737523007
223.0,0.04531725273660758,0.013028431657463918,-0.04136346023442798,0.4422268235977913,-0.30230165649520496,9.784268381284509,-0.7124306766443864,-0.361380533759566,0.18278510365203915,127.82122142303592,2.586613327036714,1.7748247239174657,0.43933816181851204,0.004099526588927637,-0.027391814321660372,-0.8978339465392812
224.0,0.0633396299525332,0.015004359197907588,-0.04126416739319966,0.39577739029351927,-0.3287673157027996,9.786574154799961,0.027381211857018306,0.36708079046788716,0.19855541024895862,127.51091313087281,2.3105837692531237,1.923338661241887,0.44178049911266104,0.00626980326310181,-0.0258652839126223,-0.8966948611818271
225.0,0.057473360457231434,0.015738641867674128,-0.04069698730989055,0.39711905453840946,-0.3416877361232199,9.787717475540054,-0.08223899302528336,-0.42256369272498306,0.23610202944880362,127.3234328078078,2.326956492783106,2.0009626562045915,0.44324843322144736,0.006754987962559331,-0.026275658616196844,-0.8959709240317739
226.0,0.053508185604959804,0.024392618424876496,-0.03793809938971231,0.4956025380218928,-0.4058214666279182,9.778612321999415,-0.06102877070619005,0.530205608834641,1.1881114985953694,126.34678024798993,2.8974892230940616,2.377049428460719,0.4507873556519423,0.007160826387193644,-0.03225041976508766,-0.8919310154567472
227.0,0.06169742322968129,0.038992298750363266,-0.035882737576285975,0.46636273370144343,-0.3825707158771674,9.781259081662299,0.012178509154315608,-0.09995277535600128,-0.26051051051051066,126.42003899060352,2.7281691974232296,2.2348684369853724,0.45022907458272793,0.006773663681826989,-0.030418770837208176,-0.8923035527719656
228.0,0.06965247505570085,0.036346507798120695,-0.037058752300687794,0.47939552455681483,-0.37763392424682735,9.781252300687784,0.23038360941586747,0.7255612467306014,-0.1785303448609901,126.77291152039136,2.7980283711130483,2.205499854693403,0.4474856557725468,0.006390898655429623,-0.030832525521650684,-0.8936888872372374
229.0,0.05430204397946333,0.021201927734185798,-0.03750339048726147,0.4191780490167586,-0.3315588976072846,9.785639591204108,0.2086057832025574,0.49198089218250507,-0.06350352368497532,127.01002766879783,2.446981255448997,1.9344591567373828,0.44567707504577153,0.005693598001549937,-0.027015649714230358,-0.8947340923014145
230.0,0.06746851690400076,0.023309599922503147,-0.040002663954276874,0.36658384190642257,-0.29867456165843254,9.788530708127487,0.025878196745132226,0.6272128983822531,0.8427782621331008,126.26952860118183,2.1390568996415773,1.7398512423714037,0.45149031538336715,0.005281850028819141,-0.02389671824614937,-0.8918587608502859
231.0,0.06346992153443766,0.01786447738060641,-0.04380509541799866,0.24425070231521845,-0.29516613387581114,9.79259420711034,0.02612794245858762,0.7690835997287611,0.4491669088443282,124.59976206044755,1.4114023297491038,1.6946624043398235,0.45738752200619975,0.007856258746488425,-0.018305585816623074,-0.8889574923113437
232.0,0.05920662598081953,0.013531192482805389,-0.042416933062094375,0.14762229971907392,-0.28033372081759167,9.796554296231722,-0.17429980383609417,0.19843129419742325,0.17608737770028093,124.40030605201976,0.8512711300009688,1.6219334253608446,0.4624998889586359,0.009333810925118667,-0.013624136862104043,-0.8863986860030997
233.0,0.06665528431657464,0.012253947495882982,-0.03879807226581422,0.1375208272788918,-0.2879894410539571,9.797004746682171,0.07909673786689915,0.3448473675288191,0.27492764942361714,124.24968819626076,0.7958472585488714,1.6710137556911748,0.46543259585924635,0.009831376206286931,-0.013341134582485712,-0.8848910802237722
234.0,0.05820546352804417,0.008813813813813813,-0.04528916012786982,0.09952387871742711,-0.2789959314152862,9.798384674997585,-0.05614283638477187,-0.28985638864671126,0.19844037585973068,124.10822616971811,0.5768823258742614,1.621067640220866,0.4674337915179696,0.010326949864864864,-0.011430844500629662,-0.8838742890710065
235.0,0.06380243146372178,0.018195049888598276,-0.039594594594594607,0.10300857308921826,-0.28857430010655816,9.799188462656211,-0.1850085973069844,0.09104971907391263,0.014409570861183767,124.16483973893247,0.5991641843456359,1.6787286278213696,0.46746469910975486,0.010639545451661337,-0.011841532942458585,-0.8838602334834834
236.0,0.06922648454906519,0.01849268623462172,-0.04613242274532599,0.1988385159352901,-0.31211421098517866,9.7945001453066,-0.13590707643126998,-0.1880660902838322,0.28487055603991085,123.97027269204688,1.1608332122445024,1.8202950934805773,0.4693743755226193,0.009369094486583358,-0.016769983971229294,-0.8827675527990895
237.0,0.07361498595369564,0.02874503535793859,-0.04235566211372664,0.2246459362588395,-0.3362794245858761,9.79208878233072,-0.19028352949723915,0.3977662137944396,0.30955602780199554,123.70609318996415,1.309546946139688,1.9616133270367142,0.4713868183541605,0.00978771384311731,-0.01856019688971229,-0.8816603968790564
238.0,0.07733168652523494,0.021209435241693313,-0.04311779521456942,0.18764554877458106,-0.36734670154024995,9.790932383996903,-0.13638840453356582,0.47092051729148504,-0.09205778359004166,123.55241935483872,1.088885256223966,2.1419009735541996,0.47255865455342433,0.012071175357938582,-0.017614815501307755,-0.8810285979511772
239.0,0.07218371597403855,0.019445170977429045,-0.03886491330039718,0.11778964448319289,-0.36232635861668117,9.792406035067327,0.05064843068875327,0.6412198488811391,-0.09678630243146372,123.73498801220575,0.6781610239271529,2.110946127579192,0.47115423544584906,0.01356403692918725,-0.014293467951176982,-0.8818136979991282
240.0,0.08156228809454617,0.022899108786205567,-0.038379589266686054,0.06983120216991186,-0.35615421873486375,9.794487067712879,-0.06736171655526493,0.17399254092802482,0.08063910684878428,123.63026282330716,0.402812590816623,2.0759423738254386,0.4719544374585875,0.014455028993267458,-0.011982430104620748,-0.8814081812486683
241.0,0.08073186089315124,0.027350092027511385,-0.039561658432626184,0.06178388065484841,-0.35404485130291574,9.795110917368985,0.10744817398043204,0.06157064322386903,0.06563317349607672,123.52433280054248,0.3533160176305338,2.0674010704252637,0.4727839990070716,0.01455911613193839,-0.011577381253027222,-0.8809704981691371
242.0,0.07811561561561563,0.029547854305918823,-0.04209653201588687,0.11870313862249349,-0.358208611837644,9.793845781265137,-0.17255763828344475,-0.08206038699990312,0.36279273224837744,123.29852634892958,0.6904288360941587,2.0950350552165062,0.47452971126319876,0.013327602543349802,-0.014325843307420321,-0.8800045183013661
243.0,0.08520924149956408,0.025307081274823208,-0.0339649326746101,0.1118381284510317,-0.38133100842778256,9.79192289063257,-0.24286484064709873,0.04070703768284413,-0.03956577545287221,123.22486801317447,0.6520300542477961,2.2316853143466044,0.4751109559900223,0.014533016262714329,-0.014589959642061417,-0.8796737933890343
244.0,0.08519398430688752,0.01753584229390681,-0.036502954567470706,0.12153371113048533,-0.3900029061319384,9.790896057347673,-0.13290255981788243,-0.05901112806354741,0.307810835028577,123.09494272498304,0.708725358422939,2.284816066066066,0.4760902078119248,0.014665544643998838,-0.015274993683280053,-0.8791313670781267
245.0,0.09972851884142205,0.01880436888501405,-0.0419141722367529,0.1073777002809261,-0.386070183086312,9.790340501792118,-0.0520651700087184,0.1308939988375472,-0.06715889276373146,122.95405435677613,0.624924319480771,2.2604741838612803,0.4771781397270657,0.01481833042138913,-0.01456461701225419,-0.8785501123781847
246.0,0.08915189382931318,0.01778480092996222,-0.039792211566405125,0.10617988956698636,-0.37088007362200903,9.79022401433692,-0.05638652765668895,0.04226151554780586,-0.061525234912331694,122.89394586118377,0.6151055289160128,2.16607938583745,0.47764285753826397,0.014134380900658721,-0.014110506978349318,-0.8783232757589848
247.0,0.07418168168168167,0.004649568923762474,-0.03753051438535311,0.1095773999806258,-0.3665511479221155,9.790071684587815,-0.0012835416061222488,-0.10932959168846267,-0.08962238448125545,122.90169403274243,0.6357617698343505,2.1339469509832414,0.4775708883703865,0.013822731870580257,-0.014159477507991864,-0.8783694181483096
248.0,0.08076915625302722,0.012741451128547904,-0.035687300203429244,0.12977525913009783,-0.36442700765281405,9.790035842293907,-0.033347863993025285,0.041969388743582296,-0.15147001840550228,122.98769737479415,0.7505085730892183,2.129165455778359,0.4768928030785624,0.01330958439407149,-0.01502193836869127,-0.8787334612874165
249.0,0.08403807032839292,0.016101908359972876,-0.038004456068972216,0.13392376247214957,-0.3911459846943717,9.790017921146955,-0.23237854790274146,0.17810047951176983,-0.1934515160321612,123.13371536859438,0.7789281216700572,2.2895566937905647,0.47576149548338664,0.014419315029061318,-0.015869255912041073,-0.8793094734733122
250.0,0.06728494623655913,0.022921146953405015,-0.03286738351254481,0.14076164874551972,-0.41523297491039424,9.790008960573477,-0.12819220430107528,0.3189404121863799,-0.14908154121863798,123.29709901433691,0.8146281362007168,2.4287074372759854,0.474494906765233,0.015363358413978493,-0.016719311810035845,-0.8799588326612904
251.0,0.06920105589460426,0.024434757337983143,-0.0321452097258549,0.1422231909328684,-0.4316288869514675,9.790000000000003,-0.0964139542768575,0.061708381768865644,0.33606388646711227,123.24596017388356,0.8274983653007846,2.5218368570183083,0.47490925280587026,0.01603447908577933,-0.017193480508815268,-0.8797176553903903
252.0,0.059443717911459845,0.037582340404921054,-0.034609851787271155,0.1504424585876199,-0.4327445994381478,9.790000000000003,0.08979947689625109,0.15534032015886856,-0.09898255109948656,123.05809236656012,0.8763773854499661,2.5269210743001063,0.4763335989564564,0.015833075714181924,-0.017600428516904,-0.8789406523086796
253.0,0.06529981594497725,0.030641528625399594,-0.0354008040298363,0.11769882786011818,-0.41595563305240735,9.790000000000003,-0.048906265136103855,0.44642576043785726,0.13058824953986245,123.00451661338758,0.6860045529400367,2.424414838225322,0.4767733516959701,0.015882582906374114,-0.015711215163469922,-0.8787364623774581
254.0,0.052748474280732344,0.025334205172914855,-0.036118860796280156,0.09203937808776519,-0.42533444735057635,9.790000000000003,-0.11179072217378667,0.10725745907197522,0.1923102538021893,122.93247784074397,0.5405829216313087,2.4818926789692917,0.4773218929492396,0.016912530006054444,-0.014852036071878329,-0.8784333781734959
255.0,0.05551874455100261,0.03255836481642933,-0.040061028770706206,0.09695437372856729,-0.4193160902838322,9.790000000000003,0.0525767703187058,0.15788772643611354,0.12154291388162357,122.77778383221931,0.5679853240337112,2.449045820013562,0.4784979583599728,0.01652662146372178,-0.014917061648745521,-0.8778041593277147
256.0,0.05055119635764797,0.028768284413445703,-0.04030901869611549,0.09721931609028382,-0.41624188704833864,9.790000000000003,0.021051293228712582,0.2639221883173496,-0.017445873292647476,122.7685386999903,0.5671558655429623,2.429035890729439,0.47857532101714617,0.016398653532887726,-0.01486211679889567,-0.8777682519713259
257.0,0.05543688850140463,0.033380073622009114,-0.04536375084762183,0.0984023539668701,-0.41678654460912523,9.790000000000003,-0.14075971132422746,-0.09133276421582873,-0.14728488569214376,122.90157294391165,0.5689631163421486,2.4346483580354548,0.4775637813382737,0.016404836437082244,-0.014904232135280441,-0.878318463879686
258.0,0.05925070231521845,0.04813716942749202,-0.04317470696502956,0.17525404436694753,-0.4201809067131649,9.788996415770612,0.05982847767121961,-0.055495011140172426,0.10811718977041557,122.90312742177662,1.01465628935387,2.450579107333139,0.4775213139666279,0.014666538594885207,-0.018410496636636634,-0.8782890788574054
259.0,0.06078126513610385,0.039086505860699415,-0.037048823016564966,0.1660902838322193,-0.4109730698440377,9.789498207885305,-0.06302370919306403,0.1854021360069747,0.14069613968807515,122.86220999225031,0.9640093722755012,2.395848469437179,0.4778572126687979,0.01445595129565049,-0.017771636902547707,-0.878128033183183
260.0,0.04828513997868837,0.029508379347089032,-0.03874673060156933,0.15614889082631017,-0.4109791242855759,9.789749103942654,-0.05319886418676741,0.2984552092414996,0.21608150489198874,122.74322356630825,0.907326176983435,2.4003817325389907,0.4787668914433788,0.014699195294730214,-0.017363026825293032,-0.8776383309682261
261.0,0.038018018018018025,-4.6719572798605045,-0.0396556233653008,0.1292393199651264,-0.39809260873777,9.789874551971328,-0.16798048048048048,-0.0598617770996803,-0.07719110239271529,122.72384632616487,0.7526382229003197,2.321634638670929,0.47894607866075756,0.014744614139300588,-0.015850409743291674,-0.877573694749346
262.0,0.0511595466434176,-2.3257008621524746,-0.03880630630630631,0.1372495882979754,-0.4110893151215732,9.789937275985665,-0.009505473215150648,-0.20228191901578996,0.15954512980722657,122.64639336917563,0.8042144967548193,2.3974044609125253,0.47952934083575505,0.015126178646711225,-0.01654084210282863,-0.8772337400762859
263.0,0.0559561174077303,-1.1434866317930832,-0.03838612806354742,0.12586045723142497,-0.4038869514675967,9.790000000000003,0.02442513077593722,0.45794282185411217,0.29345424053085345,122.42954749103941,0.7338724813523201,2.3543361910297396,0.48118149259977716,0.015050095927298264,-0.015880482597113242,-0.8763424157146662
264.0,0.04288578901482126,-0.5672009105880073,-0.0417078368691272,0.07439310278019955,-0.3943659788821079,9.790418482999131,-0.1617746779037102,0.19452012496367332,0.2842651118860796,122.25642678969291,0.4352840743969776,2.3005999951564466,0.4825163190283831,0.015911388839969003,-0.013347728758597306,-0.8756309066807129
265.0,0.04838128451031676,-0.2733224353385643,-0.037834447350576395,0.0909173689818851,-0.4081870580257677,9.790209241499566,0.1553478882107914,0.2251298677709968,0.1931109536956311,122.06347325147729,0.5320037779715199,2.383008512544803,0.4839791961111112,0.016087492290758502,-0.014458876857260484,-0.8748082020572991
266.0,0.052407488133294586,0.019965126416739323,-0.03675772546740289,0.058576964060835034,-0.3891204107333141,9.790534728276667,0.009517582098227256,0.11533711130485323,-0.09382870773999806,122.04811767412573,0.3468710646130001,2.277105734767025,0.4841001752150538,0.016039597350576383,-0.01256676042235784,-0.8747707371263198
267.0,0.055578562433401146,0.020941102392715294,-0.03561585779327715,0.03770875714424102,-0.380085973069844,9.790685847137464,0.033089036617262424,0.17573622009105877,0.08042871500532792,122.11316810762375,0.22079942846071876,2.2198640172430495,0.48363039265111885,0.016196447052213507,-0.011323591045238788,-0.8750454055114791
268.0,0.055912041073331406,0.022307468759081663,-0.04056330524072461,0.02855419936065098,-0.3601191514094739,9.794787368013179,-0.009581153734379545,0.057850188898575995,-0.04639518550808873,122.13524108786206,0.16472319093286836,2.107523854499661,0.4834194720468856,0.015506556733992058,-0.01047000937566599,-0.8751872683919404
269.0,0.05082824760244116,0.025333720817591783,-0.03662331686525236,0.031332219316090294,-0.3599365494526784,9.793097452291004,-0.010012532693984307,0.06295105589460427,-0.058946042817010554,122.18507973699505,0.18371597403855466,2.1052852247408698,0.483041363980432,0.015419851211614842,-0.010611413864428947,-0.8753935393916497
270.0,0.05781555749297685,0.026242129226000194,-0.04041291291291293,0.03355589460428172,-0.36399157221737855,9.792408941199266,0.09246797200426232,0.07118206916594012,-0.12439909667732248,122.23492898140074,0.19451255691175046,2.1276034098614742,0.4826718153235494,0.015549525189140751,-0.01081090311949046,-0.875591310591882
271.0,0.0676281119829507,0.03330863121185702,-0.04013416642448902,0.028731473408892774,-0.3636389615421872,9.793143950402015,-0.10058243727598568,0.33648769737479417,0.004089775259130103,122.31101666182312,0.16853446188123605,2.1237739755884917,0.48211002431076244,0.015704532918725173,-0.010465016568826892,-0.8759022004373727
272.0,0.06555192289063258,0.0290610772062385,-0.038147098711614855,-0.01908820110433014,-0.3710769640608351,9.791558897607285,-0.14891504407633438,0.19250702315218446,-0.04065406131938389,122.3549386079628,-0.11208436258839485,2.1666348808485907,0.48176559510316763,0.017310788098905357,-0.008325934630436889,-0.876084779434515
273.0,0.07932166037004748,0.02790419451709774,-0.03841494720526979,-0.03227259517582099,-0.3629623171558656,9.792791097549165,-0.06650501307759372,-0.05926844182892567,0.03951279908941199,122.19819063014627,-0.19339097161677807,2.1208678436501014,0.48293537494405697,0.01732006209604766,-0.007490286204107333,-0.8754442195962898
274.0,0.06989828538215635,0.03666012786980529,-0.0380640317737092,-0.02700547321515064,-0.3663544996609511,9.791373147340892,-0.008504976750944495,-0.1631899036132907,0.17156470987116149,122.12065442458587,-0.15922878523684975,2.138907052213504,0.48354435916811966,0.01730837422866415,-0.0078269071747554,-0.8751097096672478
275.0,0.07046885595272694,0.042268235977913404,-0.04140656785818078,-0.008095030514385355,-0.36846846846846837,9.790659691950015,-0.026345902353966867,0.028144071490845704,0.11826443378862733,122.02277680906712,-0.04909243921340696,2.152002809260874,0.48430401395233946,0.016884690712002326,-0.008823748399205657,-0.8746885894662404
276.0,0.06410394265232976,0.0432890148212729,-0.044291872517678986,-0.005869175627240147,-0.3709159159159158,9.790842293906811,0.030912464884239082,0.37922448658335756,0.0760695170977429,121.99724825632083,-0.03403050227647002,2.1654376150343895,0.4845343428310568,0.016938807713842874,-0.008985002592996222,-0.8745602889872128
277.0,0.06156810035842293,0.038880170493073726,-0.04550615131260294,-0.011362007168458782,-0.358854015305628,9.794722222222227,-0.019125980819529206,0.3159843311052989,-0.10502639736510705,122.0765251138235,-0.06649441780490167,2.0981757967645063,0.4839239507076431,0.01655038173326552,-0.00838876992105008,-0.8749071638305239
278.0,0.06844086021505377,0.03119635764797056,-0.04377458103264556,-0.01989247311827957,-0.35206141625496445,9.796451612903232,-0.12896263198682553,0.01680712971035553,-0.34014760728470406,122.24541981497626,-0.11414438632180568,2.054184224547128,0.4826185645742517,0.01651562064709871,-0.007774704091349414,-0.8756311484878425
279.0,0.06631284510316769,0.02659207594691466,4.531255691175048,-0.018411798895669865,-0.3620158868545964,9.793504795117702,0.05071048871452098,0.16250121088830766,0.09025204640123993,122.42706365639833,-0.10578622977816526,2.1082821733023343,0.4812320957003778,0.016912749948658334,-0.00805312128717427,-0.8763821992526399
280.0,0.07516807129710355,0.037623994962704646,2.2502918240821477,-0.010110917368981887,-0.3754613484452194,9.792182505085734,-0.41402087571442414,-0.3317198246633731,0.34617329022570953,122.33105534970454,-0.05754141238012205,2.1903698052891603,0.4819642325365687,0.017304968872178632,-0.008804557673157026,-0.8759655668037394
281.0,0.0783636055410249,0.06025016952436309,1.108555410248959,0.11412912912912913,-0.45296812941974235,9.786485517775837,-0.5693536278213698,-1.5763101811488909,0.232534449772353,122.04301983435047,0.6676898672866414,2.6496763900997773,0.48407497090986146,0.01759156443160903,-0.016493666246972776,-0.8746055123803643
282.0,0.0989075365688269,0.05551995543931029,0.5345202460525044,0.09879008040298362,-0.47684684684684686,9.785876440957084,-0.11872305773515449,0.7274850455294003,0.2593980068778456,121.61172866414802,0.571849571345539,2.7863251356194905,0.48734044779424585,0.019000089428702897,-0.016373717034534534,-0.8727701134788821
283.0,0.06099050663566793,0.06322144725370532,0.24872517678969303,-0.03759420711033611,-0.47127288578901483,9.787808292163131,0.35565303206432236,1.1039698973166714,-0.05670892666860408,121.4893320740095,-0.22306378959604772,2.755869781071394,0.4882832428576964,0.02220216601811489,-0.010065822500242178,-0.8722757466991187
284.0,0.066009638670929,0.055377070619006125,-0.033109076818754246,-0.0525590913494139,-0.4681734960767221,9.788895427685752,0.11317416206529107,-0.17196884384384392,0.35743455148697084,121.16669088443282,-0.3061155913978495,2.737132798120701,0.4907600765421874,0.022416373370870876,-0.009382078072265815,-0.8709167540775452
285.0,0.06076019567955053,0.0458292163130873,-0.034117262423714045,0.0861442894507411,-0.4841673931996514,9.787713842875133,-0.2916712074978204,-0.7998901118860797,-0.018891371209919572,120.98203495834544,0.5047603046594983,2.8283838273757627,0.49212537721374594,0.019495431896008917,-0.01618812662573864,-0.8701027139160127
286.0,0.060602053666569795,0.03540734282669767,-0.0364642061416255,0.10923568730020346,-0.48553375956601785,9.789000290613195,-0.015108858858858862,0.3342626901094643,-0.31733749878911166,120.98831492783106,0.6307971277729343,2.836181948077109,0.492094794802383,0.018975985310471764,-0.01727286960573477,-0.8701337928717428
287.0,0.04804635280441732,0.04628354160612226,-0.032931802770512456,0.06522280344860992,-0.47376416739319976,9.789569892473121,0.022242504601375564,0.28451788482030416,0.349544100552165,121.05616402693016,0.3788037028964448,2.7647622420807902,0.4915928239201298,0.019554835199070038,-0.01500711493364332,-0.8704583837816042
288.0,0.05674271045238787,0.04453065969195002,-0.03593722755013078,0.022871258355129327,-0.46541702993315903,9.789784946236562,6.05444153831266e-05,0.407799937033808,0.15668289256998932,120.8379498450063,0.13370628693209335,2.7196067034776714,0.49325620605056675,0.020284105681972295,-0.012844707323452484,-0.8695393660529884
289.0,0.0616378475249443,0.0390022280344861,-0.03699166908844329,-0.04398818173011722,-0.44389227937615044,9.789892473118282,0.09602344279763633,0.36705808631211856,-0.04418834156737382,120.87132646759663,-0.25497372372372373,2.5922242807323452,0.49306950748086786,0.02104169718565339,-0.009218057105492589,-0.8696672585897993
290.0,0.046683619102973944,0.04242226097064808,-0.03599583454422165,-0.08787222706577547,-0.4291325196163906,9.790000000000003,-0.12167913881623559,0.1739804320449482,-0.05832848978010269,120.92297842197036,-0.5109434030804998,2.504725491620653,0.4926680176203622,0.021562195873292642,-0.006843839341276761,-0.8699112007957956
291.0,0.06546037973457328,0.03933231618715491,-0.03690375859730699,-0.08322556427395138,-0.45150610287707066,9.790000000000003,-0.28689122590332267,0.08808001549937033,0.2105643950402015,120.84610669136879,-0.48768072507991855,2.635318281991669,0.49322964970381666,0.022446821179889564,-0.007571724927831059,-0.869565716326407
292.0,0.0627973941683619,0.03724232296812943,-0.038761019083599746,-0.05273733410830185,-0.45885789014821265,9.790000000000003,0.07768453937808778,0.0012532693984306856,0.14034044124769932,120.64771172382059,-0.3069844037585973,2.6764461033614255,0.49471650017000857,0.021945307973457326,-0.009227206594739901,-0.8687131222447448
293.0,0.07323113436016662,0.03139445897510415,-0.03667441635183572,-0.002753075656301455,-0.46262786980528925,9.790000000000003,-0.1216079991281604,-0.5155584011430785,0.2662667708030611,120.44697974183862,-0.010571054925893636,2.7009862685265915,0.49623298177855274,0.020779679829022568,-0.011740961626222998,-0.8678450303114407
294.0,0.06550445606897219,0.034792211566405114,-0.03722609706480674,0.12081880267364135,-0.4970263004940424,9.785985663082435,-0.24474777196551387,-0.8912077399980626,0.514713806548484,120.20979699457521,0.7056799743291678,2.905600661145016,0.49799329973336237,0.019065855873292646,-0.018231658380315797,-0.8667207843761504
295.0,0.06528819141722367,0.036609028383221935,-0.03506684103458296,0.07184394071490843,-0.4920410733313959,9.787295359876005,-0.01035309503051439,0.790800881526688,0.019788942167974416,120.00554889566985,0.4182347670250896,2.8739011188607964,0.49956707153153146,0.020101349322386903,-0.01584075150925119,-0.8658525754654656
296.0,0.05997093868061609,0.03320861183764409,-0.03670807904678873,0.012852126319868235,-0.483531434660467,9.788647679938002,-0.14787065291097548,-0.3176735202944879,0.1747448052891601,119.94275071442411,0.07530211663276179,2.824195667441635,0.5000657771384287,0.021241567180325487,-0.01300369176886564,-0.8655915443940714
297.0,0.04827690593819625,0.03820594788336724,-0.02900343892279376,0.10636103845781264,-0.5442042042042042,9.782907100649034,-0.16806372905163228,0.19892170396202657,-0.012741572217378677,119.66648957425167,0.6245595393780878,3.17908583987213,0.5020719743463624,0.021406854058655427,-0.018886972396105782,-0.8642852851981014
298.0,0.04616802286157125,0.03574275888792017,-0.027991862830572506,0.1447844618812361,-0.5881684103458298,9.778711614840645,-0.5772274290419451,-1.284331710743001,0.3235463285866511,119.57369617601472,0.8491021263198683,3.4398733410830182,0.5027372873210305,0.022293188583987208,-0.02182678637726436,-0.8637989092657175
299.0,0.07180761406567857,0.03427588879201782,-0.03333430204397947,0.25345878136200717,-0.6495078949917661,9.773461203138618,-0.3893217814588782,-0.10899508379347089,-0.6120313862249346,119.78071720914463,1.4785037053182215,3.7982538990603505,0.5010568046255933,0.022285228647679935,-0.02813982690012593,-0.8645972306475831
300.0,0.07644773806064127,-0.009005134166424497,-0.03348299912816042,0.25847597597597594,-0.8522740482417901,9.75565920759469,0.5331980165649521,1.3065378886951466,-0.5351097064806742,120.59279491184732,1.5054838104233266,4.9887962559333525,0.49466033582049795,0.03143075243969777,-0.03325983825438342,-0.8677025429344668
301.0,0.05754286544609125,0.036733992056572684,-0.03476121282572896,0.24755788046110624,-0.7374721495689238,9.765804514191608,-0.06295408311537337,0.16208950886370244,0.5595060786593045,120.3803188268914,1.4542708030611258,4.316138719364526,0.49642495010558946,0.026499566210888312,-0.02995745923471859,-0.8669855894555847
302.0,0.05857962801511189,0.05701128547902741,-0.03697520100745908,0.18232296812941973,-0.6331563014627531,9.63693451516032,0.3304453647195583,0.13267400464981108,-0.12257368255352125,120.4174098493655,1.0689237624721495,3.6995634747650876,0.4962359367659596,0.0234874594611547,-0.024423321749007073,-0.867415852426136
303.0,0.06498349040284526,0.05997248861764991,-0.033090007057749005,0.18840521166327615,-0.5664477103831942,9.712234538686147,0.09507739306126403,-0.463196087792862,-0.1289303704626285,120.51438128797,1.1018805960338218,3.3104016170548425,0.49556742532998443,0.020378515520515908,-0.02300077272114972,-0.8679626402092278
304.0,0.08743507562862403,0.049541606122251294,-0.03670629385145515,0.1877466337305047,-0.5366109519657908,9.74936923098213,0.09096720568494762,0.1595037433747111,-0.2638439995294834,120.65842756639128,1.0953496267004332,3.133595533897953,0.4945311025908859,0.01911949393288219,-0.02220037667007791,-0.8686220863469853
305.0,0.10062613996484963,0.057252881914172236,-0.03673576341318277,0.2653742129226,-0.49358325376067325,9.767632644164902,0.14718611180304728,-0.055384777058164164,-0.1576836485102614,121.06182467029242,1.5478708258950196,2.884590105658654,0.4914841109011777,0.015365989627731417,-0.024563006959590926,-0.8703641657138151
306.0,0.09908227121130345,0.0464931844286683,-0.03828314028314029,0.2640916123496768,-0.48426999349580013,9.777856132630323,-0.2855475290959162,-0.022707269481463028,-0.10762046608820802,121.11819792142373,1.5374034749034748,2.8318935871355224,0.4910754663758321,0.015014886890798631,-0.024222209233251683,-0.8706262815619766
307.0,0.09475570501376951,0.04294919804597225,-0.03543576756479983,0.25929466793982925,-0.5069741907806424,9.78532882190946,-0.1611671579413515,0.04761662584243229,0.1998981123981124,120.98149918351533,1.5173061886771566,2.9672612128257287,0.49211659785322653,0.01611971835676229,-0.024607513239119305,-0.8700134637224782
308.0,0.08294211261953195,0.03767890009825495,-0.03588583053099183,0.30902726228532684,-0.5372623130042485,9.782692572757082,-0.007116477076154495,0.2567768229058552,0.25227240489337266,120.68485161428711,1.8067009694025824,3.139541384702675,0.4943057622727475,0.016105427277715505,-0.027603782650281614,-0.8686779774674859
309.0,0.06830191943095168,0.03774093217641605,-0.03849653339975921,0.3126653312298473,-0.5537139812623684,9.78111088969153,-0.34918814263572323,-0.20430012385657545,0.3824570394126846,120.44410409833797,1.8329766834807157,3.240760230276359,0.4961309816507592,0.016696292662397423,-0.028262221560537492,-0.8676088854992181
310.0,0.06186601347891671,0.03795200730684602,-0.036434646628195025,0.2982278269052462,-0.5378247325666681,9.78134397531171,-0.16056517346839927,0.32633336101078037,0.4037341200647652,120.16711253303995,1.7455934044643722,3.147821871410581,0.4982370010538743,0.01630907716901233,-0.027214565386003513,-0.8664454218445912
311.0,0.06164729245374405,0.03300058122638768,-0.03478107139397463,0.24854862927443572,-0.5360183570667441,9.782984839678385,0.03968989150440763,0.05240119151409474,0.02991045480964838,119.90024853482515,1.4522001840550227,3.132605892182505,0.5002680235294974,0.01741414062239659,-0.02500096496028286,-0.865322268806064
312.0,0.06264264264264265,0.029322871258355133,-0.03277584035648552,0.2102734185798702,-0.5214007555943041,9.785152814104425,0.046950680519228905,0.21694880364235203,0.22606073815751232,119.80947126562046,1.2256520633536763,3.0467296934030808,0.5009874645783687,0.017731194558510122,-0.022962433089460433,-0.8649599652453258
313.0,0.06128547902741452,0.02602344279763635,-0.0332965223287804,0.15979172721108206,-0.5008975104136396,9.787733217088057,0.10101230262520586,0.6555174125738642,-0.23575995350188897,119.86791327617941,0.9316544366947592,2.9262266298556616,0.5006113178402595,0.01813123714036617,-0.020188132920178244,-0.8652367958708707
314.0,0.05684587813620072,0.02329749103942652,-0.034910394265232986,0.10066308243727601,-0.4775537634408602,9.789032258064516,0.18581989247311828,0.4031698028673835,-0.3353494623655914,120.06031586021506,0.5858534946236558,2.788418458781362,0.49916382914874546,0.01861856643369176,-0.016960663593189967,-0.8661258922849462
315.0,0.07646251089799477,0.02678436501017146,-0.032523006877845595,0.0539559721011334,-0.4867758887920177,9.789650537634412,-0.09248008088733894,0.5439945994381478,0.27209871161484067,120.03549719073914,0.3139682020730407,2.8420426474861955,0.4993550540659208,0.02027403059866318,-0.01503415389494333,-0.8660173638729052
316.0,0.0773665601084956,0.032290031967451324,-0.031924585876198786,0.0075380218928606,-0.48569529206625983,9.789910394265235,-0.09711929671607092,0.6222437154896832,-0.09065315315315314,119.93329519035163,0.041336699602828625,2.8332637072556426,0.5001178440177274,0.021455646168507213,-0.012810564156253028,-0.8655902652787464
317.0,0.07836069940908649,0.02963067906616294,-0.03209580548290226,-0.02098009299622204,-0.47079119442022677,9.790000000000003,-0.03506278455875231,0.03449215344376633,-0.14355686331492784,119.96972779230843,-0.12113272546740288,2.748733108108108,0.4998466390966773,0.021615051036762565,-0.011082538449094254,-0.865768468199409
318.0,0.08284631405599148,0.027137460040685853,-0.03238012205754142,-0.018095514869708423,-0.4837159740385547,9.790000000000003,-0.02002355177758404,-0.08201195146759663,0.05492892085634021,120.03027977574348,-0.10818832945849075,2.824940363750848,0.4993680192153444,0.02213068020754625,-0.011546635946914657,-0.8660323657679452
319.0,0.07656204591688465,0.029285575898479126,-0.03696067034776713,-0.01816962123413737,-0.47977913397268246,9.790000000000003,-0.025552770512447934,0.07074917659595077,0.23204555361813428,119.95014772837354,-0.10267727404824178,2.8048592947786495,0.49998943116681205,0.021956178110045528,-0.011446525249442991,-0.8656783541339725
320.0,0.06585488714520973,0.03264482224159644,-0.03189891504407634,-0.012496125157415482,-0.48779133972682365,9.790000000000003,-0.16381048387096772,-0.08147613339145597,0.022324239562142786,119.81454337401918,-0.06896614356291775,2.8493776034098617,0.5009600055955148,0.022155457300203428,-0.011926410376828442,-0.8651000472035745
321.0,0.07407924053085341,0.039571103361425955,-0.036227840743969786,-0.006857744841615811,-0.48853991087862064,9.790000000000003,-0.10483265523588103,-0.0027517436791630392,0.002721471471471469,119.66246942507023,-0.039305434466724784,2.855014288482031,0.5021229510447545,0.02203759141431754,-0.01223823335149666,-0.8644237620233943
322.0,0.07720091058800736,0.03784558752300688,-0.03293470890245085,-0.004320449481739805,-0.5024106364428945,9.790000000000003,-0.07974607672188316,0.016937300203429234,0.19238896154218732,119.58843117310859,-0.024693039814007556,2.9336675385062483,0.5026669842947786,0.022562369882786017,-0.012719527289547616,-0.864090139116536
323.0,0.08251017146178435,0.041321805676644396,-0.037015160321611944,-0.00398866608544028,-0.5156032645548776,9.790000000000003,-0.14471174803836093,-0.005995410733313961,0.10242752833478638,119.55805906713164,-0.02374703332364623,3.0114792211566406,0.502915386462511,0.023105813544996606,-0.013104934569892472,-0.8639244484035649
324.0,0.08701225418967352,0.03765015015015015,-0.029739659013852567,0.030523588104233272,-0.5324297684781556,9.788853046594985,-0.028085040685847135,0.10634929284122832,0.0029106727695437234,119.4861307880461,0.17767061416254962,3.10873020197617,0.5034295499292841,0.022836836073573577,-0.01519558703405018,-0.8635944270691659
325.0,0.08067858180761406,0.028430204397946336,-0.02880315799670639,-0.008214181923859348,-0.5185139978688367,9.789426523297493,-0.03529739416836191,0.07653116826503922,0.31780974522910005,119.34180046982466,-0.04928315412186382,3.0290461832800544,0.5045336354155769,0.023273288208369665,-0.013090483103264553,-0.8629701497762277
326.0,0.08589581517000872,0.040853191901579,-0.032246682166037016,0.05427903710161773,-0.5434098614743776,9.785698924731184,-0.08498619587329265,0.08691907633439891,0.24989707449384865,118.93222204058898,0.3152093625883948,3.174490518744551,0.5076088598491233,0.022623531588927638,-0.016676279078514,-0.8611109749980626
327.0,0.0787585973069844,0.04021481158577933,-0.030430349704543263,0.0649917659595079,-0.5443490264458009,9.787849462365594,-0.03555016710258646,-0.09547097500726534,0.03362788191417222,118.91833769253122,0.3802037925021796,3.1796322532209627,0.5076938966555264,0.022361722326358614,-0.017235317398527558,-0.8610669123263586
328.0,0.07896711227356387,0.02771045238787175,-0.030900658723239376,0.038293374019180475,-0.5257408214666279,9.788924731182798,-0.0019540710064903637,0.27985747844618813,0.21453459507894992,118.91901427637313,0.22095987116148408,3.0714469509832414,0.5077253061861863,0.022271977274290422,-0.01552805846628887,-0.8610800423190933
329.0,0.06941635183570666,0.035960960960960964,-0.03658384190642257,0.029178049016758696,-0.5174179017727404,9.789498207885305,0.09621718492686233,0.5691962123413736,-0.0007356146469049557,118.85492044463817,0.1682196309212438,3.0209665310471756,0.5082145527346702,0.022152533722270655,-0.014902517642642643,-0.8608060155681488
330.0,0.07104209047757434,0.040957812651361045,-0.03597718686428364,0.0008183183183183129,-0.5051518453937809,9.789749103942654,-0.05918216603700475,0.2081214278794924,-0.004073125544899731,118.91792447689625,0.00300148939261842,2.9529146081565436,0.5077380435425748,0.022460972824518064,-0.013206789000048437,-0.8611133924832898
331.0,0.06674416351835707,0.03338661241887048,-0.033611353288772655,-0.011736898188511096,-0.516281119829507,9.790000000000003,0.04601375569117505,0.34442809745229097,0.11968722755013078,118.88372142303594,-0.06914777680906714,3.018123970744938,0.5079689871297103,0.02326338075365688,-0.012936175257192678,-0.8609631915015017
332.0,0.0600261551874455,0.040429623171558654,-0.03985614646904971,-0.03529351932577741,-0.4920851496657949,9.790000000000003,0.10794161096580451,0.29034528480092997,-0.09519247069650297,118.91620501549937,-0.20818802673641384,2.877141758694178,0.5077772611735928,0.02287363161241887,-0.011174771292744357,-0.8611080426857504
333.0,0.062423471858955734,0.04590477574348543,-0.038055313377894036,-0.051230989053569716,-0.4791429332558365,9.790000000000003,0.13332788433594886,0.3858480456262714,0.1442440424295263,118.87574923714035,-0.30217869078756177,2.8011100818560495,0.5080843046907391,0.022728812069650293,-0.01011096018938293,-0.8609439726869612
334.0,0.05073234524847428,0.04030901869611547,-0.033409377119054534,-0.07355904291388166,-0.467756950498886,9.790000000000003,-0.1380291581904485,-0.5069807710936743,0.28879988859827566,118.78411677806838,-0.4299591930640318,2.7324602828635087,0.5087642822871258,0.022766030273176398,-0.00886566539039039,-0.8605515661329072
335.0,0.08082824760244116,0.03407342826697665,-0.03594618812360748,0.09870434951080118,-0.5361583357551098,9.783722755013079,-0.3812421292260002,-0.27814709871161486,0.6830060907681874,118.17472512835415,0.5793207522038167,3.1330947883367237,0.5132652576344086,0.021032955258645736,-0.018512717015160322,-0.85767185732539
336.0,0.08283347863993026,0.03811198295069263,-0.03553133778940231,0.006377264361135351,-0.47962486680228605,9.785427685750268,1.0302010680034872,1.0979896226872032,-0.734073791533469,118.30857672188317,0.04064043882592272,2.7971701540249927,0.5122614814874552,0.02093894134796086,-0.012920491630340017,-0.8583408148902936
337.0,0.08141940327424196,0.03642860602538022,-0.042279376150343904,-0.1203576964060836,-0.3364295747360263,9.792875133197718,0.28489023297491034,0.4599983047563693,0.18279115809357743,118.44588691514095,-0.697226460331299,1.9601587474571347,0.5113126275576383,0.01807020511866705,-0.0035278325627240135,-0.859073746812942
338.0,0.06689697762278407,0.031023442797636344,-0.04263610384578129,-0.15949336433207406,-0.3135060060060059,9.79401821176015,-0.08674955197132622,0.1719794391165359,-0.10206880267364138,118.48630031240917,-0.9284743412767607,1.8293737285672766,0.511022840745665,0.01817763345539087,-0.001164940528673835,-0.8593073937111306
339.0,0.0728426813910685,0.0418696115470309,-0.04079531144047274,-0.11131938390002907,-0.37688026736413827,9.792148600213118,-0.456429211469534,-0.20293579870192774,-0.5206456456456456,118.65389179502083,-0.6456456456456456,2.200247626658917,0.5097510948638961,0.019719863128451028,-0.004926041920953212,-0.8600298756945657
340.0,0.06289523394362104,0.042125835512932294,-0.03468904388259228,-0.08181487939552456,-0.40397825244599433,9.791270464012403,-0.4602874043398237,-0.6741000072653298,-0.025368110045529413,118.74094558267944,-0.47390535696987307,2.3588664269107817,0.5090973554247795,0.02015605892061416,-0.006909668472827667,-0.8604214143051925
341.0,0.08546934030804998,0.025133682069165945,-0.029473990119151416,0.2360864089896348,-0.5310142400464981,9.776172624237141,-0.9579912573864187,-2.414305434466725,-1.12130376344086,119.59766116923375,1.3846628886951466,3.108032427588879,0.5024537959391648,0.017699172439697763,-0.024288631020052312,-0.8638239356500048
342.0,0.0922101133391456,-0.03230092996222028,-0.03889421679744261,0.592325874261358,-0.2622507991862831,9.74865978882108,6.743169076334398,-1.760038264070522,1.778950825825826,119.7919285212632,3.4729820546352803,1.5198479729729728,0.500630612024121,-0.0034627859001743685,-0.032811521526203626,-0.8639780559897802
343.0,0.14331831831831832,-0.3347122929380993,-0.09646323743097938,0.7464675966288867,1.0594570376828445,9.577564661435629,3.2290274145112856,0.8034486099002227,1.9571557444541314,117.4132973699506,4.373979826600794,-6.3620798217572405,0.5160116500891213,-0.06644047161048143,-0.003455014445897516,-0.8494548124706965
344.0,0.11588322193160905,-0.11714254577157798,-0.09475733798314447,0.6469783493170589,1.134153104717621,9.645417029933162,1.609309914753463,1.42537295359876,0.05581741015208763,115.50688844086021,3.7875239150440763,-6.72474086990216,0.5310634379565049,-0.06693904702581614,0.003414185819771382,-0.8422442722248862
345.0,0.05619877942458588,-0.07731231231231228,-0.08433207400949339,0.46395960476605635,1.21984984984985,9.679572314249736,-0.16359101036520396,0.6383137169427492,-2.186052988472343,116.45396505376344,2.711330281894798,-7.188423302334592,0.5245825872847041,-0.06588498894749586,0.012847185046982465,-0.847452784719074
346.0,0.06891455972101133,0.04224183861280637,-0.1452741451128548,0.3352404824179018,0.9575796764506441,9.72686985372469,-1.3418489053569695,0.4761424731182796,-1.4636128063547416,118.05501216942748,1.9495241208950884,-5.621729087958926,0.5132936376615325,-0.05102560945631115,0.010789708159934129,-0.8557570410081857
347.0,0.07095321127579192,0.05207812651361039,-0.10477816526203623,0.33258912137944396,0.8103678678678679,9.750438583745034,-1.8109546037973456,-0.24587541170202454,-1.0059742201879298,118.63261497384481,1.937395560883464,-4.748487903225806,0.5093209165935291,-0.044524033645258164,0.006623760020342925,-0.8589252167279378
348.0,0.055064419257967644,0.059493364332074014,-0.08178872420807903,0.3818545965320159,0.586191998450063,9.771191514094735,-0.5710518986728663,-0.022271263198682528,-0.11412622299719061,119.05502276470017,2.227350334205173,-3.4294354838709675,0.5064677219616391,-0.035940646284994666,-0.0015971843088249545,-0.8613144224634313
349.0,0.07413978494623656,0.033885982756950504,-0.07382955536181343,0.36290685847137455,0.49134747650876687,9.779500629661918,-0.42832298023830284,0.2367483410830185,0.3620101956795505,119.00892424682746,2.11581541218638,-2.8749878911169233,0.5069368054654655,-0.03130539599389712,-0.0032764285285285287,-0.861331647891117
350.0,0.07394265232974909,0.028690303206432243,-0.06140850527947303,0.3357948270851495,0.4445626271432723,9.785942071103362,-0.04746682166037003,0.2027995737673157,0.5528128935387,118.63887072556427,1.9563172043010755,-2.6014724401821177,0.5097817129836288,-0.028574841106267554,-0.0032372696047660568,-0.8597916740530855
351.0,0.07204979172721107,0.01836869127191708,-0.056903032064322394,0.3270517291485033,0.42461348445219416,9.787674610093966,-0.183334544221641,0.2536720187929865,0.33007907100649037,118.34902341857986,1.9065860215053765,-2.481670178242759,0.511957019146566,-0.027486260077981203,-0.00332844394362104,-0.8585476013465079
352.0,0.08315024702121476,0.01657560786593045,-0.06111450159837259,0.32350261551874454,0.41169403274241995,9.788977283735349,-0.11057832025573962,0.0018208732926474902,0.43205857066744163,117.93688093335271,1.8828828828828827,-2.406971992153444,0.5150414496168748,-0.02685812634481255,-0.0034028876242371405,-0.8567244798149762
353.0,0.07742637799089412,0.012857696406083505,-0.06210743001065583,0.3494170783686912,0.39587837837837847,9.789071975201008,-0.16326407052213504,-0.019110844715683424,0.23599456311149858,117.48801371936452,2.034855419936065,-2.315017134069554,0.5183983270933836,-0.026875720865058607,-0.0048517819662404335,-0.8546863253017533
354.0,0.07262447931802771,0.018005909134941392,-0.058939019664826134,0.3273474280732345,0.3964651748522716,9.789607672188318,0.07965828731957762,0.08833884287513319,0.05026094643030126,117.34848154606219,1.909284788821079,-2.31944293083406,0.5194573358137169,-0.026334900360844717,-0.0038496896076721876,-0.8540732472924537
355.0,0.06361764990797249,0.013117310859246344,-0.061448706771287435,0.31982999128160405,0.38905017921146956,9.653099389712294,-0.20331117407730312,-0.013304635280441728,-0.2720411944202267,117.46195086215248,1.9894168361910298,-2.30884009009009,0.5186213744018211,-0.026577863164777685,-0.004489203666569795,-0.8545729969228906
356.0,0.07153128935386999,0.00018889857599535109,-0.05575438341567376,0.3935418482999128,0.36091954858083897,9.718843117310858,-0.15455626997965707,0.037781228809454614,-0.16597494672091445,118.15751991911266,2.362019277341858,-2.1272446842003294,0.5133994747931803,-0.026848571299525333,-0.008247557029933157,-0.8576488734483676
357.0,0.0809941393005909,0.004709144628499466,-0.054637944396008935,0.40621984888113927,0.36644991765959517,9.753422454712776,-0.1044678751331977,0.17203241547999612,-0.04006072604862927,118.05151421582873,2.402727828635087,-2.1426714012399497,0.5141922955686331,-0.027202043266250118,-0.008453172807081273,-0.8571803476068003
358.0,0.06946212341373631,0.011794536471955826,-0.05024459943814785,0.41852659110723633,0.3592957473602634,9.77058219509832,-0.07068711857018309,-0.20383034243921339,-0.13755388452969097,118.08131266346992,2.458000339048726,-2.098973469437179,0.5139775610728472,-0.027121758089218247,-0.009088807796909813,-0.8573160962854789
359.0,0.06287174271045239,0.007967160709096192,-0.052461009396493286,0.4408761987794246,0.3527303109561173,9.777567083212244,-0.02859512738544996,0.23704652232878037,-0.01686161968420033,118.1144410539572,2.5782385207788434,-2.0585313135716357,0.5137352162443088,-0.0273652158098421,-0.010182882218347379,-0.8574494361086893
360.0,0.05577956989247312,0.01316308243727599,-0.05144265232974912,0.43418458781362007,0.34767921146953396,9.787195340501789,-0.059699820788530464,0.1874439964157706,0.15199372759856633,118.11480734767025,2.5327620967741935,-2.0306339605734767,0.5137473486379929,-0.026916559184587817,-0.009977772096774196,-0.8574554008960574
361.0,0.06078901482127287,0.010819529206625982,-0.053088249539862464,0.43575293034970447,0.3471241402693014,9.786590380703279,0.14549428460718783,0.29793604087958925,0.19284758548871453,117.92632047369949,2.5435632204785428,-2.0255512569020633,0.5151644826523298,-0.02696372931124673,-0.010017152113242275,-0.8566028371590141
362.0,0.05359343214181923,0.01457643126997966,-0.0546355226193936,0.4197716264651749,0.358082679453647,9.787466337305046,-0.021338879201782443,0.2446781458878233,0.02135098808485905,117.79934975297877,2.4513010994865834,-2.089864562142788,0.5161116038620073,-0.027039681761358132,-0.009017617929380993,-0.8560401697309408
363.0,0.05123219994187736,0.005984452194129614,-0.05151578998353193,0.44525767703187064,0.33162646517485206,9.786475104136393,-0.24476442167974427,-0.08364210985178727,-0.2482290758500436,117.90913948222415,2.606418918918919,-1.9337371645839387,0.5152767915591397,-0.026542943627094834,-0.01088769389300591,-0.8565324124505957
364.0,0.0659924440569602,0.020407100649036135,-0.05957061900610289,0.46512883851593534,0.3253652039135909,9.784738448125541,0.021518998837547224,-0.25861092947786496,0.3044248885982757,117.96697453501888,2.717131950498886,-1.9019044245858763,0.5148265155734767,-0.026792071522328778,-0.011899982936646323,-0.856782252555943
365.0,0.07307953114404728,0.021071878329942846,-0.06132810229584425,0.5192235784171269,0.30011769834350466,9.782095321127574,-0.10354305918822049,0.37077399980625786,0.05244962704640124,117.94353022377214,3.0318281991669087,-1.752848614743776,0.514989109002228,-0.027124427414995635,-0.0149235244037586,-0.8566240931468565
366.0,0.0625685362782137,0.02101884142206723,-0.05759711324227453,0.5213627337014435,0.29974353385643704,9.781955342439208,-0.1351502712389809,-0.09434030804998542,-0.5562518163324615,118.00949336433207,3.04990676160031,-1.7515726411895765,0.5144749706480675,-0.027179905903080497,-0.01506921447399012,-0.8569284814407148
367.0,0.07891819238593431,0.01733241305821951,-0.05844279763634603,0.566490361329071,0.25732635861668113,9.780843262617449,-0.19538288288288286,-0.018920129807226557,-0.1755682093383706,118.46238375472245,3.314246706383803,-1.5001468202073038,0.5110875566160515,-0.02641815229681294,-0.01825961708660273,-0.8589113081579965
368.0,0.06877361232199941,0.02977283735348251,-0.05754577157802966,0.580763101811489,0.2527492008137169,9.780332025573955,-0.02583884287513319,0.058192264845490664,0.2716749007071588,118.51669814976268,3.3976587474571343,-1.4721556233653006,0.5106716610723626,-0.026567982402886756,-0.01900188936767412,-0.859144166372905
