time,linaccel_x,linaccel_y,linaccel_z,gravity_x,gravity_y,gravity_z,gyro_x,gyro_y,gyro_z,euler_x,euler_y,euler_z,quaternion_w,quaternion_y,quaternion_x,quaternion_z
0.0,0.004307692307692309,0.05599999999999999,0.0018461538461538461,0.060000000000000046,-1.2299999999999995,-9.720000000000015,0.007692307692307693,-0.0009615384615384616,0.0028846153846153848,238.0625,0.3125,172.75,-0.053588870000000004,-0.4847412099999995,0.8723754900000011,0.033447269999999966
1.0,0.0034259471871412174,0.057074626865671635,0.0021079219288174513,0.06000000000000004,-1.2299999999999995,-9.720000000000013,0.018733256792958286,-0.015245885954841177,-0.002147914274779946,238.06249999999997,0.3125,172.75,-0.05358887,-0.4847412099999995,0.8723754900000011,0.033447269999999966
2.0,0.0037004059373462366,0.05713912579957355,9.982368377890792e-05,0.06000000000000004,-1.2299999999999995,-9.720000000000013,0.02476961005412498,-0.031087522552074788,0.010240179596522878,238.0625,0.31249999999999994,172.75,-0.05358887,-0.4847412099999995,0.8723754900000011,0.03344726999999996
3.0,0.0036140355912743973,0.05710595101415997,0.00045684079601990057,0.06000000000000004,-1.2299999999999995,-9.720000000000015,0.03873863853807884,-0.007328023344814389,0.011958237657864523,238.0625,0.3125,172.75,-0.053588870000000004,-0.4847412099999995,0.8723754900000011,0.03344726999999996
4.0,0.002843546058339029,0.05727023045162188,-0.0007955657927371937,0.06000000000000005,-1.2299999999999995,-9.720000000000015,0.00945809000620628,-0.005500851960589563,0.00529748547472428,238.0625,0.3125,172.75,-0.053588870000000004,-0.4847412099999995,0.8723754900000011,0.03344726999999996
5.0,0.0032071328306583482,0.05724801845161738,0.0005401823641773091,0.06000000000000005,-1.2299999999999995,-9.720000000000015,-0.0009393793145147265,0.008353792381988098,0.0005860876505135049,238.0625,0.3125,172.75,-0.053588870000000004,-0.4847412099999995,0.8723754900000011,0.03344726999999996
6.0,0.0036199361794119864,0.05850371738476577,0.00031338587487781056,0.06000000000000005,-1.2299999999999995,-9.720000000000015,0.006087011946386946,-0.008365231878336717,-0.003601950804571772,238.0625,0.3125,172.75,-0.053588870000000004,-0.4847412099999995,0.8723754900000011,0.03344726999999996
7.0,0.004014803744642455,0.056169166854650725,0.002212609970674487,0.06000000000000005,-1.2299999999999995,-9.720000000000015,0.006481044157455448,-0.00593336435070306,0.0027715899691706145,238.0625,0.3125,172.75,-0.053588870000000004,-0.4847412099999995,0.8723754900000011,0.03344726999999996
8.0,0.004094250507556959,0.05424091097074967,0.0016497293029551097,0.06000000000000005,-1.2299999999999995,-9.720000000000015,-0.0015516615441010604,-0.004672637510339123,0.005138896721558012,238.0625,0.3125,172.75,-0.053588870000000004,-0.4847412099999995,0.8723754900000011,0.03344726999999996
9.0,0.003521597018572825,0.05557391063237836,0.0028417456199714263,0.06000000000000005,-1.2299999999999995,-9.720000000000015,0.02631337706312505,0.030479118495751557,0.014495392040754944,238.0625,0.3125,172.75,-0.053588870000000004,-0.4847412099999995,0.8723754900000011,0.03344726999999996
10.0,0.0038467553951424924,0.054973757425370307,0.0028199112715241747,0.06000000000000005,-1.2299999999999995,-9.720000000000015,0.007870892548311904,-0.007935747048650276,0.007310700052635536,238.0625,0.3125,172.75,-0.053588870000000004,-0.4847412099999995,0.8723754900000011,0.03344726999999996
11.0,0.003367546432062562,0.05598315662831791,0.002677945710203775,0.06000000000000005,-1.2299999999999995,-9.720000000000015,0.039450334611624935,0.01727902473870216,-0.0006870817354688325,238.0625,0.3125,172.75,-0.053588870000000004,-0.4847412099999995,0.8723754900000011,0.03344726999999996
12.0,0.0024069478908188588,0.058883374689826296,0.0023870967741935483,0.06000000000000005,-1.2299999999999995,-9.720000000000015,0.019602977667493797,0.01119727047146402,-0.001488833746898263,238.0625,0.3125,172.75,-0.053588870000000004,-0.4847412099999995,0.8723754900000011,0.03344726999999996
13.0,0.001292879163846906,0.05721723437852468,0.0011761786600496277,0.06000000000000005,-1.2299999999999995,-9.720000000000015,0.006993006993006993,0.010043988269794722,-0.02286262124971802,238.0625,0.3125,172.75,-0.053588870000000004,-0.4847412099999995,0.8723754900000011,0.03344726999999996
14.0,0.0013366203688784334,0.05710166535972987,0.0020826342116664694,0.06000000000000005,-1.2299999999999995,-9.720000000000015,0.006243263904554226,0.03984071484071484,0.010725922822697014,238.0625,0.3125,172.75,-0.053588870000000004,-0.4847412099999995,0.8723754900000011,0.03344726999999996
15.0,0.0027582698155639903,0.06711392293578138,-0.0008521683206324528,0.059460760712566244,-1.227688974482426,-9.720616273471368,-0.11562929393935653,0.048077184945263904,0.03039907118506059,238.06442585459797,0.3125,172.76251805488687,-0.05349342310544054,-0.48475531542128025,0.8723764300481472,0.03337298123736156
16.0,0.020355029980451276,0.07518014473623526,0.0058752274313179425,0.02787784579407114,-1.178927436549969,-9.728050072219556,0.03876458025471024,-0.12453903957274201,-0.3335088125109791,238.01922329596258,0.14521889400921656,173.04059082467847,-0.05215325648820414,-0.48438643937423453,0.8727521833604791,0.030636595738496444
17.0,0.03920339233868362,0.027454659393994982,0.011234671496587717,0.021450443634362763,-1.1768139486897304,-9.729186326432364,-0.04974213383577851,-0.28999683279594207,-0.23584781284889617,237.78924874475547,0.1113479262672811,173.05474241694753,-0.05227027334548455,-0.4825431958944906,0.8737834137493636,0.03016666112731274
18.0,0.06475809890638967,0.015337645377521905,0.008881092864043384,-0.0014000153744694807,-1.1621925530924935,-9.73005805885186,0.013171239447472137,-0.21060077537675315,-0.26666732974685625,237.5881134615618,-0.010561805367308205,173.1476273754567,-0.05227636635964928,-0.4810511625677384,0.8746605751384392,0.02854001854278351
19.0,0.06514110566141187,0.03749938311223369,0.0035922667900119293,-0.005811320726762229,-1.1511712424708267,-9.73106265050726,0.12778210869339632,-0.40355812407082897,-0.8900577008455332,236.97069519057192,-0.03394684998033743,173.20960423747846,-0.052053665994454365,-0.4763437673470224,0.8772547919331446,0.02779862833318185
20.0,0.054380856152805114,0.016207563486786078,0.007708507010797977,-0.017799738360492343,-1.1505230309609793,-9.730673357030236,0.10564298020129613,-0.3075957447508694,-0.9826431980395216,236.00137130737068,-0.10434403163436706,173.20425445383793,-0.05263241687541689,-0.4688547994245941,0.8812546876709535,0.026740177036114275
21.0,0.055817969415518844,0.015123434765892362,0.008741485817678741,-0.029896887342349736,-1.1481022582292022,-9.731090947964839,0.10716887421558435,-0.22792280460639164,-0.34806716014743766,235.48303351218357,-0.17911952869330172,173.21634432504854,-0.05292052809520373,-0.4649242495283719,0.8833645535639938,0.025843770520361284
22.0,0.059767524017911626,0.013790735676480604,0.008724254988157903,-0.03570217918297491,-1.148624861833495,-9.730545473982424,0.06747478063523249,-0.12933024045429203,-0.1801823372305405,235.26450062705953,-0.188679562559191,173.2362539597593,-0.05302670814053585,-0.46324012731718156,0.8842583203211679,0.025542992414139577
23.0,0.060710685085878874,0.012057789382540405,0.007198100344757684,-0.03814757915505483,-1.149310059000239,-9.730263249325183,0.02411470749758997,-0.02142827524101261,-0.17921798404367484,235.15792630973468,-0.18920161714297312,173.24352724079046,-0.05307618625243116,-0.46241589157367635,0.8846939053811728,0.025438957495020446
24.0,0.06201898028336045,0.010620265005039427,0.008394322293866323,-0.03958946427084864,-1.1497686142343313,-9.730104364326385,0.006311429031380036,-0.02293396194278406,-0.06353957453942585,235.1207907332408,-0.19063670134749744,173.2466784318446,-0.05310797989813747,-0.46212756678184064,0.8848443342830449,0.02538469218912766
25.0,0.06330968272714002,0.01172202465466223,0.00788517270206075,-0.04000416882295442,-1.1498481973434536,-9.730052182163197,-0.018194189191580085,-0.05002168727856583,-0.05632443339393054,235.1228652751423,-0.18951972284514979,173.24937737191652,-0.053102404272612355,-0.4621438678083495,0.884835085711576,0.025379124464809368
26.0,0.06123296864425895,0.011237818632979929,0.007674486803519063,-0.03999022482893452,-1.15,-9.73000000000001,-0.015853635611700126,-0.023046258177306562,-0.05214936273404015,235.12499999999997,-0.18756109481915934,173.25,-0.05310091811827965,-0.46215820000000035,0.884826660000001,0.025390450982404673
27.0,0.06016927024588314,0.013566123392736305,0.007759530791788859,-0.04000000000000002,-1.15,-9.73000000000001,-0.008782145274080756,-0.014241848541243702,-0.017506132979923303,235.12499999999997,-0.1875,173.25,-0.053100590000000086,-0.46215820000000035,0.884826660000001,0.025390629999999983
28.0,0.06075957308820211,0.012336411572298676,0.00720234604105572,-0.04000000000000002,-1.15,-9.73000000000001,-0.002638591247462215,-0.022800204667644184,0.0016222436837356182,235.12499999999997,-0.1875,173.25,-0.053100590000000086,-0.46215820000000035,0.884826660000001,0.025390629999999983
29.0,0.060899499805749796,0.012630641200197659,0.00959649490294652,-0.04000000000000002,-1.15,-9.73000000000001,-0.012522921746712067,0.0015607271592654633,0.017631834731129087,235.12499999999997,-0.1875,173.25,-0.053100590000000086,-0.46215820000000035,0.884826660000001,0.025390629999999983
30.0,0.06218537734666767,0.012841545551222978,0.009994972769166322,-0.04000000000000002,-1.15,-9.73000000000001,-0.014917833062994353,-0.00231112973048457,0.021837705305447243,235.12499999999997,-0.1875,173.25,-0.053100590000000086,-0.46215820000000035,0.884826660000001,0.025390629999999983
31.0,0.06531601373536858,0.011961715703651194,0.010354806483838744,-0.04000000000000002,-1.15,-9.73000000000001,-0.0197107775736808,-0.00213261201164427,-0.025185365709559256,235.12499999999997,-0.1875,173.25,-0.053100590000000086,-0.46215820000000035,0.884826660000001,0.025390629999999983
32.0,0.06476700002506453,0.012420251791219538,0.009405164727745375,-0.04000000000000002,-1.15,-9.73000000000001,-0.023953018307857017,-0.03876180942713201,-0.010836206803948738,235.12499999999997,-0.1875,173.25,-0.053100590000000086,-0.46215820000000035,0.884826660000001,0.025390629999999983
33.0,0.06376879213975986,0.015024623226236135,0.008349548301161205,-0.04000000000000002,-1.15,-9.73000000000001,0.03098771747965296,-0.04336908051625794,-0.0027181823552791286,235.12499999999997,-0.1875,173.25,-0.053100590000000086,-0.46215820000000035,0.884826660000001,0.025390629999999983
34.0,0.06186647492292653,0.014768958192345296,0.009779287916384695,-0.04000000000000002,-1.15,-9.73000000000001,0.025275161666290697,0.0037378867772012957,0.015978879990976767,235.12499999999997,-0.1875,173.25,-0.053100590000000086,-0.46215820000000035,0.884826660000001,0.025390629999999983
35.0,0.06176412700203021,0.015238829047296796,0.010529917662982183,-0.04000000000000002,-1.15,-9.73000000000001,0.01040761993382961,-0.0035379481070005256,0.010647064628919468,235.12499999999997,-0.1875,173.25,-0.053100590000000086,-0.46215820000000035,0.884826660000001,0.025390629999999983
36.0,0.06286198680351907,0.013775065324460493,0.01017683190465449,-0.04000000000000002,-1.15,-9.73000000000001,0.02123180079329273,-0.010046852089442814,-0.00623654739078126,235.12499999999997,-0.1875,173.25,-0.053100590000000086,-0.46215820000000035,0.884826660000001,0.025390629999999983
37.0,0.06015579178885629,0.013533197984810896,0.00979103692006918,-0.04000000000000002,-1.15,-9.73000000000001,-0.011624522990450411,-0.028539681085043987,0.01143565775622227,235.12499999999997,-0.1875,173.25,-0.053100590000000086,-0.46215820000000035,0.884826660000001,0.025390629999999983
38.0,0.05933009530791788,0.013601887359951884,0.010565117678020906,-0.04000000000000002,-1.15,-9.73000000000001,-0.030616758073915333,-0.07508973301564027,-0.033963256165877136,235.12499999999997,-0.1875,173.25,-0.053100590000000086,-0.46215820000000035,0.884826660000001,0.025390629999999983
39.0,0.06053849678547259,0.013396477178735251,0.008039382660350404,-0.04000000000000002,-1.15,-9.73000000000001,-0.0255286023620197,-0.038351318120723364,-0.0100957720035341,235.12499999999997,-0.1875,173.25,-0.053100590000000086,-0.46215820000000035,0.884826660000001,0.025390629999999983
40.0,0.06387055887660725,0.016123641815174082,0.00859630423340101,-0.04000000000000002,-1.15,-9.73000000000001,-0.0015968364632679144,0.02636050525415445,0.04072454343371682,235.12499999999997,-0.1875,173.25,-0.053100590000000086,-0.46215820000000035,0.884826660000001,0.025390629999999983
41.0,0.07195727357320097,0.013963580438378833,0.008127575381607643,-0.04000000000000002,-1.15,-9.73000000000001,-0.028657655768290848,-0.08186801228005865,-0.10729535291657268,235.12499999999997,-0.21438172043010753,173.25,-0.053152615728250266,-0.46215820000000035,0.884826660000001,0.02526414257086997
42.0,0.07578318858560792,0.014231596360628627,0.007882801338446502,-0.04000000000000002,-1.15,-9.73000000000001,-0.03347114914655237,-0.07936816207985561,-0.06502256983607789,235.12499999999997,-0.23319892473118278,173.25,-0.053189606735092855,-0.46215820000000035,0.884826660000001,0.025169874027370455
43.0,0.07775229810512067,0.014554703361154981,0.006663785810963232,-0.04000000000000002,-1.15,-9.73000000000001,0.005166918095345512,-0.003485400688021653,-0.02421766321715918,235.12499999999997,-0.24260752688172044,173.25,-0.053208102238514146,-0.46215820000000035,0.884826660000001,0.025122739755620696
44.0,0.08099773714189035,0.014607376494473277,0.0058604288856304995,-0.04000000000000002,-1.15,-9.73000000000001,-0.0020691464113843155,0.0002424113185201908,0.004035709334348447,235.12499999999997,-0.24731182795698925,173.25,-0.0532173499902248,-0.46215820000000035,0.884826660000001,0.025099172619745813
45.0,0.08320804195804193,0.014823849537559223,0.007862170087976541,-0.04000000000000002,-1.15,-9.73000000000001,0.007187453003985261,0.014832647191518158,0.0005845129333032564,235.12499999999997,-0.24966397849462366,173.25,-0.05322197386608012,-0.46215820000000035,0.884826660000001,0.02508738905180838
46.0,0.08270617151665537,0.015197848522445304,0.007638318670576738,-0.04000000000000002,-1.15,-9.73000000000001,0.009336639502970149,0.012838488796150085,0.010159069760884277,235.12499999999997,-0.25,173.25,-0.05322265999999996,-0.46215820000000035,0.884826660000001,0.025085449999999967
47.0,0.08184688228438226,0.013479817561470795,0.009650424843973235,-0.04000000000000002,-1.15,-9.73000000000001,-0.01605128322618242,-0.0002960161478306649,-0.006986221943379202,235.12499999999997,-0.25,173.25,-0.05322265999999996,-0.46215820000000035,0.884826660000001,0.025085449999999967
48.0,0.0821482395292879,0.014323074103316047,0.008928035002631781,-0.04000000000000002,-1.15,-9.73000000000001,-0.025824280725994433,0.01591802015189112,-0.0022015283103992787,235.12499999999997,-0.25,173.25,-0.05322265999999996,-0.46215820000000035,0.884826660000001,0.025085449999999967
49.0,0.08244632820136852,0.014310420426347854,0.009543421967817132,-0.04000000000000002,-1.15,-9.73000000000001,-0.0013426614548086302,0.004919307842694939,0.007816729641326415,235.12499999999997,-0.25,173.25,-0.05322265999999996,-0.46215820000000035,0.884826660000001,0.025085449999999967
50.0,0.08265372396420784,0.016121672682156564,0.010965298142717501,-0.04000000000000002,-1.15,-9.73000000000001,0.011964127941950524,0.012873735807203548,0.007382310230092488,235.12499999999997,-0.25,173.25,-0.05322265999999996,-0.46215820000000035,0.884826660000001,0.025085449999999967
51.0,0.08200728908188584,0.015275589330024823,0.010603598014888341,-0.04000000000000002,-1.15,-9.73000000000001,-0.003103675558312655,0.0043753877171215875,-0.003936298076923077,235.12499999999997,-0.25,173.25,-0.05322265999999996,-0.46215820000000035,0.884826660000001,0.025085449999999967
52.0,0.08262726106778526,0.015393476259403686,0.009703508409153573,-0.04000000000000002,-1.15,-9.73000000000001,-0.01061358696187325,0.024453241930560476,0.007124125174780416,235.12499999999997,-0.25,173.25,-0.05322265999999996,-0.46215820000000035,0.884826660000001,0.025085449999999967
53.0,0.08151043222010962,0.014177600177600183,0.009412787928916965,-0.04000000000000002,-1.15,-9.73000000000001,0.0015826019858277921,0.016578672223833513,0.0035148095631966593,235.12499999999997,-0.25,173.25,-0.05322265999999996,-0.46215820000000035,0.884826660000001,0.025085449999999967
54.0,0.08190161809516647,0.01416324177614501,0.008038900167932428,-0.04000000000000002,-1.15,-9.73000000000001,0.006389936228645907,-0.0005506142602916802,-0.018388376856118792,235.12499999999997,-0.25,173.25,-0.05322265999999996,-0.46215820000000035,0.884826660000001,0.025085449999999967
55.0,0.08179075941979166,0.014051844213134544,0.00962739053061634,-0.04000000000000002,-1.15,-9.73000000000001,-0.008296967369548016,-0.024306014326175615,-0.005270491157587933,235.12499999999997,-0.25,173.25,-0.05322265999999996,-0.46215820000000035,0.884826660000001,0.025085449999999967
56.0,0.0803172159381837,0.015844780667361322,0.00782610221319899,-0.04000000000000002,-1.15,-9.73000000000001,0.00555995303979175,0.004286198792247179,-0.0009137815589428493,235.12499999999997,-0.25,173.25,-0.05322265999999996,-0.46215820000000035,0.884826660000001,0.025085449999999967
57.0,0.08050442702458831,0.016329141288818717,0.008772163320550419,-0.04000000000000002,-1.15,-9.73000000000001,0.0006026063989773671,0.005425278686367396,0.0007599255583126551,235.12499999999997,-0.25,173.25,-0.05322265999999996,-0.46215820000000035,0.884826660000001,0.025085449999999967
58.0,0.08072875310173697,0.01658343672456576,0.009562034739454097,-0.04000000000000002,-1.15,-9.73000000000001,0.011695486972704715,-0.022641710607940443,0.014492866004962779,235.12499999999997,-0.25,173.25,-0.05322265999999996,-0.46215820000000035,0.884826660000001,0.025085449999999967
59.0,0.08169812344913152,0.016047301488833758,0.00894602977667494,-0.04000000000000002,-1.15,-9.73000000000001,0.011205994106699752,-0.020114279621588085,-0.00019773573200992586,235.12499999999997,-0.25,173.25,-0.05322265999999996,-0.46215820000000035,0.884826660000001,0.025085449999999967
60.0,0.08248883374689825,0.015737282878411918,0.009849875930521095,-0.04000000000000002,-1.15,-9.73000000000001,0.00247557382133995,-0.0073317307692307675,0.0002714019851116625,235.12499999999997,-0.25,173.25,-0.05322265999999996,-0.46215820000000035,0.884826660000001,0.025085449999999967
61.0,0.08229404466501239,0.015446805210918124,0.007049007444168738,-0.04000000000000002,-1.15,-9.73000000000001,0.020794238523573202,0.0047553504962779165,0.01249612282878412,235.12499999999997,-0.25,173.25,-0.05322265999999996,-0.46215820000000035,0.884826660000001,0.025085449999999967
62.0,0.08129342431761785,0.01515516439205956,0.0065443548387096795,-0.04000000000000002,-1.15,-9.73000000000001,-0.012850399348635234,0.017638221153846154,0.008186647022332506,235.12499999999997,-0.25,173.25,-0.05322265999999996,-0.46215820000000035,0.884826660000001,0.025085449999999967
63.0,0.08150504032258066,0.015963011786600506,0.00755249689826303,-0.04000000000000002,-1.15,-9.73000000000001,0.004626919199751863,0.009110383064516128,-0.009747208436724566,235.12499999999997,-0.25,173.25,-0.05322265999999996,-0.46215820000000035,0.884826660000001,0.025085449999999967
64.0,0.08198014888337468,0.015196029776674946,0.008406947890818861,-0.04000000000000002,-1.15,-9.73000000000001,0.004125310173697272,-0.008064516129032258,-0.04382754342431761,235.12499999999997,-0.25,173.25,-0.05322265999999996,-0.46215820000000035,0.884826660000001,0.025085449999999967
65.0,0.08030272952853598,0.014416873449131522,0.008476426799007447,-0.04000000000000002,-1.15,-9.73000000000001,-0.011228287841191068,-0.013027295285359801,-0.04128411910669975,235.12499999999997,-0.25,173.25,-0.05322265999999996,-0.46215820000000035,0.884826660000001,0.025085449999999967
66.0,0.08075434243176179,0.01474441687344914,0.009250620347394545,-0.04000000000000002,-1.15,-9.73000000000001,0.013120347394540939,0.0061104218362282876,-0.012593052109181139,235.12499999999997,-0.25,173.25,-0.05322265999999996,-0.46215820000000035,0.884826660000001,0.025085449999999967
67.0,0.07996898263027297,0.01592183622828785,0.008880893300248143,-0.04000000000000002,-1.15,-9.73000000000001,0.01081730769230769,-0.020107009925558313,-0.0008142059553349857,235.12499999999997,-0.25,173.25,-0.05322265999999996,-0.46215820000000035,0.884826660000001,0.025085449999999967
68.0,0.07987899466125273,0.016527201293330337,0.009775584630423344,-0.04000000000000002,-1.15,-9.73000000000001,0.01971471069253327,-0.023234477216332056,-0.0019434026994510855,235.12499999999997,-0.25,173.25,-0.05322265999999996,-0.46215820000000035,0.884826660000001,0.025085449999999967
69.0,0.08076001015113919,0.016867104669524034,0.008414373261147457,-0.04000000000000002,-1.15,-9.73000000000001,0.006862769287164447,-0.03125311348597639,0.003186036074140913,235.12499999999997,-0.25,173.25,-0.05322265999999996,-0.46215820000000035,0.884826660000001,0.025085449999999967
70.0,0.08154680959721282,0.0157498310381375,0.008328341461405979,-0.04000000000000002,-1.15,-9.73000000000001,0.0028260535947027877,-0.03787684229972536,0.004758020597234307,235.12499999999997,-0.25,173.25,-0.05322265999999996,-0.46215820000000035,0.884826660000001,0.025085449999999967
71.0,0.08192657420984034,0.015451876192803622,0.00846283980356561,-0.04000000000000002,-1.15,-9.73000000000001,-0.0045681559983475305,-0.03351564500128008,0.010913016614881534,235.12499999999997,-0.25,173.25,-0.05322265999999996,-0.46215820000000035,0.884826660000001,0.025085449999999967
72.0,0.08288159510740155,0.012850744237841018,0.00885959918217983,-0.04000000000000002,-1.15,-9.73000000000001,-0.0028906129712581324,0.00975742447516641,0.01917902885644821,235.12499999999997,-0.25,173.25,-0.05322265999999996,-0.46215820000000035,0.884826660000001,0.025085449999999967
73.0,0.08604870040353908,0.01456609698545183,0.009975855685533106,-0.04000000000000002,-1.15,-9.73000000000001,-0.03366530422982036,0.053430060083285894,0.08458857450792935,235.17016129032257,-0.25,173.25,-0.053246890272952874,-0.4625144177270473,0.8846487951067008,0.025063639181141444
74.0,0.08426793994535928,0.014788537627247312,0.009002101840811521,-0.04000000000000002,-1.1493647642679896,-9.73000000000001,-0.03460701484895033,0.01691941570973829,-0.01437303735690832,235.21209677419353,-0.25,173.25,-0.05324446597518613,-0.4627841261538463,0.8845138191861048,0.025073573076923084
75.0,0.07939837581773065,0.01335228212647568,0.009529212722761114,-0.04000000000000002,-1.1445210918114144,-9.73000000000001,-0.042581679073614556,0.05631015489886457,0.02796920821114369,235.23306451612905,-0.25,173.25,-0.05317055911662537,-0.46291219533498773,0.8844497234640203,0.025142515409429272
76.0,0.07743920595533499,0.012466501240694795,0.009627791563275437,-0.04000000000000002,-1.1420992555831266,-9.73000000000001,-0.006730769230769229,0.06681141439205955,0.04944168734491315,235.24354838709678,-0.25,173.25,-0.05313360568734499,-0.4629762299255584,0.884417675602978,0.025176986575682368
77.0,0.07772163320550415,0.010521994134897366,0.0077930671479058584,-0.04000000000000002,-1.1408883374689829,-9.73000000000001,-0.028276562147529886,-0.033383149108955554,0.062409767651703134,235.24879032258065,-0.25,173.25,-0.0531199016022258,-0.4630631369178134,0.8843744476841873,0.025177993419806
78.0,0.07863749154071734,0.011747349424768787,0.009990826377923156,-0.04000000000000002,-1.140282878411911,-9.73000000000001,-0.010664335664335663,-0.03705447778028423,0.03134446198962328,235.25,-0.25,173.25,-0.0531390190889541,-0.46310357278396874,0.8843540966361387,0.02510089878186332
79.0,0.07983487480261674,0.013570945183848417,0.008677795322956615,-0.04000000000000002,-1.1400000000000003,-9.73000000000001,0.0066405368824723685,-0.020682946086171893,0.05614989848860816,235.25,-0.25,173.25,-0.053149032189638346,-0.463120928230694,0.8843453599706752,0.02506170023460414
80.0,0.08008000601548988,0.013473644634934962,0.0069928566057598325,-0.04000000000000002,-1.1400000000000003,-9.73000000000001,0.0031336942627265213,-0.02501127904353711,0.024530039852620495,235.25,-0.25,173.25,-0.053156310449657886,-0.4631298179863147,0.8843408856304993,0.02504010173020532
81.0,0.0810772238514174,0.012677268967591554,0.0083401007594556,-0.04000000000000002,-1.1400000000000003,-9.73000000000001,-0.0054353240845176325,0.009485675614707874,0.01921291074516881,235.25,-0.25,173.25,-0.05315994957966766,-0.46313426286412507,0.8843386484604113,0.02502930247800591
82.0,0.08064734190540644,0.013266335814722918,0.0076454996616286955,-0.04000000000000002,-1.1400000000000003,-9.73000000000001,-0.004420092676141063,0.016730346266636588,0.01685183096473419,235.25,-0.25,173.25,-0.05316162000000001,-0.4631347699999999,0.8843383800000009,0.025024410000000042
83.0,0.08016974960523349,0.01220915106398978,0.0076931912173847684,-0.04000000000000002,-1.1400000000000003,-9.73000000000001,0.002599995770358674,0.021173466989999248,0.016657267463719077,235.25,-0.25,173.25,-0.05316162000000001,-0.4631347699999999,0.8843383800000009,0.025024410000000046
84.0,0.0804645274080758,0.012447007293781495,0.008571161365516207,-0.04000000000000002,-1.1400000000000003,-9.73000000000001,0.0034246877114820664,0.010167999003684487,-0.0023103240845176332,235.25,-0.25,173.25,-0.05316162000000001,-0.4631347699999999,0.8843383800000009,0.025024410000000042
85.0,0.08030922437777277,0.011884380404541702,0.00848544533423566,-0.04000000000000002,-1.1400000000000003,-9.73000000000001,0.021097729974998116,-0.023287729575531997,-0.018944798481088803,235.25,-0.25,173.25,-0.05316162000000001,-0.4631347699999999,0.8843383800000009,0.025024410000000042
86.0,0.08060079705240994,0.01194420633130311,0.008215504925182346,-0.04000000000000002,-1.1400000000000003,-9.73000000000001,0.021671742236258364,-0.00889446574930446,0.025015038724716138,235.25,-0.25,173.25,-0.05316162000000001,-0.4631347699999999,0.8843383800000008,0.025024410000000042
87.0,0.07997533649146552,0.013815775622227243,0.008754154447702838,-0.04000000000000002,-1.1400000000000003,-9.73000000000001,0.02250615647793067,-0.014838051733213023,0.016276129784194297,235.25,-0.25,173.25,-0.05316162000000001,-0.4631347699999999,0.8843383800000008,0.02502441000000004
88.0,0.08046898263027294,0.012682382133995043,0.010125930521091814,-0.04000000000000002,-1.1400000000000003,-9.73000000000001,0.010107785359801488,-0.025666873449131513,0.008374689826302729,235.25,-0.25,173.25,-0.05316162000000001,-0.4631347699999999,0.8843383800000008,0.02502441000000004
89.0,0.08173076923076922,0.013440446650124078,0.010072890818858562,-0.04000000000000002,-1.1400000000000003,-9.73000000000001,0.007954016749379653,-0.009840260545905708,0.0005117866004962779,235.25,-0.25,173.25,-0.05316162000000001,-0.4631347699999999,0.8843383800000008,0.02502441000000004
90.0,0.08258333333333331,0.015712227736421294,0.009162563019417858,-0.04000000000000002,-1.1400000000000003,-9.73000000000001,0.019757218308125567,0.011852389322147387,0.017711287368545433,235.25,-0.25,173.25,-0.05316162000000001,-0.4631347699999999,0.8843383800000008,0.02502441000000004
91.0,0.08159439619520265,0.01377670940170941,0.009692944040726301,-0.04000000000000002,-1.1400000000000003,-9.73000000000001,-0.007832308960081136,-0.011552093180117372,-0.006125745893891055,235.25,-0.25,173.25,-0.05316162000000001,-0.4631347699999999,0.8843383800000008,0.02502441000000004
92.0,0.07985442514474772,0.01354452715743039,0.009938477293316005,-0.04000000000000002,-1.1400000000000003,-9.73000000000001,-0.0077523730749537185,-0.007446138091299381,-0.026513943046201107,235.25,-0.25,173.25,-0.05316162000000001,-0.4631347699999999,0.8843383800000008,0.02502441000000004
93.0,0.08442845326716292,0.01182809484422388,0.00905980936626098,-0.04000000000000002,-1.1400000000000003,-9.73000000000001,-0.028038717554846587,-0.005684917680885422,-0.035953931820867306,235.25,-0.25,173.25,-0.053160635645161304,-0.4631332933064516,0.8843388721774201,0.02501653516129035
94.0,0.09159204516848277,0.0047133425636230715,0.010651924318474112,-0.04014960261804583,-1.1259373539036934,-9.734263674614315,-0.171195159834711,-0.14365547354896932,-0.2731123634721987,235.06019167835439,-0.24625993454885461,173.3392940626461,-0.05243977803295932,-0.46164795703892003,0.8851636117455586,0.024606838920056114
95.0,0.0872280851453362,0.0011315165082696655,0.010510526698640306,-0.043124654681456945,-1.1174848059841045,-9.73729312762974,-0.15355829303935895,-0.1798506502409465,-0.2455886143572416,234.9190254579455,-0.25399506991372345,173.39142122487144,-0.05203462769683155,-0.46054515245396654,0.8857733780428665,0.024234271654553968
96.0,0.08169840981832566,0.0009305225221249069,0.011920275756268047,-0.036401037018147835,-1.11325853202431,-9.738807854137454,-0.10551673957178867,-0.07102023827183802,-0.11789356276174735,234.82644821284373,-0.21973947044073272,173.4174848059841,-0.051698622349656484,-0.4599813392914996,0.8860954454730456,0.02435697096127203
97.0,0.07929089225407596,-0.001259304495761368,0.011434083287563308,-0.03303922818649328,-1.1111453950444128,-9.73956521739131,-0.015428965319393091,-0.019567191096216782,-0.037870478651345144,234.78015959029284,-0.2026116707042373,173.43051659654043,-0.05151656246515085,-0.45969943271026614,0.8862564791881353,0.02453318338386183
98.0,0.0753752848367154,-0.0011904850642578554,0.013047492946511186,-0.03135832377066601,-1.1100888265544642,-9.73994389901824,-0.0382239429574633,-0.0027569496889272484,-0.010285997312645276,234.76396316983625,-0.18709988001713107,173.43703249181863,-0.05140375603832918,-0.4595585255663228,0.8863369806651358,0.024650128517613286
99.0,0.0724664260470712,-0.004240318820963984,0.013600120309797735,-0.02660312805474098,-1.1082013685239485,-9.740000000000006,-0.014691894127378,0.04309722535528987,-0.09247405819986465,234.77977526505754,-0.15268441236183172,173.44923020527858,-0.05121411606519288,-0.4595530819843597,0.886340964477027,0.024843036444619902
100.0,0.060781111361756505,-0.009832769381156483,0.0141412136250846,-0.015610948191593366,-1.1039393939393936,-9.740000000000006,0.03972761109857884,-0.015169373637115572,-0.42261166253101734,234.55696668922474,-0.08776693736371155,173.47562316715545,-0.05091926934491316,-0.4578457079081134,0.8872255275268818,0.02509890265779382
101.0,0.05639551846003457,-0.01994119858635989,0.014638845025941809,-0.007321603128054747,-1.1018084066471163,-9.740000000000006,0.018793706293706296,-0.008158508158508158,-0.222363523573201,234.3309026994511,-0.04085927513346868,173.48881964809385,-0.050745467642679884,-0.45611089653222026,0.8881121202150546,0.025259184661403103
102.0,0.054192796450860954,-0.025169110459433056,0.01436905030453418,-0.0031769305962854374,-1.1007429130009776,-9.740000000000006,-0.00913602526505752,-0.005568087826152342,-0.11429900744416874,234.21787070456423,-0.017405444018347243,173.49541788856305,-0.050659006079404434,-0.4552391293951421,0.8885554165591409,0.025335736201669283
103.0,0.05270930145123692,-0.0289431160237612,0.015338371306113248,-0.0011045943304007827,-1.1002101661779082,-9.740000000000006,0.011025969997744193,0.0015351248214151435,-0.03975651364764268,234.16113758553274,-0.005895650048875855,173.49871700879766,-0.05061645677419352,-0.4548032458266031,0.8887770647311841,0.025373118445747786
104.0,0.05213640123317541,-0.029840570719602996,0.01633521317392286,-0.0001906158357771262,-1.1,-9.740000000000006,0.02041659617264456,-0.00941788386344838,-0.016403606474170992,234.1322091886608,-0.0009775171065493646,173.5,-0.05060004925219938,-0.4545847222828028,0.8888882169892489,0.02538800471163244
105.0,0.05283995037220842,-0.029920285359801506,0.015352357320099264,0.0,-1.1,-9.740000000000006,0.016867633374689828,0.005112050248138957,0.012738446029776673,234.125,0.0,173.5,-0.05059813999999997,-0.45452908259057023,0.8889160200000015,0.025390629999999983
106.0,0.055583746898263016,-0.02941919975186106,0.01489702233250621,0.0,-1.1,-9.740000000000006,-0.013340376861042183,-0.01679881358560794,-0.018103481699751865,234.125,0.0,173.5,-0.05059813999999997,-0.45452880999999956,0.8889160200000015,0.025390629999999983
107.0,0.058231079404466486,-0.028346076302729544,0.013835607940446658,0.0,-1.1,-9.740000000000006,-0.00310319091191067,-0.01643290555210918,-0.014014520006203474,234.125,0.0,173.5,-0.05059813999999997,-0.45452880999999956,0.8889160200000015,0.025390629999999983
108.0,0.05966282117986071,-0.028312850196109837,0.01439764267990075,0.0,-1.1000000000000003,-9.740000000000006,-0.005130122868806531,-0.018764039111902664,-0.0023556316537260867,234.125,0.0,173.5,-0.05059813999999997,-0.45452880999999956,0.8889160200000015,0.025390629999999983
109.0,0.06034896830103644,-0.028530814149863335,0.012629605609444323,0.0,-1.1,-9.740000000000006,-0.004985356193407702,-0.0032377605891117205,0.0007617097013721623,234.125,0.0,173.5,-0.05059813999999997,-0.45452880999999956,0.8889160200000015,0.025390629999999983
110.0,0.06221581479567951,-0.027579419171705873,0.01092165764343184,0.0,-1.1,-9.740000000000006,-0.0007285651934780448,0.013738352568347365,0.00916991735068608,234.125,0.0,173.5,-0.05059813999999997,-0.45452880999999956,0.8889160200000015,0.025390629999999983
111.0,0.06186349052439062,-0.028081272861287185,0.012082416911045949,0.0,-1.1,-9.740000000000006,0.019975357601772145,0.002433692413205941,0.006368457434648251,234.125,0.0,173.5,-0.05059813999999997,-0.45452880999999956,0.8889160200000015,0.025390629999999983
112.0,0.06139809141604146,-0.02717777197654931,0.010598823219790963,0.0,-1.1,-9.740000000000006,0.014855951908826518,0.002957696082533492,-0.019487045321137413,234.125,0.0,173.5,-0.05059813999999997,-0.45452880999999956,0.8889160200000015,0.025390629999999983
113.0,0.06265224426111521,-0.02828719958357057,0.013413850934012232,0.0,-1.1,-9.740000000000006,0.009061628895298249,-0.015605084040063878,-0.012978310332140978,234.125,0.0,173.5,-0.05059813999999997,-0.45452880999999956,0.8889160200000015,0.025390629999999983
114.0,0.0622816451022096,-0.02755024690810983,0.014109173756351182,0.0,-1.1,-9.740000000000006,-0.00952099395899799,-0.024618890993638974,0.0005062016276734015,234.125,0.0,173.5,-0.05059813999999997,-0.45452880999999956,0.8889160200000015,0.025390629999999983
115.0,0.06243021461065814,-0.028431024508645496,0.013573352386860459,0.0,-1.1,-9.740000000000006,0.015027615613553114,-0.005353558012328172,0.014361642222025288,234.125,0.0,173.5,-0.05059813999999997,-0.45452880999999956,0.8889160200000015,0.025390629999999983
116.0,0.061438201583362856,-0.02768161408483991,0.012880706211351378,0.0,-1.1,-9.740000000000006,0.010483747882941432,-0.0629391357969987,-0.016916221099688843,234.125,0.0,173.5,-0.05059813999999997,-0.45452880999999956,0.8889160200000015,0.025390629999999983
117.0,0.06110743826066406,-0.028981005553586216,0.013468889085824576,0.0,-1.1,-9.740000000000006,-0.014066438713616134,-0.043108835888573796,-0.018329388465477173,234.125,0.0,173.5,-0.05059813999999997,-0.45452880999999956,0.8889160200000015,0.025390629999999983
118.0,0.05926339654968686,-0.027288761865374787,0.0133550282602702,0.0,-1.1,-9.740000000000006,-0.011689517359880264,-0.02766680913732325,-0.09355409515439758,234.125,0.0,173.5,-0.05059813999999997,-0.45452430935483834,0.8889205199078355,0.025390629999999983
119.0,0.06033878352829963,-0.027056279294182535,0.012912713182874479,0.0,-1.1,-9.740000000000006,-0.006939828764425539,-0.001536867590295008,0.008301977480404898,234.125,0.0,173.5,-0.05059813999999997,-0.45449505516129046,0.8889497693087567,0.025390629999999983
120.0,0.047150249615975415,6.774833589348432e-05,0.010745615719406042,0.004276497695852534,-1.109290322580645,-9.738156682027657,0.21388208845366105,0.06628004192268305,-0.3469900073604711,234.03513824884791,0.027649769585253454,173.44377880184328,-0.05080695541013824,-0.45375723285714303,0.889295615539171,0.02588160917050691
121.0,0.07635085445468509,-0.07016684267793141,0.020733278929851502,-0.0044239631336405565,-1.0769953917050685,-9.741142857142862,0.04231290802611368,0.07143367175499232,0.581174095142089,234.12983870967741,-0.02211981566820277,173.63456221198157,-0.04941726755760368,-0.45453409564055314,0.8889969085714289,0.024832365410138252
122.0,0.0615055099178521,-0.09413887219216813,0.018894098265767267,0.0033981166098978168,-1.0775019034261666,-9.740571428571435,-0.056786382154544846,-0.13035380351299003,-0.14386478995525281,234.12321178120618,0.0202631403192413,173.63179723502304,-0.049136606929806995,-0.4545428662284113,0.8889970960575708,0.025395926914980296
123.0,0.04514847751593894,-0.08405419327438964,0.015504948223040792,0.006860348627529557,-1.0832720435244987,-9.740285714285719,-0.039167296004603155,-0.07390189092503258,-0.03901927315321427,234.0595897615708,0.04238963467574968,173.5991492378589,-0.04926447536068512,-0.4541264510174312,0.8891900148657219,0.02581685642275068
124.0,0.03601893921879897,-0.07852991281743033,0.01416312439313842,0.008591464636345426,-1.0864747314396697,-9.740142857142864,-0.04927354815591141,-0.0806657432095721,-0.04643936007891127,234.02777875175315,0.053452881854003875,173.58183268344555,-0.049364272841632875,-0.4539190872829089,0.8892725440457635,0.026076269662988233
125.0,0.032527902789123,-0.07604606239949857,0.01444100920117751,0.00932338208775797,-1.08778575281661,-9.740129032258071,-0.04757744228072068,-0.06713298681215932,-0.02637348188277361,234.0146814265678,0.058120450143591795,173.5749313186813,-0.04940764610053992,-0.4538380052658782,0.8893034579629733,0.026190633184028665
126.0,0.0295988906488556,-0.07155368334330464,0.015571084128587643,0.010028050490883594,-1.0895956413852645,-9.740000000000006,-0.027637694747398467,-0.03568168332368893,-0.03430285600911478,234.00376928471246,0.06244156147732585,173.56464019851114,-0.04947602321616856,-0.45376165882187897,0.8893336533616703,0.026288275361599573
127.0,0.02783006711030906,-0.0707709978193849,0.015253985262049786,0.010000000000000005,-1.0899801488833765,-9.740000000000006,0.013837183481840737,0.00953760621099331,-0.008100761805398902,234.0,0.0625,173.56256203473947,-0.04949726854590568,-0.45373534999999954,0.8893440779057059,0.026303090719602955
128.0,0.02974281073356285,-0.07348745165540393,0.01700553040928217,0.013889668069191218,-1.0900000000000019,-9.740000000000006,0.004454733719558842,-0.06741580868290195,-0.8380959899220111,233.83777466105656,0.08260285179990651,173.5625,-0.049466182575970075,-0.45240313479663374,0.8900253476297331,0.02637098081813931
129.0,0.03772200427569982,-0.08788550713699989,0.01801148199780997,0.01148942606495614,-1.0697343453510446,-9.742580645161294,-0.26060043941393973,-0.18130967438414544,0.12633158580275156,233.24621180870665,0.06306375986579765,173.68583965844402,-0.04875598404889586,-0.447775514808184,0.8924180310254924,0.02530826461210571
130.0,0.0620260956129232,-0.07877879034758106,0.019954161697829723,-0.00403534561854833,-1.0479610143177513,-9.746451612903227,-0.17329569869035205,-0.21696026164832882,0.06702813100010499,233.33278332370816,-0.022262108336895896,173.80696552814672,-0.04820034768915957,-0.448346482726673,0.8922266401168522,0.02392615612325715
131.0,0.05791431857870011,-0.07784247435267616,0.018928693752140673,-0.008669676719342594,-1.0508377896613201,-9.743929618768332,-0.07180180828945755,-0.1402188893774391,0.04125783382849824,233.3570074976312,-0.04928476873345284,173.79177088724052,-0.04843658354643707,-0.4485689626585463,0.8921085137729918,0.023686631106594355
132.0,0.046913308482898444,-0.07809210411182195,0.017770798488973564,-0.007318709327413234,-1.0549350238629185,-9.741964809384168,0.01018654545204542,0.02345154321450625,0.014722288890055576,233.35037874881561,-0.042787545657048995,173.76030076620088,-0.04864958161192825,-0.4485148461679826,0.8921247735800434,0.023747632892006872
133.0,0.04536642516244034,-0.07991561727330228,0.016973290782588704,-0.003942197113449487,-1.0619836409637171,-9.740982404692087,0.008709156316485542,0.032135425651198896,0.0686777643608763,233.3576782710885,-0.02303005146340061,173.7259165121327,-0.04888362244925536,-0.4484890575510317,0.8921302912290113,0.023920326370033364
134.0,0.048069622561678405,-0.07884353890372184,0.016656800309303926,-0.0021181573802541553,-1.0663025415444767,-9.740410557184756,0.040521879696094304,0.040944072252374494,-0.24411438044382194,233.3329849446864,-0.012226600684261974,173.7048700207722,-0.049029972301760955,-0.4482590808512966,0.8922377311553026,0.02404944841183563
135.0,0.059635121786273025,-0.0773868088400502,0.017466603823216166,-0.01275090204703583,-1.068825757575757,-9.7400439882698,0.08281574549464596,-0.014930614670201695,0.49785486917662847,233.65848725412687,-0.06328726963659365,173.692488773827,-0.04929326067232832,-0.45088441047308647,0.8908962170033892,0.023846789797315665
136.0,0.06565578181200261,-0.07777942592540145,0.01699332146195022,-0.016495196869070215,-1.0696572580645156,-9.740000000000006,0.008691597087498934,7.990283107706282e-05,0.33739273273103176,233.8389118821954,-0.09499896228652752,173.68866557459677,-0.04940930237673111,-0.4523871287898177,0.8901413810065821,0.023703552782333288
137.0,0.06994635376035124,-0.07766873300180141,0.018004694699694568,-0.018481973434535115,-1.0699899193548381,-9.740000000000006,-0.0010291136324479914,-0.012680658158019633,0.18941323769982674,233.92970984734768,-0.11148007590132827,173.6875,-0.04946435822465586,-0.45314365533744894,0.8897616091650855,0.023626285390662603
138.0,0.07262492936156519,-0.0780945246894863,0.017474741890790214,-0.019563567362428855,-1.0699999999999994,-9.740000000000006,-0.01452059551039273,-0.02675848199464257,0.012710748037258288,233.96898023384756,-0.1202561669829222,173.6875,-0.0494879330135376,-0.45346405329651596,0.8896002176445775,0.023587022344098353
139.0,0.07099018032094406,-0.07518051666865708,0.018318719784327003,-0.020104364326375725,-1.0699999999999994,-9.740000000000006,-0.024013843920153218,-0.02691438784373438,-0.12592143980308115,233.84359764997808,-0.12464421252371916,173.6875,-0.049472827843015627,-0.4524184427106259,0.8901282950456142,0.023641760499999998
140.0,0.06812295802315961,-0.07546940559440558,0.019341853710805337,-0.02000000000000001,-1.0699999999999994,-9.740000000000006,-0.023694450710579743,-0.015648072105985414,-0.10872927475750055,233.7287841191067,-0.125,173.6875,-0.04945468399503724,-0.4515391765806447,0.8905817141191075,0.02369430496774194
141.0,0.08031144351635035,-0.07224018326062849,0.01696398966776069,-0.023998182644252623,-1.0747251249432075,-9.740000000000006,-0.032193090870964565,0.07874993777992415,1.266806847173726,234.5027382658232,-0.1399931849159473,173.65342457973645,-0.04963327727920876,-0.4574921248986824,0.8874709722003988,0.023976122254429806
142.0,0.08417597032681085,-0.06834352411181124,0.02056361751227722,-0.030994483027195444,-1.0820952813656133,-9.740000000000006,-0.13256421754831568,0.054887816257648145,1.2862181491838465,235.76888065364892,-0.17996203024599208,173.6050245018498,-0.049893565105042184,-0.46721593121892646,0.8823117577361438,0.02438303565716883
143.0,0.07454690243876975,-0.055148206329487554,0.017350973121986305,-0.027314597260985278,-1.0850617251898496,-9.740000000000006,-0.08856481244032358,-0.19410748459476312,-0.3788973123650543,236.1190653224558,-0.15975043811254624,173.58265479976632,-0.04983630049663741,-0.4699178890072544,0.8809072112733769,0.02481330621893146
144.0,0.045124843554648186,-0.04418314645120642,0.015679622210290095,-0.016345470673503393,-1.0915093572185803,-9.740000000000006,-0.07111587740847168,-0.16519890358770412,-1.7630166876134616,234.6879497414595,-0.09533220830358495,173.5472637798115,-0.05023315013527764,-0.45877797233103296,0.8866520193019767,0.02493172030439267
145.0,0.02166551223525326,-0.030239403889562907,0.01195899299852049,-0.007850154691590405,-1.0962385495770324,-9.740000000000006,-0.038726410017868446,-0.10283993040126616,-0.9129416282642089,233.60808777395556,-0.04564997511953441,173.52060769635733,-0.050402849906348524,-0.4502880160042264,0.8909952559413112,0.02525075886187373
146.0,0.00926968594029021,-0.022604178697772523,0.01131415679075834,-0.0034775534930010185,-1.098455485601783,-9.740000000000006,-0.040713303809623666,-0.07000481660295381,-0.5229336593034912,233.04216008416088,-0.02034032149888579,173.50834451151354,-0.050481834803242434,-0.4458430859962071,0.8932712524118191,0.025402319503631074
147.0,0.0037062715415736767,-0.017997941883448478,0.011076433234088849,-0.0011350901105558085,-1.0994074663031959,-9.740000000000006,-0.005120476789604457,-0.04152602581299764,-0.30809701398354283,232.73172232318643,-0.006670736786309253,173.50319299308393,-0.05051598377719728,-0.44340976686215916,0.8945218707566012,0.02546978717577865
148.0,0.0018335991965024224,-0.01552963881996141,0.011343514908031042,-0.00018817204301075272,-1.0999059139784948,-9.740000000000006,-0.0013540558903462124,-0.008857366871479774,-0.11458764130135098,232.5853494623656,-0.0010920698924731182,173.50056003584228,-0.05053891478046599,-0.4422606633288536,0.8951104308826172,0.025496429292114656
149.0,0.0008749950766079798,-0.013799834574028131,0.01227204694946631,0.0,-1.1,-9.740000000000006,-0.00031925120130765284,0.030467796092796092,-0.019397056796250346,232.5625,0.0,173.5,-0.050537110000000045,-0.44207764000000055,0.8952026400000007,0.025512699999999958
150.0,0.0009883660246563471,-0.014468155500413575,0.01099954704793415,0.0,-1.1,-9.740000000000006,-0.009480345203631495,0.020832533282130056,-0.00025373931623931534,232.5625,0.0,173.5,-0.050537110000000045,-0.44207764000000055,0.8952026400000007,0.025512699999999958
151.0,0.0014644851116625307,-0.01454590570719604,0.009922456575682387,0.0,-1.1,-9.740000000000006,0.0050204520781637705,-0.003200604838709679,0.010233793424317619,232.5625,0.0,173.5,-0.050537110000000045,-0.44207764000000055,0.8952026400000007,0.025512699999999958
152.0,0.0012729528535980147,-0.014892059553349884,0.010338089330024818,0.0,-1.1,-9.740000000000006,0.021999069478908187,0.006032878411910671,0.008913616625310174,232.5625,0.0,173.5,-0.050537110000000045,-0.44207764000000055,0.8952026400000007,0.025512699999999958
153.0,0.009009748316199932,-0.02137690535271181,0.013607187167671043,-0.0003686635944700461,-1.1014746543778804,-9.740000000000006,0.03172135324353066,0.0010180343849698686,0.8590628877171216,232.76849078341013,-0.0018433179723502304,173.49078341013825,-0.05059111294930878,-0.4437530963686639,0.894361084976959,0.025457344866359418
154.0,0.03052507975895073,-0.014021667848280758,0.0150694567529245,-0.002543778801843318,-1.08879262672811,-9.740000000000006,-0.2214510036334633,-0.004662021446295639,1.27551026342609,233.74706221198156,-0.014746543778801843,173.5700460829493,-0.049841364783410134,-0.4514681639815669,0.8904926363133641,0.025259105824884782
155.0,0.0644924819803852,-0.014292058076332277,0.011894529865295999,-0.01940809011776754,-1.0637153097798258,-9.74408602150538,-0.16419427766453976,0.0320121103135216,3.0236922009162432,235.78874167946748,-0.11534818228366617,173.70975422427034,-0.048760708359447,-0.4672702123850488,0.882224894285714,0.024593537607782885
156.0,0.07590523122190544,-0.01570513569423156,0.014018063717291345,-0.03311158708523541,-1.048636391827669,-9.747204301075271,-0.0919217746512158,-0.18437072670375712,0.6946454228541916,237.66221784109675,-0.19306709432220562,173.7861583479371,-0.04809466176491205,-0.4816498545887078,0.8744642054527161,0.02433167662306456
157.0,0.08042238940891727,-0.014862637254099633,0.015587087743854432,-0.039519795412650424,-1.0417796264888692,-9.748763440860216,-0.11904500283609087,-0.2826938234518534,-0.8575389241322957,237.84541174897288,-0.23257842794651656,173.82540736471188,-0.047906056691245175,-0.4831029525304456,0.8738136511695556,0.0238940333980213
158.0,0.07675076593266941,-0.013945444052816199,0.016275711774151224,-0.04525562334580961,-1.0427932394115347,-9.747598176718094,0.012293225223242214,-0.25489379611783214,-0.6368763461241189,237.07549902716124,-0.2569515728859678,173.83082713790924,-0.04819037220039452,-0.477214680357489,0.877086270341006,0.02332904897330438
159.0,0.07361040600780937,-0.010491155206131603,0.015776104735001885,-0.04134440153465597,-1.0459634399822644,-9.74379908835905,0.004490506620837699,-0.1893132575059207,-0.38065015462887974,236.62391022786633,-0.2308663394383756,173.8243709422265,-0.048321162982685704,-0.47368080014879055,0.879033027682024,0.02337507623550012
160.0,0.06901312277230832,-0.011521528802404101,0.01664022358338184,-0.04075060578524914,-1.0481340497402354,-9.741771856007485,-0.02088853494433715,-0.07886124861786248,-0.2733305742816304,236.34960352343137,-0.2088331473177541,173.81801544423155,-0.04840270705585894,-0.4715405939632842,0.8802043287805286,0.023429083081907776
161.0,0.0697541761067357,-0.0091149216024742,0.01612792642140469,-0.04028897849462368,-1.0492987377279088,-9.740724637681165,-0.011658204319056354,-0.05130022903405618,-0.12121776328802102,236.18580528284247,-0.19695973585787752,173.8146330060776,-0.04844740779190035,-0.470268034057971,0.8809033173866299,0.023453870157491827
162.0,0.07277517126982416,-0.00845975159132593,0.01573091757471141,-0.0400720254791959,-1.0498597475455806,-9.740201028518005,0.018767896797568955,-0.08521267969845722,-0.027922642567518967,236.12745441795232,-0.19100265895278168,173.8129090696587,-0.04846524509043353,-0.4698110267040674,0.8811518807480136,0.023454522334185192
163.0,0.07088267679900745,-0.011270549007444175,0.015011321339950378,-0.03988407258064518,-1.0499999999999985,-9.740000000000006,-0.028666834677419352,-0.04712071572580645,-0.002244397487593053,236.125,-0.18787802419354838,173.8125,-0.048462279188507984,-0.4697876,0.8811645500000007,0.023455541686026676
164.0,0.06901457816377171,-0.010127326302729533,0.014325682382134,-0.04000000000000002,-1.0499999999999985,-9.740000000000006,-0.01007967586848635,-0.007727202233250619,0.010417959057071961,236.125,-0.1875,173.8125,-0.048461909999999914,-0.4697876,0.8811645500000007,0.023445951692307693
165.0,0.06950108560794045,-0.011150511786600502,0.013820409429280405,-0.04000000000000002,-1.0499999999999985,-9.740000000000006,-0.0027523069168734486,0.009217974565756825,0.01454520781637717,236.125,-0.1875,173.8125,-0.048461909999999914,-0.4697876,0.8811645500000007,0.023440741330024814
166.0,0.06965601736972704,-0.013561104218362291,0.014042803970223332,-0.04000000000000002,-1.0499999999999985,-9.740000000000006,0.0001599333126550875,0.023538306451612902,0.014535514888337469,236.125,-0.1875,173.8125,-0.048461909999999914,-0.4697876,0.8811645500000007,0.023438136148883376
167.0,0.06861957196029775,-0.012130428039702238,0.014554900744416881,-0.04000000000000002,-1.0499999999999985,-9.740000000000006,-0.00210675790942928,0.047563197890818865,0.0039488988833746895,236.125,-0.1875,173.8125,-0.048461909999999914,-0.4697876,0.8811645500000007,0.0234375
168.0,0.06916609801488832,-0.010920285359801494,0.014906637717121595,-0.04000000000000002,-1.0499999999999985,-9.740000000000006,0.0020500542803970224,0.027011282568238218,0.00029660359801488836,236.125,-0.1875,173.8125,-0.048461909999999914,-0.4697876,0.8811645500000007,0.0234375
169.0,0.06793416563275433,-0.011122673697270477,0.013764733250620354,-0.04000000000000002,-1.0499999999999985,-9.740000000000006,0.009469506048387095,0.0034947852047146396,0.0028468129652605458,236.125,-0.1875,173.8125,-0.048461909999999914,-0.4697876,0.8811645500000007,0.0234375
170.0,0.06928240845176328,-0.010838860064666521,0.013312749078878118,-0.04000000000000002,-1.0499999999999985,-9.740000000000006,-0.013396566471163242,0.01500735487630649,0.006516232423490488,236.125,-0.1875,173.8125,-0.048461909999999914,-0.4697876,0.8811645500000007,0.0234375
171.0,0.06980249454846228,-0.01096285434995113,0.011666300097751717,-0.04000000000000002,-1.0499999999999985,-9.740000000000006,-0.007241087205804947,0.021818193567185503,0.005522384201819686,236.125,-0.1875,173.8125,-0.048461909999999914,-0.4697876,0.8811645500000007,0.0234375
172.0,0.06977469640574478,-0.009019888713437105,0.013815780321828716,-0.04000000000000002,-1.0499999999999985,-9.740000000000006,0.006002595354913903,0.006326280406421535,0.004885881927212572,236.125,-0.1875,173.8125,-0.048461909999999914,-0.4697876,0.8811645500000007,0.0234375
173.0,0.06895389455974132,-0.01029443943153621,0.013465751654259724,-0.04000000000000002,-1.0499999999999985,-9.740000000000006,-0.0014595640414692829,-0.00670508297146402,0.008354569657493045,236.125,-0.1875,173.8125,-0.048461909999999914,-0.4697876,0.8811645500000007,0.0234375
174.0,0.06913284833446123,-0.011159316489961657,0.015342638544251457,-0.04000000000000002,-1.0499999999999985,-9.740000000000006,-0.0029826608203624328,-0.0025569944168734493,-0.0043539457853974,236.125,-0.1875,173.8125,-0.048461909999999914,-0.4697876,0.8811645500000007,0.0234375
175.0,0.06923903113016017,-0.010093456274907892,0.015721661403113023,-0.04000000000000002,-1.0499999999999985,-9.740000000000006,-0.01631081871757275,-0.0002173271956538085,-0.01921843277690052,236.125,-0.1875,173.8125,-0.048461909999999914,-0.4697876,0.8811645500000007,0.0234375
176.0,0.06913812598691631,-0.01010628148732988,0.014446438642003167,-0.04000000000000002,-1.0499999999999985,-9.740000000000006,-0.0076436227582900975,0.018284636650312054,-0.0032351469095420722,236.125,-0.1875,173.8125,-0.048461909999999914,-0.4697876,0.8811645500000007,0.0234375
177.0,0.0697305060530867,-0.012209940597037377,0.014317091510639906,-0.04000000000000002,-1.0499999999999985,-9.740000000000006,-0.01340749304458982,0.01365140236107978,-0.002658094593578465,236.125,-0.1875,173.8125,-0.048461909999999914,-0.4697876,0.8811645500000007,0.0234375
178.0,0.06838589367621625,-0.01258921723437853,0.013060079705241003,-0.04000000000000002,-1.0499999999999985,-9.740000000000006,0.006833220542897963,0.007627453191969321,-0.009452778404391307,236.125,-0.1875,173.8125,-0.048461909999999914,-0.4697876,0.8811645500000007,0.0234375
179.0,0.06960857959245054,-0.011746221520415075,0.013754605609444324,-0.04000000000000002,-1.0499999999999985,-9.740000000000006,-0.004585871118129182,0.00984660500789533,-0.008999031882096397,236.125,-0.1875,173.8125,-0.048461909999999914,-0.4697876,0.8811645500000007,0.0234375
180.0,0.06911040303782237,-0.010653394992104676,0.013031750507556963,-0.04000000000000002,-1.0499999999999985,-9.740000000000006,-0.010121061733964959,0.011719396195202646,0.0018928819836077906,236.125,-0.1875,173.8125,-0.048461909999999914,-0.4697876,0.8811645500000007,0.0234375
181.0,0.0693281543725092,-0.01072744191292579,0.013321086171892628,-0.04000000000000002,-1.0499999999999985,-9.740000000000006,-0.018684910519587938,0.021399400330851942,0.009817408733739378,236.125,-0.1875,173.8125,-0.048461909999999914,-0.4697876,0.8811645500000007,0.0234375
182.0,0.0686425718099105,-0.010375939920294765,0.011201110045868115,-0.04000000000000002,-1.0499999999999985,-9.740000000000006,-0.010518530528611174,0.011050995375592149,0.0020067004568012628,236.125,-0.1875,173.8125,-0.048461909999999914,-0.4697876,0.8811645500000007,0.0234375
183.0,0.06841557870892548,-0.011649508421685849,0.011841249812015946,-0.04000000000000002,-1.0499999999999985,-9.740000000000006,-0.0071668335025189865,0.025361105628242724,0.009191935836341078,236.125,-0.1875,173.8125,-0.048461909999999914,-0.4697876,0.8811645500000007,0.0234375
184.0,0.06944096427765781,-0.010727707999885424,0.012076418876822106,-0.04000000000000002,-1.0499999999999985,-9.740000000000006,-0.009987826633491955,0.009419344096763451,0.010882120231918618,236.125,-0.1875,173.8125,-0.048461909999999914,-0.4697876,0.8811645500000007,0.0234375
185.0,0.06950787216815443,-0.011857011380196871,0.012875941598723862,-0.04000000000000002,-1.0499999999999985,-9.740000000000006,0.004063393623625478,-0.010166916416916416,0.015521705277249631,236.125,-0.1875,173.8125,-0.048461909999999914,-0.4697876,0.8811645500000007,0.0234375
186.0,0.06849102510392832,-0.011233522749651788,0.011697624955689476,-0.04000000000000002,-1.0499999999999985,-9.740000000000006,0.025782036064294127,0.00036784452107032836,0.005988500746565263,236.125,-0.1875,173.8125,-0.048461909999999914,-0.4697876,0.8811645500000007,0.0234375
187.0,0.06726115282566894,-0.010694962743349846,0.011183612086837899,-0.04000000000000002,-1.0499999999999985,-9.740000000000006,0.004872323017484307,-0.006383770799093379,-0.01203507513991385,236.125,-0.1875,173.8125,-0.048461909999999914,-0.4697876,0.8811645500000007,0.0234375
188.0,0.06564298336072527,-0.010300334969689812,0.01269602440570183,-0.04000000000000002,-1.0499999999999985,-9.740000000000006,0.016378469201049847,-0.03358890773205289,-0.0027917311183440216,236.125,-0.1875,173.8125,-0.048461909999999914,-0.4697876,0.8811645500000007,0.0234375
189.0,0.06789321565531242,-0.011423199112715247,0.012103654410106027,-0.04000000000000002,-1.0499999999999985,-9.740000000000006,0.016337694563501017,-0.0102468348184074,-0.004069267426122266,236.125,-0.1875,173.8125,-0.048461909999999914,-0.4697876,0.8811645500000007,0.0234375
190.0,0.06990679280397022,-0.009950527295285365,0.011628411910669979,-0.04000000000000002,-1.0499999999999985,-9.740000000000006,0.017323200992555833,-0.002680094602977667,-0.031139500620347395,236.125,-0.1875,173.8125,-0.048461909999999914,-0.4697876,0.8811645500000007,0.0234375
191.0,0.06910600186104218,-0.011416950992555836,0.013949441687344919,-0.04000000000000002,-1.0499999999999985,-9.740000000000006,0.01650124069478908,0.01712304202853598,-0.025099837158808935,236.125,-0.1875,173.8125,-0.048461909999999914,-0.4697876,0.8811645500000007,0.0234375
192.0,0.07071082412211444,-0.012973795022182124,0.013919674411609902,-0.04000000000000002,-1.0499999999999985,-9.740000000000006,-0.05356969978945786,0.04835572693435597,0.19613375535754565,236.17192082111438,-0.198252688172043,173.8125,-0.04848147973607034,-0.470189488328446,0.8809435590322582,0.0234188851026393
193.0,0.0748169505225957,-0.010137021580569972,0.013957355816226789,-0.04000000000000002,-1.0499999999999985,-9.740000000000006,-0.017789812673885255,0.04694461284683059,0.057263527802842315,236.30975073313783,-0.22513440860215053,173.8125,-0.048534698739002936,-0.4713746293255137,0.8802980080645155,0.023365188680351916
194.0,0.07597919486427551,-0.010584639822543051,0.013700762275359053,-0.04000000000000002,-1.0499999999999985,-9.740000000000006,-0.004676544054064215,0.018804192279494703,0.02523536191630949,236.37866568914956,-0.2385752688172043,173.8125,-0.04856130824046924,-0.4719671998240476,0.8799752325806443,0.023338340469208227
195.0,0.077644684280773,-0.009520607752462594,0.015165517614106328,-0.04000000000000002,-1.0499999999999985,-9.740000000000006,0.0008410083699902254,0.0033847264127002032,0.02691668840232348,236.41312316715542,-0.2452956989247312,173.8125,-0.04857461299120239,-0.47226348507331456,0.8798138448387087,0.02332491636363638
196.0,0.07812425746296714,-0.010198811940747428,0.013048988645762843,-0.04000000000000002,-1.0499999999999985,-9.740000000000006,-0.0043835532746823065,0.0056458662305436495,0.02383825851567787,236.43035190615836,-0.24865591397849462,173.8125,-0.048581265366568954,-0.47241162769794803,0.8797331509677409,0.02331820431085046
197.0,0.07911100458681103,-0.011279757876532076,0.013653037822392668,-0.04000000000000002,-1.0499999999999985,-9.740000000000006,-0.007583394428152492,0.005007072900218061,0.007856323783743138,236.4375,-0.25,173.8125,-0.04858398000000004,-0.47247314000000085,0.8796997099999988,0.02331543000000002
198.0,0.07872010113542371,-0.010760263929618773,0.012778620572975418,-0.04000000000000002,-1.0499999999999985,-9.740000000000006,0.0017787404128129939,-0.0030664312166328294,0.01497504511617415,236.4375,-0.25,173.8125,-0.04858398000000004,-0.47247314000000085,0.8796997099999988,0.02331543000000002
199.0,0.07842657544068835,-0.009543509805606584,0.014284028471528478,-0.04000000000000002,-1.0499999999999985,-9.740000000000006,0.009966381904385938,-0.0034417685249338477,0.005035919501645308,236.4375,-0.25,173.8125,-0.04858398000000004,-0.47247314000000085,0.8796997099999988,0.02331543000000002
200.0,0.07821155826700181,-0.012142609854303408,0.013758225981008246,-0.04000000000000002,-1.0499999999999985,-9.740000000000006,0.0019420788385002092,0.008240391021389005,0.00014419104640878838,236.4375,-0.25,173.8125,-0.04858398000000004,-0.47247314000000085,0.8796997099999988,0.02331543000000002
201.0,0.07816575897221059,-0.011217474281990417,0.0123453428292138,-0.04000000000000002,-1.0499999999999985,-9.740000000000006,0.010185379136992039,0.0024663396639203095,0.07788207536191408,236.4390120967742,-0.25,173.8125,-0.04858398000000004,-0.4724824924193556,0.8796942954838698,0.02331395322580647
202.0,0.09456919424661361,-0.011214797747055817,0.01318309826374343,-0.05799283154121864,-1.0502150537634396,-9.740000000000006,0.15496337220127543,-0.01769095040264395,1.3417320526695524,237.32580085125448,-0.3422939068100358,173.8102598566308,-0.048770369247311846,-0.47922931334229424,0.8759876390860207,0.02293841720430108
203.0,0.11281432514354715,-0.025102108780951295,0.022185965784163132,-0.07298123550495467,-1.0570904490828583,-9.740000000000006,0.16126424604543677,-0.04095080266955267,-0.13257037755229173,238.09796921120596,-0.420909761754164,173.75018448239513,-0.04935863883617965,-0.4850998497451509,0.8727116255107525,0.02287444398165718
204.0,0.11162255026962971,-0.024832383004202582,0.020189690298746905,-0.04773886459679712,-1.06386780518659,-9.740000000000006,0.12802993909164245,-0.12980831168451698,-2.270506258924635,236.57909505441083,-0.2746788172959693,173.71682611216528,-0.049342945360118795,-0.4733823027828139,0.8790203038283078,0.02345652584543354
205.0,0.1013783413084729,-0.035369993193630885,0.018481941923567002,-0.0356412883058787,-1.067256483238456,-9.740000000000006,0.13516785534632275,-0.19517690436535762,-1.2670293417960334,234.96271547951957,-0.20997849233194912,173.7001469270504,-0.04952091382545444,-0.4608551451969237,0.8856106432114885,0.023375020503361925
206.0,0.1005027539474478,-0.04979598901376295,0.019926379604056015,-0.04097904569362301,-1.0689508222643889,-9.740000000000006,0.03070917216642087,-0.09465241726151849,-0.28545054031604755,234.29466809386125,-0.2473219375477752,173.69180733449292,-0.049950961154421984,-0.45569080721547284,0.8883336993577611,0.022866627895819128
207.0,0.10234815116727226,-0.05455525257139759,0.018527257902386435,-0.045088537183729044,-1.069791271347248,-9.740000000000006,0.007654093251669222,-0.05732284841570547,-0.19956890815085526,234.08028375571197,-0.278034848702203,173.6877075426945,-0.05017520462290992,-0.45404236480621346,0.8892359461640964,0.022567252039307394
208.0,0.10316123074346684,-0.05731342397946612,0.01742535716605237,-0.04695603329774685,-1.0699999999999994,-9.740000000000006,0.0041807814820599785,-0.05494864505152519,-0.11041862244500872,233.9628173996776,-0.2923766511063197,173.6875,-0.05027185526449102,-0.4531401084159154,0.8897315284852748,0.02241369552392313
209.0,0.10349319134181288,-0.05891880426865563,0.017790213016801858,-0.04891279925756904,-1.0699999999999994,-9.740000000000006,-0.030169022356391524,-0.08708296423468481,-0.022553190461544897,233.96361416968455,-0.30534564205619863,173.6875,-0.05032986271873452,-0.45314688069463405,0.8897309857363268,0.022317727626384176
210.0,0.1078515332765453,-0.05565287859708899,0.01688435382022889,-0.05376563830969219,-1.0699999999999994,-9.740000000000006,0.009990110319988147,-0.09952963258305247,-0.007156679382245101,233.99079200770342,-0.3334033924669457,173.6875,-0.050421396554497996,-0.4533465367156774,0.8896233393548403,0.0221573176196437
211.0,0.1148126080908339,-0.05794191762538535,0.015844680521091822,-0.06226799007444166,-1.0699999999999994,-9.740000000000006,0.030576458991277537,-0.11485997831133919,-0.051188529212722766,234.0,-0.38793424317617864,173.6875,-0.05060868454590571,-0.45339261692307686,0.8895874000000017,0.021806273354838694
212.0,0.11749951124144677,-0.05654470260921872,0.017017369727047156,-0.06645657568238211,-1.0699999999999994,-9.740000000000006,-0.004964658996917061,-0.06553594255207158,-0.03650462440785022,234.0,-0.4147332506203474,173.6875,-0.050701858401985114,-0.45337989394540923,0.8895874000000016,0.02163252909677418
213.0,0.11383412286638092,-0.04495536304491528,0.017636383837635654,-0.06577763786526421,-1.0699229658160805,-9.740000000000006,0.012831455176183148,-0.07332086746506583,-0.004617632006895368,233.97640828117477,-0.3934673715788304,173.68316682715454,-0.05060268941283655,-0.4533020669197434,0.8896438222243626,0.021697992528647077
214.0,0.08689049596829482,-0.03510620290619724,0.016570928745558447,-0.0478698436005638,-1.0784624316746445,-9.740000000000006,-0.026303948371622338,-0.08118039432222784,-0.22318806720765144,233.9104052791073,-0.2860956402486182,173.62935618397574,-0.05053254781837273,-0.45282873385835376,0.8898699441672098,0.022654550733014235
215.0,0.06034656779570565,-0.06241551019909783,0.04378242556960018,-0.026223338386033693,-1.125395311208991,-9.735437120149612,0.21226900794099143,0.1426795280879241,-0.8937352210746065,233.1422059121109,-0.15789547539096857,173.35174272499395,-0.05231025980435665,-0.4467563823493948,0.8927309524763117,0.024477522867208376
216.0,-0.0035142672896983328,0.02974743762983739,-0.009457958967597466,0.047372201774725085,-1.169955720120625,-9.730185866090507,0.12367944994286104,-0.00901767367234664,-2.9483376014226166,231.29385796913306,0.2755367871519438,173.0876248498553,-0.053102550577854,-0.4321372626568246,0.8995468020446074,0.02821454020431038
217.0,-0.041372144352215146,0.020996530603218776,0.002684800726269587,0.05924730283168421,-1.195700352327215,-9.7268207280077,0.304190119274432,0.24056258809329403,1.6344512662522188,230.80954498103137,0.33925701487513227,172.9377170868808,-0.054068933784287135,-0.42838439864171324,0.9012796210399794,0.029189399510020864
218.0,-0.04255488938040865,0.02543233687920528,0.002631503235867902,0.0660380632277503,-1.2031837662775535,-9.728111439272674,0.14516198308449574,0.3361988835186419,0.8933935836958413,232.67303661344943,0.3811930636885692,172.8963998690703,-0.05370190826993204,-0.44294343513501166,0.8941464662932205,0.03059380331604397
219.0,-0.07976766972160718,0.019101668346062275,0.0020093534566703545,0.10998672009771941,-1.2033503084534742,-9.72889442931376,0.04319282072417052,0.14092888759944708,-1.1438210543182605,232.03772280601646,0.6406161168591173,172.9002417036508,-0.05284797645309681,-0.4379831916513447,0.8966761328624481,0.032330709245047946
220.0,-0.11737871531698627,0.02297361959994513,0.003013184060312078,0.1380379906186271,-1.1970117601173396,-9.72942851432963,-0.023639121576625073,0.2674310729340432,0.4189103036226619,231.88842929540232,0.8030044941735223,172.92726212983473,-0.05197384738704197,-0.4368789742766729,0.897296486559229,0.03345985827777952
221.0,-0.1352733977102752,0.01977853260782441,0.003104304111739088,0.14974480176092647,-1.1931832994135079,-9.729788363529249,-0.008970395640760291,0.23648569115249887,0.3516892572510815,232.11215274709087,0.8745160875401177,172.93378418174387,-0.05145490657059158,-0.43869078380572946,0.8964560415860658,0.03411300303819231
222.0,-0.14153970371594188,0.02133866975066431,0.0028435793647515594,0.15637704073905806,-1.1911608056943803,-9.72999139784947,-0.02010329326889981,0.10051195737474701,0.051997688722756855,232.2102688172043,0.9150530062092987,172.93760298349235,-0.051177616230501245,-0.4394855418255336,0.8960881661553834,0.03446750196098748
223.0,-0.14435499359795145,0.0207770572604739,0.0027017505816915176,0.15966378918673338,-1.1903180372557918,-9.73000000000001,-0.030377892968760756,0.0674981585505211,0.31979405452755627,232.28103616813294,0.9300851541310424,172.93846547024077,-0.05109814000674624,-0.4400261500945849,0.8958434345615625,0.03458492176035689
224.0,-0.14287686421937906,0.019810190112779853,0.0038622861879904144,0.16002271694684245,-1.1899999999999988,-9.73000000000001,-0.028629733888707085,0.03216216947901409,0.05894903159747261,232.47944444620953,0.928491009596189,172.93818150840525,-0.05110991911514052,-0.44161030309230676,0.8950705021421036,0.03456920755609496
225.0,-0.1398637632528762,0.021282126475674873,0.00342154955259794,0.1600000000000001,-1.1899999999999988,-9.73000000000001,-0.01758872847582525,0.011733847469734568,0.001260286252725746,232.56616474922927,0.9330522971652004,172.9375,-0.05112801013685242,-0.4423209793494244,0.8947160316526062,0.034561103323708514
226.0,-0.1379670722422739,0.021036957665989935,0.0020040299082637793,0.1600000000000001,-1.1899999999999988,-9.73000000000001,0.004295200766974962,-0.004106805492894203,0.005471907544740196,232.60163076171142,0.9352761485826002,172.9375,-0.05113970393939397,-0.4426137570940668,0.8945694942134004,0.03455153279088649
227.0,-0.13529806752387402,0.025170238363786762,0.004238589367621625,0.15530791788856313,-1.189843597262951,-9.73000000000001,-0.018128242725016917,-0.11024278141213625,-0.35713305511692606,232.5748867396045,0.9090175953079179,172.94629765395894,-0.05120950978494623,-0.44238116680705286,0.8946919209776683,0.03432861950883523
228.0,-0.12181732962378126,0.03347384515126452,0.0015759580920871228,0.1351449983708049,-1.1867676767676767,-9.730000000000011,0.011290635887410083,0.02567141639722284,0.3148657793819084,232.16508572073087,0.7858667318344738,172.97639703486476,-0.0515670892212447,-0.4391099762896457,0.8963203263848916,0.03316917849342055
229.0,-0.06594269529753402,0.012823771210867993,0.0032892197408326434,0.10407019503793699,-1.1601442070474328,-9.731990783410145,-0.09436575968834034,0.13964136222200735,1.330350294866424,232.96437997486385,0.6047421216776054,173.14404529162596,-0.050795189154401156,-0.44535092019941347,0.893302640590886,0.03149427547074429
230.0,-0.008018350202080925,0.024146556731409467,0.002642200405173756,0.07002481233897784,-1.1456751890777137,-9.734211847993063,0.1380899381512986,-0.018132891730367195,1.2541734212491575,235.20843472796486,0.40880222025909263,173.23151598382137,-0.05034630675578871,-0.4626949849477666,0.8843038792832877,0.030645565285629277
231.0,0.014583266313981593,0.02875678738792343,0.0013113250315213844,0.05175172613461532,-1.182205510842256,-9.729804267501333,0.16148349447788438,0.06961294833840415,1.4219905771010257,235.8530730745317,0.3013115286125454,173.01519674518008,-0.05224450646420647,-0.4676521242175625,0.8816767157140064,0.030978060942727457
232.0,0.05290843268337689,0.034481652543245096,-0.000973555608232534,0.0255499781389693,-1.2013734312847157,-9.725031620347675,0.12409110290372266,0.15450800446534846,2.8399410673287546,237.62297982922678,0.1445682248958119,172.90337921600832,-0.053356492102554706,-0.481147797361077,0.8742326404580936,0.03100867651751355
233.0,0.07739120171415768,0.03436327129729338,0.00029612203120292285,0.007131401933962027,-1.211269152918343,-9.722354519851265,0.1481775503862796,-0.008554840884636636,0.24209936612587102,238.93541600804554,0.04053726983916818,172.8548454099755,-0.053954593504900325,-0.49116635792058494,0.8686865404421634,0.030969332346049705
234.0,0.08021403403680234,0.03418603447562617,0.0012404363821703762,0.0023445028102989864,-1.2170009359061758,-9.720953757621494,0.10850872352437846,-0.04538332394741537,0.023937286051344986,239.18176330356192,0.013183381463362896,172.82580980176192,-0.054206697729408664,-0.4931551308473893,0.8676253891934327,0.031130367481780614
235.0,0.08005149143131879,0.03304346137058542,0.0004286836853851844,0.0005294276557338789,-1.2199029924972669,-9.720215074229174,0.05144661551124523,-0.025404108479983083,-0.01437993826680782,239.247306967349,0.0027931867578619056,172.81117804253594,-0.05433471647807504,-0.4937050731048542,0.8673288593208872,0.031211227890025416
236.0,0.08183612060667944,0.03242663310632417,0.0003731507756950734,-0.0003390350823335832,-1.219986369831894,-9.72001817355749,0.022821716648386343,0.01660768353748817,-0.022111838893983358,239.2949972064295,-0.002104387440598254,172.81198886869603,-0.054332393324041856,-0.4940961346430985,0.8671220876007233,0.03122800650822108
237.0,0.08240648908390844,0.03277472803279256,0.0008077576787254205,-0.00023539668700959035,-1.2199999999999993,-9.720000000000015,-0.012453204187075151,0.008765392434747275,-0.08235355291806903,239.27364864864865,-0.0013077593722755014,172.8125,-0.05432607910636439,-0.4939477510244117,0.8672100885527476,0.031240847340889277
238.0,0.08070721000585726,0.033230109467362344,0.00013016339655257445,0.0,-1.2199999999999993,-9.720000000000015,-0.036512920539975686,0.037161491531938984,-0.019427367060041355,239.25,0.0,172.8125,-0.05432128999999995,-0.4937744100000002,0.8673095700000013,0.03125
239.0,0.08010386514861022,0.03431820486138906,-0.0010537812285991261,0.0,-1.2199999999999993,-9.720000000000015,-0.004145527844799438,-0.005232438101844969,-0.015103823220368486,239.25,0.0,172.8125,-0.05432128999999995,-0.4937744100000002,0.8673095700000012,0.03125
240.0,0.08107074310820409,0.03545670909042399,-0.0014376406343107693,0.0,-1.2199999999999993,-9.720000000000015,0.0004356407842359988,-0.015973198959671385,-0.021871930820942263,239.25,0.0,172.8125,-0.05432128999999995,-0.4937744100000003,0.8673095700000011,0.03125
241.0,0.08025733775993923,0.03441900797780092,0.00042317030870620866,0.0,-1.2199999999999993,-9.720000000000015,0.013018639644550155,0.01355028657317939,0.013843466627025422,239.25,0.0,172.8125,-0.05432128999999995,-0.4937744100000003,0.8673095700000012,0.03125
242.0,0.08008002576681038,0.035058966354491856,0.0008388252977222801,0.0,-1.2199999999999993,-9.720000000000015,0.002677074558578201,0.007151167352129889,0.022202711296103596,239.25,0.0,172.8125,-0.05432128999999995,-0.4937744100000003,0.8673095700000013,0.03125
243.0,0.07909496365583774,0.035487019397529296,-0.0002080187127013351,0.0,-1.2199999999999993,-9.720000000000015,0.004681659427692206,0.006602778905393369,0.009571498928288732,239.25,0.0,172.8125,-0.05432128999999995,-0.4937744100000002,0.8673095700000013,0.03125
244.0,0.07931335071449536,0.034270564849649146,-0.00039277106290633876,0.0,-1.2199999999999993,-9.720000000000015,-0.00014681336627876684,-0.002974625115461484,-0.0025471069354394017,239.25,0.0,172.8125,-0.05432128999999995,-0.4937744100000002,0.8673095700000013,0.03125
245.0,0.0788062054433022,0.035472084367245665,0.0008153334121076053,0.0,-1.2199999999999993,-9.720000000000015,-0.027804471793887113,-0.009257100146717082,0.013006586267674976,239.25,0.0,172.8125,-0.05432128999999995,-0.4937744100000002,0.8673095700000013,0.03125
246.0,0.08147529934223482,0.05288504371972114,0.00450085667021151,-0.00022119815668202763,-1.2043686635944693,-9.723391705069137,-0.23964788361839773,-0.18459526794330222,-0.16294435151542006,239.25276497695853,-0.0013824884792626728,172.89591013824884,-0.05367729811059906,-0.49369925711520746,0.8674207273824892,0.030718065548387095
247.0,0.06883800809405648,0.05719408996021899,0.0029471129229193755,-0.014160778289810555,-1.1706789554531487,-9.730226318484394,0.17064039790854305,-0.35485818784709916,-1.2831095805516168,238.4252176139273,-0.07954429083461342,173.08762800819252,-0.05278077814132104,-0.48741018094111616,0.8710543851786997,0.028670384602150534
248.0,0.08048240180329286,-0.00018647999105744772,0.005855061371815121,-0.014059035214873478,-1.1765116721836395,-9.729765589955512,0.2301767763841111,-0.289774880803639,-1.4942869399979628,237.3401076711163,-0.07657359930190462,173.04956423126572,-0.05337888177624889,-0.4790931749980456,0.8756137134912124,0.02819652327790398
249.0,0.04433183694892882,0.1170216241228981,-0.002577192027304987,-0.020180202538943596,-1.2111944132018508,-9.72566052365651,0.2883727797629791,-0.18797227317358264,-0.9320596573746995,236.3007984223898,-0.11694345011493817,172.845305204453,-0.05537599082846913,-0.4710763459236804,0.8798213278260303,0.028201671042398735
250.0,0.049656957900987696,0.09286872296774704,-0.0013930506987523401,-0.019232958412328947,-1.210214718121663,-9.726959294086324,0.3404421502501531,-0.19419094969483025,-1.081208400115921,235.1753992111949,-0.11331043473488844,172.84871827042926,-0.055588037354326714,-0.4624328507729,0.8844012427563334,0.027696205733180938
251.0,0.05016488448044776,0.08166938452534814,-0.00023569585628861257,-0.017130304090957102,-1.2086649627474668,-9.728534946582338,0.3394751073831411,-0.19656264074603264,-1.0284210203344581,234.2494795595145,-0.10131247543196034,172.86026063291047,-0.055672332165642595,-0.45523866779889244,0.8881512202307011,0.02727873403940154
252.0,0.0495012268606214,0.07629758734250464,-0.0004530548359318592,-0.013287374267700776,-1.210468234061905,-9.729162186552822,0.2647705448939166,-0.12233485979953962,-0.5568305105745279,233.58200904499023,-0.08045014452601601,172.86134391412548,-0.055822440672875034,-0.45003817195500206,0.890814450991247,0.027068524008948103
253.0,0.04964270793280956,0.0745140821764772,0.0002823321913025846,-0.01158689476674453,-1.2106611956315882,-9.729596995139206,0.13995285536381424,-0.06774114639227322,-0.2391646305712258,233.26925304589355,-0.07133309134524335,172.8660706394798,-0.05586479606337979,-0.4475995636535577,0.8920603632648196,0.026946232145319143
254.0,0.05277091240487966,0.06832292246350982,-0.0010731116099435786,-0.010543778801843325,-1.2097649769585246,-9.729935483870978,0.07226667771323524,-0.03107289015750739,-0.11090751924812467,233.1283986175115,-0.06546658986175115,172.8742223502304,-0.05583290947004603,-0.44650083219354897,0.8926230709585259,0.02687752126267285
255.0,0.05375482876536078,0.06896011419169817,-0.001645914188523721,-0.010147465437788022,-1.2098894009216585,-9.73000000000001,0.024568291001247185,-0.024307714132280812,-0.029791317227748988,233.076900921659,-0.06327764976958525,172.875,-0.055841544548387044,-0.44609631273271944,0.8928270464377887,0.02685904204608299
256.0,0.05248500034510506,0.06987016698595899,-0.0019530528050027331,-0.010000000000000005,-1.2099999999999995,-9.73000000000001,-0.005688204729791153,-0.032195508962631014,0.019868166270918135,233.0625,-0.0625,172.875,-0.055847169999999946,-0.4459838900000006,0.8928833000000006,0.02685547000000004
257.0,0.05125716292915077,0.07070732200715349,-0.0018269662851993136,-0.010000000000000005,-1.2099999999999995,-9.73000000000001,-0.010496228464602322,-0.005803277452967508,0.0007087654423994384,233.0625,-0.0625,172.875,-0.055847169999999946,-0.4459838900000006,0.8928833000000006,0.02685547000000004
258.0,0.05053153586904188,0.07085024909290677,-0.002601138229448292,-0.010000000000000005,-1.2099999999999995,-9.73000000000001,-0.02547725505115972,0.007338939747461655,0.0019457191821178332,233.0625,-0.0625,172.875,-0.055847169999999946,-0.4459838900000006,0.8928833000000006,0.02685547000000004
259.0,0.049637717121588085,0.07158011880592526,-0.001971877584780811,-0.010000000000000005,-1.2099999999999995,-9.73000000000001,-0.011986803519061584,0.003128054740957967,0.004356530566207986,233.0625,-0.0625,172.875,-0.055847169999999946,-0.4459838900000006,0.8928833000000006,0.02685547000000004
260.0,0.049583126550868495,0.07071809910519586,-0.0009511993382961126,-0.010000000000000005,-1.2099999999999995,-9.73000000000001,0.002117640424092037,-0.0010414316865929767,0.007931987367471239,233.0625,-0.0625,172.875,-0.055847169999999946,-0.4459838900000006,0.8928833000000006,0.02685547000000004
261.0,0.04921588089330024,0.0697114068726972,-4.3837882547560336e-05,-0.010000000000000005,-1.2099999999999995,-9.73000000000001,0.021313162643807806,0.026014643958192345,0.0033611549740582,233.0625,-0.0625,172.875,-0.055847169999999946,-0.4459838900000006,0.8928833000000006,0.02685547000000004
262.0,0.04952973907812617,0.07123889014211596,-0.0010116550116550116,-0.010000000000000005,-1.2099999999999995,-9.73000000000001,0.016170388751033913,0.026402361079780435,0.0079122490412813,233.0625,-0.0625,172.875,-0.055847169999999946,-0.4459838900000006,0.8928833000000006,0.02685547000000004
263.0,0.05023655913978494,0.07115196631325664,-0.0015485374840213547,-0.010000000000000005,-1.2099999999999995,-9.73000000000001,0.01114933453643131,0.01826735092864125,0.01757932927287766,233.0625,-0.0625,172.875,-0.055847169999999946,-0.4459838900000006,0.8928833000000006,0.02685547000000004
264.0,0.05124731182795698,0.07054124370253402,-0.0017047898338220916,-0.010000000000000005,-1.2099999999999995,-9.73000000000001,0.003062260320324836,-0.011694488307391535,0.019102940070682008,233.0625,-0.0625,172.875,-0.055847169999999946,-0.4459838900000006,0.8928833000000006,0.02685547000000004
265.0,0.05135442514474771,0.07067632904729679,-0.0007717497556207232,-0.010000000000000005,-1.2099999999999995,-9.73000000000001,0.0012829912023460408,-0.0032340307541920458,0.017933914204075495,233.0625,-0.0625,172.875,-0.055847169999999946,-0.4459838900000006,0.8928833000000006,0.02685547000000004
266.0,0.051007387773516794,0.06895039100684261,-0.0012584968794646214,-0.010000000000000005,-1.2099999999999995,-9.73000000000001,-0.00828774719903752,0.0053966698623956685,0.017764611060982028,233.0625,-0.0625,172.875,-0.055847169999999946,-0.4459838900000006,0.8928833000000006,0.02685547000000004
267.0,0.05034973494247687,0.0699004154447703,-0.000519277765245507,-0.010000000000000005,-1.2099999999999995,-9.73000000000001,-0.009688228438228436,-0.002616914335664336,0.016519157925407923,233.0625,-0.0625,172.875,-0.055847169999999946,-0.4459838900000006,0.8928833000000006,0.02685547000000004
268.0,0.05072472084367244,0.0719492302052786,9.715486126776453e-05,-0.010000000000000005,-1.2099999999999995,-9.73000000000001,0.0031440333859688698,3.56288536732083e-05,0.014384334583427324,233.0625,-0.0625,172.875,-0.055847169999999946,-0.4459838900000006,0.8928833000000006,0.02685547000000004
269.0,0.0501735525999037,0.07182199112574955,0.0006946275769247601,-0.010000000000000005,-1.2099999999999995,-9.73000000000001,0.006945660261741148,0.002595033789082447,0.007829412208568594,233.0625,-0.0625,172.875,-0.055847169999999946,-0.4459838900000006,0.8928833000000006,0.02685547000000004
270.0,0.04950826358283026,0.0720100572874405,0.0007418159596782612,-0.010000000000000005,-1.2099999999999995,-9.73000000000001,0.00992444303409638,-0.02012118851798979,0.0051357727140857855,233.0625,-0.0625,172.875,-0.055847169999999946,-0.4459838900000006,0.8928833000000006,0.02685547000000004
271.0,0.0483150762233273,0.07247829731053732,0.0012712388317828857,-0.010000000000000005,-1.2099999999999995,-9.73000000000001,0.0017479290890460844,-0.01526775269195978,0.0017966817551931299,233.0625,-0.0625,172.875,-0.055847169999999946,-0.4459838900000006,0.8928833000000006,0.02685547000000004
272.0,0.04924062706572034,0.07138088863571831,0.0007895783601729677,-0.010000000000000005,-1.2099999999999995,-9.73000000000001,0.006418319383232719,-0.01627879325702583,-0.0022785897186888703,233.0625,-0.0625,172.875,-0.055847169999999946,-0.4459838900000006,0.8928833000000006,0.02685547000000004
273.0,0.04976396272640855,0.07119195641463336,0.0010298698252477739,-0.010000000000000005,-1.2099999999999995,-9.73000000000001,0.005981337110971198,-0.004154391588190335,-0.0038642192545057254,233.0625,-0.0625,172.875,-0.055847169999999946,-0.4459838900000006,0.8928833000000006,0.02685547000000004
274.0,0.05027780284231896,0.07002208812692684,2.646815550041352e-05,-0.010000000000000005,-1.2099999999999995,-9.73000000000001,-0.00303993721332431,0.0022614482291901643,0.0034141429806752383,233.0625,-0.0625,172.875,-0.055847169999999946,-0.4459838900000006,0.8928833000000006,0.02685547000000004
275.0,0.04976526430558688,0.07138392924280021,0.0005482367095270319,-0.010000000000000005,-1.2099999999999995,-9.73000000000001,-0.01882813087450184,0.0071739416497481005,0.005081855308669825,233.0625,-0.0625,172.875,-0.055847169999999946,-0.4459838900000006,0.8928833000000006,0.02685547000000004
276.0,0.04703384652981425,0.07244593108504398,0.00032502443792766357,-0.007341153470185731,-1.2099999999999995,-9.73000000000001,-0.07137784090909091,-0.00847690615835777,-0.25453056268328444,232.89485581622677,-0.04490469208211144,172.875,-0.0557922786608015,-0.44471092092864145,0.8935190689149561,0.026946155826001964
277.0,0.049130752943493665,0.07044773611779809,-0.0004586488379218282,-0.011212704804423634,-1.2071497351949931,-9.73000000000001,-0.017079848876949563,0.06344138453626295,0.548801324777323,233.0200837819699,-0.06477600997942837,172.89040683678382,-0.05571628382967855,-0.4457014484879126,0.8930295699365348,0.02681100769393502
278.0,0.0506823557845098,0.059210434503499304,0.0023685601065182825,-0.011803173346578346,-1.1960082476816487,-9.73000000000001,-0.09185088677484692,0.05684012599884677,0.2632592210755479,233.24699549079796,-0.07018311952921863,172.9392719083405,-0.05524208192185194,-0.44745611926733186,0.8921876041501282,0.026694903026490635
279.0,0.05463003419724023,0.051640896626138695,0.004718004393435094,-0.014029641414247142,-1.187520252873083,-9.73000000000001,-0.04134333195047331,0.08400107472962866,0.4545310034996508,233.4939461813716,-0.07122914529735613,172.97165208320249,-0.054932721053790115,-0.44944445022506374,0.891216662866853,0.02661385755918861
280.0,0.060929386600086385,0.04349395759948186,0.0024200970158768822,-0.017176111029704223,-1.1832762554688,-9.73000000000001,-0.026490947500163342,0.058450317423465355,0.25697285756605215,233.7298359939116,-0.0991226371648071,172.98784217063348,-0.05479140617205635,-0.45133690043511265,0.8902858678850394,0.026545652166691067
281.0,0.06754752349957169,0.04105509794182592,0.0003726901041663744,-0.022323895892058722,-1.1811542567666589,-9.73000000000001,0.010041535335077317,0.03387645104684854,0.3628012324170896,233.9981810712471,-0.11741430288462884,172.995937214349,-0.054748871751573544,-0.4534560510987592,0.8892192051202836,0.026440613906501174
282.0,0.07257088037502193,0.03728859485810233,0.00068203039707041,-0.026405087089024074,-1.1801823281907442,-9.73000000000001,-0.02484641317761522,0.01433554414125324,0.2987379370485137,234.22929474102335,-0.1382463351762502,172.99950327255726,-0.05474972592741453,-0.45524114301258456,0.8883038241690079,0.02634261174103622
283.0,0.07431489320293874,0.035116948200439674,0.0009043625571139802,-0.028487723535161887,-1.180000000000001,-9.73000000000001,-0.010326724587872593,0.0008344971758159608,0.1613123415957856,234.41366268140462,-0.16468476179102365,173.0,-0.05477977638586719,-0.4565789787737067,0.8875933970798286,0.02625683999394025
284.0,0.07703770075591707,0.03474322483335768,0.0012024256578336272,-0.02946869070208731,-1.180000000000001,-9.73000000000001,7.551844897670402e-05,0.002097356114789701,0.08180169865713034,234.50167493796528,-0.17795577287987155,173.0,-0.05479705973741066,-0.45721317804276707,0.8872553697349288,0.02621467265581663
285.0,0.079924971138918,0.03464866332276201,0.001631027100666569,-0.029895635673624313,-1.180000000000001,-9.73000000000001,-0.0012525163601420715,0.011447486238461096,0.040961709167650816,234.54216811414392,-0.18373595095606482,173.0,-0.05480528373967311,-0.4575022062794478,0.8871002724481094,0.026194454069843782
286.0,0.07950707759981954,0.03547423678472067,0.0017287014061207612,-0.030000000000000027,-1.180000000000001,-9.73000000000001,0.01533970481803143,0.016175000234980072,0.02147409462177607,234.55787841191068,-0.1865074441687345,173.0,-0.05480857050124077,-0.45761130960794,0.8870408924764264,0.026186472952853562
287.0,0.07895827195794096,0.035975146613537325,0.0007724281816722838,-0.030000000000000027,-1.180000000000001,-9.73000000000001,-0.005377581019375825,-0.030895546806697954,0.012669151677392982,234.5625,-0.1875,173.0,-0.05480957000000007,-0.45764159999999954,0.8870239299999996,0.026184079999999957
288.0,0.07767046022372215,0.03538988705484855,0.0006937537733758245,-0.030000000000000027,-1.180000000000001,-9.73000000000001,-0.015985891524152834,-0.019882807245514875,0.006484335423309906,234.5625,-0.1875,173.0,-0.05480957000000007,-0.45764159999999954,0.8870239299999996,0.026184079999999957
289.0,0.07955370518517485,0.03535623385000492,0.0010238074829733471,-0.030000000000000027,-1.180000000000001,-9.73000000000001,-0.019402403240082283,0.01683340087382125,0.01901990475955329,234.5625,-0.1875,173.0,-0.05480957000000007,-0.45764159999999954,0.8870239299999996,0.026184079999999957
290.0,0.0788661826174013,0.03570044943120594,0.00024143227746682236,-0.030000000000000027,-1.180000000000001,-9.73000000000001,-0.009654675565450571,0.005097841876116583,-0.007890792037096802,234.5625,-0.1875,173.0,-0.05480957000000007,-0.45764159999999954,0.8870239299999996,0.026184079999999957
291.0,0.07880557114741032,0.03500496261882878,-0.0003102314419117501,-0.030000000000000027,-1.180000000000001,-9.73000000000001,-0.005347121048854318,0.002218149768703452,0.003867103981451599,234.5625,-0.1875,173.0,-0.05480957000000007,-0.45764159999999954,0.8870239299999996,0.026184079999999957
292.0,0.07849084965213995,0.03427579946934786,8.18957028634447e-05,-0.030000000000000027,-1.180000000000001,-9.73000000000001,-0.019832542009961363,-0.010379942638007154,-0.00950348934219902,234.5625,-0.1875,173.0,-0.05480957000000007,-0.45764159999999954,0.8870239299999996,0.026184079999999957
293.0,0.07930430859463117,0.034363824347695325,0.0004277295285359799,-0.030000000000000027,-1.180000000000001,-9.73000000000001,0.009358316414768031,0.016790266185427477,0.0036689788705917747,234.5625,-0.1875,173.0,-0.05480957000000007,-0.45764159999999954,0.8870239299999996,0.026184079999999957
294.0,0.0802753214527408,0.03572541168508911,0.0031757415971125644,-0.030000000000000027,-1.180000000000001,-9.73000000000001,0.0020062598691630964,0.0030187890066922327,0.0013304571772313712,234.5625,-0.1875,173.0,-0.05480957000000007,-0.45764159999999954,0.8870239299999996,0.026184079999999957
295.0,0.07961754643206256,0.03667600007519363,0.0016735163358147227,-0.030000000000000027,-1.180000000000001,-9.73000000000001,0.013222093766448605,-0.02576803237085495,0.008539410857959244,234.5625,-0.1875,173.0,-0.05480957000000007,-0.45764159999999954,0.8870239299999996,0.026184079999999957
296.0,0.0803128054740958,0.03713840326340327,0.0018977460711331678,-0.030000000000000027,-1.180000000000001,-9.73000000000001,0.007619111399353335,0.006773241879088654,0.013090269945108653,234.5625,-0.1875,173.0,-0.05480957000000007,-0.45764159999999954,0.8870239299999996,0.026184079999999957
297.0,0.07875644785322207,0.03644851586585458,0.0020532041882848334,-0.030000000000000027,-1.180000000000001,-9.73000000000001,0.009322188228438229,0.041004580936536576,0.016325710579742837,234.5625,-0.1875,173.0,-0.05480957000000007,-0.45764159999999954,0.8870239299999996,0.026184079999999957
298.0,0.07771073013008499,0.03640788076171142,0.0018082398112640049,-0.030000000000000027,-1.1800000000000008,-9.73000000000001,-0.0018835708981878342,0.011879461684149183,0.01980987762237762,234.5625,-0.1875,173.0,-0.05480957000000007,-0.45764159999999954,0.8870239299999996,0.026184079999999957
299.0,0.07724711444469509,0.03745777878035943,0.003907648131438455,-0.030000000000000027,-1.1800000000000008,-9.73000000000001,-0.013750505207158432,-0.005332902144898115,0.00295704799233025,234.5625,-0.1875,173.0,-0.05480957000000007,-0.45764159999999954,0.8870239299999996,0.026184079999999957
300.0,0.07895346924580794,0.04103582976163622,0.003906414486051583,-0.030000000000000027,-1.1829716520039102,-9.73000000000001,0.1041798549233025,-0.03162539535397398,0.05012527375178585,234.5625,-0.1875,172.9863147605083,-0.054943693792766424,-0.45764159999999954,0.8870201113489733,0.026238970087976505
301.0,0.09447627641176026,0.05791894127377997,-0.0008166027520866222,-0.036647116324535677,-1.2164418377321602,-9.724838709677432,0.357043762688924,-0.1523018648018648,0.18215937288517933,234.6089320625611,-0.21193792766373412,172.802541544477,-0.05648991690127077,-0.4580062604105567,0.8867337269501462,0.026751355581622664
302.0,0.09927735115104493,0.07963322033108494,-0.0023330908074206567,-0.04168339460025057,-1.2589932950587197,-9.72000454338938,0.3251182710973715,-0.17772298880885884,0.10168915591450803,234.55754701719604,-0.2351574009059243,172.55506450236118,-0.058470283496069274,-0.45756348480773185,0.8868167090748005,0.027499299072047147
303.0,0.09708606641289882,0.09015059779563023,-0.003271282265308047,-0.03807568863377958,-1.286593421722909,-9.714679691049529,0.3187394622032541,-0.2214973227070849,-0.4839522814183246,234.22492480854987,-0.22192090074184034,172.39043547698705,-0.0597087878361425,-0.4550320726108955,0.8880214782085599,0.028073090980414533
304.0,0.09602179100778782,0.09692806978284405,-0.005798886489447767,-0.034037844316889804,-1.3003934850550034,-9.712017264879606,0.1724806792932204,-0.11723458134752694,-0.26521942967825773,233.97435756556524,-0.20471045037092017,172.30812096429997,-0.06031487440194224,-0.4531551330796415,0.8889402937816986,0.028388668070852437
305.0,0.09417902844622038,0.1002211218904445,-0.006088592804841186,-0.032018922158444915,-1.3072006525959283,-9.710686051794642,0.0656513855899142,-0.056708077575034245,-0.15417618600237423,233.84907394407293,-0.19610522518546009,172.26739137169056,-0.06061372631631816,-0.4522166633140145,0.8893998209011127,0.028544741300822123
306.0,0.09162278740154464,0.10307672381461094,-0.006214346782148392,-0.030801738694080733,-1.3096047251249443,-9.71018173557474,0.01188050894654745,-0.01864889178398302,-0.09342061800306695,233.78498113137175,-0.19103892735323835,172.25255565651977,-0.06071692848562733,-0.4517360327933711,0.8896384743068606,0.02860762352675516
307.0,0.09198446971099832,0.10463108773749119,-0.007207955260916263,-0.030139624458353415,-1.3100000000000012,-9.71,-0.006830611211930423,0.005368459978474422,-0.06390229093647486,233.75526600866635,-0.18816201251805487,172.25,-0.060730802850264845,-0.4515152520895527,0.8897507330621075,0.02862369742898413
308.0,0.09100182709282367,0.10503696159401504,-0.007032776563830971,-0.030000000000000027,-1.3100000000000012,-9.71,0.005605656580620471,-0.00854776141848843,-0.023190821776522305,233.75,-0.1875,172.25,-0.060729980000000044,-0.4514770500000004,0.8897705099999986,0.028625490000000017
309.0,0.09106527928819692,0.10352385714109355,-0.007200725450123622,-0.030000000000000027,-1.3100000000000012,-9.71,-0.008016124262513287,-0.011504217576677855,-0.014832496383411164,233.75,-0.1875,172.25,-0.060729980000000044,-0.4514770500000004,0.8897705099999986,0.028625490000000017
310.0,0.0910401096255694,0.10250538868930778,-0.007046183474686124,-0.030000000000000027,-1.3100000000000012,-9.71,-0.009732509907040481,-0.012041683641346616,-0.009678808192289175,233.75,-0.1875,172.25,-0.06072998000000004,-0.4514770500000004,0.8897705099999986,0.028625490000000017
311.0,0.0901279952594348,0.10331721047368617,-0.007868004888707827,-0.030000000000000027,-1.3100000000000012,-9.71,-0.01493139142994704,-0.023064886485685717,-0.020859875560164436,233.75,-0.1875,172.25,-0.060729980000000044,-0.4514770500000004,0.8897705099999986,0.028625490000000017
312.0,0.09017706863831078,0.1050813740905219,-0.009199901687142905,-0.030000000000000027,-1.3100000000000012,-9.71,0.0006102187012153306,-0.03291015877077504,-0.0025719586143274154,233.75,-0.1875,172.25,-0.060729980000000044,-0.4514770500000004,0.8897705099999986,0.028625490000000017
313.0,0.0894604419813856,0.10699199917399245,-0.008400838128329707,-0.030000000000000027,-1.3100000000000012,-9.71,0.00035962472770368703,-0.00326658776947655,0.002383469523575445,233.75,-0.1875,172.25,-0.060729980000000044,-0.4514770500000004,0.8897705099999986,0.028625490000000017
314.0,0.09058381900558113,0.10505183085250491,-0.007098682091460138,-0.030000000000000027,-1.3100000000000012,-9.71,0.007949663480477154,-0.001896941527418177,0.005286027565757946,233.75,-0.1875,172.25,-0.060729980000000044,-0.4514770500000004,0.8897705099999986,0.028625490000000017
315.0,0.08941484322129478,0.10476968193097225,-0.006879464621400107,-0.030000000000000027,-1.3100000000000012,-9.71,0.007102977667493796,-0.010528047221595609,0.0002894954507857736,233.75,-0.1875,172.25,-0.060729980000000044,-0.4514770500000004,0.8897705099999986,0.028625490000000017
316.0,0.08964162719001423,0.10583690503045341,-0.006037822392661103,-0.030000000000000027,-1.3100000000000012,-9.71,-0.006875516956162116,-0.024287070456425294,0.007499154071734717,233.75,-0.1875,172.25,-0.060729980000000044,-0.4514770500000004,0.8897705099999986,0.028625490000000017
317.0,0.09156282427250165,0.10399954883825852,-0.006344086021505377,-0.030000000000000027,-1.3100000000000012,-9.71,0.009717365967365969,-0.01099048800661704,0.014438585607940447,233.75,-0.1875,172.25,-0.060729980000000044,-0.4514770500000004,0.8897705099999986,0.028625490000000017
318.0,0.09080096247838179,0.1017016317016317,-0.005552297165200391,-0.030000000000000027,-1.3100000000000012,-9.71,0.0019108579592450568,0.03467459959395443,0.005157342657342657,233.75,-0.1875,172.25,-0.060729980000000044,-0.4514770500000004,0.8897705099999986,0.028625490000000017
319.0,0.09068599142792687,0.10189600721858785,-0.0069047296789232285,-0.030000000000000027,-1.3100000000000012,-9.71,0.0075654184525152275,0.023217911121136928,0.007830945935784645,233.75,-0.1875,172.25,-0.060729980000000044,-0.4514770500000004,0.8897705099999986,0.028625490000000017
320.0,0.09084630423340095,0.10230641401609143,-0.0070768478832994985,-0.030000000000000027,-1.3100000000000012,-9.71,-0.01020471464019851,0.013403263403263404,0.003495563576208737,233.75,-0.1875,172.25,-0.060729980000000044,-0.4514770500000004,0.8897705099999986,0.028625490000000017
321.0,0.09327586071447405,0.10042696286220598,-0.0073816345747015006,-0.030000000000000027,-1.3100000000000012,-9.71,-0.061579046455069564,0.012127216388169685,-0.03168704189407126,233.748074145402,-0.1875,172.25,-0.060726689022628844,-0.45144601831969217,0.8897846151131429,0.02862690041887339
322.0,0.0925217562088048,0.10072367016709816,-0.007100697729489258,-0.030000000000000027,-1.3100000000000012,-9.71,-0.03414080903849801,-0.026698723560182394,-0.0811895995995659,233.65715046468534,-0.1875,172.25,-0.060666762663807064,-0.4506749402204524,0.8901713343649786,0.028685380351176674
323.0,0.09005120068504754,0.09835059363682377,-0.005730212012349712,-0.030000000000000027,-1.3100000000000012,-9.71,-0.013954568742122905,0.07157243685138484,-0.0778320920773978,233.60327281298785,-0.1844758064516129,172.25,-0.060635367460935764,-0.4502259347876458,0.8903952119405544,0.028718439046556084
324.0,0.09517711549403893,0.10164352751244901,-0.006017598674796557,-0.03031280547409582,-1.3080449657869027,-9.71,0.048038600281919974,-0.017671748338725958,0.20480646129267938,233.61994041431404,-0.18012280058651026,172.26417399804495,-0.06061537472753531,-0.4502863650428943,0.8903606505303947,0.02867196264644519
325.0,0.1005502089989933,0.10249752885134443,-0.004690805503275412,-0.03531769305962856,-1.3090224828934518,-9.71,0.04400388544812594,-0.04944936014575218,0.15764845585124232,233.81204743100844,-0.2150919477028348,172.25708699902248,-0.06073568123473536,-0.45181006490170095,0.8895715725232619,0.028587154241111176
326.0,0.10212151759530791,0.10320350684261971,-0.005932306940371458,-0.03782013685239494,-1.3095112414467265,-9.71,0.019745081867057673,-0.018826750366568917,0.08691883553274682,233.9101161565249,-0.23355403836754643,172.25354349951124,-0.06079593733137823,-0.45258959041666613,0.8891665695091033,0.028543274173998073
327.0,0.10238379060455671,0.10261690493646136,-0.0062705748552522745,-0.03907135874877812,-1.3097556207233638,-9.71,-0.00045765306602000254,0.0010392434346567433,0.031098760950071427,233.96196179282748,-0.24278508369990226,172.25177174975562,-0.06082788665689143,-0.4530029644947452,0.888952203417797,0.028519528680351944
328.0,0.102105628242725,0.10327716369651851,-0.006876137303556659,-0.03969696969696972,-1.3098778103616824,-9.71,-0.005286111737724641,-0.005151468155500412,0.024655401721933975,233.9881476050831,-0.24749511241446726,172.2508858748778,-0.060843906070381155,-0.45321163485825927,0.888844066686217,0.028507536598240506
329.0,0.1033108786374915,0.10309263854425146,-0.007206397097526132,-0.04000000000000002,-1.3100000000000012,-9.71,-0.0038649522520490267,-0.013511706707271223,-0.0013422649259342816,233.99987781036168,-0.24993890518084066,172.25,-0.06085204999999992,-0.4533070658846522,0.8887945764516129,0.02850350948680356
330.0,0.10305328878111134,0.10422960372960373,-0.0066750460560944455,-0.04000000000000002,-1.3100000000000012,-9.71,-0.012318595383111513,-0.016729582581397097,4.6731662155049484e-05,234.0,-0.25,172.25,-0.06085204999999993,-0.45330810999999915,0.8887939499999999,0.028503420000000036
331.0,0.10147120084216854,0.10495754380028573,-0.0071732085119181905,-0.04000000000000002,-1.3100000000000012,-9.71,0.00858364585683134,-0.003009448548763064,0.0028270452665613956,234.0,-0.25,172.25,-0.06085204999999993,-0.4533081099999992,0.8887939499999999,0.028503420000000036
332.0,0.10292170463944657,0.104193412098654,-0.006100251898638996,-0.04000000000000002,-1.3100000000000012,-9.71,-0.004315497170839913,0.0021708340382735544,0.010299999060079706,234.0,-0.25,172.25,-0.06085204999999992,-0.4533081099999992,0.8887939499999999,0.028503420000000036
333.0,0.10350303594255209,0.10291060183096468,-0.007139455974133395,-0.04000000000000002,-1.3100000000000012,-9.71,-0.027312835434055188,-0.02165031499078878,-0.01395670022182119,234.0,-0.25,172.25,-0.06085204999999992,-0.4533081099999992,0.8887939499999999,0.028503420000000036
334.0,0.10474546958417928,0.10164935333483716,-0.00586811508384089,-0.04000000000000002,-1.3100000000000012,-9.71,-0.008127813886382434,-0.009927350035716972,-0.018382079949620274,234.0,-0.25,172.25,-0.06085204999999992,-0.4533081099999992,0.8887939499999999,0.028503420000000036
335.0,0.103939205955335,0.10106172456575682,-0.006062112282878413,-0.04000000000000002,-1.3100000000000012,-9.71,0.004810115539702234,-0.005116412065756824,-0.005235150434243177,234.0,-0.25,172.25,-0.06085204999999992,-0.4533081099999992,0.8887939499999999,0.028503420000000036
336.0,0.1030018610421836,0.10171060794044662,-0.00521029776674938,-0.04000000000000002,-1.3100000000000012,-9.71,0.0029408343672456577,0.0037201457816377166,-0.006186026674937966,234.0,-0.25,172.25,-0.06085204999999992,-0.4533081099999992,0.8887939499999999,0.028503420000000036
337.0,0.10417338709677419,0.09975232630272951,-0.006071650124069479,-0.04000000000000002,-1.3100000000000012,-9.71,0.009310057382133995,0.002744067928039702,0.0006755970843672454,234.0,-0.25,172.25,-0.06085204999999992,-0.4533081099999992,0.8887939499999999,0.028503420000000036
338.0,0.10285464360041621,0.09984886786600494,-0.00565144981189466,-0.04000000000000002,-1.3100000000000012,-9.709999999999999,-0.002358398828343872,-0.0005160233480749218,0.00873149901444809,234.0,-0.25,172.25,-0.06085204999999992,-0.45330810999999926,0.8887939499999999,0.028503420000000036
339.0,0.10231465858976263,0.1013096025837961,-0.0068463822280159445,-0.04000000000000002,-1.3100000000000012,-9.709999999999999,-0.00442465712346533,-0.0012978282222965494,0.01343257978436178,234.0,-0.25,172.25,-0.06085204999999992,-0.4533081099999992,0.8887939499999999,0.028503420000000036
340.0,0.1029617647787523,0.10153181742093031,-0.006064320146266037,-0.04000000000000002,-1.3100000000000012,-9.71,4.006559149314108e-05,-0.014242034070825695,0.01465479795669702,234.0,-0.25,172.25,-0.06085204999999992,-0.4533081099999992,0.8887939499999999,0.028503420000000036
341.0,0.10370668884098903,0.10338749679979517,-0.006911812678592077,-0.04000000000000002,-1.3100000000000012,-9.71,-0.009587597477206283,-0.008330694454767685,0.013484346869167368,234.0,-0.25,172.25,-0.06085204999999992,-0.4533081099999992,0.8887939499999999,0.028503420000000036
342.0,0.10252916078749608,0.101895733130199,-0.007660196397466319,-0.04000000000000002,-1.3100000000000012,-9.709999999999999,-0.029884638158883415,-0.01583090529851023,0.01825022142506491,234.0,-0.25,172.25,-0.06085204999999993,-0.45330810999999926,0.8887939499999999,0.028503420000000036
343.0,0.1026312949602545,0.10242252094297968,-0.0074308860685116645,-0.04000000000000002,-1.3100000000000012,-9.709999999999999,-0.0013855804804294367,-0.016538714215414703,0.005809027515465907,234.0,-0.25,172.25,-0.06085204999999993,-0.4533081099999992,0.8887939499999999,0.028503420000000036
344.0,0.10201073196553428,0.10108709252474124,-0.007458402583666996,-0.04000000000000002,-1.3100000000000012,-9.71,0.0019233771945011036,-0.02033412925312466,0.010697012477651029,234.0,-0.25,172.25,-0.06085204999999992,-0.4533081099999992,0.8887939499999999,0.028503420000000036
345.0,0.10174144693810212,0.10472426121274284,-0.007375525733520844,-0.04000000000000002,-1.3100000000000012,-9.71,-0.0408044113562234,0.0349232249981275,0.037354554625922284,234.0004962779156,-0.25,172.25,-0.06085253468486346,-0.4533124716873442,0.8887924960248139,0.028503420000000036
346.0,0.10183241701743814,0.09977205284139448,-0.006587316438188991,-0.03653456221198157,-1.2844884792626736,-9.714202764976967,-0.08554072454331907,-0.13642393617605145,0.5995942559995971,234.3348103509394,-0.21866359447004607,172.41036866359445,-0.05953010830556538,-0.45591595513860306,0.8875637415746193,0.028212250746543793
347.0,0.08114486599383161,0.08858574055094043,-0.0033084115510482975,-0.027720296533760777,-1.2503438188739726,-9.720778334335147,-0.02563087047604491,-0.20249076007754127,0.03622645762372273,234.44183247794746,-0.16186802911908102,172.620039404261,-0.05771520377176352,-0.45674092704335484,0.8872771557265333,0.027880739309690785
348.0,0.07440980351170565,0.07852470295891581,-0.002968278799274592,-0.023537567621719102,-1.2285590062111797,-9.725711747812738,0.07262461754073998,-0.20469544699690212,0.06882958235079556,234.49833559381244,-0.14141788552728243,172.7576003472918,-0.05654828435486436,-0.4572912076333395,0.8870996993645077,0.02751890486576352
349.0,0.07234351062682055,0.07491003293107079,-0.0007986555286695538,-0.024188138649569237,-1.217666599879783,-9.728178454551536,0.06597145695585387,-0.12717131220812847,0.1894047105302365,234.6241677969062,-0.14732184598944767,172.8263808188072,-0.05600674524194825,-0.45823623397796,0.8866567175854801,0.027253636626430166
350.0,0.07324371561117701,0.07208156733402175,0.000523749158742146,-0.026932779002203984,-1.212220396714085,-9.729411807920934,0.03277636123226937,-0.07657417967726524,0.07806929074898922,234.76368129299405,-0.16640285847859482,172.86077105456488,-0.05575171021650757,-0.45923725375076646,0.8861502772939809,0.02709097734547316
351.0,0.07523476103139495,0.06984120904808142,0.00027694015895278153,-0.028413394109396937,-1.2102945301542771,-9.729897148200102,0.007018719432157369,-0.03992879490775705,-0.013864370931779762,234.82299848059841,-0.17692262739597941,172.87295465170638,-0.0556655261013413,-0.45965647293068257,0.8859354330064377,0.027018746744165163
352.0,0.0773384339674662,0.0676596459096459,0.0006346966205837171,-0.029375000000000023,-1.2099999999999995,-9.73000000000001,-0.007242632759265824,-0.025485446453188388,0.003341167680885427,234.85453629032259,-0.18346774193548387,172.875,-0.05565848689826293,-0.4598809815775431,0.8858177673821344,0.02698844165632757
353.0,0.07796326164874551,0.06714371873646066,0.00012007783882783855,-0.02984879032258067,-1.2099999999999995,-9.73000000000001,0.01032874565510654,7.520481310803982e-05,0.01016934314565363,234.87021169354836,-0.18649193548387097,172.875,-0.055663075645161195,-0.4599889298185481,0.8857600021774197,0.02697941657258067
354.0,0.0768646953405018,0.06708496420694,-0.000280182854779629,-0.030000000000000027,-1.2099999999999995,-9.73000000000001,0.007259256900133916,0.0018332173259088588,0.00023336108895584753,234.875,-0.1875,172.875,-0.055664059999999904,-0.46002196999999967,0.8857421900000004,0.026977540000000026
355.0,0.07770654121863799,0.06813169581314743,-0.0012136801370672336,-0.030000000000000027,-1.2099999999999995,-9.73000000000001,0.008717204054905668,0.0007748495903737841,0.002117058568671472,234.875,-0.1875,172.875,-0.055664059999999904,-0.46002196999999967,0.8857421900000004,0.026977540000000026
356.0,0.07737684381031154,0.06758197693883178,0.00018968598605695395,-0.030000000000000027,-1.2099999999999995,-9.73000000000001,0.012159470513805191,0.008033206432904014,-0.0013298081846468942,234.875,-0.1875,172.875,-0.055664059999999904,-0.46002196999999967,0.8857421900000004,0.026977540000000026
357.0,0.07749666563275434,0.06805110111662531,-0.0003237437965260545,-0.030000000000000027,-1.2099999999999995,-9.73000000000001,0.0028715299317617874,-0.015840667648883373,0.005319478908188586,234.875,-0.1875,172.875,-0.055664059999999904,-0.46002196999999967,0.8857421900000004,0.026977540000000026
358.0,0.07583808933002481,0.0678874069478908,-0.0013453784119106698,-0.030000000000000027,-1.2099999999999995,-9.73000000000001,0.006871316687344913,-0.00673076923076923,0.01028516594292804,234.875,-0.1875,172.875,-0.055664059999999904,-0.46002196999999967,0.8857421900000004,0.026977540000000026
359.0,0.07624271091811413,0.06851263957816377,-0.00018618176178660022,-0.030000000000000027,-1.2099999999999995,-9.73000000000001,0.008800209367245657,0.007521227512406949,0.014571863368486353,234.875,-0.1875,172.875,-0.055664059999999904,-0.46002196999999967,0.8857421900000004,0.026977540000000026
360.0,0.07734010545905708,0.0671721464019851,-0.0019958126550868476,-0.030000000000000027,-1.2099999999999995,-9.73000000000001,0.005754691377171215,0.015369106699751861,-0.0023379342431761787,234.875,-0.1875,172.875,-0.055664059999999904,-0.46002196999999967,0.8857421900000004,0.026977540000000026
361.0,0.07808196339950374,0.06704513027295284,-0.001181529156327543,-0.030000000000000027,-1.2099999999999995,-9.73000000000001,0.007607494571960298,0.005466811414392059,0.004894928660049628,234.875,-0.1875,172.875,-0.055664059999999904,-0.46002196999999967,0.8857421900000004,0.026977540000000026
362.0,0.07786910669975186,0.06685421836228286,0.00038957816377171235,-0.030000000000000027,-1.2099999999999995,-9.73000000000001,-0.004150511786600496,-0.006213166873449132,0.0032665167493796526,234.875,-0.1875,172.875,-0.055664059999999904,-0.46002196999999967,0.8857421900000004,0.026977540000000026
363.0,0.07738413602526506,0.06619649033761937,-0.0006282051282051282,-0.030000000000000027,-1.2099999999999995,-9.73000000000001,-0.002261360111662531,-0.005108143704413866,0.008227739162719001,234.875,-0.1875,172.875,-0.055664059999999904,-0.46002196999999967,0.8857421900000004,0.026977540000000026
364.0,0.07776355566476534,0.06622885291232065,-0.0009843928472960729,-0.030000000000000027,-1.2099999999999995,-9.73000000000001,-0.008981767140789318,0.009393523563130416,0.0094515650400227,234.875,-0.1875,172.875,-0.055664059999999904,-0.46002196999999967,0.8857421900000004,0.026977540000000026
365.0,0.0826816544573225,0.06055356644171642,0.00018456091867261824,-0.032156957149735224,-1.2073808377467508,-9.73000000000001,-0.01127862768751069,0.00770473414254258,0.418602326588981,234.96936687530092,-0.19183317284545018,172.875,-0.05567863648531532,-0.4607775486230138,0.8853533505584976,0.026914535358690424
366.0,0.11713619756755789,0.04680232793685808,0.000309351059968554,-0.057874766687991776,-1.1917217931553017,-9.730000000000011,-0.10124292035655319,-0.03541392342126755,1.4698309229736093,236.54083125028853,-0.33637449627690097,172.96514582412726,-0.05530411359838016,-0.47291598570125487,0.8788576902085463,0.026142519800423432
367.0,0.11835344678518145,0.01918340011849917,0.0028920820283479995,-0.05328754697185938,-1.1523896483308067,-9.73418887330529,-0.3626649092198848,-0.18711316240313025,0.01118129467404172,236.79300211415784,-0.3110256071847338,173.19403270636002,-0.05341819492448226,-0.47494667397030954,0.8779563132132023,0.025513157230740005
368.0,0.09248395701917916,-0.0056428062946116166,0.00842346036901271,-0.03923517133539206,-1.1200163295417478,-9.737255726975228,-0.08498836858843703,-0.3442481745544488,-2.5597844748526173,235.6817429925628,-0.22560688961387226,173.3807529123198,-0.051855476812778745,-0.4663632715593483,0.8825536354001495,0.024890341303542042
369.0,0.07595011983063411,-0.016467653408730996,0.008666559518935874,-0.021678012746296667,-1.1184111634078566,-9.738789153810199,-0.25034140200911004,-0.09209012003289824,-0.7321354908536828,234.4142188383986,-0.12522677511134322,173.38866700591,-0.05158790558040118,-0.4566273361999378,0.8876566152898068,0.025061644713561114
370.0,0.07626317342745276,-0.02119284565137618,0.00970301552088854,-0.00960461854001797,-1.1156346791011922,-9.739555867227683,-0.15389744206207576,-0.16616935552184436,-0.16172448308579526,233.93198303499133,-0.055184332640494174,173.40365513483354,-0.05124573699040449,-0.45300082760576094,0.8896009373309611,0.02543970121387084
371.0,0.07443295657674007,-0.02029613760494331,0.007112719078217674,-0.0034810542987319193,-1.11689599620106,-9.739939223936425,-0.13848208382379085,-0.09114208010964137,-0.404717090295559,233.6662030059998,-0.019983350588916995,173.39457502654182,-0.05126314368829538,-0.451017894958895,0.8906652163509748,0.025646647060690836
372.0,0.07440972917026047,-0.024751749366881542,0.00831835537403595,0.003884021280231561,-1.118511111705018,-9.740000000000006,-0.02526870989608515,0.013984455291347876,-0.5101436188865699,233.18146283369816,0.024869559777155256,173.38429078582817,-0.05121753895154705,-0.4471021887572323,0.8926428067553245,0.025925735143886144
373.0,0.06998648726352708,-0.022881055524105486,0.00832125002328386,0.007511903113234063,-1.1197157709062724,-9.740000000000006,0.020523025306111865,-0.03893519170916477,-0.310785396931066,232.88538439827624,0.046977790641265796,173.37689001657003,-0.05116207831663369,-0.44478895752211595,0.8938070108024909,0.0260873184028326
374.0,0.059276122043674204,-0.024863901752896073,0.00648359009744209,0.0105848405231707,-1.1198624288425045,-9.740000000000006,-0.045766778683050034,0.008292294754581282,-0.43703172618020814,232.68734585307166,0.06466641952291857,173.37585981973433,-0.05110762906269596,-0.44321478993643276,0.8945875062989146,0.026171485253455556
375.0,0.0474083013760433,-0.027366644108579606,0.006944356718550268,0.015593653658169795,-1.1199999999999997,-9.740000000000006,-0.051548988645762836,0.039617170463944654,-0.21132697947214074,232.48076970072938,0.09671591849011203,173.375,-0.05106606071967813,-0.44151435487096796,0.8954298942713739,0.026246171881945987
376.0,0.04560117302052785,-0.027610797804346207,0.00721272276110986,0.018119407474246195,-1.1199999999999997,-9.740000000000006,-0.014825362809233777,0.04292756974208587,-0.2823821339950372,232.3519498646515,0.11287408827731407,173.375,-0.05103442840702305,-0.4405004449825553,0.8959294839591698,0.02629337172900216
377.0,0.036303547812086716,-0.03201769261731311,0.008084827253707712,0.027200408699459933,-1.1199999999999997,-9.740000000000006,-0.0008917079125807786,0.015498953924001361,-0.4211886232047522,231.8105874833579,0.16364946723106116,173.375,-0.05090823998394391,-0.4363298853733718,0.8979477461137635,0.02652763911129541
378.0,0.04356365772115297,-0.0318879134780463,0.008476989803365517,0.02339283107784057,-1.1199999999999999,-9.740000000000006,0.009944629216450847,-0.0016303233452189796,0.5604720548268936,231.98741216089414,0.13842035573534625,173.375,-0.050950080945889,-0.4377774006218904,0.8972372294061348,0.026449827032466587
379.0,0.05242969712134797,-0.03279469739621542,0.010261278569627719,0.016646787747357013,-1.1199999999999999,-9.740000000000006,0.03869571486388374,-0.007137535535305934,0.26504174588852014,232.40481029880934,0.09628646179879577,173.375,-0.0510500880486269,-0.44112878914965475,0.895588648958651,0.026249465149589174
380.0,0.05539743747713387,-0.034975926034749555,0.009059299334441651,0.013162103551097863,-1.1199999999999999,-9.740000000000006,0.016301693246664785,0.007846916682305678,0.1355579903967001,232.6167196655337,0.07838516638326885,173.375,-0.05110074289528121,-0.44283179021998853,0.8947508341567453,0.026151799832859094
381.0,0.05802141049072425,-0.03553199842347085,0.009571833290049611,0.011419761452968288,-1.1199999999999999,-9.740000000000006,0.00016827190387755635,-0.030492396627181662,-0.10648816157362134,232.639675108127,0.06943451867550539,173.375,-0.05109332620361256,-0.442870573186658,0.8947381664613221,0.026120531798582057
382.0,0.0546795857007701,-0.03548895936353809,0.011979939415423291,0.010299539170506918,-1.1199999999999997,-9.740000000000006,0.013455815268826825,-0.02015310059063068,-0.048203758206165515,232.65341796203313,0.0635953428292138,173.375,-0.05109458320854248,-0.4428800129500652,0.894739029210263,0.026080282811055726
383.0,0.05417389423287352,-0.034979502723243704,0.010766467403564182,0.010000000000000005,-1.1199999999999997,-9.740000000000006,0.0018315942703581133,-0.003178508820660963,-0.037984367582345434,232.6463950409244,0.06225562072336266,173.375,-0.051091983293211296,-0.4427749729658159,0.8947928742272517,0.026066238253454117
384.0,0.0602306859005222,-0.04190874875004629,0.010430942372504727,0.008228213769860378,-1.119152623976889,-9.740000000000006,-0.08240727773971333,0.15601736972704713,2.185400077774897,232.99521545498317,0.050463408762638426,173.3807775637939,-0.051028978921521397,-0.4455235824217621,0.8933976763168034,0.02609010374097254
385.0,0.08625822064292843,-0.043696849291411106,0.009726601477186302,-0.022302442904691126,-1.101623997822946,-9.740000000000006,-0.0027438985167081847,-0.13930282842449743,1.0032974154473076,234.91087035021246,-0.11743133909694166,173.48915572906856,-0.050666367155945344,-0.46049579351803405,0.8856992505637311,0.025024163985960794
386.0,0.09744732861416491,-0.06021494979123887,0.010488911686784747,-0.038448386652736546,-1.1004894182663119,-9.740000000000006,0.008643953631886784,-0.043671526261970774,-0.3358326902717067,235.05394145237094,-0.22345784941161845,173.49659399356653,-0.05101867752115997,-0.46163663595329507,0.8851908228301946,0.024188419776059136
387.0,0.08897625647298107,-0.057037702430181636,0.009955213331871639,-0.037449999777981184,-1.1059682114373026,-9.740000000000006,-0.034812977821153376,-0.05624046503190705,-0.02447236472110681,235.20629100268314,-0.21504113668737604,173.46529008434084,-0.051246514461040824,-0.46285426518402073,0.8845789923644063,0.024410120325817585
388.0,0.07522669058140369,-0.04892719488754739,0.009826358216804307,-0.025000434132166776,-1.118145396041232,-9.740000000000006,-0.02570145440375287,-0.04122822142724384,-0.18227824966824568,235.12358594799167,-0.14475692070100812,173.38788697765432,-0.051520261213150634,-0.4621073838674443,0.8849450748968436,0.025131868795663148
389.0,0.06849774816114226,-0.04441071286513081,0.008763818385136762,-0.017767429391552816,-1.1242604688439188,-9.740000000000006,0.005083077278028189,-0.019901706910823318,-0.14259435826757003,235.05651191959043,-0.10526844590659458,173.34900487544246,-0.05165171567157287,-0.46150815820478597,0.8852416623473147,0.02550162803769678
390.0,0.06446533036855617,-0.043550485356936966,0.008127800514897292,-0.013224528160012034,-1.1278525345622121,-9.740000000000006,-0.006596897725929984,-0.0026757069095778773,-0.05709234761654116,234.96856100888357,-0.0804655693768597,173.32626728110597,-0.05172779007515059,-0.4607836107994474,0.885608731909983,0.02572018744568337
391.0,0.06188227185001377,-0.042104572846508335,0.007569695537437475,-0.010925558312655091,-1.129410138248848,-9.740000000000006,-0.004115955728858955,0.01222010516365355,-0.019608147229114966,234.95012850053172,-0.06737415809996455,173.31635944700463,-0.051749183908542995,-0.4606204250453735,0.8856874681446301,0.02583891139879478
392.0,0.06175449998030641,-0.042128323289613606,0.007743373114340859,-0.010059553349875936,-1.1300000000000003,-9.740000000000006,-0.002360397219268187,0.01323850880302493,-0.013274695734373152,234.93839950372205,-0.06274813895781638,173.3125,-0.05175826439205948,-0.4605187313498755,0.885737949334988,0.025878304178660078
