time,linaccel_x,linaccel_y,linaccel_z,gravity_x,gravity_y,gravity_z,gyro_x,gyro_y,gyro_z,euler_x,euler_y,euler_z,quaternion_w,quaternion_y,quaternion_x,quaternion_z
0.0,-0.020000000000000007,-0.22782608695652176,-0.03202898550724638,-0.12333333333333331,-9.789999999999997,-0.422608695652174,0.6530797101449275,-0.18478260869565216,0.11231884057971014,35.47644927536232,-0.7192028985507246,92.47010869565217,0.6585905647826089,0.22924804797101445,-0.6850090579710145,-0.21086850434782617
1.0,-0.0025252525252525363,-0.23574000878348714,-0.04461572244180938,-0.12010101010101011,-9.789999999999997,-0.456324110671937,-0.08407444005270093,-0.2667709705753184,0.014712340799297324,35.33432147562583,-0.705012077294686,92.66806653491436,0.6576701335133952,0.22847924982872206,-0.6865254196267021,-0.20963461316644705
2.0,0.0001677489177489141,-0.23496000376435172,-0.048763881046489724,-0.12004329004329009,-9.79,-0.4698531902879732,-0.02598726002258612,-0.09647327310370787,0.032532967485413136,35.32185206098249,-0.6950051759834368,92.75059994353472,0.6572090350771693,0.22836106921230948,-0.6871117526971575,-0.20933607510704882
3.0,0.002328282828282827,-0.23464800175669753,-0.05342314448836188,-0.12002020202020208,-9.79,-0.47526482213438764,-0.059523221343873514,-0.0028333607817303402,0.039661218159859464,35.316864295125164,-0.6910024154589371,92.78361330698287,0.6570230697026792,0.2283132882990778,-0.6873513725920064,-0.2092136083832895
4.0,0.0071613279193924306,-0.2347105715696179,-0.0484801815762545,-0.12000977517106559,-9.79,-0.4708800007846294,0.04216618322070636,-0.058939219236817414,0.05790058943219006,35.23917751252955,-0.6891947171575503,92.75137616590982,0.6573350425409987,0.22786910019434278,-0.6872885051499786,-0.20889368099935848
5.0,0.0016093377948216627,-0.23583120911346728,-0.03732308462147172,-0.11995112414467263,-9.79,-0.460881795623731,-0.00020314027370478722,0.021641835427117683,0.050180175167574365,35.14416215504926,-0.6878360215053764,92.69068632979923,0.6577943366772319,0.22729849254925175,-0.687150909059328,-0.20853061301019807
6.0,0.004554959825121112,-0.23136647268502114,-0.027097980424593326,-0.12008192524321565,-9.79,-0.45506699751861013,-0.0030413946492575525,0.0992462132961125,0.1034689220110087,35.113917936901814,-0.689548131080389,92.65555210918114,0.6580612529196802,0.22717529811340542,-0.6869594202161371,-0.20844193615761508
7.0,-0.0074641095193123345,-0.23284666316003588,-0.03297228703463659,-0.11071982636739497,-9.789999999999997,-0.47508284878337786,-0.1698350291433577,0.20415036952720889,-0.0221883110966863,35.34272269016492,-0.6403777005907483,92.77061729195214,0.6569760008378491,0.22814935853642104,-0.6873374913051078,-0.20952779577869024
8.0,-0.012852208295636314,-0.230717531331879,-0.03818899711533319,-0.10726065760057102,-9.79,-0.485799488907818,-0.10532040112564908,0.09831796353221486,0.015460832432426078,35.45416221356881,-0.6157998924789969,92.83820877004555,0.6564000889871628,0.22862527909947608,-0.6875757560148368,-0.21001210301837736
9.0,-0.010187890748314435,-0.23036124705551764,-0.04069995761473856,-0.10918367867621606,-9.79,-0.49248287100477756,0.05678458851906131,-0.030927866869128295,0.0348085799879252,35.43581249636257,-0.6268360504578607,92.87397411206993,0.6562117127094622,0.2287106969690928,-0.6877889250520836,-0.20981810564070236
10.0,-0.0016872731932914891,-0.23102595024405326,-0.041443602030024757,-0.1136389857400932,-9.79,-0.4918865967927112,0.03915015199319484,0.12198978668044627,0.03008374763309766,35.35734483378922,-0.6546866356507666,92.87405281285878,0.6563679964242102,0.22854864224137028,-0.6878282801836102,-0.2093791283464058
11.0,-0.0015802377689715195,-0.23410007036776415,-0.033451279582237696,-0.11504514647605657,-9.789999999999997,-0.5043761342172511,-0.08602690641087367,0.15612384726491613,0.04197900077774897,35.411705122032515,-0.6671776045331654,92.94644503907263,0.655825141265731,0.22915892369215957,-0.6880894458105998,-0.20955175372586193
12.0,-0.007446718583935722,-0.23573388864385486,-0.02954315047815289,-0.11726644916630483,-9.787810361681327,-0.5269081616505785,-0.13795799369944772,0.04535795812276312,0.044293070514784524,35.45580696786763,-0.6768883419581542,93.07920880876466,0.654933144571822,0.22986317075753426,-0.6886905677282525,-0.20959145122119824
13.0,0.0059809220897328735,-0.2399323663550914,-0.033644512337819996,-0.11888632632012516,-9.78423544197737,-0.5519415360224218,0.0612476761188846,0.04887019376066078,-0.016084834627203427,35.44983522602685,-0.6862586772613253,93.22089428385769,0.6540763208355981,0.23024743939101655,-0.6894774350239197,-0.20927122691065037
14.0,0.009851503228489267,-0.23250216332642903,-0.021206871553525384,-0.12926946588959115,-9.782829879797609,-0.5642734975397468,-0.028945020501351747,0.08009576685551649,0.09281056035389207,35.412851856189604,-0.7516746239904641,93.29363572753678,0.6537125536684192,0.23090626023148836,-0.6897061944251113,-0.20892026587219859
15.0,0.015305404219703694,-0.2374309824076314,-0.031705172749467415,-0.13579354187779802,-9.781253649576216,-0.5921367487698734,-0.07981835392313244,0.1344957742466168,0.038426061814663154,35.46463777673004,-0.789221307032453,93.45945744193216,0.6525650873763932,0.23192535940358533,-0.6904611705115631,-0.20887462592369227
16.0,0.021885360159553714,-0.23249309203341467,-0.03728197787875208,-0.13462211444469507,-9.78046553446552,-0.5895025064541195,-0.02965122355243323,-0.04101731601731602,-0.00800748870305322,35.44136878466516,-0.7801683643417514,93.4440154603461,0.6527447579799633,0.23159692379808533,-0.6904317721199346,-0.20877818252782526
17.0,0.02043437118437119,-0.23451634073811495,-0.04564001142226949,-0.12740880893300252,-9.78013990310763,-0.5847072649572649,0.07096678802827996,-0.02115015360983103,-0.003148416883295917,35.42629900621333,-0.7535525350545512,93.41583104395605,0.6529608955613404,0.23112107864391068,-0.6903967217784425,-0.20874879641298408
18.0,0.019860176474945382,-0.23350164577237878,-0.04693609958890412,-0.12478288304136886,-9.780054590570703,-0.5768197427873043,0.05502685375078701,0.06323573663938373,0.04051827652216585,35.39225947360745,-0.739223344737232,93.37418168540054,0.6532861865647452,0.23063885118342367,-0.6902793491256503,-0.20865572631269677
19.0,0.014803426261990302,-0.2358335235269064,-0.04749797461205141,-0.1186221737157884,-9.78130958112661,-0.5694911646790859,0.10870741043155807,-0.09088893698381542,0.014672539616588279,35.33545235448455,-0.6901766514434651,93.32537229523906,0.6536521702454112,0.22967005500725196,-0.6903423261287673,-0.20835746191839424
20.0,0.010541834098737086,-0.23530335450538875,-0.03911693085441281,-0.11380201427724909,-9.780654790563297,-0.5690046549201883,0.07755494009481129,-0.018793762846746418,0.01009269621958446,35.32081022462131,-0.6544066220927003,93.34149159116792,0.6536747924891373,0.22915170851673078,-0.6905546841908956,-0.208202819300931
21.0,-9.260652383244819e-05,-0.232767061868079,-0.04113414780934041,-0.11153128009147821,-9.780327395281642,-0.5703956277082332,0.07384260652383244,-0.03735904023230621,0.01090863098820414,35.36936913216177,-0.6373925170016852,93.35003394694873,0.6535214066961816,0.2293039407261073,-0.6905409378001623,-0.20854284581299654
22.0,-0.0003361218103033203,-0.23405684048738937,-0.04758118680789601,-0.11060182956186819,-9.782545831635854,-0.5602080108144145,0.20406518508573754,-0.017639711260694052,0.07091574733343209,35.323911845857566,-0.6295739046701974,93.28349852783231,0.6539819870099628,0.228862411145777,-0.6902882687635273,-0.20841216381325234
23.0,-0.003559972315840155,-0.23298412558794118,-0.04951760351468465,-0.10979778526721243,-9.784354283174686,-0.5559513814303174,0.19325490838302284,-0.017410972626013852,0.036586304095218694,35.30394256231251,-0.6256921039961483,93.25048482000668,0.6541924879994446,0.2286397668969135,-0.6901752109176327,-0.2083630311844307
24.0,-0.009975735521700255,-0.23438992371975637,-0.03469414806726735,-0.10851874269206964,-9.783684604273905,-0.56029421330956,0.10197900863129407,0.031476524141632316,0.030810777056206908,35.30825696105171,-0.6240783410138249,93.27558244370579,0.6540294074672235,0.2286723090487732,-0.6903211115438976,-0.20834858007354146
25.0,-0.015273426881704284,-0.2384387146994966,-0.04635941927443332,-0.10191725412658909,-9.784459294413187,-0.5572961298260657,0.08576639905099462,0.008902546416000167,0.033954529898503276,35.31219583627324,-0.5895550723697021,93.25956958609075,0.654123296700729,0.22823501581886213,-0.6903582491360445,-0.20841274946845656
26.0,-0.014938180734758952,-0.23715590528881642,-0.04148056089169695,-0.10008049086257761,-9.785168715306948,-0.5560859009345385,0.055221489176034935,0.04171815828864524,0.038325131212692494,35.2550912537101,-0.5826359591239191,93.25121281443873,0.6542799432282767,0.22777034927955878,-0.6904603082340169,-0.2080916837751669
27.0,-0.01016193749220416,-0.23468792495353896,-0.03587679283481528,-0.10257180223353281,-9.78572637225411,-0.5517564398764108,0.09477054248063443,-0.030597838178653605,0.03394571373451541,35.19217728435136,-0.5954028322968824,93.22627822546657,0.654553308135302,0.22752431331514889,-0.6903777028675389,-0.20777619023400695
28.0,-0.010809560808829919,-0.22921589314600394,-0.02396742179742002,-0.10541073776302823,-9.786232331185172,-0.5469342760631111,0.14543319406857225,-0.16072544429738786,0.021045093609812215,35.06151568323765,-0.6120447341207914,93.1952875582935,0.6549597680962638,0.22690100275538033,-0.690402822101422,-0.2070921811787684
29.0,-0.007955471648654592,-0.23408490509834756,-0.026027489700553325,-0.10826297256815015,-9.785943354532673,-0.5486007785845508,0.15219528367023083,-0.06675385118095199,0.03916597998462961,34.9570683254898,-0.6291502472447276,93.20432580679652,0.6550964778845374,0.22651174387308193,-0.6905844531497893,-0.20647829555943026
30.0,-0.0015951824395022177,-0.23331946948952556,-0.02882876399741757,-0.10936092744718282,-9.785396808700096,-0.5519512622720895,0.13996714920189673,-0.09632599095037733,0.060936352100447476,34.88034949019346,-0.6327766716200272,93.22582300919431,0.6551014828326431,0.2261742398341849,-0.6908314511385996,-0.20600081314052512
31.0,-0.007864155479863754,-0.2356969211246911,-0.033581112669471704,-0.10743097575636157,-9.784228678287574,-0.5573030120884257,0.1253239163828224,-0.005057436719428307,0.05237677820076137,34.861294496760834,-0.6209026247245041,93.25455736993254,0.6549562362037,0.22591784358164693,-0.6911009803744073,-0.20583795623161694
32.0,-0.008714285714285713,-0.23671889400921653,-0.04025345622119816,-0.1082027649769586,-9.784963133640545,-0.5533963133640553,0.05118087557603686,0.10368663594470046,0.056077188940092164,34.83309331797235,-0.6232142857142857,93.23415898617512,0.655135306391705,0.2257086829493087,-0.691037647580645,-0.2057099100184332
33.0,-0.009336405529953917,-0.23337918701423754,-0.03963319347960658,-0.10520028887818966,-9.786841254556705,-0.5471982254625489,0.06287958250223537,-0.009566510764151596,0.032723622670059835,34.814449497902196,-0.6221236845725291,93.20347169681546,0.6553646449539854,0.2254648418943529,-0.6909026729227594,-0.20570025559343813
34.0,-0.009590132827324474,-0.23329246691454625,-0.043579811703208,-0.10447206094763381,-9.785380101390569,-0.5540524876296206,-0.018489898366664915,0.0099361807794856,0.00833880374489709,34.78603082783426,-0.6232306210881078,93.24578403219738,0.6551619408990582,0.22537367355872426,-0.6911964404754758,-0.20547301636963858
35.0,-0.006169163669319433,-0.23283269745067026,-0.02789180419399344,-0.10746713302557431,-9.782688743865371,-0.5648827332570001,0.013279166986968113,-0.0012438653843819675,0.03463551886811537,34.74089310495502,-0.6273415468739254,93.30426646585451,0.6548912439292047,0.2253741385630817,-0.6915674499947366,-0.20506849170352748
36.0,-0.005046109554251952,-0.23590119721018366,-0.025058595854851772,-0.10880960337914666,-9.781293680688439,-0.5675634864441683,-0.035669887949051904,0.042472607176542436,0.046426386022522984,34.679259916532814,-0.6264443909484834,93.30887286426366,0.6549639988217454,0.2251314340626467,-0.6916768460457556,-0.2046845802826392
37.0,-0.003387598835218421,-0.23540912395071406,-0.02319784980565519,-0.10942323486929689,-9.780554674445593,-0.5691135404571073,-0.0458949216312778,0.006725847646363661,-0.0036414711417897573,34.649062561953045,-0.6257221954742417,93.31228493443598,0.6549923038786148,0.22501264135390386,-0.6917378726242606,-0.2044942418648218
38.0,-0.003643946045175193,-0.23630423224570615,-0.027326737452980056,-0.1098343906652696,-9.781936344240485,-0.5625164585902641,0.07793923473884673,0.00933425849877746,-0.01761146666615173,34.64691040442088,-0.6254212806933077,93.28483505632522,0.6551793800847237,0.22496285955652767,-0.6915787189212987,-0.20452866947941206
39.0,0.0016470433754978784,-0.2365641003195169,-0.037249529478706175,-0.11001444390948495,-9.786065420697092,-0.5457648706613563,0.033230110444843225,0.034043492216337665,-0.00184287506747786,34.66601924395617,-0.6252106403466537,93.20232324448139,0.6556723883156061,0.22490080656906078,-0.6910819722879742,-0.2047688406528939
40.0,0.003992500838913936,-0.23707540012547249,-0.04133073634758758,-0.11000000000000013,-9.788191593352877,-0.5371554252199418,0.05397088968646503,0.031451521716928554,-0.0043582490771946715,34.676564027370475,-0.625,93.15988514173998,0.6559242411534696,0.22486849441837725,-0.6908264434213104,-0.20489818138807436
41.0,0.0008134547205322373,-0.2343319327118077,-0.042195182445543544,-0.11000000000000013,-9.789257086999017,-0.5329325513196486,-0.020133934433404825,-0.008147039728045988,-0.053452951518069475,34.68304007820137,-0.625,93.13941837732159,0.656043805415444,0.2248600228543499,-0.6907009123558168,-0.20496846456500495
42.0,0.00244138544812594,-0.23524372273529728,-0.04893530879327701,-0.11000000000000013,-9.789789833822088,-0.5308211143695019,-0.03614305671058199,-0.011425643045768225,-0.02013940561123999,34.686278103616814,-0.625,93.12918499511241,0.6561035875464312,0.22485578707233622,-0.69063814682307,-0.20500360615347027
43.0,0.0024596956566142903,-0.23430807837644635,-0.0577398929108125,-0.11000000000000013,-9.789999999999996,-0.531955034213099,-0.06574076100436235,0.0034514013510161803,0.001660502472972383,34.6875,-0.625,93.13086510263929,0.6560768581720426,0.22487356645161277,-0.6906538384457479,-0.2050094526979473
44.0,0.00848876198617058,-0.2321975125236334,-0.05376388284556174,-0.11000000000000013,-9.788785578747621,-0.5415278017365303,-0.07439042496676528,-0.012489867593205268,0.01769740975131244,34.70078273244781,-0.625,93.17015266517163,0.6557757926438963,0.2250414347628082,-0.6908672644316026,-0.20504662535276869
45.0,0.008306475214062515,-0.23344410430167606,-0.04511631938633553,-0.11000000000000013,-9.78438556741906,-0.5574105065495361,-0.08508853545795261,0.005348720001853765,0.02866508302887838,34.71677015775015,-0.625,93.25927589926853,0.65519346209229,0.22525544271602127,-0.6913507922807991,-0.20500411728158424
46.0,-0.0016958943302424322,-0.2367813227303267,-0.024127418845343772,-0.10425715583825541,-9.782394964536419,-0.579470814383355,-0.13053694151361964,0.14603937659118202,0.03407929058166759,34.80299832285508,-0.5977396637891866,93.38932104822581,0.6542599653964404,0.22556694122170892,-0.6920550792094593,-0.2052391042132592
47.0,-0.005054108543599112,-0.2387440285591796,-0.0056578694720388675,-0.09542480690595184,-9.78103619194562,-0.5974069201403374,-0.06942363767551028,-0.06076956624949366,0.04729980519101485,34.88109650354476,-0.5454906860517945,93.49341677127327,0.6534906201198468,0.22557094904792852,-0.6927036082439844,-0.20548881786991896
48.0,-0.00969843602098017,-0.23644104423761408,0.005816916566378356,-0.09238982280781459,-9.780356805650221,-0.5981015682870624,-0.008653980013075706,-0.0700487975574994,0.03326065672120462,34.841224247977316,-0.5387557794585349,93.4945089721469,0.6535507899160271,0.22520697391675362,-0.6928308306654631,-0.20526662736345702
49.0,-0.010317618418318119,-0.23806893187269412,0.012183926294177878,-0.09087233075874596,-9.780055063166659,-0.6037788633867838,-0.07331612875303307,-0.042794195431161274,0.03342933852798173,34.791390466620854,-0.5496198252131383,93.52605667708707,0.6534404387037298,0.22494616613383495,-0.6931278597353625,-0.20490337529063138
50.0,-0.012530017682919291,-0.23634549145392048,0.02571160686398831,-0.09011358473421166,-9.780022716946828,-0.6116631437781295,-0.07756742884449921,-0.029476659583659595,0.03968951278830478,34.73873808357523,-0.5550518480904401,93.57384321577031,0.6532398364125294,0.22471954167308023,-0.6935100331825585,-0.20449374122740527
51.0,-0.011555097368713099,-0.23825321879016842,0.03513541462800698,-0.089913675601999,-9.779999999999985,-0.6256278765990451,-0.09268268252214909,-0.03239301154805631,0.03736089919425702,34.69090548183553,-0.5586197450356789,93.65508759304342,0.6528193973489409,0.22465882645602442,-0.6940358878396098,-0.20411728071861357
52.0,-0.009777094345419702,-0.23975275834835724,0.048045182587480584,-0.08999999999999991,-9.779999999999985,-0.6413539026513905,-0.10573851212746396,-0.013993180362501923,0.045024462807906826,34.65269944696047,-0.5616105313092978,93.74841761261928,0.6523057570980191,0.22468383405725062,-0.6946180186830941,-0.20376497058235216
53.0,-0.012369005412818603,-0.2379683670526232,0.06407427783258308,-0.09015406836783815,-9.779999999999985,-0.6619424218856089,-0.059417692722940674,0.0346767880650885,0.05494044552783118,34.67265395894428,-0.5625,93.86904435638186,0.6515611534293164,0.2249841619711683,-0.6952667370832348,-0.20360212020929186
54.0,-0.011182095388161829,-0.23946302101044525,0.05366871709577534,-0.09250127660816149,-9.779999999999985,-0.6584535208011371,-0.12721891332868704,-0.02346154687873513,0.028394851818058363,34.65380392757619,-0.5625,93.84066138683976,0.6517488264911424,0.2248969498429104,-0.6951360578880665,-0.20354283972290355
55.0,-0.01077182583104586,-0.2380977438546048,0.04418137920497092,-0.0912506383040807,-9.779999999999985,-0.6658018343396293,-0.12014513464922709,0.010015334729465687,0.04776638029225896,34.63839389927197,-0.5625,93.89278051229783,0.6515027215555194,0.22488356820347055,-0.6954207549243463,-0.2033750113855517
56.0,-0.016163039015229676,-0.24147067055877844,0.038835557637676085,-0.0906253191520403,-9.779999999999985,-0.6649708096429328,-0.004537376708777768,0.0318130192708912,-0.014805104086519593,34.65523372871712,-0.5576124144672532,93.89210750932585,0.6514917838080629,0.22493265095413018,-0.6953863601674517,-0.20348024535308865
57.0,-0.006602611319029227,-0.2379363278352205,0.04434581852107129,-0.09031265957602011,-9.779999999999985,-0.6545350326130295,0.02639136127340268,-0.04854758465735837,-0.03703964881745335,34.63515408520223,-0.5337534777050905,93.82814122364556,0.6518994868643292,0.22451987432818182,-0.6951360636221874,-0.20347662630929864
58.0,-0.005797621733105603,-0.23777953229566134,0.04069882805366676,-0.09015151515151508,-9.779999999999985,-0.6457645472806761,-0.006174112625725528,-0.08712121212121213,-0.06939630709792,34.582501503872464,-0.5481267388525453,93.77470694627952,0.6522994503130095,0.224163046182051,-0.6949339966239065,-0.20326772963806805
59.0,-0.007273199918361209,-0.23754568012632532,0.04609721461334365,-0.08999999999999991,-9.779999999999985,-0.6456364280880407,-0.04542576599028212,-0.04912023460410558,-0.07824348590477623,34.51702665613956,-0.5553133694262726,93.77223556013878,0.6524310070944322,0.2238083607816414,-0.6950431210490011,-0.20288456620222067
60.0,-0.005744668993245844,-0.23913020881711589,0.04381620466819708,-0.0925806451612902,-9.779999999999985,-0.644816045434641,-0.06786871414480522,-0.09591527226726469,-0.08336269202018727,34.421582588031825,-0.5589066847131363,93.76810363892906,0.6526161642863504,0.2232968364063022,-0.695183074719103,-0.20235211496596373
61.0,-0.00761329246338734,-0.23909833999018065,0.03966225678180137,-0.09645161290322568,-9.779999999999985,-0.6418752758942509,-0.07862521728745636,-0.06979903398309471,-0.09180964513032824,34.328994495384435,-0.5608560794044665,93.75049854478222,0.6528804895356484,0.2228275193224082,-0.6952189402847715,-0.2018890630303914
62.0,-0.005733110448480467,-0.2386529157117393,0.04515634797418478,-0.09838709677419344,-9.779999999999985,-0.6402102757036343,-0.09749774787725451,-0.0774302389577532,-0.08699200599105722,34.25134588292795,-0.5625,93.74588936258766,0.6530239782472046,0.22245915122853627,-0.695323979527041,-0.201483348443393
63.0,-0.006571345058062325,-0.24033330047561552,0.04800828151397411,-0.09935483870967732,-9.779999999999985,-0.6401320195722475,-0.06325889348896939,-0.0388067617076156,-0.051514698010191366,34.21381749180611,-0.5625,93.7482807027992,0.6530570546563488,0.22228639909178508,-0.6954215633510088,-0.20126545796558706
64.0,-0.006557043890933223,-0.23987520824241162,0.04781913776137012,-0.09983870967741926,-9.779999999999985,-0.6399731456610016,-0.02396549584106969,-0.002540225365522241,-0.0004645865732853874,34.19630574003795,-0.5625,93.74880432989423,0.6530751888384378,0.22220576556984156,-0.6954642248939801,-0.2011652086040057
65.0,-0.004981557998597541,-0.24057327774549428,0.046710802277269495,-0.0999999999999999,-9.779999999999985,-0.6399082995857193,0.01166229477396231,-6.932995031330106e-05,-0.001403427062733774,34.189516129032256,-0.5625,93.74909085090536,0.6530808621658979,0.2221758652825487,-0.695482537859704,-0.20112587806149057
66.0,-0.00601856841418496,-0.24103618502551916,0.0483442295145599,-0.0999999999999999,-9.779999999999985,-0.6399590373783925,0.012295561109459393,-0.008082452760847661,0.002950156551954809,34.1875,-0.5625,93.74974398361493,0.6530782326420883,0.22216753246287732,-0.695492922263186,-0.20111218389144914
67.0,-0.005614292217927755,-0.24038232124275316,0.05091005308210693,-0.0999999999999999,-9.779999999999985,-0.6412486992715921,-0.045650115155757065,-0.011494090460499148,0.034004644039153986,34.182297086368365,-0.5625,93.75676378772113,0.6530482250260141,0.22214713753381876,-0.6955382894588978,-0.20106155442247675
68.0,-0.007527408205738069,-0.24258027352460237,0.05262488541202122,-0.0999999999999999,-9.779999999999985,-0.6519953173777313,0.029058762986637593,0.03967886202781494,0.02133384923731893,34.18489854318418,-0.5625,93.81386576482831,0.6526969718678457,0.22225599562174825,-0.6958496869068684,-0.20095034342091583
69.0,-0.0031257350755078293,-0.24380528642258154,0.04337922363274135,-0.09977229601518016,-9.779999999999985,-0.6450868427495868,0.01955248855091811,0.04588460454637977,0.014662838801189917,34.22509870233213,-0.5625,93.77007329987146,0.6529296548807919,0.2223880224313674,-0.6955040174097908,-0.20124091451880696
70.0,-0.001357821371321001,-0.24076046228562453,0.02895998494633794,-0.09958694277149839,-9.779999999999983,-0.6251147163724559,-0.010552143697892978,0.07393219606117492,0.008345190803703887,34.25398518566817,-0.5625,93.65391229275947,0.6536114955914014,0.22231634535079356,-0.6947793737235958,-0.201608688030792
71.0,-0.001374763220222711,-0.23526963206447127,0.014197350384075264,-0.09809761885118692,-9.779999999999983,-0.608962888140145,0.0023980192928865895,0.10590170990974772,0.03175836089084324,34.29585780020736,-0.5606566820276497,93.56094232149493,0.6541043824731201,0.2223317121823092,-0.6941888284147932,-0.2020271560891287
72.0,-0.007437392602182407,-0.23247872862328658,0.011907742917851412,-0.09715875944831034,-9.780945024988624,-0.5954374244895297,0.12191049892551,-0.0653552027754833,0.04579868184507867,34.355880564303234,-0.5602153242032842,93.48170231850567,0.6544913978404864,0.2225295723783261,-0.6936154099995219,-0.20252092266229668
73.0,-0.007274892348342452,-0.23078438646066646,0.005152069721079271,-0.09356347786136548,-9.781635620172633,-0.5845055775900625,0.05571393514539925,0.06767672974015476,0.0414012292687456,34.41707874194262,-0.5459101382488478,93.415414922883,0.6547726476896236,0.2225906111919672,-0.6931905230306632,-0.20300522437227309
74.0,-0.01825312793074482,-0.2332494038565192,0.0002490492275767685,-0.08978424638527746,-9.782587395339768,-0.5782904683829955,0.10373076467218459,0.021948286257987382,0.05419292284798082,34.49692629832289,-0.5210253456221198,93.378008948972,0.6548564226189375,0.2227180605467833,-0.6929176925488094,-0.20352980437256923
75.0,-0.017927240864542088,-0.23527857467384955,-0.011029726747582276,-0.08428811579152333,-9.78332913610695,-0.5719615759070551,0.03067071785552022,0.10024948075550073,0.04614947751022262,34.58197694229895,-0.48269861102096445,93.34196874797169,0.6549256164412929,0.22276393553624976,-0.6926713655508534,-0.20408732577289554
76.0,-0.013881482443045368,-0.2342362562471604,-0.014399688453300453,-0.084418770688648,-9.783990783410127,-0.5684809502174335,0.059615759070552346,0.1415728240410203,0.05037969754007918,34.68089180242747,-0.4854011163756734,93.32094989290582,0.6548822549119231,0.22333544831063804,-0.692359223103784,-0.2046777700736029
77.0,-0.020393717141559034,-0.2353893684688778,-0.017990393976763816,-0.08703446485363792,-9.784800934640087,-0.5616030375803204,0.08197166872200948,-0.05135977153242033,0.028767767897708834,34.65961900434867,-0.5017305445576686,93.28056240669825,0.655165017578633,0.22333442633387424,-0.692103542228857,-0.20463049266515226
78.0,-0.016738318644922364,-0.23711477655084318,-0.020816075508685594,-0.08851268903745045,-9.784757762093822,-0.5623332336233385,0.09159030268567929,0.03098078889418794,0.05073490851608012,34.62658974534443,-0.5087550901481822,93.28025154785657,0.6552108821975828,0.22325944691651745,-0.6921394262331491,-0.20444708317765306
79.0,-0.014951061291459927,-0.2358848565061157,-0.024428984549483147,-0.08931394820536112,-9.78748487183032,-0.5557772158900103,0.04097520650273352,0.07546456006642088,0.04093397778827326,34.625753415473504,-0.536664411433538,93.23121160342137,0.6554546266684742,0.22331485246649785,-0.6918775985568069,-0.20451405872030273
80.0,-0.016570382636084,-0.2362386921890311,-0.02807224923835952,-0.08982735120399811,-9.788840118786581,-0.5525366001163958,-0.0031485062093678726,0.047299609568736245,0.01391533405193204,34.656159481301216,-0.5514279576477095,93.20732547458664,0.6555288304616265,0.22345443814629556,-0.691717217899031,-0.20464692912162352
81.0,-0.008737926705700018,-0.23322117146800891,-0.034252336501479255,-0.09143758184782308,-9.788218332905327,-0.5469129268321242,0.05396033010615606,-0.008212383525758291,0.010346835051195196,34.62929476323393,-0.5543331559358626,93.18554814365942,0.6557436924489226,0.22335700302228853,-0.6915598515054392,-0.2045797027545472
82.0,-0.010898406491344374,-0.2360712393236113,-0.039908105314919944,-0.09139427439980188,-9.788284244974282,-0.5438775170873182,0.060764421550454056,0.018059498733535528,0.027471829314705314,34.56533691503063,-0.5436845144790033,93.16969171960508,0.6559694679049887,0.22288553486877483,-0.6915894239059636,-0.20426748618855833
83.0,-0.008630666197393244,-0.23205032872518438,-0.03807292533474675,-0.09585842752248153,-9.789228611500697,-0.5384787095599661,0.07261756276702121,-0.015950538534539163,0.011618826535549331,34.52351868568722,-0.553837348403597,93.1462481750147,0.656213822132736,0.22280496246369386,-0.6914361836855182,-0.2040901864051094
84.0,-0.006714554002972894,-0.23041016749940083,-0.04386379229489559,-0.09809050408382135,-9.789614305750346,-0.5274459026856162,0.09704956974376214,-0.032467452777869076,0.028400362480654546,34.46403471451896,-0.5581686742017985,93.0840623397943,0.6566930608065236,0.2225058976543166,-0.6911299992922417,-0.20391259990215782
85.0,-0.005872822177373179,-0.2304778906392056,-0.051179013356614345,-0.09920654236449125,-9.78980715287517,-0.5188392847247962,0.14843082048711972,0.005674571669743025,0.052811332897019725,34.46716459853812,-0.5603343371008992,93.03236561012486,0.6570039201316227,0.22241347462441424,-0.690844123832079,-0.20399717882204663
86.0,-0.005185275443812804,-0.23054700696068153,-0.05419640104895866,-0.09971949509116397,-9.78994389901823,-0.5174216261471145,0.14232894598043525,-0.02118510721325683,0.038491209976771606,34.48184783532219,-0.5615357643758765,93.02959895781385,0.6570422338452089,0.22243939152782155,-0.6907855337007269,-0.20404431654251376
87.0,-0.0022211780497203475,-0.2322108364508319,-0.06350637703323987,-0.09876745305729406,-9.789999999999996,-0.5124355623984616,0.16442101636032364,0.004244507581121475,0.050320943582930606,34.48602162338214,-0.5625,92.99445785776997,0.657222886230483,0.2224177418163624,-0.6905845312662924,-0.20416575263097994
88.0,-0.006322360081599934,-0.23480736304676378,-0.07066712324182088,-0.09914912242307514,-9.789999999999996,-0.5131762440171062,0.07693127750071448,0.011153344670472031,0.039364561314524496,34.49325154351582,-0.5625,92.98783628433647,0.6572257949020555,0.22239105033100853,-0.6905869140934106,-0.2041656522104287
89.0,-0.006050983224295977,-0.23187312317144665,-0.06543350180269944,-0.0995745612115375,-9.789999999999996,-0.51662904641876,-0.04358652710657511,0.018502785902298063,0.021892636502668646,34.49805511696734,-0.5625,92.99348181573588,0.657164804475583,0.22240431311446918,-0.6906590356673117,-0.20413910126891188
90.0,-0.004287606631853141,-0.23322743153171666,-0.06656611595754588,-0.09978728060576869,-9.79,-0.5184520943668751,0.007862762939195293,0.00011791791100890757,-0.00018002279376858055,34.49939817043813,-0.5625,92.99694845056243,0.6571321281913025,0.2224090512536293,-0.6906992785879249,-0.20412030164252037
91.0,-0.004966383961087862,-0.23215135017446056,-0.06849811174221379,-0.09989364030288429,-9.789999999999997,-0.5192773668315314,-0.06912274854017751,-0.0001395992067633866,-0.01366833495504656,34.49969908521906,-0.5625,92.99797019302315,0.657119278562905,0.222409312828672,-0.6907168455378527,-0.2041108711145152
92.0,-0.004473118279569893,-0.23021663282953625,-0.06945597413339348,-0.09998533724340164,-9.79,-0.5198240469208208,-0.005252274607113312,-0.02338004737198286,-0.025693191217384767,34.5,-0.5625,92.9995417888563,0.657107682018574,0.22241094653470195,-0.6907308924535673,-0.20410337975562054
93.0,-0.003896683961200091,-0.23094631175276356,-0.06795541018121662,-0.0999999999999999,-9.79,-0.5199999999999998,-0.03575456801263252,-0.018897567486277165,-0.03115553801037672,34.5,-0.5625,93.0,0.6571044900000012,0.2224121100000001,-0.6907348599999994,-0.2041015599999998
94.0,-0.004678058500639146,-0.23194187532897226,-0.0726898263027295,-0.0999999999999999,-9.79,-0.5199999999999998,-0.07031191254981578,-0.00428627152417475,-0.0262540886532822,34.5,-0.5625,93.0,0.6571044900000012,0.2224121100000001,-0.6907348599999994,-0.2041015599999998
95.0,0.00044020227084743237,-0.23035156778705174,-0.07248191593352885,-0.09992179863147593,-9.789999999999997,-0.5190615835777126,-0.10656076114745469,0.04406381588841266,0.0077109886081660264,34.48191593352884,-0.5625,93.00977517106548,0.657096376999023,0.22235674202346045,-0.6907778183577711,-0.20402137419354832
96.0,-0.008106351981351982,-0.23039689074366504,-0.06735013910820362,-0.0997226859162342,-9.79,-0.5175456801263252,0.04421966642228739,0.028514068257011804,0.02560783470561696,34.496913301752016,-0.5625,93.01729453342355,0.6570476087253178,0.22254823718790895,-0.6907277465833521,-0.2041162335483871
97.0,-0.00503952834799609,-0.2311103560418078,-0.062457947966012464,-0.09986134295811705,-9.79,-0.5233696142567112,0.014549349340175955,0.05378091750319573,0.0405799719433792,34.49845665087601,-0.5625,93.06157065380856,0.6567851499271747,0.22271988577137375,-0.6909350824852241,-0.20407592056451612
98.0,-0.005575851455891779,-0.23257353242635515,-0.060464390895842476,-0.09993067147905846,-9.79,-0.5268460974509366,-0.014727718098433824,-0.019487401739165848,0.026480659097846596,34.499228325438,-0.5625,93.09530145593654,0.6566298006087484,0.2228495178856868,-0.6910239828555153,-0.2041202447983871
99.0,-0.005280365244074922,-0.23022478551914044,-0.056128150970892896,-0.09926152342281365,-9.789999999999997,-0.5279587280998574,-0.013467136022579571,-0.08616329626914304,-0.0010916558799623326,34.48495140612076,-0.5625,93.1028804444883,0.6566246764089684,0.22274250371801446,-0.6910856169311788,-0.20403071753115842
100.0,-0.018733195499762816,-0.23199953203450752,-0.05465211577615155,-0.09379870340038639,-9.789775596072928,-0.5287959733405911,0.18714419984964775,-0.05994514637079065,-0.035782928964249096,34.528103943742096,-0.543799672744273,93.10022310719464,0.6565397738839648,0.22266441128312214,-0.6911294116223323,-0.20424624419802428
101.0,-0.02327786029571305,-0.23099232184851926,-0.04680970664182563,-0.07425874579670816,-9.789348558749026,-0.530160551019764,0.13488908818451797,-0.0008049034694588807,-0.005558819394905554,34.62700982528388,-0.4313395330500373,93.1046106925181,0.6563263343964842,0.22188758514365362,-0.6914159052469648,-0.20480787503834763
102.0,-0.02724184167537076,-0.2333526896244494,-0.03894046171749725,-0.0698997713803275,-9.788839364763504,-0.5355628122745881,0.10892065444567453,-0.020116228122300593,-0.02213091289954006,34.668343622319355,-0.4091588557090794,93.13034788509918,0.656060645272394,0.22193898244863536,-0.6916003814307048,-0.2049861881775289
103.0,-0.024315423467671887,-0.23466219408839656,-0.03533626446671771,-0.07368888862271511,-9.788559467327985,-0.5404451402526411,0.062022993051632135,0.03978507590300741,-0.026392982866006123,34.65357552572468,-0.42131329882228163,93.1584657314059,0.6558993687065783,0.2221442518157155,-0.6917201609450689,-0.20486316038397467
104.0,-0.023671269471096348,-0.23752415667274177,-0.04083135633978072,-0.07654385780109364,-9.78927973366399,-0.5377105636662076,0.06585148122554832,0.025080284987076824,-0.03517867299618042,34.6824353148195,-0.42879304492306225,93.14389309881952,0.6559484062538161,0.22242215644623592,-0.6915351755119539,-0.20503090198594376
105.0,-0.01959346549758651,-0.23449768447870917,-0.038923140319708754,-0.0781316764461289,-9.789646879454716,-0.5346610142026513,0.10137747938358727,0.05371704938748598,-0.017004501744251246,34.710221190692735,-0.4545435627751212,93.12152916349973,0.656044206539538,0.2227057376176229,-0.6913030852537296,-0.20518830065726493
106.0,-0.016579592642871253,-0.23423395390188573,-0.04677159571446346,-0.07945100914266004,-9.789840290955091,-0.5323136558735936,0.013572521773938737,0.09740475446301079,2.4516655003001958e-05,34.73060710473491,-0.48007028885024716,93.09130743201467,0.6561488664329851,0.22294694395743575,-0.6910668866254207,-0.20533943557354917
107.0,-0.011633048578350125,-0.23366907286262134,-0.0546990489641261,-0.07994134897360708,-9.789946236559137,-0.5310642513167059,-0.02431774046430428,-0.0044829089797533,-0.014561102175057294,34.731284429689055,-0.4917696083719927,93.08030885372224,0.6561997145952948,0.22303097223416607,-0.6909821156041973,-0.20538217060338942
108.0,-0.027360244085961646,-0.23348389003091413,-0.04528844343075028,-0.0734575193094048,-9.7865833711949,-0.5592976316955538,0.19844056459774612,-0.6389193849760193,0.0027340514347408435,34.93514531605197,-0.44373521309103947,93.25389572730307,0.6548098178375878,0.22408170970711783,-0.691700022689925,-0.20623330672525564
109.0,-0.04513397642378864,-0.23143924947855918,-0.0394988202667402,-0.047316475076708595,-9.788291685597446,-0.5307139659947537,0.10609321293474823,0.7060823448229857,-0.02532897228451242,35.43103317119626,-0.28502804190450837,93.09438279675945,0.6548690980586429,0.22482085405146218,-0.6904226655910897,-0.20938588174770728
110.0,-0.04730431540083442,-0.23674089379280672,-0.03905178517768063,-0.04728957394388427,-9.789145842798721,-0.5249496806223326,0.15947606410650916,0.49047913767203877,0.0002542483490589279,35.68388329952936,-0.2812879486374722,93.06034054761759,0.6546147435876343,0.22628865113845711,-0.6897519936615499,-0.21087787513298162
111.0,-0.04363534715975388,-0.23607079289297833,-0.03311859520653158,-0.057029612051451455,-9.788845979100405,-0.5270386749317935,-0.08815942714361397,0.22074371031017448,-0.04195121434292764,35.71398844667518,-0.3338516072128751,93.07459610297735,0.6544793248515182,0.22719137023626798,-0.6895448657199164,-0.2110506382716948
112.0,-0.022077434375690867,-0.2336671887528546,-0.03082084093027402,-0.07086774720219632,-9.787070048373732,-0.5458223965194303,-0.24286338759860243,0.24962312017722513,-0.00010364034954443713,35.63030728756622,-0.4088612874774053,93.18034977364381,0.654002408470121,0.22783090065346834,-0.6900038496035323,-0.21036599728690253
113.0,-0.007362884726974554,-0.23536953653710527,-0.04153747733651958,-0.08596090676784049,-9.784303317913693,-0.5668505143808455,-0.04106308664445066,0.24236970230328442,-0.024660405534523054,35.67922481696526,-0.48834988499267806,93.3115463895644,0.6531623025297092,0.22936831789957654,-0.6902927491594363,-0.21036856275712815
114.0,-0.01156764235828856,-0.22798330482855883,-0.03926981740289108,-0.09004759486711535,-9.783660197856271,-0.5631277603746394,0.013849873849150506,-0.1575453937081223,-0.0157434880990699,35.71949108332862,-0.5190191433229356,93.29856663009711,0.6531856359030237,0.22989908441169454,-0.6900078982944642,-0.2106457531652345
115.0,-0.002908278535719451,-0.23411360526274,-0.0433980156272453,-0.09092101242053419,-9.782491623004798,-0.5770266131065741,0.13302608565896382,-0.09853514425939074,-0.018560149846636398,35.58460800242702,-0.5349674792284217,93.37416142898698,0.6529467562822737,0.229384541500678,-0.6906864994109065,-0.20973022936061764
116.0,0.0001158082766448391,-0.23486392886875523,-0.04486375386569265,-0.0931745618048315,-9.78626852844924,-0.5604868585200238,0.08254742114237,-0.12384068283694966,-0.05978225712699972,35.48754841490975,-0.5515165656023979,93.28145758175768,0.6536835774758746,0.2288018765854278,-0.6902890358180329,-0.20938088086159007
117.0,0.0002193663389109273,-0.23562707347378584,-0.04604114322000635,-0.0957891138094916,-9.788207793636381,-0.5411869707719885,0.06341009405164591,-0.1386832082061436,-0.06933176018080316,35.36346597002947,-0.5582683634463602,93.16567516494038,0.6545966431936683,0.22792577978344625,-0.6898614103707564,-0.20889595335890881
118.0,0.0010946601080444268,-0.23655304396931429,-0.04514225631411236,-0.0927332665821651,-9.789239474190794,-0.534660806564115,0.082911584464855,-0.09069063559358559,-0.029091542800693038,35.302696147812256,-0.5512363723827853,93.12481737495239,0.6549477275392468,0.22737639731631126,-0.6897980109896669,-0.20861622494007984
119.0,-0.006321557699590399,-0.23691737733424117,-0.04150927587271813,-0.09133579837647152,-9.789728845254789,-0.5329167410429683,0.053276831131858236,-0.017289194603098433,-0.0253304652406618,35.24324729482278,-0.5265140408111562,93.11306301713608,0.6551177949961231,0.22689551637002253,-0.6898914196881629,-0.20831179771744907
120.0,-0.00717784289841605,-0.23442175552079048,-0.039911954439397865,-0.09066088656551483,-9.79,-0.5288181180670662,0.041240741419131546,-0.014210866586261703,-0.02847285300368761,35.178155613283295,-0.5125703677641569,93.09434853755356,0.6553759250658503,0.22639611048865776,-0.6899167200334222,-0.20795511365886482
121.0,-0.0050698598656303126,-0.233249489686104,-0.04325020986877029,-0.09025712949976616,-9.79,-0.5258851098644226,0.0475020911396733,-0.026426669852270632,-0.014129510568314968,35.1471331585478,-0.5052771193659493,93.07795078392829,0.6555240141507159,0.22617117445742774,-0.6898941919766327,-0.20782463892620667
122.0,-0.0052431380407427595,-0.23406391312373498,-0.05601834610181987,-0.09065540194572444,-9.79,-0.5214983998975935,0.08777044715936447,-0.28898263633533855,-0.03862225322489526,35.05676272121829,-0.5123831833388888,93.05802426326582,0.6558278994923752,0.22562230063061495,-0.6899259620433266,-0.2073556132592698
123.0,-0.007347353587272943,-0.2327718057032573,-0.06647067784366173,-0.09048410370991009,-9.789999999999997,-0.5166778412000188,0.14141808712121212,-0.0916224148835036,-0.04536578732647281,34.884947594688015,-0.5377274607113316,93.02894374190997,0.6563225861821895,0.22461130349530195,-0.6900635268565649,-0.20640963111570898
124.0,-0.0051178455281277865,-0.23111791277718696,-0.07288298160173158,-0.09040086078795748,-9.79,-0.5090138585652699,0.14375494926780208,-0.08168279553108182,-0.02730448175256643,34.77842292885765,-0.5446236559139785,92.98247745408153,0.6567758465972982,0.22387896277246488,-0.6900285622694735,-0.20588803089036067
125.0,-0.0032418864737413116,-0.23149141606601287,-0.08194804322022062,-0.08963591426494646,-9.79,-0.5012534010568285,0.22552855830325588,-0.17674109534618607,-0.04086998281176708,34.705255441243345,-0.5485215053763441,92.92935301635528,0.6572035678072178,0.2233536528907687,-0.689879942309132,-0.20558106117350694
126.0,-0.0032960104411717305,-0.23095620150458857,-0.08372531769305959,-0.0898179571324732,-9.79,-0.48812122017767173,0.14621992031266223,-0.0994700080385564,-0.02653213162285743,34.56899356803591,-0.524260752688172,92.84841381736543,0.6579293129028247,0.22219769854855892,-0.6897592876552222,-0.2048961674153105
127.0,-0.005332081001435842,-0.2310541376186537,-0.09778431783270493,-0.08988849725543266,-9.79,-0.4729725404523793,0.14892281217886055,-0.03695018579091159,-0.03784363877609845,34.50276675329599,-0.5117943548387096,92.7617805133934,0.6585945026598097,0.2215399179660357,-0.6894018023427159,-0.20465967150847453
128.0,-0.007758904625840112,-0.23089119393151653,-0.09810770143834663,-0.08790612546056091,-9.789999999999997,-0.46947258498669797,0.18866289680301776,-0.033794618799659115,-0.01566852026781462,34.475188972933424,-0.5048891129032258,92.7405707307925,0.6587513172218892,0.22120770451820848,-0.6893970054455514,-0.2045523863969548
129.0,-0.010417913851381595,-0.2305299642114158,-0.08757742392016588,-0.08521609002556582,-9.79,-0.4761233892675424,0.15158951291763792,-0.011825969449457352,-0.016612175766661654,34.42500143435753,-0.5016381048387096,92.78090881452776,0.6585802083677685,0.22092689674049376,-0.6897468855490786,-0.2042373454416536
130.0,-0.01119242165847847,-0.22915626159535646,-0.08094130584549458,-0.08670127593478576,-9.789999999999997,-0.4792139349443152,0.24478332545857823,0.002191496648646384,-0.005032464192310124,34.42497546854793,-0.5,92.79653326198223,0.6584922164684295,0.22098366904354366,-0.689822017450567,-0.20420389047968873
131.0,-0.00871862604842865,-0.2298880681721318,-0.08246604462781643,-0.08835063796739284,-9.79,-0.47894865087835725,0.14365210032037184,-0.03327568221646218,-0.036071118070395876,34.43096571686485,-0.5,92.7996336107855,0.6585410961856897,0.22110779851393392,-0.6897498095321295,-0.2041869827453389
132.0,-0.008132364345652744,-0.23127342870578324,-0.08518812097868425,-0.08917531898369638,-9.79,-0.47980202641204106,0.10314079276525112,-0.021728628457082955,-0.013265284506858894,34.43397684204737,-0.5,92.80809893544907,0.6585141661599214,0.22118394759030038,-0.68976511796883,-0.20416932233017074
133.0,-0.006125773119514094,-0.22983045072404745,-0.08667538239324465,-0.08965119810377387,-9.79,-0.4801038480056298,0.0712297692678049,-0.0005110921817710438,-0.004227621199214844,34.43543294692789,-0.5,92.81165882745083,0.6585058634049855,0.22122284748038978,-0.6897672128847085,-0.2041608451118107
134.0,-0.005750381860155572,-0.23108576450030482,-0.0897191484490473,-0.08994222436206059,-9.789999999999997,-0.4807011457488106,0.02153487861841256,-0.052676780770184714,0.0006091384943094132,34.40115131818911,-0.5175953079178885,92.80601269818288,0.6585431976953497,0.22109241884531555,-0.6898160580199162,-0.2039896565972617
135.0,-0.007386505325840904,-0.23103878980913173,-0.09203097528374368,-0.08999999999999991,-9.789999999999997,-0.4754540875590464,0.08477742967993328,-0.14586174137209285,-0.013733105283418232,34.27834708422696,-0.5299820545367007,92.77648672944773,0.6589176286599039,0.22034550234754946,-0.6898832868337423,-0.2033503907589101
136.0,-0.010672338093618786,-0.22763389330938683,-0.0797574231257428,-0.08712442396313361,-9.789999999999996,-0.4848277172995516,0.16150649222387303,-0.17737521666265044,-0.028392607232279835,34.17220925639919,-0.5057744374065991,92.83291280818364,0.6587472145114479,0.21959774346941452,-0.6904755531846838,-0.20267397857477581
137.0,-0.014550444335088479,-0.22998918428423662,-0.06645702129867641,-0.08431173759826512,-9.789999999999996,-0.49402676187558237,0.1318808187290727,-0.1326501685415135,-0.03187255525823596,34.012160131045896,-0.49150201946231287,92.88532499991724,0.6587028066674886,0.21851875738935617,-0.6911513983190972,-0.20167038902173323
138.0,-0.012906272869370097,-0.23202229481979697,-0.05876367601358397,-0.08199457847655194,-9.789999999999996,-0.5017269100663421,0.08447004715572927,-0.08685673124679469,-0.03382797608473073,33.91332308430003,-0.49430661878267307,92.93365010226964,0.6585806340848276,0.21798184381745123,-0.6916199543689854,-0.20103671559897446
139.0,-0.015335420816969432,-0.2321655575159215,-0.06195808434110283,-0.08083599891569535,-9.789999999999997,-0.49504989762283935,0.09373349150778418,-0.06363030749872632,-0.036345195275991955,33.85743509655261,-0.4966034560189025,92.8931094522176,0.6589296709384962,0.21753457435131518,-0.691516522362551,-0.20073391012868502
140.0,-0.012291147475349805,-0.23294516769305076,-0.06927174288982893,-0.08025670913526706,-9.789999999999997,-0.4838447428033367,0.11183287916309241,-0.08038097566617207,-0.033865303463706135,33.82929530465569,-0.49763971549139635,92.82938990870025,0.6593387553046018,0.21725294859947686,-0.6912381280761273,-0.20065333860988468
141.0,-0.011569536871315459,-0.23156244559767755,-0.07370038757394672,-0.08005692599620498,-9.79,-0.47653988292240546,0.08896655478891949,-0.032860418708662076,-0.00513829689314339,33.81662057859512,-0.49910787617887786,92.7874916133363,0.6595839598550657,0.21711660742185823,-0.6910448288076491,-0.20064617373812213
142.0,-0.010733717494189332,-0.23106089000070723,-0.07877396403949123,-0.08000000000000004,-9.79,-0.47274574791281543,0.07908087263603031,-0.008599919980516992,0.010386305136846786,33.813626347172324,-0.4999097255657198,92.76578091103246,0.6597053278592215,0.21707046053018902,-0.6909362720010733,-0.20066339068784672
143.0,-0.010995168809684944,-0.23232269343559686,-0.08152829160087224,-0.08000000000000004,-9.79,-0.4707517858485596,0.04549102611098579,0.00036421911421911533,0.017846619106699754,33.812717121588086,-0.5,92.7542343409279,0.6597691358819457,0.21704730647597556,-0.6908779113014516,-0.20067612037040394
144.0,-0.01215267125347771,-0.231607996841868,-0.08276414580043612,-0.08000000000000004,-9.79,-0.47008308895405626,0.008547312062937067,-0.04953873411534702,0.003983793424317617,33.8125,-0.5,92.75048875855327,0.6597881904496576,0.21704146743401753,-0.6908592270576739,-0.20068221780058665
145.0,-0.013470688585607944,-0.23098356079404486,-0.08547813275434242,-0.08000000000000004,-9.79,-0.46999999999999953,0.026979780552109183,-0.07425170595533498,-0.004451961848635236,33.8125,-0.5,92.75,0.6597939168436724,0.21703326567741932,-0.6908608074789084,-0.2006758356774195
146.0,-0.006003101736972706,-0.23295331885856085,-0.09333514267990073,-0.08079404466501242,-9.79,-0.46785607940446616,0.013332622518610423,-0.0020161290322580627,0.0023902760545905706,33.80108560794045,-0.4995037220843673,92.7366004962779,0.6599334934590568,0.21690967993052107,-0.6907958669330027,-0.20062107152853606
147.0,-0.01202183987739017,-0.23108722722960154,-0.0929202351846446,-0.0808524303021457,-9.789999999999997,-0.4674859144650414,0.07669167252043499,-0.032518975332068316,0.0036537207159538752,33.79445883812582,-0.4888410451029047,92.73144066559627,0.6599822149268719,0.21681320514552618,-0.6907671020718145,-0.20065279603941039
148.0,-0.018806426851137484,-0.23424601856871785,-0.08154083475822094,-0.08042621515107287,-9.789999999999996,-0.4826784411034885,0.1445926860586046,0.11402925081322851,0.018960356901755737,33.83942411952374,-0.4723007068832496,92.81998300560919,0.6593717441270306,0.21713502394603498,-0.6912084931603312,-0.20078025222707846
149.0,-0.01950906019976229,-0.23322990795196058,-0.06867196307803519,-0.07931549186726156,-9.789999999999996,-0.49474034257137967,0.1638542136025842,0.11001562616631505,0.02788625861392135,33.88253054971044,-0.4538922889254957,92.89018084361805,0.6588837381785224,0.21738112581593472,-0.691555007905551,-0.20091591303499778
150.0,-0.016026511974948573,-0.23018628493581056,-0.05408787854336902,-0.07965774593363079,-9.789999999999996,-0.5032397365030812,0.17699084974371665,0.06689038761475029,0.052963429950683476,33.94989956658033,-0.44468807994661885,92.9383699917015,0.6584716034311175,0.21781898206551764,-0.6917244917834295,-0.2012017613202104
151.0,-0.016152067839758623,-0.2281945875124243,-0.0487252996570297,-0.07980405907103377,-9.789999999999996,-0.5065730137777411,0.21180406594615403,-0.042608484487764255,0.009723212566934206,33.99398532554677,-0.4638206492274329,92.9565581895451,0.6582902058222586,0.21821967942890527,-0.691711936548261,-0.20140962835285078
152.0,-0.018188646851426515,-0.22779957221212987,-0.06385764402262964,-0.07942559293295101,-9.789999999999996,-0.5162179478812519,-0.031131460612127862,0.21414697061969373,0.027401450940636663,34.03795645741498,-0.46588152352900714,93.00868100186422,0.657884889439387,0.21857483251281856,-0.6919374859783278,-0.2015844827444251
153.0,-0.01762475880641344,-0.2259320097803204,-0.07624074167566589,-0.06854283979820394,-9.789999999999996,-0.5150134034062013,0.12073211514410456,-0.05973668904877477,0.013634954096771321,34.121023589461316,-0.40948660398198755,93.01119190061573,0.6577660131902898,0.21831392173663483,-0.6920007554502341,-0.20203939322203013
154.0,-0.02891990628492716,-0.2289345260059464,-0.08243936725360351,-0.06662921949392822,-9.789999999999996,-0.5026843548120301,0.3886103695558453,0.08814825201605209,0.08554877672112993,34.07520908318321,-0.3961635528870512,92.94003279774435,0.6582717160949112,0.2177667529502872,-0.6917257924344828,-0.20191009182762717
155.0,-0.0203370112992005,-0.2291581632444124,-0.0933023044904751,-0.0728903941040123,-9.789999999999996,-0.4917704277086144,0.008367214467894318,0.1003147998602294,0.047306375846715834,33.90707129407484,-0.42655338492783845,92.87799713977658,0.6589370843189819,0.21706340131430157,-0.6915526321251039,-0.20106938355014348
156.0,-0.020455373918034384,-0.2307991152967392,-0.07202020240960134,-0.07484592399430509,-9.789563834620623,-0.5039620906750035,0.3329053446794933,-0.36458347654314605,0.013722249112122381,33.82174248650878,-0.4317398074918477,92.94589299621856,0.658680675634048,0.21676410351647948,-0.6920763995404163,-0.20044399724056872
157.0,-0.018553312353173174,-0.23654679736979878,-0.07056766323562791,-0.07787357128601041,-9.789781917310307,-0.5114798823654472,0.27834380730553565,-0.11601610541812107,0.04977051275816743,33.749316030901795,-0.45047959608387067,92.98576419630618,0.6585530060810763,0.2166340537204754,-0.6923829469288607,-0.19995377236793638
158.0,-0.018531457439091265,-0.2332191002844286,-0.05630078983746836,-0.07304928764910375,-9.789890958655151,-0.5162066934429279,0.0917978866410522,-5.520939873046582e-05,0.012325407772653497,33.75907330459657,-0.41886508558272595,93.01377394269383,0.658358016400352,0.21638530354188323,-0.692641571281795,-0.1999730733997709
159.0,-0.03310655053214164,-0.22767035403366337,-0.04347419164172446,-0.06725281842772649,-9.789945479327574,-0.5229240072437376,0.11204997698668073,0.0616719440717561,0.03502095081413013,33.839946118504116,-0.38387530712828055,93.05227707631363,0.6579785095402297,0.21654852300161243,-0.6928352825480275,-0.2003744643372382
160.0,-0.03626041020942548,-0.23131466749695617,-0.04941095442845635,-0.06189586043610895,-9.789523931809647,-0.5260429113562474,0.27492568783434596,0.04215863593592096,0.05099154612888489,34.00773070909484,-0.3589579533457563,93.06829532791261,0.6575864234088656,0.21722301679751377,-0.6927313637468117,-0.20129088025148328
161.0,-0.03500511045076757,-0.23578227695611104,-0.05583009777536969,-0.0632185713627252,-9.789775596072927,-0.5263785924209743,0.1256673161926209,0.17436562063670788,0.02208226372415575,34.14868856567016,-0.36361917315800674,93.0708820370015,0.6573265817901974,0.21816246970722014,-0.692446762292056,-0.20209556382518
162.0,-0.018067138168965578,-0.23110638823084168,-0.05070402181442937,-0.07053303691743179,-9.789887798036462,-0.5228993210654996,0.15387098738513638,-0.0450983052173651,0.022012080895939486,34.18229738570277,-0.4066898214989596,93.05351602451405,0.6573827550736807,0.218828992980531,-0.6921159555185057,-0.20231518955817893
163.0,-0.021975461713437127,-0.2292860521487698,-0.04185514710793153,-0.07516220569574256,-9.78994389901823,-0.5209896519617667,0.24564750865283,0.020212018888901985,0.050201244593208946,34.24894061762152,-0.44208879905398346,93.04012521558413,0.6573432123904519,0.21959678513527092,-0.6917903952323712,-0.20272144713075302
164.0,-0.01788648801354024,-0.23304960336805902,-0.049651843907268386,-0.07787833787091278,-9.789971949509113,-0.516605215591273,0.23969028833004577,0.03054397201951034,0.050514321500626264,34.278675814326746,-0.4719974787058773,93.01235505996354,0.6574486887006024,0.22002076171740512,-0.6914932283169954,-0.20294868539689442
165.0,-0.015046775818576826,-0.23817298052715932,-0.05925662449092861,-0.07930616285785005,-9.789999999999996,-0.5090291580102653,0.16890162765348393,0.06178373746540564,0.036912989727320225,34.33271496313685,-0.4832375191565852,92.97220349793622,0.6576042443872767,0.2203859848125468,-0.6911137340730712,-0.20335618743600517
166.0,-0.009175391819356837,-0.2330649848872356,-0.060379937898913244,-0.0800525884202974,-9.789999999999996,-0.5031507301377774,0.1231065684274475,0.08418248881855432,0.031281094294150144,34.38923271000992,-0.4897978683376959,92.93607173281782,0.6577237296529439,0.22069673112232588,-0.6907955873293656,-0.20370920569088707
167.0,-0.015115288025003129,-0.2309660292189442,-0.055557403597846555,-0.08121501380005498,-9.789999999999996,-0.5021096481128717,0.20304230790456743,0.011969232316043146,0.04173561143663298,34.46101908695715,-0.4908848194955352,92.92894061980039,0.6576329784296607,0.22119669794040758,-0.6905851561374942,-0.20416490537489784
168.0,-0.012789060562291185,-0.23245823667585827,-0.05957977706774048,-0.08061685706365537,-9.79,-0.4975204622051033,0.20364977714068952,0.023245894792897685,0.04687294830831182,34.54978110729344,-0.49484341489035755,92.90657234356078,0.6576205584761674,0.2216515016396754,-0.6902901758106827,-0.2047002925214835
169.0,-0.012981261274744433,-0.23329089111250112,-0.0734128507260312,-0.08030842853182771,-9.79,-0.4838203011053898,0.1418025791073485,0.05774657966081992,0.03041606454295545,34.59789344284043,-0.4974675285595483,92.82445247187815,0.6579949262377371,0.2217920542277461,-0.6897562618825743,-0.20511771776469895
170.0,-0.013377238653012491,-0.23369334389447158,-0.09398892780680837,-0.08015421426591388,-9.79,-0.46687349366119907,0.14678105494956867,0.07680217546090849,0.03346010949532914,34.615402610960786,-0.4989017750324623,92.72474150964386,0.6586370362542542,0.22173360461142935,-0.6890652799979837,-0.20546252198596648
171.0,-0.012813741516144565,-0.23282640726568088,-0.10237945525613747,-0.08007221954742422,-9.79,-0.4581360475299,-0.03203445748649093,0.22022161934937298,0.009881325519903086,34.63260895831143,-0.49858052132328434,92.67332740569793,0.658949674935571,0.2217747093274457,-0.6886844814077823,-0.20570995549835963
172.0,-0.01242942547826783,-0.23444983190586743,-0.0996838204394461,-0.07849131513647646,-9.79,-0.4637164812294884,0.006268056986912671,-0.0029648634485311687,0.007587092521812216,34.68604263700172,-0.4676789314516129,92.70734627016128,0.6586079363069767,0.22190546030362496,-0.688906364992436,-0.20591333548063434
173.0,-0.014613983830945327,-0.23279966781397593,-0.09305961338349475,-0.07924565756823826,-9.79,-0.4715570619546947,-0.005183715380613142,0.04706629462499,0.006913215150484271,34.69616885455855,-0.45161290322580644,92.75621316687344,0.6582824725732308,0.2220221748800228,-0.6892017419558956,-0.2058825008722186
174.0,-0.015304816151590347,-0.23187960560944443,-0.08838338408902924,-0.07962282878411914,-9.789999999999997,-0.4784970533498757,0.0752212631118881,0.03282251602564103,0.0007689282323858938,34.69267990074441,-0.4596774193548387,92.79904988744454,0.6580319460807065,0.22214454278576873,-0.6894327532226106,-0.2057634144942242
175.0,-0.012670125573351383,-0.23165125197383263,-0.08287540416572672,-0.0798114143920596,-9.789999999999997,-0.488231145198887,0.0034156703511542263,-0.07995150011279044,-0.025613767952477627,34.65590739905256,-0.4798387096774194,92.85947251673058,0.6577458397673512,0.22211268910564697,-0.6898156663779231,-0.20539956308609675
176.0,-0.008494455576049508,-0.2309476519685248,-0.07709527032107676,-0.08180324040286091,-9.789999999999996,-0.4931614053245932,0.005913425600332623,-0.059945462507132334,-0.0292086866327853,34.60315713698067,-0.4918479054152678,92.88920202978552,0.6576588560081831,0.22202460910631933,-0.6900247410467926,-0.20508017218251698
177.0,-0.0081315283694847,-0.22999436226069664,-0.06820553671973989,-0.08611005692599616,-9.789999999999996,-0.49705961085088224,0.03100706278720383,-0.028813051982428062,-0.02723095899729336,34.5617879125887,-0.4969165085388994,92.90823685245434,0.6575998031042358,0.22202668357008495,-0.6901549286936495,-0.20483232738950674
178.0,-0.006613023377162833,-0.2299773300137231,-0.057901475029544354,-0.0882163187855787,-9.789999999999996,-0.5040161577827615,0.01614737679551183,-0.010076783153406677,-0.015694583190653595,34.52760611510328,-0.49946631878557873,92.9469562335811,0.6574154234692546,0.2220711113346326,-0.6903896479704805,-0.20457891199515174
179.0,-0.006490773663165972,-0.2305971694056886,-0.05364037583344275,-0.08926944971536996,-9.789999999999996,-0.5074113046978327,0.08673326806540009,-0.02785730653271507,0.003470523653940064,34.51077886400326,-0.5002371916508539,92.97607464660483,0.657280259522995,0.2221181386145302,-0.6905482208865115,-0.20444145374195505
180.0,-0.00566229787752629,-0.22941393172141722,-0.050735143928451576,-0.08979601518026559,-9.789999999999996,-0.5089231499051239,0.08101631633964043,-0.026605828241919607,-0.0077344351427269375,34.503464945198104,-0.500118595825427,92.98947305155266,0.6572172566749873,0.2221446801601486,-0.6906195721856805,-0.20438209171701846
181.0,-0.005572868793860609,-0.23040603434440712,-0.058997826118673484,-0.08999999999999991,-9.789999999999996,-0.5081133919843601,0.11281477509811645,-0.02752093637384923,-0.015567324666987643,34.50087265286471,-0.5,92.97810525816665,0.657271355796093,0.2221271982016601,-0.690572639137159,-0.20437953922907448
182.0,-0.006568914956011731,-0.22896383186705782,-0.06911045943304009,-0.08999999999999991,-9.789999999999996,-0.5040566959921801,0.07945381231671553,-0.030791788856304982,-0.023032746823069404,34.5,-0.5,92.925800342131,0.6574955515884651,0.2220553237878785,-0.6903465469012705,-0.20445252901270758
183.0,-0.0041348973607038125,-0.22752688172043017,-0.07216520039100685,-0.08999999999999991,-9.789999999999996,-0.49764418377321595,0.0597507331378299,0.020100195503421306,0.06185850439882698,34.50830889540566,-0.5,92.89870478983383,0.6576980775073314,0.22205711424242414,-0.6901196791495601,-0.2045700351124145
184.0,-0.0014907135874877814,-0.23062072336265887,-0.07749755620723364,-0.08999999999999991,-9.789999999999996,-0.4909188660801563,0.026851173020527856,0.08797653958944282,0.08092008797653959,34.55254154447702,-0.5,92.86284213098729,0.6578484877810362,0.22220656949169112,-0.6898550146725319,-0.20482873426197462
185.0,-0.004285318276651933,-0.23210902963189917,-0.07817372083862215,-0.08999999999999991,-9.789999999999996,-0.4852836988080125,0.025279577187376896,0.09503071154491473,0.09133447498577493,34.585972264775826,-0.5,92.82983223545031,0.6580025762665411,0.22231327664040504,-0.6896071101359771,-0.20505645876796366
186.0,-0.005752323426854,-0.23372871711822124,-0.07690163551742756,-0.08999999999999991,-9.789999999999996,-0.48428677725740776,0.0012314709443982455,0.11393408689689383,0.08697349031966269,34.63639008038984,-0.5,92.82641046964591,0.6579297247745146,0.2225999293409784,-0.6894890149843161,-0.20537883413606456
187.0,-0.008853678819976368,-0.23346748661385155,-0.0677592244058301,-0.08999999999999991,-9.789999999999996,-0.4990251090588116,-0.048519772836696284,0.1317929232138428,0.10507032287244132,34.721665225923175,-0.5,92.91473260530194,0.6572581115954683,0.22316586172816266,-0.6898540163729009,-0.2056993690475044
188.0,-0.008229380954465211,-0.2328114559168965,-0.052777461665280634,-0.08976539589442807,-9.789999999999996,-0.5094978917728077,-0.05714417283086036,0.11707864635765454,0.09911996104521381,34.81145272537606,-0.5,92.97502270538801,0.6567277593827783,0.22376835184159843,-0.6900427671820517,-0.2060949316816213
189.0,-0.01202769145474971,-0.23275470156548633,-0.037503100334106594,-0.08910068426197451,-9.789999999999996,-0.5243066193956902,-0.036865708116309945,0.10255814038312835,0.10321650544929312,34.92791905574765,-0.5,93.05815223734699,0.6560004936967654,0.2245804163093623,-0.6903169956267052,-0.20660818142732087
190.0,-0.010903183159321823,-0.2333864985920836,-0.02408550076147573,-0.08955034213098723,-9.79,-0.5325555910948301,0.00944875217865107,0.10826006163632547,0.10511529875997858,35.0024164368772,-0.5,93.0967668986446,0.6555541292785516,0.22515859902235258,-0.6904316251645242,-0.20701024110109045
191.0,-0.009529588690879016,-0.23354447702834813,-0.018730280472215963,-0.08977517106549357,-9.79,-0.5371805398902169,-0.013134916159109705,0.07172602263328069,0.0628715034965035,35.03861192570871,-0.5,93.1156830400782,0.6553093756503492,0.22544770126370384,-0.6905101618552514,-0.20720037092127214
192.0,-0.010800496994045384,-0.23434497044174477,-0.02209113288145547,-0.08988758553274676,-9.79,-0.5390203774719897,0.07430971805971806,0.03712563757926661,0.02491824371864694,35.05483260019551,-0.5,93.12237292277615,0.655206656872095,0.22557910607662207,-0.6905363753728841,-0.20729038631107585
193.0,-0.008748244586954265,-0.23560845785039344,-0.026223963312673005,-0.08995112414467246,-9.79,-0.539847432137754,0.04824356870727838,0.03456966140937914,0.029076912670662668,35.06146138807429,-0.5,93.12521383186706,0.6551691684360477,0.22563478513752894,-0.6905415164938709,-0.20732796598789366
194.0,-0.008305486628067276,-0.23710227854582705,-0.03181200027570996,-0.08999999999999991,-9.79,-0.539965260545905,0.11705936872267518,0.03836327063393595,0.058383444232738585,35.0625,-0.5,93.125,0.6551884424218366,0.22564651566749355,-0.6905149846203468,-0.20733670260049608
195.0,-0.00923835125448029,-0.2347769457245265,-0.03449036738351255,-0.08999999999999991,-9.79,-0.5399999999999994,0.06369407642089094,0.02592015889016897,0.01134122583845366,35.0625,-0.5,93.12550403225806,0.6551996033870973,0.22564696999999978,-0.6905040108870963,-0.2073359377419353
196.0,-0.002888854182442327,-0.23974280044063673,-0.04265927103841688,-0.08643798273512032,-9.786583371194908,-0.5604270786006358,-0.10570496230068582,0.39671653070303536,0.03438603169194378,35.161545888232624,-0.4900045433893685,93.26109935824624,0.654285886184689,0.22624817178100856,-0.6910962513136072,-0.20760195230349832
197.0,-0.025893198573159384,-0.23573449996574436,-0.03202430533018902,-0.07680599727396634,-9.785674693321212,-0.5638073602907768,0.16911079492186087,1.3318219056160439,0.08185315409481982,36.0847626079055,-0.439118582462517,93.28755217798727,0.652457580350409,0.23119287945933664,-0.6895563810498069,-0.2127850431462971
198.0,-0.0248306422182685,-0.23207577109292915,-0.03699827695351955,-0.0742948392441938,-9.787837346660604,-0.5426437180960526,0.23129920082905187,0.5377505593663712,0.0024088766204649337,36.89621194911404,-0.4373012267151295,93.1735436411758,0.6516727455950334,0.23570476708260946,-0.6872589748702544,-0.2176244608995243
199.0,-0.022685534766444686,-0.2327008283384397,-0.04683712665345763,-0.07182483897693562,-9.7889186733303,-0.5168448307000302,0.191443542135887,0.24519958262039174,-0.01928123640931322,37.301936619718305,-0.43639254884143575,93.0256159066094,0.6517806038434601,0.23784019096554707,-0.685591002743045,-0.22030010206755302
200.0,-0.023300169020563505,-0.23256131348495795,-0.050827455677657445,-0.07058983884330651,-9.789459336665148,-0.5026159637371115,0.0984653102908174,0.12330954127964842,0.004548653545099011,37.50479895502045,-0.4359382099045888,92.94625994423212,0.6518584268763672,0.23889453790212822,-0.684733104257107,-0.22163077690071198
201.0,-0.02226085583799993,-0.23351048234622568,-0.052721000756733166,-0.07008365181601944,-9.789836437982732,-0.49486318404938223,0.05603026462361791,0.04765807333440361,-0.0026045744262063047,37.60313493866424,-0.4360233984552476,92.90235248461039,0.6519260920024725,0.2394029238147623,-0.684285455211243,-0.2222877936707104
202.0,-0.011574744673416407,-0.23506536758624058,-0.04992184949775082,-0.07599620493358633,-9.789999999999997,-0.4896064056120978,0.08124795429112318,-0.16102594235302967,0.1352015078533105,37.52822580645161,-0.4588472485768501,92.86318983238456,0.6523025159537977,0.23915759177361837,-0.6841491182559943,-0.22187894455350465
203.0,0.010785901637894045,-0.23557140076874428,-0.04032937461020952,-0.10392789373814038,-9.79,-0.48261614982108314,-0.05181280215673005,-0.03980062078970998,0.1973226923298081,37.27487593052109,-0.6094639468690701,92.81546519972753,0.6530806347938234,0.2393793842233294,-0.6837888896182907,-0.22046817123398474
204.0,0.029550992334673558,-0.2394847113670644,-0.027837334076423255,-0.12370018975332073,-9.789999999999997,-0.49286994599328576,-0.1147032284603442,-0.34603254114639315,0.17705588213178344,37.1178696540651,-0.721774193548387,92.87495073711867,0.653029637987447,0.23991046478733027,-0.6839754818817689,-0.21945708488658588
205.0,0.03823262505994954,-0.23359726421586008,-0.0011728214859144659,-0.13423258335592303,-9.789041474654374,-0.5139971849782097,-0.16988565277227516,0.20299004837667076,0.27519705152532475,37.084338052839,-0.7805587557603686,92.9980168432137,0.6523734460766728,0.2407052729051859,-0.6844634844201472,-0.2190259410515879
206.0,0.0388198763808037,-0.23852862815209158,0.0029848482925374257,-0.14056416451573622,-9.786528684966266,-0.5350607710772302,-0.13457623703813168,0.17869590885766323,0.3083630814500792,37.12512250935545,-0.8170705186001468,93.12444671052691,0.6515462939289394,0.2416262105736776,-0.6849333871118969,-0.21899912668755178
207.0,0.04083037733380114,-0.24293414329805718,0.010128978768117452,-0.1441016810651331,-9.783692913911697,-0.5537967856470456,-0.21709709452882456,0.10968586781999454,0.26552099586193306,37.13200249891736,-0.8381388951092358,93.23440289240088,0.6508704090663266,0.24213315695205975,-0.6854545287823649,-0.2188263228637678
208.0,0.04446198058466023,-0.2405018111031229,0.021860660954423846,-0.14140107094731308,-9.782496226541095,-0.5625860922208994,-0.15419060681776214,-0.11496830323994955,0.26514927850523096,37.13217016119211,-0.8235625351122215,93.28900222606575,0.6505526080432661,0.24201160082838719,-0.6858377755517636,-0.2187142206236598
209.0,0.04331109330127562,-0.24226561143391434,0.019308956121017823,-0.14326220530287864,-9.781234288385747,-0.5717272423695985,-0.23338342349562546,0.0522690843518333,0.2693139317438055,37.020298620850866,-0.8349337140185666,93.34051417551592,0.6504434224413944,0.24159803760902954,-0.686323116521138,-0.21796812787390635
210.0,0.051754624991651635,-0.2390429439658051,0.02830655179322781,-0.14395137914913514,-9.781001936819596,-0.5709327456087623,-0.19382304815334267,-0.28100831496694045,0.2536949843050825,36.79521555466506,-0.8396154745208041,93.33663093568424,0.6509026469004207,0.24028745982755623,-0.6867528389817671,-0.2166792048033126
211.0,0.046590262472450406,-0.23341114005209376,0.03486388833233152,-0.14040719962599346,-9.781779603285898,-0.5631685700928337,-0.0032637914913511146,-0.4154720162959994,0.2832728077205637,36.521161423896345,-0.8181247078073867,93.29442579977294,0.6516866308181393,0.2383491819988646,-0.6871440100776065,-0.2152169406414881
212.0,0.03713838242169238,-0.23793909036265276,0.030500033393441525,-0.13824370533627198,-9.77750530955719,-0.6345809790957055,-0.9296880217725239,0.11061494022573967,0.3226875041741802,36.36174322113137,-0.8035305216055567,93.71367586655981,0.6494257477883523,0.2380856776961196,-0.6899042011532093,-0.21346731145742348
213.0,0.043139153506614916,-0.24267726756646815,0.026471005385451392,-0.1412586352404025,-9.77356601883389,-0.7302532740751533,-0.6060494116682756,0.15050978124260034,0.3090849893444564,36.42316275356248,-0.8227644229309727,94.27729029677663,0.6459196165747376,0.2397220345069063,-0.6928580337101751,-0.21268897809514103
214.0,0.04322625878095723,-0.24320960152516957,0.021691723890882378,-0.14570996278149168,-9.767504207573623,-0.799345531046793,-0.6236612265714649,0.09129751734941076,0.3039232550408918,36.519473081850364,-0.849357441880233,94.67690839723625,0.6432984802827604,0.24143943442165594,-0.6947794782260555,-0.21244312484941386
215.0,0.04203248422918828,-0.2450351643058516,0.027947244433920455,-0.14794253899443255,-9.763413394109389,-0.8601727655233957,-0.35078510637329013,0.058976011618893806,0.2816995307462523,36.57287018147818,-0.8626827531981809,95.02674624930935,0.6411093364332386,0.24260205862787854,-0.6965443421824079,-0.21199684061006285
216.0,0.0440597203754637,-0.24786821328897068,0.026227011651275334,-0.14917931063793635,-9.761342040673206,-0.8875805389094301,-0.11526661817028226,-0.07489780531724781,0.1524278976779415,36.60002350822389,-0.870083195205916,95.18320277636109,0.6401173191083911,0.24316465974989077,-0.697315530215795,-0.2118142980247603
217.0,0.04783163671882114,-0.24172279294649568,0.03094894294578727,-0.13911279697394707,-9.767260548153335,-0.8090964873135276,0.565248294467921,-0.5808395057441779,0.06202799745982161,36.311231950465384,-0.8140592460368057,94.72497270655361,0.6434029002461077,0.2398002794728883,-0.695627819254695,-0.21115889470896737
218.0,0.03659177143858946,-0.2434884736970993,0.02147887029987311,-0.1291678354371202,-9.77379156439924,-0.7434534244974284,0.31127761741968873,-0.32397608229535385,0.07162677976607895,36.048180735741,-0.7498173796166433,94.33507005317905,0.6462136967506196,0.23673555287916181,-0.6942925479729001,-0.21041729263796377
219.0,0.028635021885547833,-0.24231898870959187,0.025395297432814976,-0.12410004675081823,-9.777185600747998,-0.7105804653504512,0.05266259515525379,-0.042487323871002,0.07716317857720821,35.925672253726574,-0.7191084416693638,94.13365824309076,0.6476159642799701,0.23522756537638304,-0.6935958358083326,-0.21011414364055458
220.0,0.018441934905907554,-0.24606835252171866,0.036034054246361406,-0.10932652107126159,-9.781496026180449,-0.6505114308319074,0.6515905141674886,0.2634209566000853,-0.010755968315082527,36.14123474437481,-0.6329989212955114,93.7935860339878,0.6493309843350696,0.234781369273445,-0.691549744899046,-0.2120480944357407
221.0,0.03632193008357621,-0.23109642069520736,0.060939562334448305,-0.11999492795952908,-9.786231884057962,-0.5221466172787435,0.3356391934336988,-0.6662151804914157,-0.004080411676282744,35.649047409315415,-0.6981157714155884,93.04843240853467,0.6547322664886175,0.23115117522746964,-0.6880386051043887,-0.21068623986159052
222.0,0.03216076468113893,-0.23908143682192412,0.061309559434772405,-0.12228104108522109,-9.783152073732705,-0.5650272924769462,-0.2889834821584595,0.49600439466045665,-0.07458829239394181,35.96046172643023,-0.7119302225808324,93.30110001178753,0.6526483205827847,0.23368088552190286,-0.6887827002401661,-0.21199047259198545
223.0,0.05789486297437228,-0.24345321557134372,0.06454928079644118,-0.10311235152852599,-9.781576036866344,-0.5874397451707765,-0.45874165589067906,-0.25944226150950356,-0.10686257744981051,36.011957164825176,-0.6024393257809886,93.43201541756744,0.6517736588815575,0.2329022330187178,-0.6898835967214503,-0.2120279576636594
224.0,0.001577428730086615,-0.24192181043248742,0.06886907105716739,-0.06445940157071461,-9.780788018433164,-0.5957441350612636,-0.27018968650613356,0.6102533660745838,-0.04591302294051044,36.88911547240432,-0.37469981177386896,93.47864728694748,0.6498403717983745,0.23554508446248817,-0.6892784999088366,-0.21691927505763614
225.0,-0.004163922603722695,-0.24288307623518893,0.06680627131967432,-0.043938354139171965,-9.780313364055282,-0.6041017142280206,-0.34634996358076775,0.18197960162408144,-0.03095382329821221,37.13266417501424,-0.25632072001903894,93.53214718418035,0.649086590225352,0.23566698939304642,-0.6895641860934352,-0.21820891005237159
226.0,-0.017846029582513,-0.24033489827856025,0.07651003512112098,-0.027298962232174418,-9.779995391705054,-0.6147789028075259,-0.2463551920844061,0.12202601811586367,-0.045948450559990764,37.293481272942316,-0.15173852253304776,93.59424666277233,0.6484280675991431,0.23556091507368937,-0.6899869109134018,-0.21899660622349873
227.0,-0.017128083915680468,-0.23826052273235382,0.0729332747872048,-0.021960541023921313,-9.779999999999983,-0.6092337468932201,-0.17350969002349056,0.026337771660920252,-0.008968674379283191,37.287639253982675,-0.12866304006836718,93.55860697543031,0.6486414622702461,0.2350040812843659,-0.6899953737115532,-0.218977473593037
228.0,-0.0221799117496461,-0.23892941683027077,0.0677351784310987,-0.020917464835396533,-9.779999999999983,-0.6020685665272956,-0.07031679546207535,-0.01695862973732992,-0.00045709021634069086,37.32651148497033,-0.12554116404626367,93.51859478578822,0.6488190878298072,0.2351247504832979,-0.6896901758916426,-0.21929237137451768
229.0,-0.020715467907593148,-0.23916305710945185,0.059253213895528865,-0.022013455920002423,-9.780442396313347,-0.589131761502255,0.01968391217679643,0.09224233131669089,-0.02954082109383343,37.284131078506675,-0.131092154603777,93.44138624658075,0.6493524108848855,0.23484709124158504,-0.6893012233007241,-0.2192253449729731
230.0,-0.01868690702087287,-0.24106495149379403,0.03913543951304861,-0.01626972079154243,-9.784202764976945,-0.5740207578632628,-0.00398132860182196,-0.03371874409587882,-0.010328926291924397,37.25678368121442,-0.09536798590403903,93.3532200050108,0.649926027163385,0.23411764737207258,-0.6889896415376509,-0.219265534555739
231.0,-0.024817294659799406,-0.23701119626736328,0.026906971586288474,-0.013063431824342647,-9.787262672811051,-0.5602189720462967,0.018785630087812248,-0.049779031847343044,-0.023189334384780304,37.26119375169422,-0.07597248576850095,93.26865137550621,0.6504142823790631,0.23374020328592784,-0.6885925701237998,-0.219454489589607
232.0,-0.02549362566403548,-0.23671298495324955,0.020427705603184944,-0.011370425589590682,-9.788792626728105,-0.5542394957983194,0.03642978014508644,-0.072745680482111,-0.048552473468925356,37.228634911475424,-0.06822817836812144,93.22263824884793,0.6507278089863975,0.23341798024938198,-0.688431113919992,-0.21937307565895778
233.0,-0.02675161416604109,-0.23679483702265441,0.013660894374820005,-0.01049308755760369,-9.789557603686632,-0.5513868256980212,0.017029830271496703,-0.20404532529079386,-0.03215567149957107,37.03772566616264,-0.06420777988614801,93.20032529140688,0.6512279971349386,0.23234278565168792,-0.6886459732636873,-0.21839430167011467
234.0,-0.02480047918511201,-0.23904187083319894,0.009256537226403268,-0.010032258064516134,-9.789926267281103,-0.5502556248305774,-0.02888760170225236,-0.11185184555925727,-0.002267351878817792,36.917955575016805,-0.06214421252371916,93.190974857685,0.6515114833900499,0.23168439358851695,-0.6888063066433641,-0.21777686500556406
235.0,-0.023569505810209324,-0.23955195278632657,0.00874542564971351,-0.010000000000000005,-9.79,-0.5513865858998688,-0.09819180687735801,-0.058778413031312426,-0.027566013762875752,36.858444953407016,-0.06232210626185958,93.19775169683257,0.6515600363492257,0.2314043784502316,-0.6889618217966913,-0.21743734663943565
236.0,-0.02407076954501125,-0.23885519840454855,0.012596220342007539,-0.010000000000000005,-9.79,-0.5558759305210919,-0.014438326077709812,-0.03878815374963666,-0.025100697729489255,36.828104711048866,-0.0625,93.22472084367246,0.6513779937011783,0.2313299763764441,-0.6892267252555566,-0.21719730131544834
237.0,-0.022425370328596143,-0.23908214903376207,0.015158244980825632,-0.010000000000000005,-9.79,-0.5580992555831265,-0.018082186630573732,0.00025565832017444834,-0.000318163019775922,36.81408846529814,-0.0625,93.23836848635236,0.6512844162078352,0.23129731009722543,-0.6893581420115051,-0.21708311854891332
238.0,-0.022673697270471475,-0.2386370967741937,0.016730148883374693,-0.010000000000000005,-9.79,-0.5592109181141438,-0.03481699751861042,-0.005009305210918117,-0.01232165012406948,36.8125,-0.0625,93.24519230769229,0.6512268200198512,0.23130921595037224,-0.6894148936377176,-0.21705504404962772
239.0,-0.026375272576885486,-0.2414101342206182,0.009827364839461616,-0.010312805474095802,-9.78906158357771,-0.5607051658019397,0.03698280885780886,0.07930413000977517,0.008098705729754116,36.82618523949169,-0.06396627565982405,93.25544683810813,0.6511469508310399,0.2313941181315889,-0.6894485650006771,-0.21709471789969165
240.0,-0.01846803331077525,-0.23617653113016027,0.012159339987969024,-0.01531769305962855,-9.789530791788856,-0.5552285134220617,0.06480033743138582,-0.007323741446725311,0.015293149390931649,36.87343691254982,-0.09549120234604105,93.24399202947589,0.6512649150408301,0.23165682900127818,-0.6891690681579067,-0.2173474176347095
241.0,-0.01558389258590872,-0.23939099509361614,0.009228553368674338,-0.017820136852394926,-9.789765395894428,-0.5574554477780282,-0.03073568736371156,0.014529816621550496,0.020922008938642003,36.87522652079104,-0.11125366568914956,93.27578013384465,0.6511125446072639,0.23186224222272356,-0.689236458962328,-0.21738565353695755
242.0,-0.01600263177682533,-0.23753067899842104,0.01158756297465975,-0.019071358748778112,-9.788108504398824,-0.5590503045341755,-0.0820891138431461,0.05105271073013009,-0.03776858222422738,36.876121324911644,-0.11913489736070382,93.27549087337394,0.651101060206858,0.23193581740168445,-0.6892109069005188,-0.21741514434912396
243.0,-0.008661365516204228,-0.23736583577712617,0.0034389427776524545,-0.019696969696969706,-9.788101398601398,-0.5509494698849535,0.08581648526204978,-0.027745977141138432,-0.04082908019399954,36.855725054515375,-0.12307551319648094,93.22999109425521,0.6514464450413945,0.23166490942540813,-0.6889942168448004,-0.21733324902319717
244.0,-0.007422456575682385,-0.2362348014888338,-0.0020614143920595534,-0.02000000000000001,-9.789080024813895,-0.5430583126550868,0.10327814826302731,-0.016423697270471466,-0.038738756203473945,36.83368486352357,-0.125,93.18122092121588,0.6518058220229532,0.23136039564330052,-0.688782917414392,-0.2172355015428038
245.0,-0.00647301488833747,-0.23500325682382145,-0.010948821339950376,-0.02000000000000001,-9.789540012406947,-0.5362090570719605,0.11280532723325062,0.011623759305210916,-0.028131785049627787,36.82140198511166,-0.125,93.11913093207195,0.6521531925300874,0.2311435524419978,-0.688496961034739,-0.21725546919820082
246.0,-0.006009460297766751,-0.23455870037220858,-0.01695207816377172,-0.02000000000000001,-9.789770006203474,-0.5326256203473949,0.08203076535359802,0.00928582506203474,-0.022533634460297765,36.8159429280397,-0.125,93.08689176876551,0.6523336780193865,0.23103275311678068,-0.6883473341550861,-0.2172682700060482
247.0,-0.006946029776674938,-0.2337741935483872,-0.02212220843672457,-0.02000000000000001,-9.789940446650125,-0.5282779156327547,0.048569323821339945,0.0439516129032258,-0.0668424317617866,36.852419354838716,-0.125,93.07078163771712,0.6523855502779159,0.23127244441687356,-0.6881556347295282,-0.21749679747394518
248.0,-0.005295595533498759,-0.23515756823821352,-0.027609491315136486,-0.02000000000000001,-9.79,-0.5259392059553352,0.09947852047146402,0.02818703473945409,-0.06800558312655086,36.89661910669975,-0.125,93.06111197270471,0.6523782882406948,0.2316009282543426,-0.6879929310893299,-0.21772682880521083
249.0,-0.007616780397022335,-0.23265322580645179,-0.029817152605459068,-0.02000000000000001,-9.79,-0.519001861042184,0.09971599720843671,0.016613678660049626,-0.06973480148883374,36.91907568238213,-0.125,93.03541020471465,0.6525332745471468,0.23173001736910695,-0.687774507003722,-0.21787261308622816
250.0,-0.007264965880893303,-0.2322348014888339,-0.037428427419354836,-0.02000000000000001,-9.79,-0.5103880272952857,0.09024261398883374,-0.03359762717121588,-0.0608134305210918,36.93030397022332,-0.125,92.9925034894541,0.6527614091284122,0.23179144239423105,-0.687488109953474,-0.21804403105924325
251.0,-0.004931966107369334,-0.23366844401118608,-0.04178949052739375,-0.02000000000000001,-9.79,-0.5097895077592662,0.11606559742900469,0.0035564891537673803,-0.05575633763637795,36.93591811414392,-0.125,92.96298561569479,0.6528661301197616,0.23184676781001862,-0.6873532335788878,-0.21813712198123464
252.0,-0.003583168677634079,-0.23120186788728692,-0.047447294691376374,-0.02000000000000001,-9.79,-0.5096515777009734,0.03965200547028558,0.020277604218282876,-0.001640975990205306,36.9375,-0.125,92.9482421875,0.652919126437052,0.23186523737399184,-0.6872925063676079,-0.21817671584173404
253.0,-0.0024828401920948748,-0.23207677291346668,-0.052923536783773505,-0.02000000000000001,-9.790000000000001,-0.5095964541730678,0.0074675585689097,0.025605783931461935,0.01224878392217102,36.9375,-0.125,92.94096522177419,0.652946319140905,0.2318682526965724,-0.6872644310819895,-0.21819298941028242
254.0,-0.001983827610128339,-0.231934523809524,-0.054877346988916956,-0.02000000000000001,-9.790000000000001,-0.5097528641833085,-0.02349021305105462,0.039349840970467266,0.0016261040706605232,36.9375,-0.125,92.93800403225806,0.6529547779071461,0.23187102169354817,-0.6872547772849467,-0.21820021862903247
255.0,-0.0012140131807145335,-0.23093701996927823,-0.05910840229258541,-0.02000000000000001,-9.790000000000001,-0.5007545050625175,0.08162483689278695,-0.05343516178583817,-0.008253431445418957,36.9375,-0.125,92.90940426638917,0.653192429527113,0.23178872191467198,-0.6870163579257724,-0.2182718147346517
256.0,-0.002644649257552483,-0.2315520373949096,-0.060871942255917244,-0.02000000000000001,-9.790000000000003,-0.49505723204994767,0.020362077366499844,-0.009667715507986063,0.011241493649141931,36.9375,-0.125,92.89119406867846,0.6533755671383974,0.2317361325702391,-0.6868338847242452,-0.21833075575442273
257.0,-0.0021990155757065227,-0.2333748740564559,-0.06164304709049764,-0.02000000000000001,-9.790000000000003,-0.490041623309053,0.005547193730076147,0.010677328510314981,-0.009711589283649636,36.9375,-0.125,92.86804110301769,0.6535072900936526,0.2316966284911549,-0.686701907700312,-0.2183907116753384
258.0,-0.002059197595097699,-0.23221148605123648,-0.05914011528995919,-0.02000000000000001,-9.790000000000001,-0.4835538377681978,0.023563830665807774,-0.017166518011991476,-0.03236749087425466,36.9375,-0.125,92.83211002923542,0.653660721631568,0.2316460856127049,-0.6865488572654145,-0.21846570874089502
259.0,-0.0030321085975203096,-0.23336208677588058,-0.0692797518522941,-0.02000000000000001,-9.790000000000001,-0.4769778707614124,0.028975409159131715,-0.020520547582628577,-0.030285893876266783,36.9375,-0.125,92.79331902836705,0.6539147269025105,0.2315759914049775,-0.6862955590134583,-0.21854802935722703
260.0,-3.0994093616702615e-05,-0.23225452009044933,-0.06451372591706259,-0.02000000000000001,-9.790000000000001,-0.47829382611952015,-0.014585123823387414,-0.032512794726847705,-0.027634843193687295,36.9375,-0.125,92.8017713768266,0.6539309975979776,0.23156938338459057,-0.686279157118592,-0.21856114333105886
261.0,-0.00011695386262520875,-0.2341709645197304,-0.06888277346841683,-0.02000000000000001,-9.790000000000001,-0.48015107539066537,-0.09673389906049704,-0.024613577384235506,-0.005948014728997654,36.9375,-0.125,92.81341170298145,0.6538761611741191,0.23158775342486537,-0.6863328800759454,-0.21854410620767312
262.0,0.0113249778033388,-0.23279888176358732,-0.060596153403543254,-0.02222332506203475,-9.790000000000001,-0.4862548381035613,-0.18815473068769667,0.11771027086123212,0.1141065577519664,36.88092431761787,-0.13095533498759304,92.8461336810753,0.65371847983804,0.23147762889845686,-0.6866403073759617,-0.2181692995935508
263.0,0.00022378380961813812,-0.23145855391875936,-0.042865080392992944,-0.031280174808340444,-9.79,-0.5060372936419634,-0.037423232016628824,-0.13737545317780114,0.07619695183224642,37.075798581534016,-0.17949427798970408,92.95902257454044,0.6526486153629218,0.23337818005151656,-0.6867297231550082,-0.21904527874237006
264.0,0.011345307060653332,-0.2330459458623529,-0.023861011273159694,-0.04050768490055924,-9.789999999999997,-0.5207317339501164,-0.11888688653563549,0.18731650989657264,0.08909835160378748,36.94165169808525,-0.2336144957594163,93.04163539044552,0.6523982436276554,0.23333542683546965,-0.6872802258229479,-0.21810659305757857
265.0,0.014228721118652317,-0.23267807231208232,-0.005960436279413715,-0.04573771341802152,-9.786011730205267,-0.5469738826153316,-0.135851242457875,0.04408417311613998,0.08160609289913343,37.0578554189351,-0.26972758023552434,93.18953103833127,0.6512595360758024,0.23469664009417662,-0.6877902124129402,-0.21843363646525066
266.0,0.013490531214893279,-0.23624278225385598,0.006018220986203655,-0.048352727676752666,-9.783005865102627,-0.5653860047832123,-0.21229021540167425,0.03488677958616572,0.08943402980024309,37.02993577398368,-0.26187991915002024,93.30471934330714,0.6506778435477867,0.23478126379838898,-0.6884332428531916,-0.2180515848195141
267.0,0.01413236238164019,-0.23634319533728584,0.009518515760051322,-0.04959075589792966,-9.781341642228725,-0.5792711661633185,-0.11581952537473451,0.010763148858159306,0.045755096225663844,37.01774394158241,-0.2577699843889059,93.38013572624413,0.650276277721224,0.23484700665105537,-0.6888577627466946,-0.21784884217898798
268.0,0.015301616915422889,-0.23776596454394383,0.014454732121720413,-0.049961482908040394,-9.780509530791774,-0.5849689966589342,-0.027946173375860278,0.03421673331208398,0.0016404874484120882,37.00467420959718,-0.2542912271487139,93.41434717222174,0.6500813397910403,0.23482568563053485,-0.6890888536362265,-0.21771124208010553
269.0,0.013914650537634413,-0.2350180328256552,0.017100981852867913,-0.045483870967741924,-9.780093475073299,-0.5780742913000979,0.015351058714092009,0.07615536954482388,-0.040074075004729925,37.06485215053763,-0.25161901270772236,93.36714740652494,0.650184490498553,0.23509417692937423,-0.6887703817531157,-0.2181909253286901
270.0,0.012599017950052034,-0.2344702783558794,0.016052777055150888,-0.04258064516129033,-9.780010080645146,-0.5740322580645163,-0.04662298387096774,0.04849582953954214,0.00951462506503642,37.094254032258064,-0.25,93.33968623991935,0.6502584870918957,0.23521373997983852,-0.6885958346522179,-0.2184388835685483
271.0,0.015374609781477633,-0.23554663111342367,0.011249674817898025,-0.041129032258064524,-9.779999999999985,-0.5718447580645163,0.009513608870967742,0.044519462148803327,0.0067576905567117585,37.111643145161295,-0.25,93.3246597782258,0.6502959305167134,0.2352921251310482,-0.6884963763911292,-0.2185799341834676
272.0,0.013938605619146727,-0.23650120317377743,0.008111830124869927,-0.04040322580645163,-9.779999999999985,-0.570599798387097,0.02184512389438085,0.03326714522632674,0.02352387649583767,37.1203377016129,-0.25,93.31656376008064,0.6503182382006039,0.2353307024042337,-0.6884431556149195,-0.21865118241431436
273.0,0.012779754678492978,-0.23597433590588524,0.005814227594437012,-0.04004032258064519,-9.779999999999985,-0.5700000000000002,0.038604083564573934,-0.006604664634020447,-0.022410498788051465,37.124684979838705,-0.25,93.31253150201613,0.6503301745110877,0.23534977571572563,-0.6884160222076616,-0.21868689884576592
274.0,0.013602578952149717,-0.2375461397271362,0.0012312065391539904,-0.04000000000000002,-9.779999999999985,-0.5700000000000002,0.015962828072609545,-0.0013649583250747391,-0.005944412700477346,37.125,-0.25,93.3125,0.650329589999999,0.2353515599999998,-0.6884155300000003,-0.21868895999999982
275.0,0.013359562108749161,-0.23504258078968682,0.002290941458963051,-0.04000000000000002,-9.779999999999985,-0.5700000000000002,0.012875404671060235,0.029218015114257635,0.00647433371219629,37.125,-0.25,93.31354058272632,0.6503265413423509,0.2353535925494275,-0.6884175622164413,-0.21868692778355864
276.0,0.01507403828683746,-0.23577185843119786,-0.00772889723006789,-0.04000000000000002,-9.784423963133634,-0.5613978494623657,0.12434724854648761,0.010891019605899938,-0.057804989841930526,37.125,-0.25,93.26386514543381,0.6506325844218153,0.2352535706013908,-0.6881060265792913,-0.21878645449085765
277.0,0.015772405562988295,-0.23440476706638272,-0.017874986579786274,-0.04000000000000002,-9.787373271889397,-0.5509523809523813,0.08315870925416645,0.037874165882100325,-0.03312082941050163,37.125,-0.25,93.20472123119106,0.6509966194996939,0.23513955544918505,-0.6877537454171418,-0.21890822210461985
278.0,0.016790452653485957,-0.2337512826627357,-0.04267277234775285,-0.04000000000000002,-9.78884792626728,-0.5325396825396826,-0.004887619259245496,-0.07508493446806401,-0.08357270349173315,37.125,-0.25,93.0942480963943,0.6516691695117514,0.234924538328791,-0.6871340759062151,-0.21910811305947853
279.0,-0.0027576196293112396,-0.2536487756815315,-0.07731972389009895,-0.0540626460963067,-9.790333266546448,-0.4745984995213607,0.3608888023531963,-0.4598283630965846,0.12452055276558736,36.325093501636275,-0.32059373539036934,92.76485137405035,0.6551827564365675,0.230257064105957,-0.6865676807464689,-0.21514432084016472
280.0,-0.0040611316331838525,-0.23734841650808708,-0.08589825065399409,-0.05277416720989798,-9.788655956308205,-0.48362591945627315,-0.21719972319502173,0.10126455319104902,0.06420678896505101,36.3506714668563,-0.3180092711481606,92.82237783487585,0.6548021247359956,0.23035463530545902,-0.6868978827660619,-0.21518187713902245
281.0,-0.01746323350732414,-0.2333273060523027,-0.0959009942466079,-0.05429030941140062,-9.784189729306169,-0.534662422093728,-0.12037661530974844,-0.08838462048588869,-0.07788764494399779,36.6335010560088,-0.3162627000902093,93.11685808026436,0.6525228697860722,0.2326401098058274,-0.6879755211666969,-0.2162205927745803
282.0,-0.021495313630262178,-0.23233825620075454,-0.10348301120420511,-0.05746773535086162,-9.781933574330495,-0.564727524410919,-0.11832002808498177,-0.00590185965410666,-0.03580762175515302,36.71796020542375,-0.3153894145612337,93.29289204576453,0.6513008468477213,0.23355301218657976,-0.6887862793122272,-0.2163724736850373
283.0,-0.02176404186377421,-0.23070829860728975,-0.09263500278592232,-0.05905644832059212,-9.78080549684266,-0.5917493228813426,-0.10125870835892713,0.04302001231324365,-0.01628770744695695,36.76018978013123,-0.31495277179674586,93.45529778939533,0.6501867400060417,0.2341613006836638,-0.6896556738394217,-0.21627596630744456
284.0,-0.02244500634864803,-0.23100119570760214,-0.08244389449193716,-0.05941134711494779,-9.780218082689672,-0.6121572173531417,-0.09527968445137236,0.043547455824087776,0.038684254074859606,36.80630164555883,-0.3125283961835529,93.57814383128243,0.6493840893828943,0.23465694564103728,-0.6902455013877316,-0.21628991051056662
285.0,-0.02614526555506005,-0.23289723574566848,-0.08055406900880366,-0.0598487903225807,-9.779999999999985,-0.6214000534743898,-0.0009423183728919926,0.03558847121054457,-0.018531282776291232,36.81605972782258,-0.3125,93.63353182023005,0.6490713145869491,0.23481746766945089,-0.6905102099601084,-0.21624370141498328
286.0,-0.022840777938820347,-0.23016585577606002,-0.07990405063343409,-0.06088709677419358,-9.779999999999985,-0.6230437767371948,0.006837308555489487,0.1305084493149497,0.022456888853789866,36.81350806451613,-0.3195564516129032,93.64339456434888,0.6490069773060755,0.23491160897081403,-0.6905528259049534,-0.21620486845698758
287.0,-0.030716399914110636,-0.23234596072213137,-0.07197261863468937,-0.047097926267281105,-9.782211981566814,-0.598139687907768,0.17387786366714567,-0.12906191157524402,-0.08517942567679171,37.02959389400921,-0.2584245391705069,93.49447864018134,0.6495011374651778,0.23509022977400154,-0.689538665209029,-0.21772898861883078
288.0,-0.032100617354121674,-0.23513265025052693,-0.05266412022665465,-0.038824105448631074,-9.781105990783399,-0.6141510162077314,-0.027924890039262323,-0.058759292283510685,-0.12511640631148402,36.815259470723774,-0.22379244036324208,93.58958311244632,0.6493289972891083,0.2335134431566312,-0.6906753575573772,-0.21632533544386917
289.0,-0.006926547196718803,-0.22167851200788874,-0.029786078421550944,-0.037518644589673175,-9.783694650370661,-0.5640199274134619,0.4887144163415717,-0.8735083183431157,-0.1492706026791853,36.318788571266516,-0.2190578611353377,93.2915894550755,0.6520512725010066,0.22988536937635207,-0.6899950388139402,-0.2140741876231546
290.0,-0.05658709982460774,-0.22951592966722323,0.005330461120643002,-0.03150788614812868,-9.77993835479204,-0.6225915686006771,-0.2127456765508226,1.7184774194850927,0.0891620207301157,37.05260849243838,-0.188006062693166,93.6348630964065,0.6485551602699879,0.23454227684988754,-0.6905995341725605,-0.2175351273243714
291.0,-0.023027252869293115,-0.23151871752178366,-0.006582081267635498,-0.036478909471913776,-9.781259499976656,-0.6145736740852851,0.012134246177993718,-0.43805456702716705,-0.06203581311164466,37.73359801302027,-0.21284613730536436,93.58838213904107,0.6475512066571715,0.23885003322109075,-0.6888098754056127,-0.22145943583904504
292.0,-0.03474212646709933,-0.2321418147873733,-0.002090352634856238,-0.04255019011597896,-9.780706014024148,-0.6090169921669369,-0.20910820306145422,0.9010457758101005,0.12510410778830697,37.87055135933677,-0.24539094851248616,93.5543485872073,0.6474802192263269,0.24006416089376076,-0.6881960302543738,-0.22231594766697504
293.0,-0.021451262762041415,-0.2338410183706288,0.006476889693727079,-0.05689653718322667,-9.780353007012065,-0.6209208645499165,-0.17374712881495458,0.30807178172944216,0.03238469002778582,38.28666927046247,-0.345388785451689,93.62638958455874,0.6462260943864659,0.24381276529615598,-0.6873610593931143,-0.22451222063901913
294.0,-0.018337833344555073,-0.23734009777811482,0.01523821109277285,-0.06398122791840154,-9.780078326787933,-0.6375992822048315,-0.13077550456643008,0.1990554677698169,0.003226297795566588,38.50054010507695,-0.3949945329782989,93.70005781238223,0.6453424474059489,0.2457413943801959,-0.687211556921896,-0.225457892720164
295.0,-0.014510277697465344,-0.23782714124433807,0.01863987443723928,-0.06769101166136603,-9.780098818718749,-0.6433246079605683,-0.035511758027801876,0.03467328183011393,-0.011029084862711622,38.576786292043565,-0.4206937976424857,93.72150758493613,0.6450523917299296,0.2465035029656173,-0.6871072960018227,-0.225787390518279
296.0,-0.0164810674899839,-0.2376916742389824,0.02614972705244174,-0.0692957746478873,-9.780009086778723,-0.6522029931298439,-0.046881561239381545,0.19755617496523617,-0.0012328138552723964,38.700401332727544,-0.43227510222626075,93.78988889347816,0.6444139401269393,0.24750755214833503,-0.6871468487293647,-0.2264367594498368
297.0,-0.01930382453567938,-0.23731946480938432,0.03136944037145651,-0.06999999999999998,-9.779999999999985,-0.6570283479960892,-0.04474049975562072,0.011178442693059613,-0.027395298753665687,38.769336510263926,-0.4375,93.83825146627566,0.6440363457233625,0.24805600534701866,-0.687197986583577,-0.2267873404740956
298.0,-0.020064913245356794,-0.2382613941837733,0.0357995784457478,-0.06999999999999999,-9.779999999999985,-0.6633333333333329,-0.03377970735581623,0.03935938263685239,-0.01951693090175953,38.71554252199414,-0.4375,93.87756598240469,0.6439137381524926,0.2478523164418378,-0.6875105011436948,-0.22640642206256104
299.0,-0.02081901024569236,-0.238439909597905,0.035170153630673606,-0.07130958112662493,-9.779999999999985,-0.6672973840475047,-0.0540434255363578,0.3233819305005398,-0.012158966097846544,38.844561102114056,-0.4375,93.91055718475073,0.6435081162765351,0.24872332097489108,-0.6873508257066576,-0.22710224676310536
300.0,-0.021480573671233287,-0.23787670883121065,0.0334318510088852,-0.07065479056331245,-9.779999999999985,-0.6689712726689142,-0.037086606921404704,0.19336624246801182,-0.006347250186020045,39.025103131702195,-0.4375,93.92705278592376,0.6430706873318159,0.249819425648736,-0.6870217917242968,-0.22813379967187536
301.0,-0.02173224111789351,-0.23691538276360147,0.0321605829974872,-0.07032739528165621,-9.779999999999985,-0.6696567018281037,0.001109489982413673,0.0938036754110117,0.014661832460189466,39.112395774062236,-0.4375,93.93371212121212,0.6428666648633665,0.25034607392896246,-0.6868564543885416,-0.22863228883398273
302.0,-0.022248968893408,-0.23779437083138347,0.027577922899600815,-0.0701636976408281,-9.779999999999985,-0.6699896412366331,0.014328571970678976,0.04706256407590964,0.0005740642111459393,39.156011547832684,-0.4375,93.93661412512219,0.6427660407699041,0.2506088611067101,-0.6867725626219348,-0.22888175711982628
303.0,-0.021273555805452787,-0.23617480027395185,0.024336371029468055,-0.07008184882041404,-9.779999999999985,-0.6700192585459808,0.024698499084068716,-0.05363147456028565,-0.011229341305961732,39.13234961555857,-0.4375,93.9375,0.6428332327358806,0.25049347283830126,-0.6868118480998239,-0.22874394548562194
304.0,-0.019520292879163858,-0.23607583041958058,0.0181858245920746,-0.06999999999999998,-9.779999999999985,-0.670000000000001,-0.011388823290284983,-0.055874986488645764,-0.012855774517820887,39.09903470185728,-0.4375,93.9375,0.6429168916520037,0.2503175863734115,-0.6868774144086026,-0.2285477832844577
305.0,-0.01824407850214303,-0.23604752237010318,0.013982254304834955,-0.06999999999999999,-9.779999999999985,-0.670000000000001,-0.01077148657793819,-0.02501973832618994,0.013626964433416046,39.07875122189638,-0.4375,93.9375,0.6429660529227759,0.25020899931573787,-0.686917984946237,-0.22842833841642254
306.0,-0.016704202874641014,-0.236778696187459,0.014503922974794432,-0.06999999999999999,-9.779999999999985,-0.670000000000001,-0.047862410819801283,-0.14110718963270721,0.005292242262632248,39.0454992267402,-0.4375,93.9375,0.6430418835533476,0.2500127113718794,-0.6869819970518376,-0.22822662156738327
307.0,-0.014397367998716104,-0.2363784450183104,0.010315650486570085,-0.06999999999999999,-9.779999999999985,-0.670000000000001,0.048001834668300714,-0.005990939729504971,-0.021070417706190454,38.955209290789455,-0.4375,93.9375,0.6432490650024799,0.24945802246013327,-0.6871592878807569,-0.2276634910476212
308.0,-0.016568185465633718,-0.23663252651697542,0.00613778614260078,-0.06999999999999999,-9.779999999999985,-0.6664027370478984,0.12317308253454136,-0.0450898002655345,-0.03314029194204929,38.91156114588348,-0.4375,93.90964076246334,0.6434506200354531,0.24925033491530604,-0.687085712119753,-0.2275395403405261
309.0,-0.016094980769511352,-0.23615647680837876,0.00048148048388780293,-0.06999999999999998,-9.779999999999985,-0.6630400782013681,-0.013068742964626463,0.016279447562548188,-0.007904315833420312,38.89025637939335,-0.4375,93.8590542521994,0.6436690221145005,0.24911916761894343,-0.6869236928340705,-0.2275580069444566
310.0,-0.01762471423617308,-0.2360303400659685,-0.0018047143035106444,-0.06999999999999998,-9.779999999999985,-0.661358748778103,0.008785154421890096,0.03587677167961231,-0.018263619304784446,38.87960399614829,-0.4375,93.83376099706743,0.6437782231540241,0.24905358397076213,-0.6868426831912292,-0.2275672402464219
311.0,-0.011819986465147763,-0.23408587111812929,-0.0005174825174825173,-0.06999999999999998,-9.779999999999985,-0.6605180840664704,-0.03598578840514325,0.0403178810436875,0.012734510113542373,38.87599255583126,-0.4375,93.82111436950146,0.6438292835307913,0.24902813734310864,-0.686800811906159,-0.22757774811865555
312.0,-0.02180974666482611,-0.23610502978004194,-0.0027543278419542246,-0.06999999999999998,-9.779999999999985,-0.6516239914795522,0.01681929849960663,0.06291893089257075,0.034559094612657444,38.969863153216544,-0.4375,93.78879201864578,0.6438434721313079,0.24943958751604156,-0.6864179984928,-0.22816068015137486
313.0,-0.020770355306705818,-0.23509950136526944,-0.0067340670884243345,-0.06999999999999998,-9.779999999999985,-0.6473663938372651,-0.05392621541514175,0.05258938221143324,0.028108148070834636,39.01920577015666,-0.4375,93.76724241694751,0.6438624352296582,0.24965279256234962,-0.6862038327876749,-0.228481345823488
314.0,-0.02139307298382889,-0.23480398032396121,-0.008219278073876055,-0.06999999999999999,-9.779999999999985,-0.6485219065960515,-0.010431789563349505,0.017769144072105073,0.010857875073089322,39.04387707862672,-0.4375,93.75761314395763,0.6438296482599909,0.24977914337794907,-0.68613918252287,-0.22863926226658268
315.0,-0.02032602832891712,-0.234925844497342,-0.00844193649393457,-0.06999999999999999,-9.779999999999985,-0.6490996629754446,0.020791121092035875,0.03449447158522748,0.006819528569648936,39.07354542424355,-0.4375,93.76339070775157,0.6437699976928271,0.24993212338854123,-0.6860946329898894,-0.2287953294722418
316.0,-0.02250909502856599,-0.23720748508621298,-0.0072009711662491425,-0.06999999999999999,-9.779999999999985,-0.6433164349032825,-0.010597725105711735,0.025212313883403406,0.024074630727679524,39.146442833271976,-0.4365512333965844,93.74857153983403,0.6437760764858823,0.25023373909654767,-0.6858649950717952,-0.2291668185997905
317.0,-0.020291984960483084,-0.2390260445229434,-0.003682261454500828,-0.06999999999999999,-9.779999999999985,-0.6360481446485016,0.02775571426977584,0.026847176915148256,-0.01619077074520446,39.15342250065869,-0.4370256166982922,93.71389955947363,0.6439413625044779,0.25031589179845987,-0.6856339304265027,-0.22929416742773118
318.0,-0.019072328541868893,-0.23814325817866006,-0.006065974251564329,-0.06999999999999999,-9.779999999999985,-0.6276413087229025,0.028246537924488307,0.0007701219192977667,-0.038743555810734145,39.20473544387773,-0.4372628083491461,93.66743365070457,0.6441209069070296,0.2505070264119889,-0.6852677256874934,-0.22962550290741413
319.0,-0.018959429178070326,-0.2390814042603956,-0.008744130820796829,-0.06999999999999999,-9.779999999999985,-0.6233367833937091,-0.0014711836281761804,0.004524234957693849,-0.04713937321328496,39.23039191548725,-0.43738140417457305,93.64420069632001,0.6442118839373859,0.25060200594793014,-0.6850834184889083,-0.22979117064725557
320.0,-0.01941354981174858,-0.23547547110059508,-0.007910312590918102,-0.06999999999999999,-9.779999999999985,-0.6211845207291125,-0.014270829846798437,-0.0010091909350950956,-0.03875129323625104,39.24267850468633,-0.43744070208728647,93.63225321286873,0.644258724236387,0.25064668932206347,-0.6849916469021338,-0.22987159486142283
321.0,-0.019560956777133966,-0.23568507900380808,-0.008309301675695515,-0.06999999999999998,-9.779999999999985,-0.6202981427174974,0.0302859013078079,-0.0002751581591254196,-0.03741247518329849,39.247006353861195,-0.4375,93.62683284457478,0.6442810242766377,0.25066199299120273,-0.6849522412072342,-0.22990263506353886
322.0,-0.01831909031427569,-0.23517147400825794,-0.008763643995228011,-0.07148582600195502,-9.779999999999985,-0.618592375366569,0.06441592230590786,-0.06220991534544736,-0.03935628646750457,39.250488758553274,-0.43847751710654936,93.6152248289345,0.6443544095503423,0.2507162558455525,-0.6848520382013691,-0.22995427355816236
323.0,-0.014190766223024294,-0.23501112865629006,-0.01599646589969171,-0.07590420332355818,-9.779999999999985,-0.6089736070381235,-0.00987057297541169,-0.037676705015414695,-0.030144653733363412,39.18572825024438,-0.4469217610346642,93.555596285435,0.6448272141672302,0.25044180743890526,-0.6845792597458453,-0.22975607980885773
324.0,-0.0150963606286187,-0.23420155650800828,-0.018943980750432375,-0.07811339198435976,-9.779999999999985,-0.6041642228739008,0.00511481126400481,-0.008879896984735696,-0.06208479020979021,39.153347996089934,-0.47446894503346115,93.52578201368524,0.6450611930513567,0.25030458323558163,-0.6844428705180835,-0.22964874329152551
325.0,-0.010373204752237014,-0.23335933152868654,-0.02266358372809987,-0.07921798631476054,-9.779999999999985,-0.6017595307917896,0.024627909053312275,-0.08752890254906384,-0.002343103804797353,39.07667399804497,-0.4882425370328596,93.53607649071358,0.645302221848259,0.24987615524682322,-0.684572549855816,-0.22915454237156926
326.0,-0.010575203022783676,-0.2317392943078428,-0.01823095721482819,-0.07977028347996093,-9.779999999999985,-0.6035288367546434,0.015076380272952852,-0.16401456406496728,-0.01089267755094368,38.9834738514174,-0.4926855402661854,93.54290383675465,0.6454156371069252,0.24942942087365588,-0.6848056076160798,-0.22862199787688925
327.0,-0.018237259380404554,-0.2368398328821717,-0.014293875479359354,-0.08000000000000004,-9.779999999999985,-0.6164858260019552,-0.04494225952139258,0.0660865596097451,-0.007294457055041732,38.89595552297165,-0.46506222272351305,93.61349126344086,0.645177580200579,0.24900057595979963,-0.6853782315255373,-0.22804055539983265
328.0,-0.0175007636852395,-0.23688889907135888,-0.010489369501466278,-0.08000000000000004,-9.779999999999985,-0.6237267839687197,-0.02016033571603128,0.02922814332844575,0.0007417292888563052,38.849187438905176,-0.4510019550342131,93.6535198252688,0.6450315377553766,0.24883579136699674,-0.6856712562466396,-0.22775706375946958
329.0,-0.018329514907135885,-0.2380639051808408,-0.006913031524926687,-0.08000000000000004,-9.779999999999985,-0.627347262952102,-0.03608508217253177,0.030428083760997073,0.002371242668621701,38.82580339687195,-0.4432429130009775,93.67353410618279,0.6449585922647851,0.2487533990705953,-0.6858177686071907,-0.22761557542812177
330.0,-0.019550342130987303,-0.23737872678396887,-0.0053793988269794715,-0.08000000000000004,-9.779999999999985,-0.629157502443793,-0.04996983443304008,0.014788764662756599,-0.0032246609237536654,38.81600149682306,-0.4393633919843597,93.68275369623655,0.6449182432896507,0.24872344716886632,-0.6858848412264782,-0.22755859790811322
331.0,-0.020984383000512044,-0.2381903641833079,-0.00574676779313876,-0.08000000000000004,-9.779999999999985,-0.6299697580645164,-0.019986779153865847,0.002447156618023555,-0.02740525393625192,38.81281502016129,-0.4375,93.68731098790323,0.6448982906502019,0.248715737479839,-0.6859131207207659,-0.22753902927419337
332.0,-0.01830469150025603,-0.23866423451100882,-0.005045762928827444,-0.08000000000000004,-9.779999999999985,-0.6300000000000003,-0.013946892601126472,-0.04517889144905274,-0.021688388056835636,38.798891129032256,-0.45211693548387094,93.6875,0.6449314234677419,0.24864738185483878,-0.6859352394354842,-0.2274588289516129
333.0,-0.018969575899011396,-0.23985894728031837,-0.005662537171609751,-0.08000000000000004,-9.779999999999985,-0.6300000000000003,-0.017923062460612864,-0.01104904560045689,-0.017421814996159753,38.7734375,-0.4770665322580645,93.6875,0.6449774456048385,0.24852531383064508,-0.6859871685887101,-0.2273099328629033
334.0,-0.015951521820473442,-0.2389768526724173,-0.0073650387470952,-0.08000000000000004,-9.779999999999985,-0.6300000000000003,0.0326683830842097,-0.027701942155067154,-0.02183149721582181,38.76071068548387,-0.48954133064516125,93.6875,0.6450004566733867,0.24846427981854824,-0.6860131331653231,-0.2272354848185485
335.0,-0.01773250718815236,-0.23946446541809455,-0.0061503776241679485,-0.08000000000000004,-9.779999999999985,-0.6300000000000003,-0.05961232288097207,-0.0008532392226948664,0.025422796289731774,38.73251104993797,-0.49577872983870963,93.6875,0.6450269868825989,0.2482941843708127,-0.6861240125057386,-0.22702136598743797
336.0,-0.015895006203473956,-0.23864105148883386,-0.006625387717121591,-0.08000000000000004,-9.779999999999985,-0.6300000000000003,0.02660951070099256,-0.08303301411290323,-0.004834832506203472,38.74024746045285,-0.4988974294354839,93.6875,0.6449937279574288,0.24825420670153525,-0.6862075628657727,-0.22693369428404148
337.0,-0.014337562974659757,-0.238707515602677,-0.008791906346341834,-0.08000000000000004,-9.779999999999985,-0.6300000000000003,0.0760391112583653,-0.13062950574291302,0.0428003867772013,38.69859763892022,-0.5,93.6659946236559,0.6451769795411686,0.24795100453913846,-0.6862214378211893,-0.2266551446946388
338.0,-0.012249539439055573,-0.23808764756748635,-0.008204284626663661,-0.07906158357771267,-9.779999999999985,-0.6314076246334315,-0.016868969823858937,-0.024126975594969548,0.01671422075907963,38.64707496804271,-0.49266862170087977,93.66110703812316,0.645281539149861,0.24760068867719376,-0.6863378329086396,-0.22637130370118047
339.0,-0.02413399503722085,-0.2371190315061284,-0.0041930972253552915,-0.07436950146627569,-9.779999999999985,-0.6358651026392965,-0.04978851793367922,0.08929806752387397,0.05910876757650951,38.74936837356192,-0.4391495601173021,93.67430351906157,0.6449815701174528,0.2478317188205129,-0.6863635734435671,-0.22693483923573202
340.0,-0.025078774860190372,-0.23709834764817928,-0.005021477319021856,-0.07202346041055718,-9.779999999999985,-0.638093841642229,-0.0441562770402443,0.06061557203829712,0.031311031690184316,38.81488269794721,-0.40505865102639294,93.6809017595308,0.6448110689247317,0.24800075849462372,-0.6863538145356793,-0.22727988870967747
341.0,-0.026619468639208662,-0.23717628864475293,-0.004586233057585971,-0.07085043988269796,-9.779999999999985,-0.6392082111436954,0.0015693161757196414,0.028010150858610177,-0.00429852205249413,38.84695747800586,-0.3880131964809384,93.6842008797654,0.6447272722043017,0.2480838698924732,-0.6863480566226784,-0.2274518075806452
342.0,-0.026582994120307568,-0.2387617630323457,-0.0040454618403583265,-0.07026392961876832,-9.779999999999985,-0.6397653958944285,-0.04257624998176274,0.017793638114413268,-0.002110050918428386,38.86443059628543,-0.37949046920821117,93.68652248289345,0.6446790943939401,0.24813434522482902,-0.6863460279178886,-0.22754518017106556
343.0,-0.026939252530489906,-0.23870534200192373,-0.005314933341413844,-0.06999999999999998,-9.779999999999985,-0.6400000000000003,-0.023532419674692183,-0.0008381704156860638,-0.011820402555236451,38.87414467253177,-0.37545821114369504,93.6875,0.6446545729472147,0.24816587732649079,-0.6863415531182795,-0.22759649039100688
344.0,-0.026272656568275266,-0.23792793981816623,-0.00656020371860526,-0.06999999999999998,-9.779999999999985,-0.6355425219941352,0.018322988598626536,-0.05341884082856639,-0.033387596194529266,38.84811827956989,-0.40090420332355814,93.6875,0.6447378043010756,0.24801525459433046,-0.6863570374095793,-0.22745118144672555
345.0,-0.023836487537498625,-0.23686578836025163,-0.00771227103822193,-0.06999999999999998,-9.779999999999985,-0.6326099706744871,0.003883217568821805,-0.030694920951300345,-0.011325015459584548,38.829301075268816,-0.4202101661779081,93.6875,0.6447900705376346,0.2479030855229717,-0.6863801882209184,-0.2273366291104597
346.0,-0.02499986644714619,-0.237773070133205,-0.010434825646188188,-0.06999999999999998,-9.779999999999985,-0.6334897360703815,-0.04332965221265655,0.008265687129432917,-0.018217493067035677,38.822825024437925,-0.4259530791788856,93.70216275659823,0.6447269461779082,0.24789568642228738,-0.6864619267546429,-0.22727123837732166
347.0,-0.024545153770960233,-0.23514971050454933,-0.014685765847056173,-0.06999999999999998,-9.779999999999985,-0.6319011955786153,0.0004727799082637797,-0.033614369501466276,-0.02255338747274231,38.84891251221896,-0.4004765395894428,93.69632021204602,0.644745867401609,0.24800323703992777,-0.686345878987743,-0.2274317918685616
348.0,-0.025260169937589304,-0.23513564929693978,-0.020099706744868044,-0.06999999999999998,-9.779999999999985,-0.6307893074667271,-0.04728222046770434,0.02315869614256711,-0.004483889766147831,38.86195625610948,-0.38773826979472137,93.691910106023,0.644762597571772,0.24805458900383479,-0.6862801006229033,-0.22751594593428082
349.0,-0.02417700578990903,-0.23651943755169574,-0.020563049853372442,-0.06999999999999998,-9.779999999999985,-0.6303726595984664,-0.009390743664937213,0.046372847582524995,-0.008275058275058275,38.86931818181818,-0.3805596285434995,93.6897050530115,0.6447444574980075,0.24813375285480094,-0.686234757760132,-0.22761040687720877
350.0,-0.027789495450785788,-0.2359073614557487,-0.01860782765621476,-0.06999999999999998,-9.779999999999985,-0.6313153620572978,-0.02215039664636439,0.0006135329724039386,-0.002796027896834349,38.873167155425215,-0.3767717497556207,93.69465091360252,0.6446846159264237,0.2482620982015939,-0.686225034525227,-0.22771993972892682
351.0,-0.025620854951500127,-0.2330525979396948,-0.012431179036017752,-0.06857071960297763,-9.779999999999985,-0.6273287841191068,0.054334559929317995,-0.09521545322956614,-0.07393847751710654,38.87003722084367,-0.3680521091811414,93.67026985111661,0.6448418233462483,0.24812297851718162,-0.6861055184489812,-0.22780333412203913
352.0,-0.02919504286036546,-0.23083647266711788,-0.0052726614783066466,-0.09057568238213398,-9.782293906810024,-0.5950343948166529,0.25232236681329423,-2.141859174092037,0.1807434025427977,38.18479459608492,-0.5113110008271299,93.47856958229943,0.647307993918506,0.24515374193408018,-0.6859266951406748,-0.22424842840648415
353.0,-0.02959035297140137,-0.24381057159686192,-0.02868595853071659,-0.08329859387923899,-9.781146953405003,-0.6302232905982909,-0.17163313696831842,0.030428284473143608,-0.04871880052071584,36.88070374965536,-0.47854976564653984,93.68787350082712,0.6485500406330883,0.2372209114867533,-0.6899594774269682,-0.21647059560109153
354.0,-0.03154737589919042,-0.2390460482617741,-0.019406517877284007,-0.0766492969396195,-9.780573476702493,-0.636993365729253,0.05398365145718978,0.11779234360509569,-0.01583667298763064,36.94823310649923,-0.4517015690402787,93.72092233203624,0.64825765378673,0.23724358744425644,-0.6902189699036112,-0.2167429484701449
355.0,-0.028691530691530694,-0.23880458430458434,-0.025954771035416206,-0.07332464846980974,-9.78028673835124,-0.6288559415494899,0.07816345840539389,0.06704913589994241,-0.009950701180539888,37.008390746798,-0.4456088490362684,93.66779386608015,0.6484244747497938,0.23742325045724,-0.689900291888375,-0.21719613535154259
356.0,-0.028057254573383615,-0.23586950236143792,-0.036385711958292606,-0.07170698924731181,-9.780143369175612,-0.6176505474811929,0.08367609093415546,0.019589645345693754,0.023418097359629617,37.03862465379602,-0.44277961062235255,93.60403803745538,0.6488011361077337,0.23741478130199817,-0.6894683341627075,-0.21751051748939126
357.0,-0.02761733696411117,-0.2340839447291061,-0.048454952753339844,-0.07018817204301073,-9.779999999999985,-0.6098759009807402,0.0660315938541745,0.039994755468545806,0.031128291511356026,37.075077895894424,-0.43677959025741286,93.55827741926532,0.6490491902693688,0.23745868349822113,-0.6891309026301888,-0.2178256981241759
358.0,-0.026714134431876382,-0.23266921250792233,-0.05815892798957315,-0.06999999999999998,-9.779999999999985,-0.6039007641104421,-0.0029945077324109587,0.03846455963391447,0.030489100952810627,37.1233504398827,-0.43704178885630496,93.52283830640684,0.649196557141853,0.23765900818952257,-0.6888131951502198,-0.2181570126575182
359.0,-0.028225102406554035,-0.23263470400567193,-0.06455600358422939,-0.06999999999999998,-9.779999999999985,-0.6012514573240386,0.009240160601047695,-0.007695261727519789,0.01347280072078459,37.125,-0.4375,93.50735634772934,0.6492988079526469,0.23763446389192627,-0.6887092561454911,-0.21819258364791855
360.0,-0.026801235279057874,-0.23191820276497715,-0.06674395161290321,-0.06999999999999998,-9.779999999999985,-0.6002857782898112,-0.043556787634408595,0.0537794418842806,0.03188804083461341,37.125,-0.4375,93.50178611431132,0.64934020093414,0.2376168459807024,-0.6886712868047554,-0.21820040294802887
361.0,-0.024757504480286754,-0.23107686891961104,-0.07040474590373783,-0.06999999999999998,-9.779999999999985,-0.6000302419354846,-0.06726930523553507,0.049435163850486435,0.0059113783282130055,37.125,-0.4375,93.50018901209677,0.6493515533165324,0.23761130596270125,-0.6886609312953629,-0.2182015414919357
362.0,-0.024718061955965195,-0.22976582501280107,-0.07587533602150537,-0.06999999999999998,-9.779999999999985,-0.6000000000000008,-0.04894813268049154,0.0007305467549923172,-0.008616051427291346,37.125,-0.4375,93.5,0.6493515297849465,0.23760985999999962,-0.688661169969278,-0.2182006800000002
363.0,-0.025704125064004102,-0.23042362711213538,-0.07978030593958012,-0.07049155145929337,-9.779999999999985,-0.6000000000000008,0.07013348854326676,-0.1482419874871992,-0.040993123559907835,37.112711213517656,-0.4375,93.5,0.649341776912443,0.23754985647721422,-0.6887154211520737,-0.21813167592421928
364.0,-0.022119815668202772,-0.23279057859703037,-0.07916538658474143,-0.07540706605222736,-9.779999999999985,-0.5968868407578092,0.008992575524833585,-0.14762544802867383,0.0020801331285202236,36.971390168970814,-0.4375,93.4810547875064,0.6496899239682543,0.2367708084485404,-0.6888990584485409,-0.2173506265028163
365.0,-0.02244751664106504,-0.23202764976958545,-0.08051715309779825,-0.07786482334869435,-9.779999999999985,-0.593282130056324,-0.02374551971326165,-0.0812532002048131,-0.004352278545826934,36.88690476190476,-0.4375,93.45826932923707,0.6499625040809014,0.23624527615975396,-0.6889683758371739,-0.21686209454173083
366.0,-0.021854565905332704,-0.23050103665651012,-0.0825685578303241,-0.07909370199692783,-9.779999999999985,-0.5914797747055816,-0.043283557032896006,-0.04977577581358649,0.012390038864126646,36.84466205837174,-0.4375,93.4468766001024,0.6500987941372248,0.23598251001536075,-0.6890071655944197,-0.21661369749825846
367.0,-0.020932403280367332,-0.23060126077577178,-0.08274869263764026,-0.07970814132104459,-9.779999999999985,-0.5905785970302103,-0.019657651532321022,-0.0230797721873872,0.01574763079919082,36.82354070660522,-0.4375,93.44118023553509,0.6501669860471071,0.23585112694316415,-0.689053881890912,-0.21646213068461329
368.0,-0.019859195049826403,-0.23128166865820624,-0.08040743024264288,-0.08000000000000004,-9.779999999999985,-0.5901280081925246,0.009631516469936147,-0.19945539655733102,-0.02584963322369712,36.765497249888504,-0.4375,93.4383320532514,0.6502791025267991,0.2355632392580479,-0.6891497507697957,-0.21615274623580383
369.0,-0.027411538522983232,-0.23349687434643346,-0.07356190173757257,-0.07579156327543426,-9.781032258064506,-0.5842034739454096,0.11926345211814582,0.23162470827535392,-0.03050231080224598,36.891296125830465,-0.417152605459057,93.40921215880894,0.6502502669936764,0.23606999946225882,-0.6887275039227685,-0.21702433563698506
370.0,-0.028001724202607853,-0.23541459180711338,-0.06348601999321024,-0.07273449131513647,-9.780516129032245,-0.587101736972705,0.09742614490187884,0.1154763326323006,-0.05248553840163502,37.01318838549588,-0.42732630272952854,93.42335607940447,0.6499283738450208,0.23675645691750924,-0.6885791723300483,-0.21769706054250698
371.0,-0.028253902820500127,-0.2345779992351274,-0.06562587620496048,-0.07120595533498758,-9.780258064516115,-0.5838734491315133,0.15659250132455127,0.020704189584262407,-0.000983316530272827,37.07413451532858,-0.4324131513647642,93.40169820099256,0.649929633696704,0.2370581374910128,-0.6883702296499531,-0.21806959517342178
372.0,-0.028237294472206034,-0.2339723073492586,-0.06833137128220373,-0.07044168734491313,-9.78012903225805,-0.5817754342431756,0.12915550565459516,0.022920899195613027,-0.02497322508541291,37.10460758024493,-0.4349565756823821,93.38734103598014,0.6499425691064165,0.23720602471324842,-0.6882560433733639,-0.21825917903832392
373.0,-0.029057332900074853,-0.23298719425735573,-0.06474517015242821,-0.0700595533498759,-9.780064516129016,-0.5807264267990067,0.0430349388514711,0.013009817243688208,0.008453864124227026,37.1213399503722,-0.43622828784119105,93.38016245347396,0.6499466074616369,0.23728697055121328,-0.688196632027473,-0.21836133839012983
374.0,-0.028811544861948105,-0.23204694700460846,-0.0662906992201347,-0.06999999999999998,-9.779999999999985,-0.5803830645161281,0.0663530773661822,-0.016378155894284926,-0.012382869426720232,37.125,-0.4375,93.37745715725808,0.6499509348201484,0.23730784045922954,-0.6881814666762678,-0.21838107581541244
