time,linaccel_x,linaccel_y,linaccel_z,gravity_x,gravity_y,gravity_z,gyro_x,gyro_y,gyro_z,euler_x,euler_y,euler_z,quaternion_w,quaternion_y,quaternion_x,quaternion_z
0.0,-0.06780487804878048,0.07609756097560977,-0.008780487804878048,-0.653414634146341,0.6099999999999997,9.759999999999994,0.07469512195121951,0.018292682926829267,0.07926829268292683,132.96951219512195,-3.830792682926829,-3.5625,-0.3984360097560975,0.015482086097560976,-0.043376645365853665,0.9160453990243905
1.0,-0.07333333333333333,0.07739837398373983,-0.007317073170731705,-0.6511382113821134,0.6099999999999997,9.759999999999994,0.02794715447154471,-0.014227642276422765,0.0934959349593496,132.9481707317073,-3.813516260162601,-3.5625,-0.398396309918699,0.015532700243902436,-0.04326747593495934,0.9160662396747975
2.0,-0.07170731707317071,0.07721254355400697,-0.0071777003484320544,-0.6732055749128916,0.6055400696864113,9.758606271776998,-0.06293554006968641,-0.05052264808362369,0.06445993031358885,132.93074912891984,-3.935757839721254,-3.5424651567944245,-0.39853638801393715,0.014830052996515674,-0.04420859407665505,0.9159701142857148
3.0,-0.06696768813841984,0.07391286220554513,-0.007315405461746926,-0.7096497811131954,0.6116110068792995,9.756888055034393,0.11678392745465917,0.4994996873045653,-0.011799041067333746,132.93434959349594,-4.151216906399833,-3.5822102355638936,-0.3984460865774441,0.014367606406920991,-0.04605886226141338,0.9159167629401712
4.0,-0.05743597813149347,0.06776428816397345,-0.005604228449232383,-0.7517660231192881,0.622392422683532,9.75333292985535,0.016992222961931855,0.07314500998608003,0.11203272206419335,132.9150078678206,-4.397363019225725,-3.644617855918013,-0.3986062520858601,0.014051046583994028,-0.0482316062555226,0.9157393985839537
5.0,-0.045625935564566567,0.05758001977042104,-0.0042970001412172935,-0.7733377715911154,0.6386037644495552,9.751379289475278,0.007291351449494644,0.08112403921805969,0.08778268675987008,132.89426632572776,-4.522417740926789,-3.7428193528213196,-0.3988092599532369,0.014311709503641391,-0.04958436688071173,0.9155781463415442
6.0,-0.033292904839718376,0.045155076761685745,-0.0007834331941334303,-0.8023061792652665,0.6569061308479094,9.74536706409248,0.007505825213338982,0.14254864431398656,0.010797322923601443,132.85766129032257,-4.690791875970868,-3.850928755875648,-0.39907230746678374,0.014536858599184977,-0.051303722991890094,0.9153679345319048
7.0,-0.022735358792793883,0.036947325949686305,0.0024320442211866293,-0.8296408945106819,0.6666112086182898,9.74240029050415,0.04377061520305029,0.10639922380923561,0.01841990457745768,132.8446744689221,-4.8449533730759144,-3.9008282646412074,-0.3991351520787893,0.014435983951834819,-0.05276340445267205,0.9152628860362122
8.0,-0.017064122738001574,0.03242486231313927,0.0031424075531077894,-0.8413117623918176,0.6734197482297404,9.740952006294261,-0.012373377261998428,0.0027033339889850558,0.09676681746656177,132.8314098151062,-4.924255015735641,-3.924333693941778,-0.39915209718745104,0.01439890749783635,-0.053444735921125114,0.9152131750098349
9.0,-0.01200786782061369,0.027857592446892225,0.0037002360346184105,-0.8466034618410703,0.6774760031471281,9.740314712824553,-0.0057582612116443745,-0.0030586152635719895,0.08180074744295829,132.82059402045633,-4.968125491738788,-3.934697088906373,-0.39916767815420945,0.014380583559402048,-0.05377748019040125,0.9151805075129824
10.0,-0.009183320220298977,0.029924075531077902,0.003836742722265932,-0.8659067663257279,0.6791667977970101,9.738709677419362,0.09550796616837134,0.4680369787568843,0.003577399685287183,132.81551435877262,-5.081289339103068,-3.9466660110149485,-0.3991590316616839,0.014076612925255704,-0.05471576812037765,0.915130150161684
11.0,-0.004477576711250984,0.03581176239181748,0.0003684107002360343,-0.8753412667191189,0.6752875688434306,9.738725413060589,-0.00823047797010229,-0.09252065302911089,0.09167855035405192,132.81617083005506,-5.126059697088906,-3.946656176239182,-0.3992675544736428,0.013790952084185681,-0.055086862321400476,0.915073009297994
12.0,0.00972895357985838,0.029288945712037773,0.0013898505114083395,-0.870384343036979,0.6911599134539733,9.738330448465781,0.17776480133752948,-0.02877040715971673,-0.25136334579071595,132.86236968922108,-5.09417904209284,-4.050949055861526,-0.39888858258359555,0.014702808493705742,-0.055194694926829255,0.915217557290126
13.0,0.03327242328874901,0.015557435090479941,0.007939811172305272,-0.8695157356412274,0.7109110936270653,9.734885129819045,0.3518132867820613,-0.6411536191974824,0.3334628245476003,132.93091070023604,-5.089066188040913,-4.1775447482297405,-0.3983281757879622,0.01575689427576711,-0.055545025913257266,0.9154148439103066
14.0,0.033973577235772365,0.00898109849762092,0.00046452924206661587,-0.6947194653628566,0.7522297403619198,9.744692948934096,0.07301325821437935,-0.825650734329924,0.8545122302461503,131.9485102656326,-4.061430175433667,-4.414665231257727,-0.40628553170350495,0.02088170146968079,-0.048424331069339854,0.912128036478963
15.0,0.014711906635195383,0.00874999063354689,0.008606084447941257,-0.5827601064029075,0.7681054287962235,9.751702296654301,-0.31983311322168523,-0.647842086283766,0.26552630100033714,131.6472242516204,-3.4043425218238355,-4.498386043048219,-0.40875576273757075,0.02377875944756659,-0.043555908753100295,0.9112269761855869
16.0,0.06501921059533178,0.002321494136600351,0.005860870705481254,-0.5949992506837511,0.7647254130605822,9.750780337941627,0.07550338831441308,0.8419670371098872,-0.9573479824659998,131.8836042579896,-3.479684046120415,-4.480580708384849,-0.40688309365832115,0.02344958708019557,-0.04400502746073583,0.9120583968457437
17.0,0.0666351953842119,-0.003490315087482672,-0.006173616574875421,-0.6735401446180361,0.8020062942564908,9.743911805477506,0.1437539807425724,0.24101757146603728,-0.3600370911543217,132.5872953429995,-3.9343997040200818,-4.698950488928852,-0.40121200795062006,0.02386156575587276,-0.04829823645086359,0.9143326980944888
18.0,0.04404930500917913,-0.019465849911955338,-0.012218200891686331,-0.5641886403656664,0.7255027537372147,9.753831591173054,-0.2153427185193511,-0.4808385785470758,0.019258598403956384,132.42681053538647,-3.289283840995092,-4.249593261773631,-0.40261649082031403,0.02250308509351466,-0.04153470607200929,0.9140160969221458
19.0,0.0718095987411487,-0.027460267505900866,-0.005227380015735639,-0.6523808025177027,0.7347836349331235,9.749011801730923,0.3439319433516915,1.1374704956726986,1.6348741148701809,132.50818253343823,-3.811654209284028,-4.307385916601101,-0.4019154096459481,0.021118644092840276,-0.04591382318961447,0.914184906042486
20.0,0.043784421715184915,-0.04018961447678992,-0.0014925255704169966,-1.520592446892211,0.8574586939417781,9.557149488591662,0.683398898505114,0.6055173092053501,-1.5976150668764755,132.1978117623918,-9.016861723052713,-5.159569236821401,-0.4022674734697089,0.00800340895436664,-0.08979715467899287,0.9085058277261997
21.0,0.08615499606608973,-0.053212824547600304,0.015464594807238392,-1.3879114870180962,0.8868174665617622,9.606743902439028,0.7134293863099921,4.808575924468922,1.9940425845790715,132.26194187647522,-8.209960169158142,-5.295967741935483,-0.40226780431235243,0.012148615805271438,-0.08410251472580643,0.9098355849732493
22.0,0.05954799370574353,-0.04531136900078678,0.03717682926829269,-1.4760910700236036,0.904777734067663,9.603225609756102,0.331449154209284,-3.7433320220298976,-1.6120414535798586,132.62889088316285,-8.68385006884343,-5.390833988985051,-0.39926930478481504,0.011516631646144766,-0.08813179174134539,0.911040751720299
23.0,0.05870141620771045,-0.03926455546813532,0.003769866247049591,-0.8605656963021243,0.9026549960660896,9.67318135326515,-0.17636211644374505,0.5033843922108578,-0.4433443154996069,132.89365411093627,-5.061758703776555,-5.3362940106215575,-0.3979545117311173,0.024309681133556256,-0.05903361113276947,0.9136496434569237
24.0,0.06932022029897718,-0.062258457907159725,0.0241424075531078,-0.9409933123524783,0.8816636506687645,9.691411880409127,0.1574449252557042,0.749645948072384,0.012468036978756813,131.3248106805665,-5.519821990558616,-5.199495967741935,-0.4106235292246263,0.021062891655389458,-0.06266529135562551,0.9085071628095989
25.0,0.06993080064441197,-0.05906280206811286,0.02394805365104343,-1.0114838803341946,0.856337239144281,9.70127523322468,0.16907595256828145,0.6142880558989923,-0.06867419027012857,129.58843377683488,-5.924901066839009,-5.045757406522798,-0.4244499441777097,0.01751126760488554,-0.06566070479736616,0.9023971178826384
26.0,0.061546045483496306,-0.04759188490502418,0.01791757521261849,-1.1082701659735492,0.8244387808624631,9.697552939192985,0.044467411768011694,0.9071440279494961,0.05686754196170993,128.56163120293357,-6.492541259225956,-4.853498662938819,-0.4325224345525645,0.013373140850829865,-0.06959928422126371,0.898541511691319
27.0,0.06450089701800953,-0.04821963972298356,0.018767100261396094,-1.2180139084623747,0.8237826658654743,9.686693756610556,0.08494888888648724,0.764967020178222,0.22648549244487481,127.85600881383237,-7.136524713566658,-4.849735141022759,-0.437976979408623,0.01048657837227184,-0.07473318676478818,0.8956660988981823
28.0,0.06604480334771444,-0.043573529538911145,0.021855324324246438,-1.2982327606828006,0.8207179458359629,9.677157362176246,0.11875972670130813,0.3499986310568529,0.08476492364179225,127.49040360046457,-7.616170622912361,-4.842029868898476,-0.4406974901196339,0.008400922670006888,-0.07849358311626506,0.8941454428039295
29.0,0.07653931748817666,-0.04536268923837769,0.018162123216411183,-1.31823125052236,0.8168656605655031,9.674809995014165,-0.18162131682243798,-0.15817830052192758,0.16091609675401963,127.3417547113259,-7.729038301228014,-4.835378624457105,-0.4418497688009657,0.007733776685121462,-0.07934268774223954,0.8935258007489357
30.0,0.09053512275817546,-0.05375755008170431,0.02658424620226352,-1.253592789848494,0.7709762906251891,9.687897017289032,-0.14054301201355685,0.0345628063910912,0.07493418265448162,127.12521062811433,-7.3455637911295355,-4.558543204926465,-0.4436702033538753,0.006964709530507979,-0.07532398202855112,0.8929748949089551
31.0,0.10567845831063771,-0.05070371603219757,0.027315529867457493,-1.2869985979140186,0.749671367185136,9.684875829651599,-0.027690000302608472,0.145944857168795,-0.07429284179628395,127.03976527668502,-7.546206487421573,-4.429523618592265,-0.44429935836114276,0.005222167485061229,-0.07642083196756036,0.8925920342219832
32.0,0.12024960660896931,-0.053146144767899306,0.02880664830841858,-1.2914345003933907,0.7363965381589299,9.68682140047207,-0.03387957317073171,0.050367574744295825,-0.013253589693154995,127.01450629425648,-7.568313581825334,-4.349505802517703,-0.444523513413257,0.004475877621164438,-0.076302634122738,0.8925010879702988
33.0,0.10987883556254915,-0.045173878835562564,0.026802517702596392,-1.3037938630999213,0.7214240755310781,9.68628166797797,0.07618017309205351,0.2271243115656963,-0.27383949645948075,127.04414830841857,-7.638365460267506,-4.257061369000787,-0.44433489854130603,0.003464376738001574,-0.07648991064201417,0.8925821095940202
34.0,0.09986152635719905,-0.032517702596380815,0.024895357985837932,-1.3125413060582216,0.7144154209284032,9.686210857592448,0.09133556254917388,0.20328481510621557,-0.0900963808025177,127.19343036978756,-7.689634146341463,-4.216669944925256,-0.44316540623760825,0.003011449060582219,-0.07671198035247836,0.8931466584610541
35.0,0.09561762391817466,-0.021969315499606616,0.026082612116443755,-1.300095987411487,0.7119087332808817,9.687928402832416,0.11808615263571991,0.07124311565696301,-0.07134146341463414,127.2589398111723,-7.616596184107002,-4.200240952006294,-0.4427384138654603,0.003241096260424862,-0.07603328405428794,0.8934156842911088
36.0,-0.10120377655389456,0.17235916601101495,0.2645967741935483,-1.1726797797010229,-0.014279307631785754,9.583670731707318,-17.234195515342247,10.131682730133752,-26.137190204563336,132.63064516129032,-6.895788257277734,0.30008113690007887,-0.3984777961821401,-0.027028245126278518,-0.06286142237096773,0.9054816575121948
37.0,0.16158064516129034,0.35313709677419347,0.10162096774193544,-0.40632258064516136,-3.625435483870968,8.143443548387097,-13.126209677419354,2.2027217741935474,-23.51945564516129,162.38387096774193,-2.371320564516129,23.849042338709676,-0.15017793641129032,-0.21392280815322579,-0.03869599324999999,0.9112407066129034
38.0,0.06736841070023603,0.23482474429583,0.08603678206136897,0.19271479150275367,-5.439338512981903,7.431983280881196,-5.999595544846577,2.383759097167584,-11.70651430959874,174.66308762785206,1.1236538650668768,35.609660208497246,-0.046828519963217935,-0.3080623189626278,-0.006169245552124308,0.9158738432212825
39.0,0.038908536585365854,0.1567714398111723,0.08797010228166796,0.34602753737214786,-6.2736664044059784,7.161469315499606,-2.903673288749016,0.9690856117230526,-4.8753011900078675,177.7583866050354,2.017936172305271,40.83711644374508,-0.019580525655782846,-0.34931821796341467,0.012246749143194341,0.9209370517745871
40.0,0.10141528979805933,0.3602543835000562,0.11223581918998912,0.3878943370424487,-5.543123524783635,7.614183198456408,23.125822725825184,-14.026146278239857,30.36502437619422,165.3380546696452,2.2547630170282114,35.685791324791126,-0.1221178814634521,-0.300263360914503,0.03299661097251884,0.9133647353404426
41.0,-0.03596230002622596,0.1547834663369675,0.10917131242740999,-0.3648554475291298,-2.4696913847364277,8.654630643288002,15.048996384549097,-3.569478651511746,13.773268728222996,136.93025065799333,-2.173499318590536,16.04937063289124,-0.3522926822390038,-0.15420788886146078,-0.015505238794031685,0.8618984876476997
42.0,-0.030091791240492997,0.004120490052826775,0.08309804803117152,-0.32234835712412435,-0.7733123524783634,9.260274999063352,7.834583754823723,-2.92184163201079,6.677398280319208,128.23217329811547,-1.8962641901764639,5.247700535761119,-0.42837507813120523,-0.05862878510883819,-0.02220163152860513,0.8666570487767413
43.0,-0.012832790079052837,-0.06462627852084975,0.05112697163837997,-0.3769982391068151,0.11808437300962865,9.559141658236856,3.9464402794949605,-0.8283831628638867,3.43176773069574,126.67944719193736,-2.2038140197070173,-0.40759525682814446,-0.444692308926979,-0.009685697226405904,-0.029910121449177613,0.8798314365538946
44.0,0.0008712674684350765,-0.08170469446629952,0.0269736989996628,-0.7231928365366601,0.5934637143606458,9.662655202128054,2.7474371042673558,5.724797216290136,2.8903422501966953,129.24693599902588,-4.271004271102618,-3.4275856093814396,-0.4260649671814469,0.010465345749128923,-0.04923826088288186,0.8973827448012438
45.0,0.030762054625154543,-0.09487692480611443,0.019327863324716196,-0.9468345135064252,0.8332602749990632,9.700213929789067,0.22387696227192688,-1.5404911768011686,-0.9116837136113296,132.39115713161738,-5.550056667041325,-4.90383696751714,-0.4016873229762842,0.020000204203289497,-0.061685072726387166,0.9113727334835713
46.0,0.049704394739799936,-0.07754074407103519,0.017453074069911208,-0.8363519538421189,0.8509141658236857,9.718545202502721,0.16701322543179345,-1.1009399235697424,-0.24468922108575922,134.87899713386537,-4.894545446030497,-5.000821906260537,-0.38238879561088013,0.024073915866396914,-0.05645996604061293,0.9211744913641299
47.0,0.061795549061481395,-0.06345015173654042,0.014832752613240421,-0.78105559926567,0.8604917013225428,9.72853066576749,0.04838171106365439,-0.6677840845228727,-0.2136654209284028,135.87838035292793,-4.562423195084485,-5.052835225356862,-0.3745530681154321,0.025915435846652426,-0.053767981263422124,0.9249968387874935
48.0,0.07458210632797571,-0.05743936158255593,0.016759694278970443,-0.7466007643025738,0.8618741148701806,9.733896669289278,0.07756547150724961,-0.23878835562549167,-0.11865586714622904,136.31015791839945,-4.354589093701996,-5.067652251695328,-0.3711244523196209,0.026811082126859242,-0.05206154608178787,0.9266532161441309
49.0,0.08002454010715221,-0.056891723802030655,0.015259263422127313,-0.7324271102618859,0.8615668577423097,9.736899179498714,0.022557697351167055,-0.15860308718294558,-0.18166376306620208,136.42452020343939,-4.274721582181259,-5.068412339365329,-0.37025252153231414,0.027125986161739918,-0.05138368500479562,0.9270919757256755
50.0,0.08685405192761603,-0.05903265145554683,0.012541306058221874,-0.7334047993705742,0.8602265932336739,9.734527930763182,0.053046321793863094,-0.00012047600314711582,-0.005664830841856802,136.43558959480723,-4.280947580645161,-5.0622639653815895,-0.37019276193666395,0.02704955807395751,-0.05142823506845004,0.9271307114166012
51.0,0.08914693154996065,-0.05927242328874903,0.010877261998426436,-0.7198652635719905,0.8537088906372934,9.737338709677424,-0.008759097167584575,-0.02014776750590086,-0.03715578284815106,136.403377016129,-4.2023099429583,-5.0139211250983475,-0.3704102308149094,0.0269906650440598,-0.05063173162549174,0.9270943532456728
52.0,0.08736141035727973,-0.056725438277956,0.012102609493836874,-0.7011490296354576,0.8413060582218721,9.738677419354843,0.054452001250781736,0.18172137575904293,-0.06648292657709455,136.38870967741934,-4.093021312463435,-4.941335562549174,-0.3705418601211645,0.026824160392377294,-0.049551575196327344,0.9271076507422535
53.0,0.09882989872702695,-0.06168933204220381,0.01632953055337005,-0.6685382244951479,0.8115562549173876,9.742951612903228,-0.4575522251810607,-0.5079296347011236,0.027519625421130144,136.33810483870968,-3.9095902933284914,-4.757562942564909,-0.371019343383163,0.02597173632925316,-0.04746518916671205,0.9270384852703202
54.0,0.09233027194415863,-0.06282047247271481,0.015043797534749543,-0.5873054025701545,0.7254555468135326,9.756475806451611,-0.2314474835582723,-0.014373083479594068,-0.06988434051524138,136.27006048387096,-3.437809259567471,-4.248741148701809,-0.37168875265932333,0.02338244378156206,-0.04199670003900119,0.9270926980222569
55.0,0.08144336177853093,-0.051958623333131615,0.012908995541568317,-0.5610962496721739,0.6791793863099924,9.763612903225805,-0.053752975650103896,0.11846870019568682,-0.08549660574149165,136.22479838709677,-3.274423783009542,-3.9782012195121954,-0.37203546597482284,0.021635940830297157,-0.03982459426546833,0.9271049137732257
56.0,0.07564300268312857,-0.04163627468780893,0.010455284552845528,-0.5531366378179912,0.6562419354838713,9.76212903225806,0.013421505880691562,0.14268242248179305,-0.07485884575036816,136.203125,-3.2259953297423793,-3.8444556451612906,-0.37220261829032236,0.02066321682742238,-0.03897999600370191,0.927113866678116
57.0,0.09435562549173881,-0.040842446892210865,0.013069236821400473,-1.4938080251770258,0.7263782454760035,9.475376081825331,1.215758998819827,15.992328874901654,2.2363997344610542,135.27490042289537,-9.059284028324154,-4.479318695908733,-0.37663854051416196,0.0035239192649488583,-0.08692678007179386,0.9170568162834385
58.0,0.10294118804091268,-0.04843214004720692,0.05164850511408341,-2.7687773406766327,0.8654101101494888,9.16106058221872,0.40582341660110155,1.988012637686861,-0.023737460660897103,134.30071547993705,-16.726637490165224,-5.492943548387096,-0.38133246159618395,-0.016008223370180964,-0.15094015810405192,0.9064070832913063
59.0,0.10376494885916601,-0.04873623131392604,0.07308634933123524,-3.1355983477576714,0.9106687647521634,9.139352871754522,0.36024537765538944,1.1355637785208497,-0.1091721577498034,135.12843233674272,-18.816443745082612,-5.735483870967742,-0.37471479159244686,-0.018965164386703388,-0.16916694392702597,0.9086290008916209
60.0,0.09834618410700235,-0.05040440597954367,0.06269236821400473,-3.391968528717545,0.9517214791502754,9.098813532651453,0.26928599527930763,1.1123131392604249,-0.06030684500393397,136.10635326514557,-20.31709284028324,-5.989516129032258,-0.3666337946026751,-0.020054462136900084,-0.18240168639496457,0.9108067954256491
61.0,0.09071125098347757,-0.0526294256490952,0.0513579858379229,-3.5354807238394965,0.9829260424862315,9.071515342250198,0.2931304091266719,0.7903963414634145,-0.1856904012588513,136.89909028324155,-21.16110346184107,-6.189978363493312,-0.36009574294649893,-0.019885129821400477,-0.19002862261132966,0.9126765796955154
62.0,0.06809362706530292,-0.04580330448465776,0.05224075531077893,-3.5966113296616844,1.0003929976396537,9.058747442958303,0.09377704563335955,-0.08756638473642803,-0.197683910306845,137.3784151258851,-21.520510424862316,-6.299798387096774,-0.3561297816502755,-0.019326035898111722,-0.19339232182100707,0.9139112692537374
63.0,0.06132848151062157,-0.04628874901652244,0.05289850511408341,-3.5941239181746663,1.005397128245476,9.06210778914241,0.033218184500393384,0.10600044256490954,-0.05141374901652241,137.63563262195123,-21.496019374508265,-6.304772324940991,-0.35408516774095183,-0.018617106355822186,-0.19337880161467352,0.9148049999494496
64.0,0.060332218725413056,-0.048781864673485456,0.05278599527930765,-3.5923377261998417,1.0108668371361131,9.06218764752164,0.1493816384736428,0.38980133752950435,-0.04539855428796223,137.7798436270653,-21.489857887490167,-6.346609461054287,-0.3529637910143587,-0.01806685276691581,-0.19344353955979549,0.9152418354828875
65.0,0.059000786782061374,-0.026265932336742726,0.053441384736428024,-3.6810841856805654,1.0108890637293468,9.024892210857594,0.22426239181746654,1.2817958300550747,0.02994689221085759,137.81804681353265,-22.05324547600315,-6.381923682140047,-0.35237500335798577,-0.01967037746813532,-0.19801743783634934,0.9144364036648308
66.0,0.06231071839254373,-0.0074953700901773295,0.05335346688454478,-3.8684711412374675,1.0169188404042853,8.943746010611472,0.19398868244265569,1.1165410841453327,0.10175210312897173,137.75346184107002,-23.242797413706143,-6.482107768968508,-0.3521476315714661,-0.023045879315782038,-0.2076789826228086,0.9122563363631704
67.0,0.061226956363856444,0.000623676087877504,0.048806552482398284,-3.9720129112953657,1.0237662652060768,8.897502430954834,0.07165504145736247,0.531190486997922,0.06564296737880529,137.6985051140834,-23.909287180495873,-6.557684490306441,-0.352173545045371,-0.024757531838064114,-0.213119803132018,0.9109650036929933
68.0,0.05447893844943412,0.0044259214428372575,0.047393048074401346,-4.014225181060744,1.0326250680869091,8.878501018781904,0.059853877927737095,0.30792903578849684,0.1880978408884585,137.69355822187254,-24.17250354304101,-6.6302289485363834,-0.35204896303881456,-0.0251435168293389,-0.21539972240550545,0.9104902416694707
69.0,0.05647235671488228,0.0020320008473037584,0.04787827069337692,-4.000464282111805,1.0447861768443987,8.88432918759709,0.07361793030926586,0.08821904189110129,0.06250387717121587,137.54686762391816,-24.078629820300996,-6.702481704795336,-0.35327047965866776,-0.02457885304094797,-0.21484203578969213,0.9101756521525954
70.0,0.050199691339345154,-0.004564152998850086,0.03842615344267587,-3.994235681575179,1.0516889184772737,8.886173051705704,0.0682378351388973,0.031638410599366534,0.11379951431338134,137.50864968528717,-24.03872052089007,-6.749044009360689,-0.3535694504310254,-0.02417978491416006,-0.2146546449350703,0.910119998990145
71.0,0.04983929976396538,-0.006301927616050354,0.04674822974036192,-4.002133556254918,1.0696136900078677,8.880812745869395,0.061243607395751375,0.37572408536585367,0.26321179189614474,137.19404258457905,-24.088099921321792,-6.865268489378442,-0.3560408443983084,-0.024074026909520065,-0.2153498204435484,0.9089934398904406
72.0,0.051568843430369785,-0.005332415420928403,0.04975314712824548,-4.123949842643588,1.0922584579071595,8.821027340676633,0.09755728756884342,0.7838549862313139,0.05779037175452399,137.03900717938632,-24.874947138080252,-7.059650373721479,-0.35667418845318644,-0.02563168396282455,-0.2220407158548387,0.9070677031266721
73.0,0.034703383162863886,0.0036490952006294256,0.05044059795436664,-3.9546687647521632,1.0648623131392603,8.898076317859953,-0.12819138473642802,-0.8878786388670337,0.09877557041699449,137.2829514162077,-23.79697088906373,-6.827891424075531,-0.35545190890952005,-0.02325127750826121,-0.21288027215656963,0.9097127156388671
74.0,0.01800509535049268,0.007385972799820166,0.035988910119515945,-3.7465993031358886,1.0177707841594548,8.97505366977633,-0.8966246815405942,-8.58968367146229,-2.0771003100295977,137.67165442002923,-22.492175733393275,-6.489209846015511,-0.3530200034491776,-0.021028166207204678,-0.20146763158688324,0.9127955623372483
75.0,0.024651642875875762,0.010416039114308193,0.008702558914990074,-2.0918283691131845,0.7901835824809864,9.379399376194227,-0.6170279190551122,-8.460754502922333,-1.4235570393578358,139.43820722575026,-12.501742862762727,-4.884996347083287,-0.3423971691242741,-0.0004245776787400249,-0.11599303660382713,0.9278389711450208
76.0,0.001934116368813462,0.017863549511071147,0.002235304035068002,-1.214707579333858,0.699304156831891,9.588885363980367,0.11912500936645315,-2.974814895470383,-0.6368925269753849,139.78362094198417,-7.230887752425911,-4.207211115169907,-0.3415494385248866,0.011561886725722156,-0.07151674504864935,0.9339630513649451
77.0,0.0032512832040762826,0.01654939867371024,0.0024109250309092955,-0.8237188565434039,0.653978494623656,9.6941538346259,-0.15100127383762316,-1.4548654040687872,-0.06674300325952565,139.58212506088194,-4.866181484395489,-3.869691562699037,-0.3441915772117943,0.01662080565583905,-0.051572866024127986,0.9359022361440187
78.0,0.005967891798733657,0.015816005395076993,0.0046413397774530745,-0.6560946761080514,0.6250931025439286,9.74121067026338,-0.07563832377955115,-0.5157047319321121,0.20461531977070926,139.35425588213255,-3.8480936926304743,-3.6671185980292984,-0.3465034163627815,0.018284944807463187,-0.04286080873196957,0.9363910682631973
79.0,0.009447079539919823,0.008103855232100709,0.008104080026975383,-0.6247946498819827,0.6138983177850209,9.760997040200813,0.00735172904724439,0.6334686785807949,0.6088840807762916,138.90305440035968,-3.6516054100633175,-3.5919598366490577,-0.3503698245600389,0.01828162060649657,-0.041189083133265886,0.9354828462014914
80.0,0.02196193473455472,0.002210857592446892,0.009236933797909408,-0.7519645948072382,0.6270671762017159,9.750746356449739,0.1300773200704357,0.8088173447978719,0.08114345659585628,138.4040744071035,-4.396834373009629,-3.674422089843018,-0.35437371128474027,0.016349537624255363,-0.04756098767206174,0.9337057758230114
81.0,0.02495792589262299,0.009875014049679672,0.010721385485744259,-0.8713955078490877,0.6296733730470945,9.740380858716424,0.21454902869881232,0.7406125894496272,-0.17971437001236373,138.3548069808175,-5.099170834738301,-3.7100029036004645,-0.35467642949106437,0.014407588044846575,-0.053383126124817354,0.9333170925121201
82.0,0.02554190551122102,0.026378891761267856,0.0127776872353977,-0.9771218294556216,0.6299271664606045,9.729947313701253,0.1508868274886666,0.48564362753362555,-0.2008770512532314,138.4200913346259,-5.71693887921022,-3.7316487767412236,-0.35405841635056773,0.012655418946105428,-0.05845686641095314,0.933283609283597
83.0,0.03804514630399762,0.02907654265482748,0.01219126297253756,-1.0290810760181333,0.6309313251657862,9.7242841407216,0.03207143793788167,0.2414861282829418,0.008180425986287515,138.47090756247422,-6.020515810572852,-3.743848581918999,-0.3536404118043162,0.011807214110149487,-0.06094847885467013,0.9333090773756696
84.0,0.052238394964594814,0.019817073170731715,0.011710070810385526,-1.0434767899291892,0.6325255704169943,9.721531471282464,0.04124213217938631,-0.005605822187254125,-0.17337234461054288,138.48885719905587,-6.10280782848151,-3.749348446105429,-0.3534366523583792,0.01159168489378442,-0.061649319238394965,0.9333513896471282
85.0,0.06646774193548388,0.013443548387096778,0.013572580645161293,-1.0496612903225802,0.6311290322580644,9.720427419354849,0.03377016129032258,-0.033467741935483866,-0.14788306451612904,138.53467741935484,-6.130745967741936,-3.749747983870968,-0.35303275576612886,0.01149764406451613,-0.06190042803225807,0.9334944195403225
86.0,0.07409677419354839,0.01572580645161291,0.015370967741935488,-1.072088709677419,0.632725806451613,9.720032258064526,0.14243951612903227,0.22232862903225806,-0.19697580645161292,138.55186491935484,-6.266935483870967,-3.75,-0.3528731784677418,0.011098307209677423,-0.06302027593548389,0.9334824083790317
87.0,0.0848951612903226,0.022282258064516138,0.01532258064516129,-1.1089112903225806,0.6365241935483874,9.716129032258067,0.08538306451612904,0.12363911290322581,-0.14606854838709676,138.5580141129032,-6.493346774193548,-3.75,-0.35282075669354823,0.010485347661290324,-0.06482145269354839,0.9333866714435481
88.0,0.09842741935483873,0.02058202202989773,0.016665420928402834,-1.104378638867034,0.6384032258064518,9.717686860739581,0.050346675845790716,-0.15939221085759242,-0.14511334579071597,138.56063508064517,-6.46319212234461,-3.75,-0.35277628806274575,0.010608689672305273,-0.06460424695377655,0.9334138517116445
89.0,0.11694354838709678,0.016835365853658545,0.016022226593233678,-1.0688627065302918,0.6393064516129034,9.72219826907947,0.023560434697088906,-0.26830497639653816,-0.051311713217938634,138.5625,-6.245834972462628,-3.75,-0.35278385651927596,0.011296299924862318,-0.06284935774704956,0.9335256322832413
90.0,0.1454516129032258,0.012824940991345402,0.01731353265145555,-1.036076514555468,0.6398145161290325,9.726260424862318,0.052380015735641224,-0.188386359166011,-0.1041588808025177,138.5625,-6.057998131392605,-3.75,-0.35276384077576683,0.011889831099527935,-0.061312806994492514,0.9336163951416208
91.0,0.14872580645161287,0.004702793076317862,0.014963217938631004,-0.9678003540519275,0.6362580645161291,9.73254956726987,0.05355895948072383,-0.5044502360346184,-0.1488284323367427,138.58991935483868,-5.655107936664043,-3.743548387096774,-0.35261148383949636,0.013085290428796224,-0.057999439964988186,0.933861617861133
92.0,0.12684987593052108,0.0055851641146684415,0.013323316992475139,-0.9072141761988339,0.6381290322580647,9.738041739797055,0.08833538854929493,0.09135687123000258,-0.17621774697895862,138.62335607940446,-5.298404748935827,-3.7467741935483874,-0.352416250108334,0.014196055518781898,-0.055115788582370026,0.9340968247988459
93.0,0.11648945409429279,0.012288254755996694,0.011019644334160464,-0.9076267576509514,0.6390645161290325,9.739355252274613,0.10526132133995036,0.17194220430107526,-0.13596980976013234,138.62518610421836,-5.301995450785773,-3.7483870967741937,-0.35234205793300266,0.014185123015095119,-0.05517290681203474,0.9341312796236558
94.0,0.11409860569537988,0.016257030603804803,0.013374453503485763,-0.9168942159990547,0.6395322580645164,9.738174937965269,0.12869272864232542,0.28244527649769585,-0.1291648203946591,138.6261011166253,-5.359403063334515,-3.7491935483870966,-0.3523004944403877,0.014019694781933118,-0.05562231864200047,0.9341274417672814
95.0,0.10955481032211953,0.02875843268978597,0.013941947444111098,-0.9635317854188825,0.6397661290322584,9.734087468982636,0.11498869811345225,0.3317640426548275,-0.12736516000063403,138.62655862282878,-5.627379295239248,-3.7495967741935488,-0.35229044697019396,0.013190844929518882,-0.05783473071035901,0.9340025042612958
96.0,0.11006266157131617,0.03467171014141905,0.01589684220840791,-1.0116110126432711,0.6400000000000003,9.726749379652613,0.11606483602943085,0.26199774196430375,-0.11264155952885299,138.6259305210918,-5.913684478058002,-3.75,-0.35228987779558096,0.012319932666268952,-0.0601376736064202,0.9338677221886508
97.0,0.10650527619508737,0.04251037947104039,0.016790439301060864,-1.0432265154200642,0.6400000000000003,9.72301075268818,0.11738415498742014,0.19202037635849595,-0.10470270697699888,138.625,-6.096410063677471,-3.75,-0.3522933075330263,0.011738160339751513,-0.06166941779328451,0.9337823558255083
98.0,0.10573247680722112,0.04778744780003634,0.019088768037627213,-1.0591293867422902,0.6400000000000003,9.721182795698933,0.11242191620338748,0.05195776882440927,-0.08546627284333815,138.625,-6.187872370548413,-3.75,-0.35229431063748096,0.0114558880408435,-0.06243128081196482,0.9337406218442059
99.0,0.10189235207488552,0.05518404648066333,0.018194153604067065,-1.0691530190239869,0.6400000000000003,9.72032258064517,0.0909315802215094,0.13454263249208173,-0.05293378926345095,138.625,-6.252226315842563,-3.75,-0.3522980704516131,0.011282118350682884,-0.06290149000659684,0.9337029923660349
100.0,0.0884449958643507,0.06720099255583128,0.01711910669975187,-1.0896410256410256,0.6400000000000003,9.72000000000001,0.05755272952853598,0.11056399917287013,0.01105769230769231,138.625,-6.377003205128204,-3.75,-0.3523279997419356,0.010933216247725397,-0.0638295934950372,0.9336438811712158
101.0,0.07300000000000001,0.07503225806451615,0.013693548387096778,-1.1030322580645158,0.6400000000000003,9.71974193548388,0.03659274193548387,0.21154233870967742,0.05151209677419355,138.625,-6.457510080645161,-3.75,-0.3523429643870969,0.010668207524193552,-0.06454221700806452,0.9335848880645163
102.0,0.05922580645161292,0.08020967741935484,0.012758064516129035,-1.1237096774193545,0.6400000000000003,9.714709677419357,0.02847782258064516,0.1341733870967742,0.0547883064516129,138.625,-6.580544354838709,-3.75,-0.35235044670967763,0.010280683532258063,-0.0655517085967742,0.9335125322258064
103.0,0.0503709677419355,0.08223387096774194,0.011330645161290325,-1.1338870967741936,0.6400000000000003,9.712193548387095,0.018951612903225806,0.016733870967741933,0.03170362903225806,138.625,-6.641078629032258,-3.75,-0.35235418787096795,0.010110032919354833,-0.06600002147580644,0.9334827042983869
104.0,0.04864791502753739,0.08318174665617624,0.011807238394964593,-1.0912966168371363,0.6333280881195912,9.717985051140836,-0.15533413650668765,-0.5632683418568056,0.02803156963021243,138.62893391030684,-6.385900619590872,-3.7122344610542877,-0.3523498123996854,0.010620924264948858,-0.06384078144158142,0.9336244401542093
105.0,0.03556077891424077,0.07041935483870967,0.011562155782848152,-1.0537415420928404,0.6244531864673486,9.724153815893,-0.09619148308418568,-0.04556328678206134,0.08529086349331236,138.59628245476003,-6.167067023996852,-3.6681746656176237,-0.35254112827694717,0.010946745214594806,-0.06193697235660895,0.9336744055413058
106.0,0.025691576388468605,0.06896546732837056,0.00852322015775989,-1.0405078678206143,0.6167427222659322,9.727246262785211,0.0359690847606367,-0.002932465351328444,0.03216091458371159,138.57838316286387,-6.101508723950452,-3.644571203776554,-0.35266905510621543,0.010874403156821805,-0.0612054891875063,0.933666566794846
107.0,0.01749675200225948,0.07240002319998387,0.006208108898706853,-1.0334474822974042,0.6128874901652239,9.72894571203777,0.007378351388972953,-0.032321612298008826,-0.013100551756137906,138.5694335169158,-6.071898515201033,-3.632769472856019,-0.3527291771361131,0.010848949161416408,-0.060812538101817665,0.9336678423587722
108.0,0.013724182452742643,0.07253468901934676,0.00513228025580504,-1.0321148701809602,0.6109598741148698,9.729795436664048,0.01477788537190583,0.11609725836712462,-0.03648979200710121,138.56495869394178,-6.049860547923098,-3.6268686073957515,-0.35273158018095974,0.010791310165385624,-0.060729617970263675,0.9336794039213212
109.0,0.014261776513546773,0.07973705340031068,0.006267949726643669,-1.072536585365854,0.6102045633359556,9.724335169158149,0.06757777038068147,0.3590419415360407,-0.08234304706570639,138.56259834775767,-6.282380116605136,-3.625098347757671,-0.3527621683398896,0.010090439016603118,-0.06268297231321995,0.9335516262958297
110.0,0.01938659242671831,0.08525090278198069,0.00656198430470657,-1.1310582218725418,0.6099999999999997,9.71684500393391,0.054515675119530344,0.4366118440961084,-0.1006915864754181,138.5625,-6.624820074038209,-3.625,-0.3527760554114868,0.009062941749056868,-0.0655074632124715,0.9333587946797794
111.0,0.020494099134539735,0.09452714398111725,0.006588906372934697,-1.195965774980331,0.6099999999999997,9.708064516129028,0.06868115656963021,0.5235887096774194,-0.06343676239181746,138.55935287175453,-7.006311467348544,-3.625,-0.3528111322218723,0.007903324524390245,-0.06863641463060582,0.9331349115531078
112.0,0.014842159414149974,0.10519251951824729,0.0071978000363130176,-1.2547198601948804,0.6099999999999997,9.699842845326714,0.070226792450927,0.42071046167967885,-0.10113928942484213,138.52866837136114,-7.352437164608929,-3.625,-0.352828790670338,0.006834040378255567,-0.07150898818792495,0.9329238132808404
113.0,0.004725957755855473,0.1133543242752527,0.005418628578345336,-1.2674212007504693,0.6101258851298187,9.69754927474833,-0.051785453105771755,-0.6041129536605538,-0.02918085143940769,138.51489968528716,-7.418159598236802,-3.622639653815893,-0.35288227939103034,0.006598087304293007,-0.072064925559049,0.9328531806376663
114.0,-0.006126212235181553,0.10910157486101627,0.006396886879184282,-1.0687563086664191,0.6008463527031582,9.722062262416312,-0.13667679234285252,-1.0390183740990193,-0.08325940590028907,138.54868448166047,-6.247817107574434,-3.5508551571690834,-0.3528995666216325,0.009670637572194461,-0.06229165507898874,0.933472801063279
115.0,-0.030145914929549877,0.09577826579400144,0.0023302294348714484,-0.9675826193214077,0.6094515005057886,9.732018542695176,-0.050872449082519894,-0.33422692898499357,-0.09098122242300055,138.58785030534636,-5.6579866664937475,-3.5832068862163275,-0.35279597886628433,0.01186350379917748,-0.05759132824887675,0.9338118888732009
116.0,-0.06036013291717464,0.09117394800321629,-0.00019995215903949228,-0.9528865102901292,0.6179082836911317,9.73350337048213,-0.028386657271393695,0.06486430891426959,-0.053727235916457006,138.5839281031059,-5.571248447330273,-3.6261333408264957,-0.3527609469469108,0.012510126687157582,-0.057028241024517055,0.9338709669425014
117.0,-0.07819991757521262,0.0762544677981342,-0.0022885616874601927,-0.9822397811996548,0.6335670450713721,9.72964167696977,-0.04030478438424937,0.2492694166573002,-0.001279457495035781,138.5742221160691,-5.742117193061331,-3.7183086058971186,-0.35273958960248764,0.01274268128485257,-0.05870996852631975,0.933779955415833
118.0,-0.10201549067245372,0.07536462016871144,-0.003850105048374128,-1.0300011470302577,0.6424247499157015,9.725202427784653,-0.005040880965349886,0.2368078911646968,0.00616517956211111,138.56931994867182,-6.027335705207459,-3.7685022573152,-0.35275904168558675,0.012330267900087323,-0.06116173570176062,0.9336283997480017
119.0,-0.12429883596602716,0.07716157275716679,-0.007592487240008877,-1.0648454275857895,0.6494681353265145,9.721670338316294,-0.028950932034134236,0.14680256309386916,0.0012584730375839737,138.56559795436664,-6.231861016966249,-3.811934500393391,-0.3527603724295829,0.012040363329459942,-0.06292377176178661,0.9335222453540315
120.0,-0.1250573644818334,0.06679557788133715,-0.005321027254937562,-1.0967397869636262,0.6671565696302126,9.715335562549175,-0.05213773981722447,-0.04635678296919446,-0.005030676935181263,138.5630409126672,-6.416309147350158,-3.921034126671912,-0.3527172874413845,0.012237824405878674,-0.06477926280693577,0.9334053750586049
121.0,-0.12705976013234077,0.06025144747725395,-0.007782464846980976,-1.1098529776674937,0.6798709677419357,9.712282258064516,-0.0002132444168734468,-0.03637174317617866,-0.012728753101736974,138.5625,-6.490530655500414,-3.9989415322580646,-0.3526786543548385,0.012547350297353183,-0.0656368788598015,0.9333615440603806
122.0,-0.12308820028646934,0.05252422885271039,-0.004959682462829591,-1.1409490104702538,0.6940472069236825,9.708133752950431,-0.026862744356351748,-0.08491175180052049,0.05506055952308902,138.5625,-6.672230438883172,-4.0860198662470495,-0.35261435622147896,0.012701814943523168,-0.06739025956817771,0.9332537689129597
123.0,-0.1225432730133753,0.04516699449252559,-0.004203579858379229,-1.158154405979544,0.7045397324940993,9.703744295830049,-0.02188360542879622,-0.11371828284815105,0.06116861723052715,138.5625,-6.782119148308418,-4.149259933123525,-0.3525601706268685,0.012908359917584582,-0.06844316657317073,0.9331991647881588
124.0,-0.11033438237608181,0.04005409126671914,-0.0039425649095200625,-1.1747645554681356,0.7169769866247051,9.701565696302117,-0.01551681746656176,-0.21596552911093628,0.07004941974822973,138.5625,-6.880356264752164,-4.22270480920535,-0.3525059964830842,0.01318235751593234,-0.06945071124842644,0.9331385241667977
125.0,-0.10439113659747018,0.031014328511771484,-0.012642498335653332,-1.1402237789747627,0.7175012104339409,9.706312211261068,-0.09013925033791281,-0.3261001394520769,0.10969321173515705,138.56084574028122,-6.675234868314874,-4.229354756753213,-0.35262130592723295,0.013883326869111746,-0.0678159754843249,0.9331945515920834
126.0,-0.1200705682987351,0.034237002965563174,-0.008482539490407311,-1.1244747927131877,0.714065121346003,9.708156105630533,-0.032972850975408016,-0.10400269069378038,0.08662583973854626,138.5511889991729,-6.583862393834856,-4.210418305795962,-0.35279587507651955,0.014073425305523616,-0.06706174284700114,0.9331825212799127
127.0,-0.1386434666828058,0.041806149004418106,-0.008463929068571085,-1.1240548629183558,0.7120915693276045,9.709164598842015,-0.03659362454356554,-0.12513273795113883,0.1066931323004297,138.53184449958644,-6.585056688656216,-4.199377130868083,-0.35288771952881826,0.014029978636239383,-0.06700985129997578,0.9331509581143859
128.0,-0.1513193729952188,0.04620637898686682,-0.009210918114143922,-1.1270972583671242,0.7115009380863044,9.709743589743585,-0.027486180879178517,0.10558678307006396,0.07195764994250439,138.53222339062722,-6.604143214509068,-4.195597298714922,-0.3529342996353768,0.01396201998127862,-0.0671381838641893,0.9331335711523937
129.0,-0.14455032379107907,0.05625425164921625,-0.005549597530714761,-1.1622268353204621,0.7179023179809965,9.704871794871792,-0.012784199802295788,0.18285830105509493,0.05992650396417115,138.52218466934977,-6.8082183421089795,-4.233297272488854,-0.35292770920793237,0.013542361170812402,-0.06892662353713006,0.9330076059656538
130.0,-0.11402950432730133,0.04569040125885131,-0.002181746656176239,-1.2146270653029116,0.7286782061368999,9.697096774193547,-0.054587922895357986,0.12658216955153423,0.08408856215578285,138.51013596577496,-7.114226003147128,-4.299242722265932,-0.3529554703839495,0.013091791455546814,-0.07159440986782065,0.932804511742132
131.0,-0.08936075830804391,0.0371017290472444,-0.0004038533588100856,-1.2446645311153581,0.7348229740361916,9.693225806451611,-0.06993989078715672,0.08910113661908509,0.0771597284665243,138.50438753933912,-7.2910847757671124,-4.340145554681353,-0.3529609886435875,0.012876465399816418,-0.0731092429020363,0.9326875912595071
132.0,-0.07958360496047356,0.03130489678168672,0.000318234610917538,-1.2607032332996149,0.7378953579858374,9.691290322580645,-0.03350825184519126,0.09124915701921996,0.08089337229777828,138.50196695515342,-7.384352871754524,-4.3605969708890635,-0.3529636493217937,0.012735707272488852,-0.07395812388246978,0.932612764541044
133.0,-0.08349046495073245,0.031229159641826848,-0.001102881120977108,-1.2424247873815149,0.7394158143194329,9.693161290322578,-0.062426824585066126,-0.23456326570754188,0.08741265782473492,138.50044256490952,-7.280384539732493,-4.370748918174665,-0.3529492274028325,0.013136043405717281,-0.07313476663438986,0.9326809373814582
134.0,-0.0937357910906298,0.031463517665130586,-0.001810291858678955,-1.2052596006144394,0.7399596774193542,9.697096774193543,-0.04010896697388633,-0.18490063364055298,0.02920986943164363,138.50967741935483,-7.057762096774194,-4.3745463709677415,-0.3529091112419356,0.013841102698924732,-0.07135903117242703,0.9328258278575269
135.0,-0.10215821812596004,0.03220353302611369,0.002183563748079876,-1.1871781874039935,0.7441290322580641,9.698709677419348,-0.09669258832565283,-0.15220334101382488,0.17977630568356373,138.3725806451613,-6.951612903225806,-4.379838709677419,-0.3541322765161289,0.014190355994623654,-0.07055955661443933,0.9324190153763443
136.0,-0.10741935483870968,0.024798387096774198,0.0037822580645161287,-1.1862741935483871,0.7516129032258065,9.69951612903225,-0.06234879032258064,-0.01244959677419355,0.1798891129032258,138.16129032258064,-6.946975806451613,-4.409677419354838,-0.3559458099032258,0.014360884395161292,-0.07066364898387095,0.93171445683871
137.0,-0.11976612903225806,0.019072580645161295,0.0017499999999999998,-1.1661693548387095,0.7561290322580649,9.701725806451604,-0.10942540322580643,-0.29632056451612904,0.21517137096774194,138.00725806451612,-6.82429435483871,-4.431854838709677,-0.3571967355645161,0.014833217016129035,-0.06976662935483868,0.9313012880645162
138.0,-0.14140322580645162,0.012508064516129035,-0.0021774193548387095,-1.1267419354838712,0.7583870967741941,9.706096774193542,-0.035534274193548376,-0.10972782258064515,0.07706653225806451,137.9350806451613,-6.591834677419355,-4.435685483870968,-0.3577667738790322,0.015582374145161285,-0.06796692741129032,0.9312063870887097
139.0,-0.16771774193548392,0.013854838709677422,-0.004661290322580646,-1.1070967741935491,0.7595161290322587,9.708193548387092,-0.039264112903225803,-0.028679435483870967,0.1260584677419355,137.8688508064516,-6.475907258064516,-4.437600806451613,-0.3582300488870967,0.015954147564516127,-0.06711588058870967,0.9310878610080646
140.0,-0.16995653029110938,0.016465971675845792,-0.004693351691581431,-1.1325995279307635,0.7629728560188829,9.70573328088119,-0.08091684697088905,-0.04790519276160504,0.13098323170731707,137.86283069433517,-6.628448318253343,-4.470665322580645,-0.3583645232604249,0.01567047433379229,-0.06838365641050353,0.9309407326276555
141.0,-0.14700767112509835,0.012100904799370576,-0.0034384343036978756,-1.1730393391030685,0.7666719118804091,9.6995936270653,-0.07931869590873328,-0.17545731707317072,0.03589324350904799,137.86821523406766,-6.862111526357199,-4.518598790322581,-0.3582720386243117,0.015180701604838713,-0.07037541615302911,0.9308344414541698
142.0,-0.12314496459480723,0.009441581431943354,-0.0006829268292682924,-1.215068056648309,0.7684972462627849,9.694837136113293,0.027301337529504324,-0.013383900472069235,0.06076416207710464,137.8893747541306,-7.114523505114082,-4.54233870967742,-0.35806629013473645,0.014565882935483871,-0.07245215641522422,0.9307629107069237
143.0,-0.09352068328995945,0.0065970314107607585,0.003328511771470073,-1.2454130605822193,0.7694099134539729,9.692095987411484,0.03377447976557929,0.014708096290019974,0.005648313462042809,137.9143194335169,-7.292997639653816,-4.554435483870968,-0.35792106199881973,0.01415250635897436,-0.07389605689960961,0.930705437587333
144.0,-0.07438534164497972,0.005238031834412637,0.006164255885735038,-1.26886782061369,0.769866247049567,9.687628638867034,0.05466445762472513,0.13079154814500998,-0.016833101333494728,137.9075629425649,-7.433998819826908,-4.560483870967742,-0.3578468479268292,0.013767920244003314,-0.07507787136512736,0.9306481051565698
145.0,-0.06025325304121529,0.0057032015977728015,0.007307147612419054,-1.2950239968528714,0.7699999999999996,9.68344059795437,0.0820381690169259,0.24431493221569933,-0.05161580322378906,137.8913798190401,-7.583197285601888,-4.5625,-0.3578391240066878,0.013313132285652327,-0.07633690949845667,0.9305611694350904
146.0,-0.05755148883374692,0.00801210433940568,0.006136657991890094,-1.314017112509834,0.7699999999999996,9.681500000000003,0.05192585083419072,0.15989350072626035,-0.057230010187818994,137.88316532258062,-7.677220200629426,-4.5625,-0.3578390797177422,0.01299655883440759,-0.07717887369100651,0.9304885568214001
147.0,-0.05699358470011501,0.009683864915572236,0.004798462748895479,-1.3232383949645938,0.7699999999999996,9.680580645161296,0.008211155157457278,0.05351517581552986,0.01476987885573644,137.87852822580643,-7.720112116443746,-4.5625,-0.35784370604838744,0.012856544155107012,-0.07755518903098717,0.9304497345881189
148.0,-0.05473446105428799,0.010570613690007873,0.005560582218725413,-1.3258245476003139,0.7699999999999996,9.680129032258069,0.004246164437450825,0.008750491738788353,0.001105182926829265,137.87575604838707,-7.755045239968529,-4.5625,-0.3578473973790327,0.012789331237411484,-0.07773741090204564,0.9304385735804477
149.0,-0.05802045633359561,0.010507081038552323,0.007030291109362707,-1.3149445318646726,0.7699999999999996,9.680000000000005,0.003383162863886703,-0.1398283831628639,-0.02230527143981117,137.875,-7.70030487804878,-4.5625,-0.35784045767741957,0.012960522703383163,-0.0772944945236035,0.9304813992619982
150.0,-0.057451088381851576,0.007529458936028567,0.006958527507111301,-1.2918610976618443,0.7699999999999996,9.684764267990076,0.024858152272589723,-0.1854791111884444,-0.1223637757469386,137.90560380479735,-7.564624311565696,-4.5625,-0.3577389755053765,0.013391063944844562,-0.07616091152343701,0.9306071142031106
151.0,-0.06028455284552847,0.004606487925921443,0.006298008836167768,-1.2220677439528738,0.7699999999999996,9.693334140289293,0.012126656781456153,-0.8679663701103512,-0.22225092799935442,138.01618703221772,-7.156131982690795,-4.55463217938631,-0.3569481045898243,0.014647491730093404,-0.07276719199352417,0.9311542161322398
152.0,-0.06569906196061209,-0.003279066248738544,0.0028538696587843025,-1.0087270452697603,0.7393923480870218,9.717994902102635,-0.22300232216825314,-1.1961617251170205,-0.11702804482781107,138.25767153561372,-5.902428331930544,-4.35601545203374,-0.35521984560323927,0.017134906671498314,-0.0619432469119909,0.932489643309931
153.0,-0.07943058826553327,-0.005261353213537906,0.0031679711337644118,-0.9410929445373942,0.7313474797270744,9.726032781312458,0.1119765561239211,0.10829722368779005,-0.34016677989770155,138.54406234230765,-5.509310762196211,-4.291054961039912,-0.3529582549675183,0.01807857745380393,-0.05853014113536303,0.9335809282571909
154.0,-0.08920732796439529,-0.009971451587099403,0.0034610508697932993,-0.9580982031892321,0.739595848439462,9.724794518114926,0.14481904615794794,0.10810096235530336,-0.3463785069826824,138.7862424221373,-5.60621726642462,-4.344165364076211,-0.3509813826974688,0.018288676309415733,-0.059436566258771195,0.9342868245435247
155.0,-0.0983238318290374,-0.007829640336913496,0.005647187058088564,-0.9863974443088126,0.7496366338971507,9.722893536973102,0.13300308962257987,0.11649689425840777,-0.16259291303662152,139.0393422615236,-5.783070277586818,-4.388816553005847,-0.3488503846715774,0.01834710496047356,-0.060965597069650684,0.9350015363137036
156.0,-0.09473092073608057,-0.004210973005915644,0.004321202922011661,-1.006666716263628,0.7546570266259951,9.721749679580181,0.09131544059292765,0.021234385921594295,-0.05389904079477387,139.14306352318448,-5.895513809938681,-4.431239133490154,-0.3479764205823743,0.018317540295605252,-0.06201426945798294,0.9352657912752322
157.0,-0.09938646561935313,0.0023213702112207238,0.004232619465506956,-1.0351383093696234,0.7581237121126978,9.717831328912368,0.1520249371006649,0.2755881231933553,-0.11309918281299083,139.1992793234827,-6.063149815697022,-4.458844435462256,-0.3475585710728826,0.018017553760705848,-0.06342900097055186,0.9353350129999565
158.0,-0.11169476890798682,0.011848857148621118,0.0025748350783755974,-1.0747365894006333,0.7596302124311571,9.713554681353264,0.11338286025540156,0.18428503701910467,-0.14370876959389942,139.23188812564305,-6.294487734269402,-4.451412425104399,-0.34727124652722485,0.017392593028586416,-0.06536469224180434,0.9353162147211762
159.0,-0.12110859609836792,0.016213177590832985,0.0004502814258911819,-1.1062494906090499,0.7600000000000007,9.709387096774192,0.07810665436058828,0.15188386390687728,-0.13083845246020698,139.2450992555831,-6.474441939518651,-4.475666873449131,-0.3471689972636122,0.016855770896669293,-0.06686016513899816,0.9352568700899352
160.0,-0.11807278742762616,0.01838668320926386,0.0010024813895781637,-1.126178246484698,0.7630967741935488,9.70437096774193,0.08552264267990074,-0.0057407981803143104,-0.15596308933002478,139.25480769230768,-6.591961331679073,-4.488841501240694,-0.3469827746294458,0.01662077748924731,-0.06787835836021505,0.9352638339702233
161.0,-0.11087096774193547,0.011782258064516132,0.0013548387096774194,-1.1285241935483867,0.7615483870967747,9.704830645161286,0.020211693548387095,-0.07837701612903225,-0.12303427419354838,139.2852822580645,-6.609173387096774,-4.494808467741935,-0.34676784385483883,0.016661614249999998,-0.06804504342741935,0.9353335445806452
162.0,-0.10425413060582217,0.006009834775767114,0.0006129032258064517,-1.126934893784421,0.7639213217938632,9.707338709677416,0.04634515145554681,-0.07111403422501966,-0.12018956530291108,139.30020161290324,-6.596656176239181,-4.4977822580645155,-0.3466293105106216,0.016786381422501967,-0.06797343989280094,0.935381121975413
163.0,-0.10330448465774981,0.0037065302911093636,0.015516129032258066,-1.1179956726986626,0.767121951219512,9.708669354838705,0.04920584185680566,-0.11108625098347757,-0.09903127458693942,139.30735887096773,-6.547773652635719,-4.499899193548386,-0.3465412885133755,0.01705882848544453,-0.06752694170849727,0.9354550157498032
164.0,-0.10797423288749018,0.0009093233674272225,0.00891522423288749,-1.103304287962235,0.7687222659323365,9.709403225806447,0.056104937057435085,-0.06847339693154995,-0.10414781667977971,139.31093750000002,-6.45732936664044,-4.5,-0.3464771229018492,0.017403082984854434,-0.06683750977753738,0.9355105975822188
165.0,-0.10785177732050275,-0.001054953700901773,0.0027089562024652505,-1.093956631160605,0.7694256490952003,9.709862903225803,0.08113094247412697,0.015404663196756034,-0.030227340928806315,139.3125,-6.411124360739574,-4.5,-0.3464390713430877,0.017576741363291563,-0.06648377389259416,0.9355451609598437
166.0,-0.10309927575702557,0.00029510379471040383,0.00274560713349069,-1.095111380096432,0.7698741148701806,9.709999999999997,0.04689107607577316,0.05608942837257157,-0.10808242046440314,139.3125,-6.4126942368214,-4.5,-0.3464365722441246,0.01759788658487159,-0.06647351246242612,0.9355483340363734
167.0,-0.10455278500675827,0.006720329238031835,0.0017599003409388934,-1.0979561621174532,0.7699999999999996,9.709999999999997,0.04721619106699752,-0.021999542304666223,-0.03922020315116302,139.3125,-6.427772177419355,-4.5,-0.3464575776232426,0.0175644663931439,-0.06656792663955295,0.9355432511346304
168.0,-0.11151832798725012,0.01171500332869334,0.0011783372672436402,-1.0832200165425978,0.7699999999999996,9.709999999999997,-0.02886166253101737,-0.12402900502330086,-0.010235101575581513,139.3125,-6.3364919354838705,-4.5,-0.3464932014971053,0.017759029450604202,-0.06585884422300226,0.9355675335753801
169.0,-0.11896608767576511,0.011554590570719605,0.00016666666666666674,-1.071126137303557,0.7699999999999996,9.709999999999997,-0.05334212158808933,-0.0866702853598015,0.01116883788254756,139.3125,-6.258971774193548,-4.5,-0.34652737961952057,0.017944541279983454,-0.0651882943986766,0.9355885860992563
170.0,-0.126852871754524,0.011227576711250985,-0.00024055861526357184,-1.060227576711251,0.7650904799370576,9.709999999999997,-0.07322359362706529,-0.1486636998426436,0.1017641129032258,139.3125,-6.200542142014162,-4.5,-0.3465448220967745,0.017979728722462625,-0.0646901734783635,0.9356295899197486
171.0,-0.1316441778127459,0.014488788355625493,-0.0004226986624704956,-1.0556420141620775,0.7623839496459486,9.709999999999997,-0.05130433713611329,-0.0548005999213218,0.03770161290322581,139.3125,-6.166878933910307,-4.49758064516129,-0.34655314070161325,0.01794015472816679,-0.06443604300531079,0.9356449379276164
172.0,-0.12914870180959875,0.013232297403619201,-0.000223446105428796,-1.0541839103068456,0.7592242328874907,9.71064516129032,-0.03530438630999213,-0.01532872738001574,0.061995967741935484,139.3125,-6.15848987018096,-4.4665322580645155,-0.34655978550000033,0.017786975920535006,-0.06430206099862312,0.9356465079315504
173.0,-0.12195979341927415,0.01138300147269463,0.0029079212814460643,-1.0525674514313381,0.7591861445661608,9.711248966087677,-0.02017493922612923,-0.008196182341786196,0.010067721257237386,139.31415425971878,-6.165319428473441,-4.451008064516128,-0.3465777720397024,0.017718011697860553,-0.06422322200892694,0.9356501227668507
174.0,-0.11275409025802417,0.016868920091186027,0.0035305735439488386,-1.055251467651153,0.7594317819605001,9.710624483043837,0.039484102967580544,0.05958638463555851,-0.04864557485525227,139.3149400330852,-6.17640971423672,-4.466633064516128,-0.3464708250521094,0.017736249465865758,-0.0643835317222054,0.9356739081253607
175.0,-0.11086248966087675,0.020265301902398683,0.006164185277088503,-1.0577791563275434,0.7597080231596367,9.710312241521917,0.01630479735318445,0.08061931348221671,-0.003959884201819686,139.34597808105872,-6.189021143507031,-4.451058467741936,-0.3463252109131514,0.017729839722704702,-0.0645357171364764,0.9357053152688176
176.0,-0.11789495450785774,0.020693134822167086,0.0015417700578990907,-1.0151395781637715,0.7572733664185279,9.716349669148059,-0.031716552936310996,-0.47808752067824645,0.05981441273779983,139.3614971050455,-5.940604321753515,-4.436088709677419,-0.3462894172630271,0.018424674099255578,-0.062408249519851106,0.935856650698925
177.0,-0.11280821682906655,0.022615646876071746,0.0008967701587685856,-0.986679053440658,0.7530283039803104,9.720330125683397,0.033199429078658034,-0.12922189271520507,0.05451012729730275,139.3794847838367,-5.7796906836934365,-4.4171248033044845,-0.34619829516062445,0.018738938887944076,-0.0609783887451734,0.9359814021810909
178.0,-0.10754897718332022,0.02147324940991346,0.0035003933910306853,-0.9819339103068447,0.7574036191974822,9.720297403619206,0.08203186467348544,-0.12506392604248623,0.33474626278520847,139.26490214398115,-5.747767505900866,-4.451702645554681,-0.34711498422226594,0.019007030323957515,-0.060863885979740365,0.9356433551477185
179.0,-0.11196400472069237,0.019414044059795445,0.004782454760031472,-0.9662895357985837,0.7638630999213216,9.721600314712834,0.03869738394964595,-0.14917510818253343,0.15935901848937845,139.06284421715185,-5.657956333595594,-4.476128540519276,-0.34888695771597167,0.019462214254720688,-0.060273112437450815,0.9350146666101499
180.0,-0.11743764752163652,0.014622344610542883,0.003673485444531865,-0.9487576711250982,0.7670928402832413,9.72612273800158,0.05740312745869394,-0.16397767505900868,0.029755114083398905,138.96085759244687,-5.552365263571991,-4.489072334775766,-0.349630127857986,0.019895897179779704,-0.05942041282356411,0.934788675917978
181.0,-0.1151093627065303,0.009490165224232888,-0.0010102281667977951,-0.9119653815892994,0.7686624704956726,9.72907159716759,0.09133064516129032,-0.5111280487804878,-0.052340676632572775,138.97988788355624,-5.334815106215578,-4.508359559402045,-0.34946934349488606,0.020616720275373722,-0.05768244375295043,0.9349384641117229
182.0,-0.09596538158929976,0.007376868607395752,-0.004285601888276945,-0.8955538945712038,0.7736978756884345,9.730263571990562,0.09528176632572777,-0.10401012981904015,-0.0513719512195122,138.9835759244689,-5.2381933516915815,-4.531766325727773,-0.3495187814523998,0.02110968629032258,-0.056981646121164437,0.9349542048135329
183.0,-0.09355232100708104,0.00994649881982691,-0.0001766325727773398,-0.9070751376868613,0.7771439811172308,9.730293076317864,0.08995500590086546,-0.017853806058221885,-0.05866197875688434,138.98928009441383,-5.3024808221872535,-4.548387096774194,-0.34952724340519276,0.021076735905192767,-0.05764173135798585,0.9349077402470496
184.0,-0.10281235247836351,0.01010405192761605,-0.0014439417781274583,-0.9176469315499609,0.7787332808811963,9.729638080251775,0.06624582022029898,-0.014935336349331235,-0.014866492918961445,138.9832808811959,-5.364423928009441,-4.556451612903226,-0.34954970059323365,0.020983441138670348,-0.0581661153379229,0.9348765683212039
185.0,-0.11451298190401259,0.011810385523210072,0.0006184107002360349,-0.9319213217938633,0.7795279307631791,9.726042486231322,0.09488099921321794,0.12352478363493312,0.02714889850511408,138.9653324154209,-5.449213217938631,-4.560483870967742,-0.34958084974036185,0.020773629372147922,-0.05887131828009442,0.934825930535012
186.0,-0.13071046420141622,0.014638473642800947,-0.0004815106215578279,-0.9414878048780488,0.7799291896144772,9.723210070810394,0.07935434697088906,-0.03211054287962235,0.00853412667191188,138.9502360346184,-5.503299567269866,-4.562106608969316,-0.34962070874114876,0.020634622306058226,-0.059320075792289526,0.9347838155704169
187.0,-0.14487450826121162,0.013805468135326515,-0.00038080251770259625,-0.9374260424862313,0.7800000000000005,9.724649881982696,0.07033708693941779,-0.017673092053501184,-0.0006159028324154202,138.94285995279307,-5.482988296616837,-4.5625,-0.3496190205066878,0.020712375666011022,-0.05913740628402832,0.9347897595074743
188.0,-0.1605098347757671,0.016374508261211645,-0.0027065302911093627,-0.928317859952793,0.7800000000000005,9.727324940991352,0.07491148701809598,-0.07678009441384737,-0.010867427222659322,138.94159126671912,-5.4321695515342245,-4.5625,-0.3496106559952795,0.02086698280881196,-0.05871227625491739,0.9348137217859953
189.0,-0.1615175152673186,0.014654040687872322,-0.0032801318796598106,-0.9503113783672397,0.781720430107527,9.723643737589452,0.07826655052264808,0.15005245213742457,-0.038134343036978754,139.00270362669062,-5.563197332434154,-4.587845622119817,-0.34916910748267205,0.020590248498557565,-0.059813450403694124,0.9349143052294778
190.0,-0.13310730208684576,0.014915533325840176,-0.002060994342662321,-0.9968000636918807,0.7860215053763437,9.716617305458769,0.07650542317635158,-0.059587267243640205,-0.038982592446892214,139.0667530721966,-5.835566998239107,-4.607430875576037,-0.34863744245494754,0.019983553482166284,-0.06211016379350717,0.9349772766430628
191.0,-0.12239472106702631,0.014021102618860293,-0.0022932823798284064,-1.0198713143006999,0.7881720430107522,9.71313556067588,0.06380837641901764,-0.06432844872803567,-0.01846356215578285,139.0989007296467,-5.957393058521599,-4.617223502304148,-0.3483667593982056,0.019708379161224768,-0.06320469367016034,0.9350228554537108
192.0,-0.11699574763028736,0.012353293244914021,-0.0007514798995916225,-1.0232945281180919,0.7892473118279564,9.713886328725044,0.047025155951444304,-0.16049083726724367,-0.027603756884343036,139.11497455837173,-5.985904190551122,-4.622119815668203,-0.34822251906200596,0.01970231081851561,-0.06341091663749951,0.9350606095978231
193.0,-0.11582851897643401,0.011938743396650558,-0.0012023528530216178,-1.0197883930913036,0.7897849462365585,9.716781874039945,0.0802918118466899,-0.14266981379491214,-0.027158733280881194,139.13583909370197,-5.97067386946911,-4.624567972350231,-0.34801358698261586,0.019790436909257806,-0.06324702510100783,0.9351419009037502
194.0,-0.4244795436664044,0.09518135326514554,0.34500865460267505,-0.852427222659323,0.5048387096774191,9.721225806451617,-9.09018243509048,4.950204071597168,-17.286764850511407,141.65080645161288,-4.981530291109362,-2.941935483870968,-0.32691482415106216,0.009606684933123527,-0.05143108936309991,0.9411596694303697
195.0,0.12670594020456338,0.29911703383162863,0.08855074744295827,-2.578184500393391,-2.904933123524784,7.930058221872544,-10.555761949252556,26.465808172698665,-30.487009490558613,179.93078284815107,-15.527080055074745,21.544620377655384,-0.0167275995302911,-0.12421779817859954,-0.19853188362726204,0.8971477231927616
196.0,0.05534048930351057,0.10903758757633658,0.03743397587201677,-3.6650676726237315,-4.821521861301563,6.737817129369452,-5.265655792214604,12.785547855550561,-14.887923188059645,193.7713630062568,-22.230273898505114,36.064264873927534,0.09834815471258103,-0.21996896846602781,-0.2746372385146679,0.8804263756439996
197.0,-0.010322842905848409,0.00039763403394403596,-9.695215615751138e-05,-3.9900309561275344,-5.814347720205314,6.2691735416432515,-3.854530085047394,2.6141388951331916,-6.524027118223372,193.44741345397324,-24.145909318684204,42.844824449252556,0.1008997172341707,-0.28996172641100926,-0.27878754615249524,0.8849465338511857
198.0,-0.05670174403356935,0.274073817016972,0.07404426585740513,-3.2811243490315096,-4.768948053651044,7.229167415982916,9.658823667153722,-27.185269262110825,33.500511642501216,168.5946744689221,-19.72154336901952,33.862331579464986,-0.09886167482243073,-0.25475424063695623,-0.19190143218511857,0.8801976202481736
199.0,-0.07449200104904272,0.17256513431493758,0.11177213292870254,-1.7390460454834966,-2.0130788655351988,8.493720804765651,8.152597317447828,-16.84974148589412,15.663461466411897,140.10449449252556,-10.42616986999363,14.743489378442172,-0.3300865567096025,-0.11431052675396197,-0.11042281646352703,0.8535632396079578
200.0,-0.09713191712562286,0.08332426660672136,0.059894721067026334,-1.009837735566296,-0.498640140871455,9.183465437788016,4.229475291296692,-8.87468879959537,8.4262429283279,133.49232887490166,-6.016635289048743,4.255940204563337,-0.38846126756801924,-0.03865604074519499,-0.06846535321602787,0.8794811503271889
201.0,-0.0906820276497696,0.03864163950395264,0.029910644037315946,-0.6318134202540183,0.27035622494473754,9.537608294930871,2.196154953917051,-4.3375682580270505,4.185486329661684,134.0064552424038,-3.727842133116032,-1.0904421200029968,-0.38730173181106,0.0016021607463189858,-0.046272757411093615,0.9050801332190253
202.0,-0.0886601101494886,0.01156530291109362,0.01705350118017309,-0.46512077104642013,0.66952911093627,9.710693548387091,1.131519226986625,-2.171741001180173,1.8201108870967742,135.42066409323365,-2.7164720200629424,-3.822613837529504,-0.37745546011369,0.022980106357199055,-0.03692853033025177,0.9203752694036192
203.0,-0.09326652242328878,-0.018139850511408345,0.012758261211644372,-0.4083811959087332,0.819675059008654,9.759911290322574,0.23274857395751375,-0.2654455153422502,-0.39375614673485443,137.4422219217152,-2.3884515145554683,-4.78080743509048,-0.36184898420180966,0.03156270697029898,-0.0348553972631786,0.9298860571235248
204.0,-0.08700236034618411,-0.011652242328874903,0.014405979543666405,-0.40507474429582996,0.822848151062155,9.760125885129813,0.12293469708890638,0.10892014162077106,-0.09175845790715972,138.93995869394178,-2.3657061369000782,-4.811516522423288,-0.3499394730448465,0.032241160975609764,-0.03439189379228953,0.9354175521085764
205.0,-0.09499134539732493,-0.010624704956726988,0.00974036191974823,-0.44119590873328085,0.827010228166797,9.754901652242326,0.1415814319433517,0.24993115656963022,-0.06893194335169157,139.41099527930763,-2.5779799370574352,-4.846921715184894,-0.34605069245633346,0.03192872565538946,-0.03610385597954366,0.9369645685381591
206.0,-0.11481510621557828,-0.00530763178599528,0.007845790715971676,-0.4935216365066876,0.8289299763965374,9.752289535798582,0.1343627065302911,0.2650275373721479,-0.03233674272226593,139.50730723839496,-2.8845397324940993,-4.863640833988985,-0.345309319874115,0.031158453038552324,-0.03863416845790716,0.9371733175420929
207.0,-0.1294343036978757,-0.0009394177812745872,0.0055531077891424075,-0.5166199842643586,0.8294649881982683,9.75098347757671,0.06894177812745869,-0.06611919748229741,0.009195515342250197,139.51911880409125,-3.015711054287962,-4.869689221085759,-0.34522334318804104,0.03081258832651456,-0.03972805660660897,0.9371721598568052
208.0,-0.1259744295830055,-0.0026994492525570413,0.0027010228166797798,-0.5124468922108576,0.8297718332022022,9.750330448465775,0.04001278520849725,-0.1728068450039339,0.06105428796223446,139.50805959874114,-3.0019694138473643,-4.873377261998426,-0.34528874636192,0.03089129565892997,-0.039576598311959095,0.9371477646490951
209.0,-0.12228143093465674,-0.006335401157981804,0.0018101736972704714,-0.5045947063688999,0.8299999999999992,9.75,0.045784222497932174,-0.13807382133995036,0.006498138957816379,139.50292338709676,-2.9501124379652603,-4.875,-0.3453221442903228,0.03103785612386269,-0.03922779403453268,0.9371437071592225
210.0,-0.12606410256410258,-0.009087055417700583,0.0014696029776674938,-0.5003779983457403,0.8299999999999992,9.75,0.06719654673283705,-0.0681800558312655,0.008087779156327543,139.50045362903225,-2.9270471464019847,-4.875,-0.3453393222741937,0.031116978122415213,-0.03901800540839537,0.9371473859747725
211.0,-0.13714495450785777,-0.007120140612076097,0.0007710918114143921,-0.50868899917287,0.8299999999999992,9.75,0.11056399917287014,0.021933157568238215,-0.0653613523573201,139.51129032258063,-2.9802574441687346,-4.875,-0.3452773037419356,0.030972621004755996,-0.03941712076468156,0.9371559443986762
212.0,-0.1311813482216708,-0.0012818444995864363,-0.001215260545905707,-0.5331832092638542,0.8299999999999992,9.75,0.10684449958643508,-0.01254652605459057,0.03289392059553349,139.50725806451612,-3.117144851116625,-4.875,-0.34527075864516127,0.030582864401571545,-0.04057507722911497,0.9371276138122411
213.0,-0.12272373862696442,0.002153432588916459,-0.0003535980148883374,-0.5574061207609591,0.8299999999999992,9.75,0.09434966914805624,-0.08006358560794044,0.018059863523573198,139.50362903225806,-3.2525744416873446,-4.875,-0.34524083045161297,0.030221739918527703,-0.0416667016145575,0.9370991973899911
214.0,-0.1110806451612903,0.008157553107789144,-7.572777340676825e-05,-0.5514657749803303,0.8291188040912658,9.750503540519276,0.05099085365853658,-0.12195736624704956,0.06637613099921322,139.5104691188041,-3.215558615263572,-4.867918961447678,-0.34520512187018104,0.03026056979484657,-0.04139048723367428,0.9371208243333986
215.0,-0.08216148701809599,0.008674272226593234,0.0013267112509834757,-0.5765371754523996,0.8251534225019667,9.750251770259638,0.04999754130605823,0.1543727871754524,0.0023775570416994483,139.4761236231314,-3.3666699449252557,-4.843135326514556,-0.34553763245751373,0.029581972522226586,-0.04253998723918176,0.9369655365578287
216.0,-0.0619864280094414,0.011845003933910308,0.00015578284815106124,-0.6203111723052714,0.8224154209284027,9.745468135326517,0.024102576711250982,0.1232899783634933,-0.017100216365066874,139.45545092446892,-3.626475216365067,-4.826809598741148,-0.34573884667171506,0.028688852700236033,-0.0446033359167978,0.936817154911487
217.0,-0.045455940204563346,0.011388867033831629,-0.0002513768686073958,-0.6252000393391028,0.8210464201416208,9.74609756097561,-0.0005765637293469721,0.0051423583792289534,0.0436713217938631,139.44541699449252,-3.6553894571203775,-4.818646734854445,-0.34586246119590863,0.028537216897915024,-0.044839170984264376,0.9367678181195912
218.0,-0.030448465774980338,0.00926042486231314,0.0013768686073957512,-0.6218725413060581,0.8203619197482297,9.748048780487807,-0.007081038552321006,0.09785601888276947,0.024881982690794648,139.44045043273013,-3.634785601888277,-4.8145653029110935,-0.3459243617545239,0.028549325727773404,-0.04470510582218726,0.9367589349488599
219.0,-0.013095200629425654,0.007897718332022031,0.001845790715971676,-0.6273249409913453,0.8200472069236822,9.749008654602676,-0.013365460267505899,0.10234067663257276,0.020348151062155782,139.43769669551534,-3.6695023603461836,-4.812745869394178,-0.3459797768843429,0.028446531653815887,-0.044939113614476806,0.936725702336743
220.0,-0.0035861526357199073,0.00819826907946499,0.006428009441384737,-0.6363996852871756,0.82,9.747439811172306,0.011054287962234462,0.12507867820613688,0.05145554681353265,139.4375,-3.724291896144768,-4.8125,-0.34600756212745853,0.02826968949803304,-0.045401752786782074,0.9367016725554678
221.0,0.004221872541306058,0.008398898505114084,0.006502753737214792,-0.6461935483870969,0.82,9.745214791502757,-0.016551927616050354,-0.07192663257277734,0.18608379228953578,139.41074940991345,-3.7755015735641226,-4.8125,-0.34619840843587724,0.028109086810385524,-0.045850128557041694,0.9366168771864671
222.0,0.014300625679067851,0.00230592709152898,0.006212487355288299,-0.6520185081113484,0.8233179723502302,9.745323667153725,0.036615104342287666,0.2715150940391892,0.10593833127271364,139.3334949046495,-3.8116483552508336,-4.820948540706604,-0.3467911185368102,0.028063471357124125,-0.0462042860862463,0.9363815588225245
223.0,-0.09137053688509235,0.1891112640965119,0.29435722715522084,-0.8184600801768386,0.11166685399572879,9.587787718706682,-18.908349607545613,18.763068719324863,-21.04705050391518,142.79147699599116,-4.857879645760743,-0.31082340489303517,-0.3171005059049118,-0.00852481147722078,-0.04943600358993669,0.93911098530426
224.0,0.1892002547675246,0.28453330710726454,0.14147749241317295,-1.600642313888577,-3.9954096886590986,7.407241617024466,-12.80713752997265,25.209214950732456,-23.17607000018733,175.13179770334568,-9.463091081731669,28.577598722415797,-0.05341926111138587,-0.21844330232476306,-0.1441294194094451,0.896768667860627
225.0,0.08460012738376231,0.19077471806976132,0.005791165561425213,-1.7316114795249336,-6.184995166910195,6.173136937544491,-6.223503240792777,13.003700217301713,-11.368327338803342,185.52658433554382,-10.258637274736802,44.20593645798209,0.03400553408946836,-0.3424396661422202,-0.15601458009988384,0.8786717507045072
226.0,0.12252193623318733,0.5677618672960922,0.24292233337079916,-2.282191262972538,-6.120433067326065,6.142069648945338,5.255065846165375,-30.929478569555283,28.743909698025547,178.36916844629275,-13.63209696152261,44.258815003184594,-0.02215049759727999,-0.34570032344640517,-0.1669333129791315,0.8698808017417107
227.0,0.0861864673485445,0.30470889063729345,0.22007867820613686,-1.3321778127458697,-2.6861911880409126,7.949591660110146,5.473721479150276,-17.690420928402833,12.829563335955939,150.99084382376083,-7.919399095200629,19.930679583005503,-0.2469761180912667,-0.16054002253579858,-0.10111211691660107,0.8752561703178598
228.0,0.07689732494099139,0.1493725413060582,0.1091188040912667,-0.8978788355625493,-0.9136778127458693,8.857561369000784,3.180409126671912,-8.821582415420929,7.36369000786782,139.96296715184894,-5.313308910306845,7.44896488985051,-0.3386946821966956,-0.06552118542997638,-0.07050278965814319,0.8887002441754523
229.0,0.07693017309205351,0.04961152635719904,0.06568843430369786,-0.6766302124311567,0.07331451612903228,9.37710090479937,1.809864280094414,-3.9211914830841854,3.7798239575137687,134.51602822580645,-3.9833657061369,0.46000073760818205,-0.3842486448394965,-0.012753331121754523,-0.05248357405802517,0.9005245984606609
230.0,0.08119885916601102,0.013214791502753728,0.04216974822974036,-0.7049223052714401,0.5721951219512197,9.633562549173881,0.8914191581431945,-1.7127212824547602,1.7492537863886704,132.42858600511408,-4.133347265932336,-3.0769927714398113,-0.4019457387472464,0.011777713247442954,-0.05065550537981903,0.9077590770719908
231.0,0.0886931549960661,-0.01583772619984265,0.02012686860739575,-0.7174986231313927,0.7847761605035404,9.74348288749017,0.26373303501180173,0.38430861526357196,-0.34538749016522424,131.8071707808812,-4.19321031667978,-4.595868164830842,-0.4073451413941777,0.02189966975393391,-0.050155049779110936,0.9114874345505508
232.0,0.10234461054287962,-0.013099921321793866,0.015035405192761607,-0.7732808811959089,0.7880251770259634,9.738953579858386,0.1073957513768686,0.42505900865460267,-0.22915027537372148,132.31972856018882,-4.522816679779701,-4.613886703383162,-0.4032344519984265,0.02096588889850511,-0.05269850332808812,0.913310774940991
233.0,0.11034146341463415,-0.009737214791502753,0.013971675845790718,-0.8100031471282454,0.7886152635719901,9.734067663257282,0.09541699449252557,0.2992427222659323,-0.07442958300550748,132.4910011801731,-4.735523210070809,-4.617378048780488,-0.40184521329819056,0.020264450539732488,-0.05434270656018883,0.9138550000550747
234.0,0.10754523996852873,-0.0028512981904012594,0.013482297403619198,-0.8450999213217937,0.7894256490952001,9.73162863886704,0.07960267505900864,0.2978953579858379,0.04788552321007081,132.5446498819827,-4.948406766325728,-4.621754523996852,-0.40142991275059015,0.019571117118804084,-0.05601873954366639,0.9139654564280093
235.0,0.09786624704956728,0.00663099921321794,0.013867820613690008,-0.883593233674272,0.7897954366640434,9.72884657749804,0.06262785208497246,0.13435778914240756,0.10715479937057436,132.5572383949646,-5.16794846577498,-4.623770653029111,-0.4013620497907161,0.01877565307081039,-0.05784985132022029,0.9138952442439021
236.0,0.08980330448465776,0.012458693941778128,0.015374508261211646,-0.8817698662470493,0.7876774193548381,9.729778127458697,0.07157258064516128,0.07867574744295829,0.11533487411487017,132.56804681353265,-5.154317466561762,-4.612903225806452,-0.40128875384343043,0.018758485347364278,-0.05772222509520063,0.9139383220715971
237.0,0.08020062942564911,0.015182926829268296,0.015114476789929191,-0.9013137293469708,0.7888387096774188,9.72741463414635,0.07940352084972463,0.16876352281667978,0.08375417977970102,132.5362116443745,-5.268887686860739,-4.618951612903226,-0.401392488467742,0.01854126322836349,-0.058672175804878046,0.9138298383174663
238.0,0.06855959874114871,0.01876612903225807,0.014271243115656966,-0.9233534618410701,0.7894193548387092,9.723546026750597,0.05270456333595594,0.21168617230527145,0.08439958693941778,132.51709775767114,-5.399931156569631,-4.621975806451614,-0.40146617607710455,0.018139832169944917,-0.05980086025668764,0.9137380705395354
239.0,0.05488001573564124,0.01966129032258065,0.015607985837922899,-0.945540322580645,0.7897096774193542,9.721611723052725,0.01265489771833202,0.15610985444531866,0.07523603461841069,132.50754081431944,-5.522607690794651,-4.652598839496459,-0.4015121707804876,0.017736165987608174,-0.060818541423682135,0.9136590150568451
240.0,0.05233064516129034,0.021170141620771056,0.011224822974036194,-0.948298387096774,0.7898548387096769,9.721582218725423,-0.004606363099921322,-0.22308098937844217,0.09337013178599528,132.50354912470496,-5.54110936270653,-4.652961496852872,-0.4015267223627065,0.017698271649291893,-0.060962334061369,0.9136435353499212
241.0,0.051032258064516146,0.032500393391030696,0.016180959874114876,-0.8858064516129032,0.7859999999999995,9.726936270653034,-0.027025963808025175,-0.23858182533438238,0.02070220298977183,132.53123524783635,-5.174990165224233,-4.6151652242328876,-0.4014739277136114,0.018688052981904013,-0.05788088257907159,0.9138427055499606
242.0,0.038162077104642034,0.023716758457907168,0.013140833988985055,-0.8758457907159714,0.7879999999999994,9.72854287962235,0.009254523996852872,0.06279504327301338,0.04028324154209284,132.49535798583793,-5.125973642800944,-4.620082612116444,-0.40173439463099936,0.018863569927616043,-0.05744987120692368,0.9137476330306846
243.0,0.02626199842643589,0.024544453186467356,0.011386309992132183,-0.8860849724626274,0.7889999999999994,9.729432730133759,0.07273308418568056,0.102316089693155,0.04618410700236034,132.46542092840284,-5.177330841856806,-4.622541306058222,-0.4019190859118805,0.018651161554681342,-0.057903393003933906,0.9136587703461844
244.0,0.014757277734067667,0.026143194335169172,0.009550747442958304,-0.8944516129032254,0.7894999999999993,9.729877655389462,0.002888965381589295,0.052638178599527935,0.0808566089693155,132.45045239968528,-5.236600118017309,-4.622860936270653,-0.40201820795594034,0.01845872611329661,-0.058328575597954346,0.9135870653918176
245.0,0.012750000000000001,0.023161290322580658,0.009435483870967744,-0.8980967741935479,0.7897499999999993,9.730072580645166,-0.016784274193548387,-0.03442540322580645,0.08538306451612902,132.44294354838712,-5.258568548387096,-4.623487903225806,-0.40206643383870977,0.018387825516129032,-0.05850022888709677,0.913549753016129
246.0,0.008266129032258065,0.024306451612903235,0.007088709677419355,-0.9029677419354835,0.7899999999999994,9.730000000000004,0.005241935483870967,0.031098790322580647,0.07086693548387096,132.4382560483871,-5.27898185483871,-4.625,-0.40207908301612927,0.018307889822580636,-0.05872103913709677,0.9135371527096772
247.0,0.0019392210857592446,0.030290519276160516,0.004763768686073958,-0.9222755704169944,0.7899999999999994,9.72685287175453,0.07031495869394178,0.13167904209284026,0.07066778127458694,132.4375,-5.389088316286388,-4.625,-0.40209129083870987,0.017897492467151846,-0.05964429499488591,0.9134813875074741
248.0,0.002603855232100708,0.03236191974822975,0.007385916601101497,-0.9374840676632572,0.7899999999999994,9.723265145554691,0.013345790715971674,0.06821646341463414,0.07696326711250984,132.4375,-5.4841832218725415,-4.625,-0.4021187202439025,0.017559054914437447,-0.06042397050944139,0.9134302468717541
249.0,0.001732887490165224,0.030969512195121965,0.006711054287962235,-0.9434647915027536,0.7899999999999994,9.721471282454768,-0.008791060188827693,-0.008478806058221877,0.09329022423288749,132.4375,-5.514099380409126,-4.625,-0.40214066447679,0.017448058794453193,-0.06067037463276949,0.9134009529567264
250.0,-0.001004523996852871,0.02741620771046421,0.010303107789142408,-0.9477444925255702,0.7899999999999994,9.720574350904808,-0.0022029897718332013,0.06246926632572777,0.11373180566483083,132.4375,-5.544322875688435,-4.625,-0.4021784646577499,0.01736367819158143,-0.06085896765106216,0.913377476220299
251.0,-0.007812745869394178,0.02812745869394179,0.009195908733280881,-0.9206907946498821,0.7866451612903225,9.723480723839504,-0.045053107789142406,-0.35079661683713614,0.12133162863886704,132.4375,-5.378865066876475,-4.604032258064516,-0.4021733684579073,0.017808587845790716,-0.059495187494885915,0.9134535495940201
252.0,-0.01895751376868608,0.029099134539732507,0.0069464988198269075,-0.8946058221872539,0.7831612903225809,9.726838709677423,-0.004996066089693156,0.056038552321007074,0.11539634146341463,132.4375,-5.227222659323367,-4.582258064516129,-0.40216952551534224,0.018211915024390242,-0.05820762433359561,0.9135307626333596
253.0,-0.02592486231313927,0.02974075531077893,0.004860346184107002,-0.9043516915814319,0.7814193548387101,9.728580645161294,0.01182631785995279,0.07142014162077105,0.11282208890637294,132.4375,-5.2899242722265924,-4.571370967741936,-0.4021960637560977,0.01794349855782848,-0.05863956958300552,0.9134996242222662
254.0,-0.03752576711250984,0.03340302911093629,0.005227183320220298,-0.9054291896144768,0.7802966168371365,9.729577498033048,-0.03133605428796223,-0.35635326514555465,0.15220176042486233,132.4375,-5.296811073957514,-4.565140637293469,-0.4022198439944926,0.017878729137293468,-0.058671668705743515,0.9134832578035014
255.0,-0.036837922895358,0.03268351691581434,0.0011329661683713607,-0.8633792289535795,0.7740704169944925,9.734733674272231,-0.020439122738001574,-0.17153815892997637,0.13139383359559403,132.4375,-5.055096872541306,-4.5305541896144765,-0.40225164075255704,0.01848186703324154,-0.05659813983379229,0.9135936756369001
256.0,-0.033418961447679,0.028910306845003945,0.0037922895357985842,-0.8372702596380799,0.7718174665617622,9.737584579071601,-0.011278029110936269,-0.23758359559402042,0.09026848937844217,132.4375,-4.901489968528717,-4.513916207710464,-0.4022942739811173,0.01899093028678206,-0.05536720124350905,0.9136382138265144
257.0,-0.03909455434416097,0.02158639616350081,0.007105578659473231,-0.7672331591173055,0.7370761679967028,9.743008879397554,-0.08766689848638118,-0.6791386843879959,-0.4589155754748791,132.57421274961598,-4.487721399535424,-4.31393775055262,-0.40131160312427416,0.018845881528502112,-0.05135557538197333,0.9142928035909763
258.0,-0.03390461204151213,0.015339665055636737,-0.005220636169495335,-0.6875027162714024,0.7286763328462778,9.747318571803229,0.5287027930763178,0.8180559458244354,0.4776874695590273,132.91522657450076,-4.023778614514256,-4.270016110299352,-0.39865096675875766,0.020184025729496832,-0.04744294429448129,0.9155561119055111
259.0,-0.021100708103855236,0.01678395339252932,-0.002455022292158406,-0.6347314637892922,0.7634397362406804,9.747257502528939,-0.3243301815218613,-0.8213820904050053,0.28264595275561044,133.048099078341,-3.709638548574426,-4.474654377880184,-0.39754832598269074,0.02296825940571728,-0.04560426516117793,0.9160467871823836
260.0,-0.02055822187254131,0.023364439324116755,0.00158130081300813,-0.603534103255779,0.7526443370424487,9.752452512082723,-0.12975950460829494,-0.43377818131579926,0.1458223862912592,133.4060568169046,-3.528968566183358,-4.422811059907834,-0.39471540629583,0.023262449805140306,-0.043851769197426095,0.9174040413291931
261.0,-0.0147188190775917,0.02233486943164363,0.003020681128470271,-0.5836958150687499,0.7914296954029448,9.751510434228763,0.06422811059907833,-0.12114336293132513,0.46992900228541457,133.40104108126332,-3.412708169420404,-4.641897081413211,-0.39476078371473533,0.02546399258382976,-0.04372014592859016,0.9173588266188977
262.0,-0.01795080738825821,0.014861751152073735,0.00232831291446555,-0.6092403806526545,0.8031495635232848,9.748700685624367,0.04157066052227342,0.12798438612266308,0.15235121389232326,133.35585848225992,-3.5571845378592037,-4.705981182795699,-0.3951456190847102,0.025560770389457123,-0.04517712033756696,0.9171371611166683
263.0,-0.02311340901427448,0.010042898355250834,0.005465138061518864,-0.6557009853508675,0.8091247986212577,9.744173691506504,0.037498595032033274,0.3314717507774156,0.1035894589936683,133.32999185118578,-3.829631242740999,-4.743352159904088,-0.39535421093196205,0.02494149921958713,-0.047495110622494466,0.9169546682421039
264.0,-0.026518302049379945,0.007913154246749841,0.005919973024615039,-0.7036761455172154,0.8149233824135474,9.741979318871534,0.0387185755498108,0.14159033007380764,0.09026919186242555,133.29071597167584,-4.111004177438088,-4.780134221273088,-0.39549396762803923,0.024189922228841185,-0.04983181025364355,0.9167888003960134
265.0,-0.029338958969171408,0.003208024600628849,0.00896111625065205,-0.716209655804463,0.8187087407740437,9.74071428571429,-0.004808412804085501,-0.014513319096324612,0.06396188718179277,133.23047797010227,-4.1810612839822126,-4.803373562249448,-0.3959264899695806,0.02409274404185508,-0.0504943166693181,0.9165769572873166
266.0,-0.03774167610516943,0.0011293579224342402,0.0073753353910710326,-0.7181747203753497,0.8192199617848713,9.74019201228879,0.0008216000495701523,0.11733051403094676,0.05422556724681036,133.20610880071933,-4.2011393209465595,-4.807336742722265,-0.39609009735114975,0.02405073586808576,-0.050629495142646766,0.9164945519608627
267.0,-0.04884011608637888,0.004312758838329256,0.005463397342232904,-0.74829857370534,0.8234901652242325,9.737677419354842,0.04213027007086803,0.13073226930425985,0.053572077018182444,133.20964042186503,-4.377758600565445,-4.82786191974823,-0.3960985608276487,0.02353619486491846,-0.052124763290985435,0.9164195748345023
268.0,-0.04667340186695027,0.005940801134349522,0.004928394186458702,-0.7529313482216707,0.8270322580645155,9.738838709677424,0.050628470991374214,-0.015092165898617518,0.06717254519673875,133.19672619047617,-4.40521978021978,-4.853225806451613,-0.39630129527141694,0.02354099258430817,-0.05239533940080351,0.9163196226296826
269.0,-0.04828370554177008,0.006741521918941274,0.005848221670802315,-0.7556484698097603,0.828677419354838,9.739419354838713,0.0099436517783292,0.05490591397849462,0.09927367659222498,133.19112903225806,-4.4241728701406124,-4.865120967741936,-0.39640605735153045,0.0235330829987593,-0.05253309208519437,0.9162705409239043
270.0,-0.057869787568843443,0.008414437450826122,0.0032374114870180955,-0.7721247049567271,0.8294999999999992,9.736436664044064,0.01592373131392604,0.14658487411487017,0.10726421125098348,133.189314516129,-4.520033438237608,-4.871068548387097,-0.3964700767356414,0.023203051709087326,-0.05334275686428008,0.9161985542734072
271.0,-0.06786290322580646,0.010127852084972463,0.00530251770259638,-0.787173485444532,0.8299112903225798,9.733057041699453,0.010882179386309991,0.011088709677419352,0.05962947482297404,133.1884072580645,-4.610156864673486,-4.874042338709677,-0.39651305936782066,0.02291288343882769,-0.05402806279012588,0.9161425565989383
272.0,-0.06653225806451613,0.009459087332808813,0.002207710464201416,-0.786006097560976,0.8299999999999992,9.73143981117231,0.004130605822187254,-0.03800403225806451,-0.006399980330448467,133.1875,-4.6005925452399685,-4.875,-0.39653651954681346,0.02293496423151062,-0.05398709220554681,0.9161365351502755
273.0,-0.06442741935483873,0.007834382376081826,0.002966758457907159,-0.7863619197482297,0.8299999999999992,9.730558615263575,0.02691409323367427,0.0517641129032258,-0.023058861132966166,133.1875,-4.601556353265146,-4.875,-0.39651453487018107,0.02293054815204563,-0.05402254555841858,0.916146542671912
274.0,-0.06806451612903228,0.008312352478363493,0.0015035405192761605,-0.7892132179386311,0.8299999999999992,9.73102124311566,0.011516522423288749,-0.08084677419354838,0.06379819040125884,133.18104838709678,-4.619477773406766,-4.875,-0.39653095885444545,0.02286445102360346,-0.05415796299291899,0.9161342699811174
275.0,-0.07584064637172427,0.01048351792450927,0.0008683753959127681,-0.7696782263107992,0.8299999999999992,9.73561290322581,0.046795123968609416,-0.07549318878734693,0.04579512901208416,133.15201612903223,-4.497686495087655,-4.875,-0.3966645282903225,0.02329280204047892,-0.053183427442917944,0.9161319700216264
276.0,-0.08364888337468983,0.009702026468155503,0.0010903639371381306,-0.7722018196856907,0.8299999999999992,9.735129032258069,0.04023469809760133,0.15520187138130687,0.0242891852770885,133.1375,-4.5136101633581465,-4.875,-0.39674830437096764,0.023227905717328363,-0.05332364117700579,0.9160882294152191
277.0,-0.09445347394540943,0.011161497105045496,0.0023637303556658393,-0.7889315550041356,0.8299999999999992,9.732564516129036,0.020117349048800665,0.22646686311000827,0.035834108767576506,133.13024193548387,-4.616658912324235,-4.875,-0.39680594441129013,0.022885176443341596,-0.054124908782051284,0.9160153058688995
278.0,-0.11279818031430935,0.014479114971050458,0.0003273366418527706,-0.8226195202646814,0.8299999999999992,9.731282258064521,0.06136140405293631,0.2814800454921423,0.018496691480562447,133.1266129032258,-4.82641129032258,-4.875,-0.3968655501290324,0.022189470217328366,-0.05574988404921421,0.9159024898577333
279.0,-0.1305332364986181,0.022708184550828146,0.00104083197159515,-0.8412896971897756,0.8318882769472851,9.730612903225811,0.031543088926546836,-0.06448101383929472,0.013123247392523553,133.125,-4.930168174665618,-4.885228166797797,-0.39684070882769473,0.021976715606205493,-0.05667189786902096,0.9158643151208414
280.0,-0.12493576630555388,0.020415299885008786,0.0034277774415461277,-0.8471047327967074,0.8394139482337752,9.729880479735321,-0.024395949333252637,-0.21405398913635537,0.03502006042082753,133.12830851943755,-4.9560115066876484,-4.912372147915027,-0.3967125467835744,0.022210218940406305,-0.05706525711482479,0.9158937016547135
281.0,-0.14319368960438983,0.022578617684439882,0.0027219532369020956,-0.8470443018822247,0.8450295547620492,9.729867659222503,-0.021598176279529542,-0.06783848650366156,0.019072530210413767,133.13310587262197,-4.963741640440599,-4.925944138473643,-0.39661583684340007,0.022390657107299927,-0.05718398279531563,0.9159226691257436
282.0,-0.14785490931832396,0.021410276584155428,-0.00011482983316185515,-0.8430544090056287,0.8488696160907021,9.727740281224156,-0.09467005588170026,-1.1296601706711857,0.04108868446004559,133.1548593879239,-4.935651062155783,-4.96256884343037,-0.39648193388137754,0.02273850422703706,-0.057054653542819106,0.9159781049177105
283.0,-0.13584722306280136,0.020746494785047115,0.00022546349532974274,-0.7703320018559987,0.8474348080453513,9.73312820512821,-0.05622150436764913,-0.2814450563860478,0.06247982610099054,133.2020264681555,-4.505366887570861,-4.961526357199055,-0.39622503603746306,0.02418417663709173,-0.05360774762004479,0.9162539150204767
284.0,-0.13589371381306864,0.01775641025641026,0.001504549214226634,-0.7837175351530192,0.8489809760132345,9.731564102564107,-0.0329740488006617,-0.06646505376344092,0.02701095947063689,133.19577129859385,-4.58459729114971,-4.982459677419355,-0.3963502852468985,0.02408380220760959,-0.054278060218362276,0.9161676022985943
285.0,-0.15804032258064515,0.020717741935483872,0.0018225806451612906,-0.8169919354838712,0.8514838709677421,9.728725806451619,0.010534274193548387,0.09747983870967739,0.04324596774193548,133.16995967741934,-4.779183467741936,-5.001108870967743,-0.3964597171370968,0.02352718266129032,-0.0559362599032258,0.9160347229838709
286.0,-0.14971675845790716,0.020290322580645163,0.011075727773406768,-0.8154531864673487,0.8516231313926044,9.728985247836354,-0.10224478756884343,-0.49948490361919756,0.1395898898505114,133.11659372541305,-4.765960611723052,-4.9936946793863095,-0.3968086349270261,0.023511391955940205,-0.055837885019472844,0.9158870871449645
287.0,-0.1422891424075531,0.025935877261998433,0.005078678206136901,-0.8569642014162078,0.8486392604248627,9.725784618410707,-0.005228412667191186,0.07861182140047199,0.04833054681353265,133.02793690991342,-5.011239919354838,-4.981974085365853,-0.3974206320656962,0.02248230111428009,-0.05775853980035405,0.915529290247246
288.0,-0.15172521636506686,0.03135503540519277,0.0009828874901652246,-0.8971514555468135,0.8493922108575929,9.722597954366648,-0.011258359559402046,-0.03826465381589303,0.031725757277734065,132.97775373721478,-5.245866935483871,-4.9916674862313135,-0.39771640341994474,0.021698023867623907,-0.05966316223485444,0.9152920038453969
289.0,-0.16166502753737216,0.031947678992918976,-0.0027787175452399678,-0.9156886309992132,0.8496961054287968,9.72113768686075,0.0122639653815893,-0.04947506884343039,-0.010624016522423289,132.9535946105429,-5.353981854838709,-4.995833743115657,-0.39785641355271406,0.02133148061526356,-0.06054055769000786,0.9151803501726983
290.0,-0.16728753858258186,0.029755270431116233,-0.001425649095200629,-0.9241306058221872,0.8497875688434309,9.72047206923683,0.009461180374831043,-0.04187786217192198,0.021025615808267263,132.9422206923682,-5.403225806451612,-4.997639653815893,-0.39797837604248626,0.021163689307631774,-0.060938007490165216,0.9151014299124454
291.0,-0.17683810446044906,0.032232473925235545,-0.0036121164437450818,-0.9289221085759245,0.8498662470495679,9.72008654602676,-0.011255837822025862,-0.027238104964796547,0.07940541215275676,132.937795043273,-5.431304091266719,-4.999065696302123,-0.39805484991188045,0.02107783624390243,-0.061141359658536606,0.9150588398854125
292.0,-0.18068734491315142,0.032644954507857746,-0.0045000000000000005,-0.9299999999999999,0.8500000000000005,9.72000000000001,-0.00536729735318445,-0.006685535566583953,0.036309708436724555,132.9375,-5.4375,-5.0,-0.3980960340000001,0.021091779290322576,-0.06114304961290325,0.9150463807609598
293.0,-0.1874640501119652,0.03235463697068734,-0.007614673485444532,-0.9299999999999999,0.8500000000000005,9.72000000000001,0.018049902660937277,0.005880407865803224,-0.04191780018761727,132.9375,-5.4375,-5.0,-0.3981171302258066,0.021074454645161278,-0.06117988652950433,0.915041735864351
294.0,-0.18250051443442478,0.03265568197865602,-0.0076089693154996075,-0.9491345397324937,0.8541542092840283,9.717356412273801,-0.06470021586071939,-0.1008197537775626,0.10418431882829993,132.9375,-5.550009834775767,-5.0228166797797,-0.3981053973001575,0.020852192826121163,-0.06219177154956726,0.914987167310618
295.0,-0.15632966168371362,0.024788552321007087,-0.00393351691581432,-0.9883414634146345,0.8623996852871755,9.713516915814319,-0.08005999213217939,-0.13548018292682926,0.09640047206923681,132.9375,-5.780045239968528,-5.075924468922109,-0.39815795029524015,0.020446692251770253,-0.06422281538768687,0.9148255005601891
296.0,-0.14847128245476005,0.019712824547600316,-0.001499016522423289,-1.0056223446105435,0.8665224232887491,9.711597167584577,-0.06765096380802518,-0.07991247049567271,0.1185127360346184,132.92943548387098,-5.899095200629425,-5.1024783634933115,-0.39822519683713614,0.020254770642014155,-0.06527296511723055,0.9147275178284813
297.0,-0.15321951219512198,0.02313060582218726,0.0006254917387883552,-1.012714398111723,0.8685837922895359,9.710637293469706,-0.08790814319433517,-0.16465381589299766,0.1714791502753737,132.89798387096772,-5.940878245476004,-5.115755310778914,-0.39846857906372923,0.02022811267584579,-0.06567323755861529,0.9146029223335954
298.0,-0.15349409913453976,0.02020731707317074,9.480723839496455e-05,-1.0089055861526355,0.8696144767899293,9.710157356412271,-0.04862559008654603,-0.05029012588512982,0.09728560188827694,132.85322580645163,-5.914995574350905,-5.122393784421715,-0.39878085727380025,0.020359101337922902,-0.0655414442718332,0.9144744724571205
299.0,-0.15672580645161288,0.019250000000000003,-0.0015080645161290322,-1.0049838709677419,0.8700000000000001,9.709999999999997,-0.0034778225806451624,-0.06864919354838708,0.023790322580645156,132.83084677419356,-5.8816028225806445,-5.125,-0.39896132104838733,0.02049900058870967,-0.06531534502419353,0.9144055793064518
300.0,-0.1668792289535799,0.02206117230527145,-0.0032677025963808023,-0.9969354838709676,0.8700000000000001,9.709999999999997,0.01863075334382376,-0.03794748229740361,-0.07134146341463414,132.81965725806452,-5.844153225806451,-5.125,-0.39904967526612933,0.02063642707258064,-0.06501908184067665,0.9143816583306453
301.0,-0.17676219512195124,0.021752360346184114,-0.0037104642014162076,-1.0146612903225805,0.8715483870967742,9.70832258064516,0.007778078284815106,0.2120746459480724,-0.13310016719118806,132.81431451612903,-5.948689516129033,-5.133870967741935,-0.39907522050000027,0.020325986217741933,-0.06582292430743508,0.9143174711532259
302.0,-0.14982061369000788,0.01792859952793077,-0.0012503933910306842,-1.0785403225806454,0.8770967741935485,9.700645161290321,-0.10490632376081824,-0.23040420928402833,-0.13456923682140048,132.8125,-6.319254032258064,-5.164919354838709,-0.39901763103225824,0.019210126822580643,-0.06886786317387883,0.9141388919354838
303.0,-0.13395869394177812,0.028161880409126677,0.0024836742722265936,-1.0769032258064517,0.8615483870967742,9.702096774193546,-0.05313360542879622,-0.1791133949645948,-0.22726445712037766,132.8125,-6.308417338709677,-5.070766129032258,-0.39904588329032264,0.01850595783064516,-0.0684648455304878,0.9141721659677418
304.0,-0.1252938630999213,0.02758497246262786,-0.0023186467348544444,-1.054967741935484,0.8287419354838712,9.70772580645161,-0.2674690204563336,-0.10180468135326513,-0.3057189221085759,132.88346774193548,-6.176108870967742,-4.870463709677419,-0.3984796338709678,0.017424060903225805,-0.06672062447088906,0.9145622993709679
305.0,-0.10768548387096771,0.04113709677419356,0.0003387096774193552,-1.0903548387096775,0.8011129032258066,9.7070564516129,-0.055292338709677424,-0.20151209677419352,-0.26481854838709673,133.0584677419355,-6.383014112903226,-4.711441532258064,-0.3970813372903225,0.015508590999999997,-0.06777201052419354,0.915132042846774
306.0,-0.09408064516129033,0.048741935483870985,-0.0009274193548387095,-1.1065967741935483,0.7942177419354836,9.706516129032254,-0.025151209677419357,-0.16441532258064515,-0.2608870967741935,133.16129032258064,-6.480997983870967,-4.659879032258065,-0.39621340699999996,0.014850937588709673,-0.06826319677419351,0.9154862930080643
307.0,-0.10408044846577498,0.0606437844217152,-0.002120377655389457,-1.1065798583792295,0.790620967741935,9.708524193548381,-0.02092471479150275,-0.20768587726199841,-0.1347216758457907,133.21270161290323,-6.479934598741148,-4.633266129032258,-0.39573898453737216,0.014669214670731704,-0.0681233033109756,0.9157093091719117
308.0,-0.12031038552321009,0.07048721479150276,-0.0024472856018882766,-1.0966286388670337,0.7893951612903221,9.709362903225802,-0.05479199449252557,-0.21719979346970889,-0.017209628245476,133.2384072580645,-6.418445121951219,-4.623387096774193,-0.3954713782202991,0.014799550690204563,-0.06763167661113298,0.9158600799085359
309.0,-0.11554228953579859,0.061650865460267525,-0.0029171911880409122,-1.0912820613690006,0.7971774193548382,9.70962903225806,-0.006982690794649882,-0.26220372738001574,0.048224822974036186,133.22888104838708,-6.388456431943352,-4.682106854838709,-0.3956084911746657,0.01535762771203777,-0.06762793656766325,0.9157977903776551
310.0,-0.11227517702596382,0.05034559402045635,-0.002535208497246263,-1.027552321007081,0.8019354838709675,9.71451612903226,0.031135670731707314,-0.4005827104642014,0.09462652439024391,133.20604838709676,-6.013331038552321,-4.721370967741936,-0.39595603677281677,0.0169026289124705,-0.06475689778383162,0.9158226599710851
311.0,-0.126786782061369,0.053055861526357224,-0.0038119590873328087,-1.0090019669551533,0.8062903225806448,9.717483870967747,0.06468577891424075,-0.10981756490952005,0.02077596380802518,133.19576612903225,-5.912109067663257,-4.737701612903226,-0.3961421894468924,0.017362127444138474,-0.06400433222659321,0.915796749965381
312.0,-0.15238709677419357,0.05558064516129034,-0.00817741935483871,-1.002766129032258,0.8084677419354835,9.71890322580646,0.00851814516129032,-0.14823588709677418,0.015423387096774197,133.19062499999998,-5.85710685483871,-4.745866935483871,-0.396236592370968,0.017597666282258062,-0.06363042951612904,0.9157825062258058
313.0,-0.1482242703533026,0.047407066052227366,-0.006137480798771121,-1.0213744239631335,0.8145948540706602,9.715066052227346,0.004109062980030719,-0.0835709485407066,0.025501632104454684,133.18498223886328,-5.973523905529953,-4.787584005376344,-0.3962291771455455,0.01755786395430107,-0.06470981462941629,0.9157050369608292
314.0,-0.12154289835525084,0.034823910681503145,0.0006383799782698277,-1.0415549342474986,0.8227046850998458,9.71253302611367,-0.000709040500543255,-0.12745190326327224,0.12209938509235323,133.13157513300362,-6.101519648477014,-4.833484543010753,-0.39649051509332733,0.01755149772941253,-0.06589239097570343,0.9155056689418621
315.0,-0.10685779850886068,0.02835629050990972,0.005386853246412648,-1.0015175340002247,0.8256105054138092,9.715275561050547,-0.018822999793938033,-0.45562947248136076,0.195071255292046,133.06989481473153,-5.864939726874228,-4.8498885392079725,-0.39702000731220255,0.01853813598203514,-0.06407205025004684,0.9153800495447901
316.0,-0.09750147989959164,0.030311209771083893,0.014386975010303095,-0.8831700573226928,0.7630955752875497,9.729895845041401,-0.4601423466711626,-1.7249417523697126,-0.9700550981604287,133.65450385897867,-5.164173492469372,-4.477363624442695,-0.39252127323674646,0.018173284628114347,-0.05706605029437825,0.9176950654175564
317.0,-0.08849267543366679,0.020921733917800008,0.010745906859990256,-0.7621011576936043,0.7470639166760329,9.737980180585218,0.3335881008579671,0.6929978738151438,0.7527244670488178,133.7919696714248,-4.46477323817017,-4.383843102543929,-0.3914894591022442,0.019840520265670077,-0.051138403981866545,0.9183587789023264
318.0,-0.057797797010228164,0.011227380015735642,0.012664044059795435,-0.8384468922108577,0.8070196695515341,9.728616050354056,0.08216463414634144,-0.2538994885916601,0.6725363886703383,133.13015342250196,-4.907415420928402,-4.727842250196696,-0.3967188917277734,0.020809583417781274,-0.05602122074822973,0.9158631228198268
319.0,-0.03948977183320221,0.00575609756097561,0.013056648308418566,-0.8204099134539733,0.8334775767112509,9.728469315499613,0.1387367230527144,0.1952325924468922,0.08038208103855227,132.7121361132966,-4.794300747442958,-4.874001770259638,-0.40002836003776554,0.02226822036191975,-0.055766254332415416,0.9144605649826909
320.0,-0.024830645161290327,0.0013548387096774194,0.012564516129032258,-0.8842419354838711,0.8493225806451612,9.72168548387097,0.002973790322580633,0.5125504032258065,0.3843245967741935,132.58487903225807,-5.168447580645161,-4.979536290322581,-0.4009867996451613,0.021676192258064518,-0.05913405904032258,0.913868712983871
321.0,-0.017765538945712037,-0.01785641227380016,0.013850118017309208,-0.9741225413060584,0.8615833988985051,9.71290656963021,-0.08361034618410701,0.3572617525570417,0.43955915617623914,131.99092250196696,-5.694862559008655,-5.057382228560188,-0.4056469762704564,0.02007143540519276,-0.06368553709303698,0.9115437382444923
322.0,-0.014224036191974824,-0.027768882769472855,0.019912273800157358,-1.017091856805665,0.8778123524783634,9.707485837922894,0.064128884736428,0.5038392505900865,0.6610321597167585,131.50287421321792,-5.95167314122738,-5.15792314122738,-0.40948876132631795,0.019679933669944923,-0.06615768329543667,0.9096752090953972
323.0,-0.00800078678206137,-0.036210464201416215,0.022067073170731713,-1.1130822187254128,0.8946239181746654,9.694498623131395,-0.034526209677419366,0.5657380999213217,0.41329538749016526,131.0196843036979,-6.511512834382376,-5.271476691581432,-0.41318252244787584,0.018178526226789924,-0.07107585957710467,0.9076545761510622
324.0,-0.0010407159716758463,-0.0454761998426436,0.02140047206923683,-1.1735330448465768,0.9031345397324937,9.686479150275378,-0.006602822580645167,0.31643759834775764,0.25969708890637294,130.7627655389457,-6.8665679091266725,-5.329034716758457,-0.4152447679779703,0.017060109819040124,-0.07407018765145557,0.9065176587045634
325.0,0.00600786782061369,-0.05328245476003149,0.024958300550747454,-1.2050165224232883,0.9073092053501176,9.682675059008659,0.010887096774193545,0.11661093627065301,0.1439614476789929,130.6317859952793,-7.0470692368214,-5.356805664830841,-0.4162712616664046,0.016475824070810385,-0.07558657342250197,0.9059308391345395
326.0,0.014313139260424866,-0.05898190401258853,0.027328088119590886,-1.2203328088119583,0.9093233674272223,9.680928402832421,0.06338021243115656,0.04693154996066091,0.16932533438237607,130.56694531864673,-7.133733280881195,-5.370279307631785,-0.4166718946490954,0.01616951138867034,-0.07640599404327302,0.9056906400039335
327.0,0.03505979543666406,-0.0684366640440598,0.028990558615263583,-1.1607643587726197,0.9139024390243901,9.688269079464987,0.07897079071597167,-0.38317761605035405,0.13182041699449254,130.4961742722266,-6.789722659323367,-5.386014948859166,-0.41722908186821406,0.017626577515735643,-0.07373290116011016,0.9056215162372145
328.0,0.04776671911880409,-0.08758654602675062,0.02830330448465776,-1.1481241148701808,0.9222738001573563,9.689252557041698,0.08519743312352478,0.09838463808025177,0.0646464398111723,130.49651357199056,-6.716340479937057,-5.412765538945711,-0.41725715272246244,0.018256234037962234,-0.07332546699783637,0.9056306782326909
329.0,0.0443188434303698,-0.09171262785208498,0.028401652242328886,-1.1603080251770261,0.9264594807238394,9.689013375295044,0.013944482690794648,0.20186369000786786,0.030105477970102282,130.49724872147914,-6.799400078678206,-5.426140833988985,-0.4172842457765536,0.018181525571400473,-0.07398339484972463,0.9055677053139265
330.0,0.026493705743509052,-0.09512883556254917,0.026589496459480735,-1.1863823760818253,0.928552321007081,9.684506687647524,0.019182730133752948,0.22457710464201416,0.05754450236034618,130.49761629622344,-6.94487116443745,-5.4328284815106205,-0.4173139725900863,0.017718496885719907,-0.07524823755625491,0.905466882133753
331.0,0.005674272226593235,-0.09440715971675843,0.02508103855232102,-1.2089653815893,0.9295987411487018,9.682253343823763,-0.019541699449252554,0.1504941974822974,0.04326317859952793,130.48053697875687,-7.084733969315499,-5.436172305271439,-0.41734455403697857,0.017253328446892216,-0.07637910355232105,0.9053778387120375
332.0,-0.014544453186467356,-0.09641994492525569,0.023532651455546824,-1.2267486231313929,0.9299999999999999,9.680870967741939,-0.0024980330448465763,0.08113812942564909,0.04388276947285602,130.45887096774194,-7.180496410306844,-5.4375,-0.41734717912706515,0.01687546204012589,-0.07722189312155786,0.9053198288288745
333.0,-0.026151258851298202,-0.09606884343036978,0.022419551534225028,-1.2350275373721482,0.9299999999999999,9.680274193548392,0.028035257671125097,0.03041281471282455,-0.010367083005507476,130.44717741935483,-7.224850019669551,-5.4375,-0.4173843407490163,0.016695616245869398,-0.07760569256077893,0.9052756401321793
334.0,-0.04016837136113299,-0.09076829268292683,0.0219799370574351,-1.2270944138473638,0.9278064516129034,9.680000000000005,0.025383556254917387,-0.16460710070810383,-0.08983575924468921,130.45826612903227,-7.170640735641227,-5.4375,-0.4173841667616047,0.016848946679386318,-0.07713939762313138,0.9053006743886702
335.0,-0.05145161290322583,-0.09104032258064515,0.019362903225806458,-1.208177419354838,0.9237419354838716,9.680000000000005,-0.007056451612903223,-0.09178427419354838,-0.05675403225806451,130.47913306451613,-7.060433467741936,-5.4375,-0.41734028312903193,0.017163428508064522,-0.07622951430645161,0.9053799517419354
336.0,-0.05272580645161292,-0.08841129032258065,0.019104838709677427,-1.1985483870967737,0.9217096774193556,9.680000000000005,-0.0002520161290322574,-0.022076612903225802,0.042842741935483875,130.49012096774194,-7.021774193548387,-5.4375,-0.41731783704838676,0.017320937717741944,-0.07579114312903223,0.9054208053548387
337.0,-0.0349404761904762,-0.08342780337941626,0.028118279569892483,-1.2068625192012288,0.9224139784946241,9.681105990783415,0.018798003072196617,0.1750312019969278,0.011448732718894012,130.48070756528418,-7.067530721966206,-5.443644393241167,-0.41737711858563725,0.017173132584869435,-0.07616682333870967,0.9053643718325652
338.0,-0.01755491551459294,-0.07861712749615973,0.02713172043010753,-1.2249796466973888,0.9166586021505378,9.680940092165903,0.01811875960061444,0.1181859639016897,0.0027001728110599083,130.44700700844854,-7.17570084485407,-5.410733486943164,-0.4175983625307219,0.016485918304531492,-0.07688757094354838,0.9052177776904758
339.0,-0.004048405829680419,-0.07128505863399648,0.024796485706792562,-1.242415964182683,0.9130752688172041,9.680470046082954,0.0244674000599453,0.16920374611292194,-0.018820424019332357,130.40946620583716,-7.275700786313738,-5.391858678955453,-0.41785603537019955,0.015973554651380617,-0.07765978212824548,0.9050525883580229
340.0,0.002435474504514629,-0.06461833576861116,0.02554340414371887,-1.2545305627365027,0.9113763440860212,9.68023502304148,0.012032087126746843,0.11945570370162226,-0.034889042654827465,130.3902169738863,-7.345839304447191,-5.382421274961597,-0.41798622542703523,0.015643515003109666,-0.07820244021734853,0.904939544824173
341.0,0.0024556404780637663,-0.06408336143269268,0.024336218200891695,-1.260712862013412,0.9105268817204297,9.680117511520741,0.009972696789179874,0.08233369862500467,-0.062429400359671795,130.3805923579109,-7.381135378030047,-5.377702572964669,-0.418051320455453,0.015480291646716125,-0.07846488554012586,0.904883023057248
342.0,-0.0004234854445318659,-0.06418607395751377,0.021512195121951225,-1.152292682926829,0.9011451612903224,9.69202419354839,-0.04238788355625491,-0.7033511998426435,-0.04382990755310779,130.39642137096774,-6.738671567663257,-5.3130544354838705,-0.41804228818548383,0.017333775992328878,-0.07315584381845003,0.905278516234461
343.0,-0.016191581431943356,-0.04392368214004721,0.028917387883556266,-1.043323760818253,0.8252903225806453,9.709225806451617,-0.5190770062942566,-1.2002139063729347,-1.4129179779701022,131.19395161290322,-6.097838808025177,-4.85524193548387,-0.4118983118709677,0.016514778379228955,-0.06631223214712824,0.9085537860204564
344.0,-0.013379032258064513,-0.043201022816679785,0.029454760031471287,-0.9148955546813529,0.8222006294256493,9.721300550747443,0.4417793568056649,-0.429498180566483,0.7482272816679779,131.3808566089693,-5.349445564516129,-4.833452989771833,-0.4105612339449253,0.019153557230527148,-0.06024227948819827,0.9095073894618411
345.0,-0.02240814319433518,-0.047714201416207726,0.02400118017309206,-0.8859630212431153,0.8976974822974038,9.718022423288748,0.32555689417781275,0.05403348741148703,0.23880679583005504,130.84960415027535,-5.183981608969315,-5.27417142014162,-0.414750151472856,0.023035919110936276,-0.060629848185483864,0.90753714334225
346.0,-0.02992584579071598,-0.05753048780487805,0.02014575137686861,-0.883489575137687,0.9336551927616049,9.714495082612114,0.01668469708890638,0.17467299370574352,0.03202940597954365,130.7163343332022,-5.167746852871755,-5.481843774586938,-0.41579280922029876,0.024725918015145558,-0.06131746053225806,0.9070122954453187
347.0,-0.03529583005507476,-0.06095456333595596,0.01630841856805665,-0.8919811172305272,0.9273929976396542,9.715503540519281,0.031047157749803312,-0.06503122541306061,-0.04495107199055862,130.65439983280882,-5.215166453579858,-5.4311491935483875,-0.41626690463847366,0.02416288326652243,-0.06155838836506686,0.9068104271341464
348.0,-0.03340597954366642,-0.05729583005507476,0.01570259638080252,-0.8712808811959087,0.9263658536585373,9.717671125098356,0.09075039339103069,-0.18264162077104643,-0.024970495672698666,130.60393882769472,-5.093646734854445,-5.423185483870967,-0.4167078584240756,0.02451644473406766,-0.06057968318253344,0.9066759603815893
349.0,-0.03576750590086547,-0.0541451612903226,0.015500393391030688,-0.8536852871754521,0.9247643587726209,9.718646734854454,-0.0015563532651455547,-0.1951416207710464,-0.11195416994492526,130.5998647718332,-4.988154012588513,-5.440152930763178,-0.416718830514162,0.024893455130999217,-0.05971828585877262,0.9067215463245475
350.0,-0.033783044846577515,-0.05113001573564126,0.014544059795436664,-0.8396530291109362,0.9215560582218736,9.71942564909521,0.004822728166797796,-0.0632621951219512,-0.14930418961447678,130.61734977380016,-4.905480428796223,-5.434523750983477,-0.41654968104386325,0.02509407723347757,-0.05897416108595595,0.9068484029828876
351.0,-0.03475845790715973,-0.04731904012588515,0.012038158929976398,-0.8420684500393392,0.9200078678206147,9.71987411487019,-0.014801337529504327,0.12018341856805664,-0.09365411093627064,130.62195613690008,-4.907226101494885,-5.432105625491738,-0.41649561147757685,0.025002984830448452,-0.05901510200668765,0.9068777589390247
352.0,-0.0273225806451613,-0.052298387096774215,0.01213709677419355,-0.8562419354838711,0.920000000000001,9.72000000000001,-0.1129032258064516,-0.07394153225806453,0.05428427419354839,130.6240927419355,-4.998941532258064,-5.426915322580644,-0.41649529480645153,0.02466799773387096,-0.05973318881451614,0.9068302776048389
353.0,-0.01199193548387097,-0.06387903225806453,0.014072580645161294,-0.8506129032258064,0.920000000000001,9.72000000000001,-0.10186491935483871,-1.3877787807814457e-17,0.010030241935483873,130.625,-4.979485887096774,-5.400806451612903,-0.41654121938709654,0.024704471056451613,-0.05948722725806452,0.906824273387097
354.0,0.0015725806451612895,-0.06673387096774194,0.015556451612903232,-0.8530000000000002,0.920000000000001,9.72000000000001,-0.0799899193548387,0.028881048387096767,-0.014264112903225806,130.625,-4.991733870967742,-5.386895161290322,-0.41656587824193547,0.02462054805645162,-0.05957848324999998,0.9068113277903226
355.0,0.009814516129032256,-0.0720725806451613,0.014137096774193551,-0.8600000000000001,0.920000000000001,9.72000000000001,-0.0894657258064516,0.07762096774193548,-0.01779233870967742,130.625,-5.035685483870967,-5.379939516129031,-0.4165671072258066,0.02444733594354838,-0.059901475967741924,0.9067858798870965
356.0,0.021471282454760036,-0.07610936270653029,0.01673033044846578,-0.863876475216365,0.920000000000001,9.72000000000001,-0.07316335562549174,0.0071707808811959095,-0.03496631589299764,130.625,-5.055345200629425,-5.376461693548387,-0.41656779558064533,0.02436906896715185,-0.06008127840499604,0.9067872566793862
357.0,0.0197913247911281,-0.07436228503990108,0.01898171668352629,-0.8617527537372145,0.920000000000001,9.72000000000001,-0.04405815630736952,0.03175479328237983,-0.05360907000487055,130.625,-5.043775230883069,-5.375,-0.4165673521451615,0.024407563885457645,-0.06000282044731367,0.9067936575735639
358.0,0.011369993630811887,-0.07499988760256265,0.018800063691881166,-0.8611142800944136,0.920000000000001,9.72000000000001,0.06902496393915551,-0.0024146716121539093,0.13427864261361508,130.61949252557042,-5.051628592034769,-5.375,-0.41664328304484666,0.024405619506753216,-0.06000067407052937,0.9067693502354445
359.0,0.0010801581057285226,-0.06941929863999102,0.017900031845940585,-0.8606418174665613,0.920000000000001,9.72000000000001,0.07173526422764226,-0.014110561612528567,0.09037520840358174,130.58998819826908,-5.0258142960173835,-5.375,-0.4169809780708102,0.02444771773321531,-0.05993872081752276,0.9066267982911091
360.0,-0.010678056273650299,-0.06771653366303249,0.018815181147203187,-0.8602281667977967,0.920000000000001,9.72000000000001,0.05235378966692893,-0.011431756022629351,-0.040143213068075376,130.5752360346184,-5.011747873815144,-5.375,-0.41715098226121133,0.02449561547547862,-0.05985940073035857,0.9065560883713608
361.0,-0.02093540893934286,-0.06768045408564685,0.018391068150312846,-0.8599999999999998,0.920000000000001,9.72000000000001,0.06498983739837398,0.006410400509535048,0.002538542954553972,130.56221479150275,-5.01119455059758,-5.375,-0.41723598435641196,0.024502960654340416,-0.059861776970214706,0.9065140121195907
362.0,-0.028675845790715984,-0.06880566483084186,0.019954366640440604,-0.8567741935483871,0.920000000000001,9.72000000000001,0.11186319826907948,-0.08866787962234461,-0.0517309205350118,130.55892997639654,-4.99294846577498,-5.375,-0.4171705918556252,0.02456517217663258,-0.05969744393902438,0.9065440450275373
363.0,-0.028707710464201425,-0.06866719118804092,0.011355625491738795,-0.6961935483870969,0.9098064516129036,9.729806451612907,-0.10816163453973249,-2.181696252950433,-0.17765538945712037,130.65262096774194,-4.052016129032258,-5.318548387096774,-0.4165219691693547,0.02756106304032258,-0.05195030655330448,0.9071277257419355
364.0,-0.03700196695515343,-0.0630102281667978,0.013334382376081831,-0.5438245476003147,0.8902297403619202,9.741268292682928,-0.015875786782061363,-0.5161191974822975,-0.15719659716758455,130.7641301140834,-3.1656618804091265,-5.205940204563335,-0.4157679343548387,0.029914840311172308,-0.04444318841660111,0.9078159252234461
365.0,-0.035240146491326674,-0.0638605897118879,0.012988423063954145,-0.4867356224944738,0.8694773893821889,9.748329998876024,0.1129467212730883,0.0576823648420815,-0.006025849068974562,130.87452857470683,-2.834751063092428,-5.089241223633435,-0.41493729651689715,0.030210677659426404,-0.041353240782052,0.9083663606608781
366.0,-0.024767346671162573,-0.06143259900340939,0.011242291409089208,-0.4924768742272677,0.8867509834775769,9.746699561649997,0.34100317054437823,0.35183705415683186,-0.2655981299876362,131.03819914718446,-2.8726270676445242,-5.191414006593983,-0.41358666785906295,0.030936650340273878,-0.0419700614269323,0.9089500442520979
367.0,-0.02927326626952907,-0.06043212131430071,0.010435661833576863,-0.5302255722902852,0.9037441553332588,9.744532576523923,0.19952184256865607,0.15034849059608107,-0.38840702390318826,131.2781517529317,-3.096445782286164,-5.2878152982278674,-0.4116021411175115,0.03099997243184969,-0.04401414834461054,0.9097563195056573
368.0,-0.02851163313476454,-0.06536525420553746,0.014842830916788433,-0.5937297216290138,0.9121906260537267,9.741508223745836,0.18383350192948936,0.27262888239481475,-0.2670361732419167,131.52307285227232,-3.476902326626953,-5.333171762017159,-0.4096832008571428,0.030092607046570012,-0.04709734775295044,0.9105025985350869
369.0,-0.027350230414746556,-0.06594777265745008,0.016205837173579114,-0.6357342549923197,0.9168663594470055,9.736694316436257,0.202784178187404,0.136107910906298,-0.17817780337941624,131.65079685099846,-3.7237039170506914,-5.358486943164362,-0.40867543729953926,0.02944754102918587,-0.04911797206451614,0.910879229837174
370.0,-0.02823809523809525,-0.060187403993855616,0.014476190476190478,-0.6792365591397852,0.9227726574500772,9.732955453149007,0.1992127496159754,0.21786674347158216,-0.14691820276497697,131.7492415514593,-3.97343509984639,-5.393999615975423,-0.40781715761597553,0.028839862055299544,-0.05124244595084486,0.9111697802073735
371.0,-0.02781643625192013,-0.061008448540706604,0.013790322580645163,-0.7130775729646699,0.9267972350230417,9.73124731182796,0.09793586789554531,0.20286098310291859,-0.027371351766513063,131.79346678187403,-4.164520929339478,-5.418029953917051,-0.4074471736874039,0.02832108795007681,-0.052884450863287275,0.9112565937281106
372.0,-0.014369984264358777,-0.06617289535798584,0.01831530291109363,-0.7308058615263572,0.9285483870967742,9.730435483870973,0.044049960660896934,-0.04323613296616835,0.13046813532651455,131.7916933025177,-4.264694384343037,-5.428629032258064,-0.407488926786192,0.028043825348347755,-0.05373779795908735,0.9111951504295831
373.0,-0.0006728953579858395,-0.0711791896144768,0.01672619984264359,-0.7320198662470496,0.9291774193548388,9.730080645161294,-0.03286413257277734,0.07752507867820614,0.14184697088906373,131.71300894964594,-4.267251426042486,-5.4332661290322575,-0.40802069184874096,0.028064355565302915,-0.05379824961664045,0.9109528458276949
