time,linaccel_x,linaccel_y,linaccel_z,gravity_x,gravity_y,gravity_z,gyro_x,gyro_y,gyro_z,euler_x,euler_y,euler_z,quaternion_w,quaternion_y,quaternion_x,quaternion_z
0.0,0.03187500000000002,0.08046874999999999,0.004218749999999999,-0.030000000000000023,-1.2800000000000007,-9.720000000000015,0.0390625,-0.025390625,-0.01953125,198.75,-0.1875,172.4375,0.06500243999999988,0.16284180000000006,-0.9844970700000015,-0.008911129999999993
1.0,0.03447916666666667,0.08130208333333333,0.0027604166666666662,-0.03000000000000002,-1.2800000000000007,-9.720000000000013,0.0006510416666666661,-0.018880208333333332,0.004557291666666666,198.75,-0.1875,172.4375,0.06500243999999988,0.16284180000000006,-0.9844970700000015,-0.008911129999999993
2.0,0.036315247252747256,0.08231627747252745,0.0017984203296703295,-0.03000000000000002,-1.2800000000000007,-9.720000000000013,0.007971325549450549,0.023227163461538462,0.019535542582417582,198.75,-0.1875,172.4375,0.06500243999999988,0.16284180000000006,-0.9844970700000014,-0.008911129999999993
3.0,0.03578044871794872,0.08233092948717947,0.002172596153846153,-0.03000000000000002,-1.2800000000000007,-9.720000000000015,-0.011905048076923077,0.018131009615384615,0.015887419871794872,198.75,-0.1875,172.4375,0.06500243999999988,0.16284180000000006,-0.9844970700000015,-0.008911129999999993
4.0,0.03215183002481391,0.08306335297766748,0.0018577078163771708,-0.030000000000000027,-1.2800000000000007,-9.720000000000015,0.010872557382133994,0.0032287143300248136,0.025328590260545902,198.75,-0.1875,172.4375,0.06500243999999988,0.16284180000000004,-0.9844970700000014,-0.008911129999999993
5.0,0.03174948539363863,0.08214972695315435,0.0022684341867809602,-0.030000000000000027,-1.2800000000000007,-9.720000000000015,-0.03233941168038951,-0.006773770584254455,0.016889383717760734,198.78079178885628,-0.1875,172.4375,0.06500243999999988,0.16297210271749757,-0.9844655706451614,-0.008870083822091882
6.0,0.0294105289871419,0.08475681912173844,0.0017466162869388675,-0.031129032258064536,-1.2800000000000007,-9.720000000000015,-0.009822049590194752,0.05331674374013084,0.014225311818557787,198.7976539589443,-0.1875,172.4375,0.06500785483870956,0.16305116966520034,-0.9844498209677414,-0.008857138443304002
7.0,0.02910476821565533,0.08915756588841264,0.0010941518159260093,-0.030564516129032278,-1.2800000000000007,-9.720000000000015,-0.06567405209038274,-0.00946135517708098,-0.0266342423537484,198.71476990751182,-0.15772332506203474,172.4375,0.06498818622828774,0.16251660104103688,-0.9845311185359796,-0.008948592385423714
8.0,0.030639719151815945,0.08563579968418678,0.0007413574328896909,-0.03028225806451615,-1.2800000000000007,-9.720000000000015,-0.049471045167869765,-0.04063056609049552,0.1898016738805549,198.75437908865325,-0.16576904278517182,172.4375,0.0649953131141438,0.16287107547653012,-0.9844687499864645,-0.008967568250385366
9.0,0.03550131118881121,0.08380580306789984,0.0014745093616061358,-0.030141129032258088,-1.2800000000000007,-9.720000000000015,-0.02827949939845101,-0.05592831227911872,0.08527697101285811,198.848963737875,-0.1766345213925859,172.4375,0.06499887655707184,0.16376999644794243,-0.984325397735167,-0.008939349125192678
10.0,0.03625144691777758,0.08319415508326797,0.002413696518535228,-0.030070564516129057,-1.2800000000000007,-9.720000000000015,-0.020659439686657427,-0.02000873790188306,-0.023023898704342252,198.89529381908415,-0.18206726069629295,172.4375,0.06500065827853585,0.16421538497372679,-0.984254705964357,-0.008926522255655964
11.0,0.037932834190898726,0.08211638585428906,0.002536562899466125,-0.030000000000000027,-1.2800000000000007,-9.720000000000015,0.007347273022676248,-0.01673126101049488,0.006165043513833835,198.91841303857433,-0.1847836303481465,172.4375,0.06500137992555818,0.16443764437446418,-0.984219360078952,-0.008919872017444914
12.0,0.03422708116256505,0.08690726142137431,0.0011789120377830053,-0.0317204301075269,-1.2800000000000007,-9.720000000000015,-0.00518699210735501,0.0869495158179634,0.14083435325874843,199.0096311618489,-0.18553623795559282,172.4375,0.06499444016385039,0.16512124945049556,-0.98410339622818,-0.008944989650654
13.0,0.03167365788333532,0.08793554664421598,0.0014692214147859308,-0.030860215053763462,-1.2800000000000007,-9.720000000000015,-0.004579077676355901,0.0707994157779944,0.08069637995293237,199.1049347158218,-0.15447388632872505,172.4375,0.06496694072708648,0.16583414540706587,-0.9839866307680493,-0.009147397608806954
14.0,0.029802089487573374,0.0882228524164008,0.001255159714837134,-0.030430107526881744,-1.2800000000000007,-9.720000000000015,-0.010631757355547678,0.0022748532829177937,0.05353493392807909,199.15024961597538,-0.13872887864823347,172.4375,0.0649531910087045,0.16616804076804895,-0.9839317532872507,-0.009249779933435731
15.0,0.02561277029422192,0.08980523061168219,0.000983442632636181,-0.030215053763440886,-1.2800000000000007,-9.720000000000015,-0.018900748109417463,-0.00012665425971877982,0.0247193358836504,199.17290706605223,-0.1308563748079877,172.4375,0.06494631614951353,0.1663349884485405,-0.9839043145468516,-0.009300971095750118
16.0,0.025238146933711465,0.093189215802119,0.0005301828547796289,-0.030107526881720456,-1.2800000000000007,-9.720000000000015,-0.01908126735495687,-0.020573562861869312,0.009281193996415771,199.1842357910906,-0.1269201228878648,172.4375,0.06491728130056323,0.16641846228878626,-0.9838905951766519,-0.009352159902713767
17.0,0.023417844588207504,0.09390515577612349,0.00026765159124030096,-0.030000000000000027,-1.2800000000000007,-9.720000000000015,-0.016261063785005317,-0.0056704859880263095,0.004904613895289298,199.1875,-0.125,172.4375,0.06489710677419355,0.1664428699999998,-0.9838867200000005,-0.009382675967741932
18.0,0.022044103745716657,0.09253725530741656,0.0012351362794911184,-0.029354838709677443,-1.2800000000000007,-9.720000000000015,-0.011075970400567174,0.0013860271672771676,0.05535994303635433,199.20362903225805,-0.125,172.4375,0.06488775387096773,0.16658019927419343,-0.9838542334677416,-0.009390059354838703
19.0,0.025000960061443943,0.09129592293906809,0.0007614887352790581,-0.024516129032258083,-1.2800000000000007,-9.720000000000015,-0.010818692396313364,-0.04964817748335893,-0.02060631880440348,199.22782258064512,-0.125,172.4375,0.06488307741935484,0.16679505463709682,-0.9838074728629026,-0.009458722903225806
20.0,0.025372983870967758,0.0890977822580645,0.0004485887096774195,-0.0220967741935484,-1.2800000000000007,-9.720000000000015,-0.011529737903225805,-0.010175151209677416,-0.013199344758064516,199.2399193548387,-0.125,172.4375,0.06488073919354839,0.16690248231854848,-0.9837840925604832,-0.009493054677419357
21.0,0.026119868035190633,0.08757377199413488,0.0010819892473118281,-0.020887096774193557,-1.2800000000000007,-9.720000000000015,-0.03480686400293255,-0.0362110902370479,-0.025093742363147604,199.2459677419355,-0.125,172.4375,0.06488036999999999,0.16695619615927432,-0.9837724024092733,-0.009509420776209681
22.0,0.02368509402783598,0.08969690423823486,0.001606022785458269,-0.02028225806451614,-1.2800000000000007,-9.720000000000015,-0.007966328026811896,-0.01014928591793511,-0.027537580586975745,199.24899193548384,-0.125,172.4375,0.06488036999999999,0.16698305307963723,-0.9837665573336685,-0.009517419259072585
23.0,0.03011677110971467,0.09374087941628262,0.00014211818647302495,-0.024301075268817217,-1.2800000000000007,-9.720000000000015,0.029346923657659545,-0.10836020778057068,-0.04916273732427966,199.25,-0.15090420332355817,172.4375,0.06490614642228737,0.16696641357771266,-0.9837646499999992,-0.009348698455522973
24.0,0.03691993177073823,0.09393495583717357,0.00014542323715710786,-0.033028949545078574,-1.2800000000000007,-9.720000000000015,-0.027336899911244675,-0.10914918344983868,0.07120778107421252,199.25,-0.18956500488758554,172.4375,0.06496208020618092,0.167031157907963,-0.9837646499999992,-0.009025079738927733
25.0,0.04123150326376132,0.09168766001024065,0.0001521167005037971,-0.04199834574028119,-1.2800000000000007,-9.720000000000015,-0.011927588540491769,-0.09138569763569762,0.05105937968841194,199.25,-0.22179863147605083,172.4375,0.06501573349018726,0.16707467782494922,-0.9837646499999992,-0.008706245030754185
26.0,0.043607517930098566,0.08987022296699715,-0.0008242725016918566,-0.0464830438378825,-1.2800000000000007,-9.720000000000015,-0.03829799233025039,-0.013930827237278842,0.0494351526609591,199.25,-0.23791544477028348,172.4375,0.06504256013219042,0.16709643778344235,-0.9837646499999992,-0.008546827676667413
27.0,0.046783277654245385,0.0890979379043895,-0.00012283773574096174,-0.048725392886683164,-1.2800000000000007,-9.720000000000015,-0.0012918533079823435,0.009411634512440967,0.011572735060638282,199.25,-0.2459738514173998,172.4375,0.06505597345319201,0.1671073177626889,-0.9837646499999992,-0.008467118999624025
28.0,0.04926162905195161,0.08773323092677929,0.0003613572807121193,-0.049712158808932955,-1.2800000000000007,-9.720000000000015,-0.014285345031312773,0.007928568966875419,-0.011304908129504902,199.25,-0.24919354838709679,172.4375,0.06506187460049632,0.16711356326550866,-0.9837646499999992,-0.008432664084367238
29.0,0.04844967308676984,0.0863020993343574,0.0005814230572295089,-0.04999999999999995,-1.2800000000000007,-9.720000000000015,-0.001288143979676238,0.01682098423529875,-0.005070878382370317,199.25,-0.25,172.4375,0.06506348000000005,0.16711426,-0.9837646499999992,-0.008422849999999992
30.0,0.04866160049627791,0.08670967741935483,0.0006913771712158808,-0.04999999999999995,-1.2800000000000007,-9.720000000000015,0.0008200217121588087,-0.016663112593052108,0.003536949441687345,199.25,-0.25,172.4375,0.06506348000000005,0.16711426,-0.9837646499999992,-0.008422849999999992
31.0,0.04908266129032256,0.08645161290322578,0.00045362903225806443,-0.04999999999999995,-1.2800000000000007,-9.720000000000015,-0.005607358870967742,0.012380292338709676,0.006079889112903226,199.25,-0.25,172.4375,0.06506348000000005,0.16711426,-0.9837646499999992,-0.008422849999999992
32.0,0.049000620347394525,0.08531304280397022,0.0009313740694789083,-0.04999999999999995,-1.2800000000000007,-9.720000000000015,-0.015281385700992555,0.026017757444168732,0.008428000930521092,199.25,-0.25,172.4375,0.06506348000000005,0.16711426,-0.9837646499999992,-0.008422849999999992
33.0,0.048606699751861014,0.0855655241935484,-2.3340570719603037e-05,-0.04999999999999995,-1.2800000000000007,-9.720000000000015,0.017566978132754346,0.017475379962779154,0.005277314671215881,199.25,-0.25,172.4375,0.06506348000000005,0.16711426,-0.9837646499999992,-0.008422849999999992
34.0,0.046841228663809284,0.08668786656891495,0.0005231384878562298,-0.04585532746823068,-1.2800000000000007,-9.720000000000015,0.014995591186367396,0.055800747471614405,0.04309536020095496,199.25,-0.25,172.4375,0.06506348000000005,0.16711426,-0.9837646499999992,-0.008497788416422288
35.0,0.04642464658996916,0.08766348973607035,0.00113606521167005,-0.042766373411534706,-1.2800000000000007,-9.720000000000015,0.03870054256899015,0.08214684551000076,0.011766304092412963,199.25,-0.25,172.4375,0.06506348000000005,0.16711426,-0.9837646499999992,-0.008554827595307925
36.0,0.0512062749078878,0.08905351906158357,0.000646157605835025,-0.04122189638318672,-1.2800000000000007,-9.720000000000015,0.015034495074817657,0.04644451650500038,-0.016955809647341908,199.25,-0.25,172.4375,0.06506348000000005,0.16711426,-0.9837646499999992,-0.008578424604105576
37.0,0.05242286253173349,0.09142092629592627,0.0014476997017319596,-0.04044965786901272,-1.2800000000000007,-9.720000000000015,0.026322635697635696,0.06662122040146234,0.027209302234503845,199.25,-0.25,172.4375,0.06506348000000005,0.16711426,-0.9837646499999992,-0.008563641173020532
38.0,0.050603490819216626,0.09149210086508472,0.0010563560543399252,-0.04006353861192573,-1.2800000000000007,-9.720000000000015,0.012385883605641669,0.05153331491537136,0.018055643673083186,199.25,-0.25,172.4375,0.06506348000000005,0.16711426,-0.9837646499999992,-0.008556249457478009
39.0,0.051212412959193654,0.093196859249116,-0.0006543811756806034,-0.04000000000000002,-1.2800000000000007,-9.720000000000015,-0.007012900438531292,0.05238084170389386,0.014003600696945845,199.25,-0.25,172.4375,0.06506348000000005,0.16711426,-0.9837646499999992,-0.008550211774193552
40.0,0.052225790132950645,0.09293191496761995,0.0014474429887085976,-0.04000000000000002,-1.2800000000000007,-9.720000000000015,-0.013699602581016799,0.038857731559832236,-0.012156175761998147,199.25,-0.25,172.4375,0.06506348000000005,0.16711426,-0.9837646499999992,-0.008546581370967745
41.0,0.054672254557790456,0.09209615289323923,-0.00031105673145215285,-0.043176178660049615,-1.2800000000000007,-9.720000000000015,-0.01762615636184835,-0.04080977410842135,0.01497810202284708,199.25,-0.25,172.4375,0.06506348000000005,0.16711426,-0.9837646499999992,-0.008471738620347398
42.0,0.05694161428812833,0.09265668520403171,-0.0011903300769065598,-0.04674937965260543,-1.2800000000000007,-9.720000000000015,-0.03332251775279871,-0.02126068376068376,0.02666034249020721,199.25,-0.25,172.4375,0.06506348000000005,0.16711426,-0.9837646499999992,-0.00843211511662531
43.0,0.05277601806217831,0.09265588602633346,-0.0005256861302646942,-0.04678908188585608,-1.2800000000000007,-9.720000000000015,0.007656358989605608,0.052815687896333056,-0.10343471709236537,199.25,-0.25,172.4375,0.06506348000000005,0.1670832401687344,-0.9837646499999992,-0.008436661439205954
44.0,0.050555542850027765,0.09213959753970158,0.0002574482980310244,-0.04339454094292805,-1.2800000000000007,-9.720000000000015,0.03951691518679031,0.019481465176054147,0.004539145095856852,199.2696572580645,-0.25,172.4375,0.06506348000000005,0.16718931572952855,-0.9837439751612898,-0.008459291364764268
45.0,0.04998719282798367,0.0899804490514688,-8.244616985511765e-06,-0.04169727047146403,-1.2800000000000007,-9.720000000000015,-0.007675298166973505,0.010300768430320979,0.04320019210758024,199.29208669354838,-0.25,172.4375,0.06506348000000005,0.1673092949615385,-0.9837228080645155,-0.008470606327543422
46.0,0.04963751700952534,0.08940585728007683,0.0001894260786040184,-0.04074937965260547,-1.2800000000000007,-9.720000000000015,0.014648703273833344,0.012067257664292001,0.006851336748579203,199.30330141129033,-0.25,172.4375,0.06506348000000005,0.16736928457754346,-0.9837122245161283,-0.008478550727047144
47.0,0.0511817617866005,0.0897303039702233,0.00036414392059553355,-0.0402133995037221,-1.2800000000000007,-9.720000000000015,0.01948666253101737,0.010483870967741934,-0.008126550868486352,199.30890877016128,-0.25,172.4375,0.06506348000000005,0.167399279385546,-0.9837069327419348,-0.008482617702233249
48.0,0.051742245657568235,0.08796812965260543,1.8300248138957933e-05,-0.04000000000000002,-1.2800000000000007,-9.720000000000015,0.008479373449131513,0.00676954094292804,-0.014531637717121588,199.31171244959677,-0.25,172.4375,0.06506348000000005,0.16741524615927428,-0.983704286854838,-0.008483889999999997
49.0,0.052347937344913144,0.08718214950372206,0.00023596464019851125,-0.04000000000000002,-1.2800000000000007,-9.720000000000015,-0.00996772254962779,0.005589911600496278,-0.0014694478908188584,199.3125,-0.25,172.4375,0.06506348000000005,0.1674194300000001,-0.9837036099999993,-0.008483889999999997
50.0,0.05274555652680653,0.08776362179487178,-0.0004269070982780659,-0.04000000000000002,-1.2800000000000007,-9.720000000000015,-0.002651280171441461,-0.015809371240318823,0.006802849368373561,199.3125,-0.25,172.4375,0.06506348000000005,0.1674194300000001,-0.9837036099999994,-0.00848389
51.0,0.052553359275133466,0.08725722328746519,-0.0002966952402436273,-0.04000000000000002,-1.2800000000000007,-9.720000000000015,-0.010690330334987591,0.000246699704865027,0.010685072655838785,199.3125,-0.25,172.4375,0.06506348000000005,0.1674194300000001,-0.9837036099999994,-0.00848389
52.0,0.05289702703210767,0.08751446772313706,-0.0008704319873674711,-0.04000000000000002,-1.2800000000000007,-9.720000000000015,-0.013642311569478907,0.008916774170050379,0.02007578694826679,199.3125,-0.25,172.4375,0.06506348000000005,0.1674194300000001,-0.9837036099999994,-0.00848389
53.0,0.052429849048800645,0.08623455240995562,-0.0017595989360102262,-0.04000000000000002,-1.2800000000000007,-9.720000000000015,-0.015603058735619218,-0.007382075250018799,0.025141678298180314,199.3125,-0.25,172.4375,0.06506348000000005,0.1674194300000001,-0.9837036099999994,-0.00848389
54.0,0.05273358899165349,0.08637408827731408,-0.001825776374163471,-0.04000000000000002,-1.2800000000000007,-9.720000000000015,-0.02205475975637266,0.006021129408226182,0.026997330626362885,199.3125,-0.25,172.4375,0.06506348000000005,0.1674194300000001,-0.9837036099999994,-0.00848389
55.0,0.053461839236032774,0.08654643206256107,-0.0007369727047146402,-0.04000000000000002,-1.2800000000000007,-9.720000000000015,0.006792803970223325,-0.0038532032483645385,0.02066790736145575,199.3125,-0.25,172.4375,0.06506348000000005,0.1674194300000001,-0.9837036099999994,-0.00848389
56.0,0.0523294984585307,0.08697465974885327,-0.0005248514925934282,-0.04000000000000002,-1.2800000000000007,-9.720000000000015,-0.0047653958944281535,0.004761636213249116,0.008135010151139183,199.3125,-0.25,172.4375,0.06506348000000005,0.1674194300000001,-0.9837036099999993,-0.008483889999999997
57.0,0.05228566057598315,0.0871926460636138,-0.0008657041882848335,-0.04000000000000002,-1.2800000000000007,-9.720000000000015,0.0066630949695465815,0.004545454545454545,0.015836717046394465,199.3125,-0.25,172.4375,0.06506348000000005,0.1674194300000001,-0.9837036099999994,-0.00848389
58.0,0.052049477404316105,0.08726934355966612,7.790059402962627e-05,-0.04000000000000002,-1.2800000000000007,-9.720000000000015,-0.0027473870215805702,0.0011730205278592375,0.02114538687119332,199.3125,-0.25,172.4375,0.06506348000000005,0.1674194300000001,-0.9837036099999994,-0.00848389
59.0,0.05191427926911797,0.08525001879840588,0.0006938867584028873,-0.04000000000000002,-1.2800000000000007,-9.720000000000015,-0.003359275133468682,0.027651515151515153,-0.006992067072712233,199.3125,-0.25,172.4375,0.06506348000000005,0.1674194300000001,-0.9837036099999994,-0.008483890000000001
60.0,0.051359350327092254,0.08431445973381457,0.00018557786299721774,-0.04000000000000002,-1.2800000000000007,-9.720000000000015,-0.0002829160087224605,0.01650218061508384,0.0006701631701631705,199.3125,-0.25,172.4375,0.06506348000000005,0.1674194300000001,-0.9837036099999994,-0.008483890000000001
61.0,0.05248612677644935,0.0847378750281976,9.775171065493637e-05,-0.04000000000000002,-1.2800000000000007,-9.720000000000015,0.0030998571321151965,0.011507914128881871,-0.0010917174223625836,199.3125,-0.25,172.4375,0.06506348000000005,0.1674194300000001,-0.9837036099999994,-0.00848389
62.0,0.05277043386720806,0.08537724640950448,0.0006940371456500489,-0.04000000000000002,-1.2800000000000007,-9.720000000000015,-0.009966444845477105,0.004211312880667719,0.006892435521467779,199.3125,-0.25,172.4375,0.06506348000000005,0.1674194300000001,-0.9837036099999994,-0.00848389
63.0,0.05213790510564703,0.08577757726144822,0.0012707722385141736,-0.04000000000000002,-1.2800000000000007,-9.720000000000015,-0.00869473268666817,-0.009089969170614332,0.0020410369200691784,199.3125,-0.25,172.4375,0.06506348000000005,0.1674194300000001,-0.9837036099999994,-0.00848389
64.0,0.05088081810662455,0.08609060831641474,0.00045702684412361814,-0.04000000000000002,-1.2800000000000007,-9.720000000000015,-0.021144446950898566,0.0035326904278517183,0.005029043537108053,199.3125,-0.25,172.4375,0.06506348000000005,0.1674194300000001,-0.9837036099999994,-0.00848389
65.0,0.051129558613429577,0.08463132566358372,0.000311602376118505,-0.04000000000000002,-1.2800000000000007,-9.720000000000015,-0.027739867659222497,0.018307767501315887,0.00042202421234679294,199.3125,-0.25,172.4375,0.06506348000000005,0.1674194300000001,-0.9837036099999994,-0.00848389
66.0,0.05089287826601259,0.08438825273586949,-0.0010767457546465736,-0.04000000000000002,-1.2800000000000007,-9.720000000000015,0.005777023690480601,-0.007324441126198469,0.0007390018102584302,199.3125,-0.25,172.4375,0.06506348000000005,0.1674194300000001,-0.9837036099999994,-0.00848389
67.0,0.05079458561018502,0.08368446398730461,-0.00016090088694807066,-0.04000000000000002,-1.2800000000000007,-9.720000000000015,-0.003708083763452083,-0.0006387319549332072,0.0031027891222884002,199.3125,-0.25,172.4375,0.06506348000000005,0.1674194300000001,-0.9837036099999994,-0.00848389
68.0,0.049261192346411395,0.08285369902124837,4.903297633196516e-05,-0.04000000000000002,-1.2800000000000007,-9.720000000000015,0.003230926912920173,-0.0034420161767297064,0.008529832789582428,199.3125,-0.25,172.4375,0.06506348000000005,0.1674194300000001,-0.9837036099999993,-0.008483889999999997
69.0,0.04877534389859858,0.08335834811954215,0.0004986874784660051,-0.04000000000000002,-1.2800000000000007,-9.720000000000015,0.006541585721292029,-0.0059102328421057355,0.005622631260570596,199.3125,-0.25,172.4375,0.06506348000000005,0.1674194300000001,-0.9837036099999994,-0.00848389
70.0,0.05009148426601483,0.08388591892780625,0.0005694805916279196,-0.04000000000000002,-1.2800000000000007,-9.720000000000015,0.019430372528290198,-0.02413974496455238,0.007912733030089793,199.3125,-0.25,172.4375,0.06506348000000005,0.1674194300000001,-0.9837036099999993,-0.008483889999999997
71.0,0.049630479735318436,0.08381103842394164,-0.000483194225129709,-0.04000000000000002,-1.2800000000000007,-9.720000000000015,0.017162827092262578,-0.030711543161139936,0.00998970787277239,199.3125,-0.25,172.4375,0.06506348000000005,0.1674194300000001,-0.9837036099999993,-0.008483889999999997
72.0,0.049247001654259714,0.08376159861643731,0.0003018272050530116,-0.04000000000000002,-1.2800000000000007,-9.720000000000015,0.007805979302955108,-0.018426491183547635,0.009368303067899842,199.3125,-0.25,172.4375,0.06506348000000005,0.1674194300000001,-0.9837036099999993,-0.008483889999999997
73.0,0.04885178866832092,0.08329767275735017,0.0003072411459508237,-0.04000000000000002,-1.2800000000000007,-9.720000000000015,-0.0012924197778028425,-0.025737749313858183,0.003962997687796075,199.3125,-0.25,172.4375,0.06506348000000005,0.1674194300000001,-0.9837036099999993,-0.008483889999999997
74.0,0.048182304590570726,0.0818235111662531,0.0008535980148883376,-0.04000000000000002,-1.2800000000000007,-9.720000000000015,0.002690272177419355,-0.0162206304280397,-0.005508491004962779,199.3125,-0.25,172.4375,0.06506348000000005,0.1674194300000001,-0.9837036099999993,-0.008483889999999997
75.0,0.04890966191066998,0.0839379652605459,0.0003373138957816377,-0.04000000000000002,-1.2800000000000007,-9.720000000000015,0.014256358560794045,-0.013916136786600496,-0.0014229218362282877,199.3125,-0.25,172.4375,0.06506348000000005,0.1674194300000001,-0.9837036099999993,-0.008483889999999997
76.0,0.050515818858560796,0.08465043424317617,-0.0002900124069478907,-0.04000000000000002,-1.2800000000000007,-9.720000000000015,0.0018358405707196036,-0.005351465570719602,-0.014005311724565756,199.3125,-0.25,172.4375,0.06506348000000005,0.1674194300000001,-0.9837036099999993,-0.008483889999999997
77.0,0.050354683622828786,0.08464779776674938,-0.0004799937965260546,-0.04000000000000002,-1.2800000000000007,-9.720000000000015,-0.0025250077543424315,-0.005064070254342431,-0.0051571223635235725,199.3125,-0.25,172.4375,0.06506348000000005,0.1674194300000001,-0.9837036099999993,-0.008483889999999997
78.0,0.05012313895781638,0.08696339950372206,-0.0013566997518610424,-0.04000000000000002,-1.2800000000000007,-9.720000000000015,0.00286522952853598,-0.024841035980148883,0.07138259925558313,199.3125,-0.25,172.4375,0.06506348000000005,0.1674194300000001,-0.9837036099999993,-0.008483889999999997
79.0,0.05461740074441687,0.09024844913151364,-0.00013616625310173712,-0.04604838709677421,-1.2800000000000007,-9.720000000000015,0.05223131203473945,-0.021888570099255586,0.36354489764267994,199.45110887096774,-0.27620967741935487,172.4375,0.06506987830645165,0.16875039217741944,-0.9834796523387092,-0.008389874354838709
80.0,0.05844269540942928,0.08785003101736974,-0.00030753722084367243,-0.05334677419354843,-1.2800000000000007,-9.720000000000015,0.08466869571960298,-0.06316202698511166,0.27043560018610424,199.6398689516129,-0.29536290322580644,172.4375,0.06509571762096776,0.1703373047177419,-0.9832136079435484,-0.008253284516129035
81.0,0.06316129032258064,0.08344230769230768,0.00025837468982630265,-0.05699596774193552,-1.2800000000000007,-9.720000000000015,0.02363329714640198,-0.02367206885856079,0.23984568858560795,199.7709735576923,-0.3247906327543424,172.4375,0.0651110981653226,0.17153035274844902,-0.9830054659444794,-0.008141773004962778
82.0,0.06632726771436448,0.08369484323919807,0.0007125896057347669,-0.058820564516129076,-1.2800000000000007,-9.720000000000015,0.024726028619677806,-0.019951015326519356,0.11576454739257158,199.86431742400742,-0.35191144540942926,172.4375,0.06511878843749999,0.17240457911615992,-0.9828505070044982,-0.008060816018610417
83.0,0.06785346015991177,0.08225685089999604,0.0018203146539840088,-0.05973286290322585,-1.2800000000000007,-9.720000000000015,0.013727778577828979,0.006618785140710544,0.07393376253003268,199.910989357165,-0.3654718517369727,172.4375,0.06512263357358872,0.1728416923000154,-0.9827730275345077,-0.008020337525434237
84.0,0.06950520402536528,0.08059911403560598,0.0003366849324510614,-0.06000000000000005,-1.2800000000000007,-9.720000000000015,-0.007133910416420499,-0.0038355070109102364,0.020773391035487806,199.92999379652605,-0.37143300248138955,172.4375,0.06512435619455645,0.1730186563238988,-0.9827412864764277,-0.008003036267757436
85.0,0.07036752136752136,0.07892102879199654,0.0007404190791287565,-0.06000000000000005,-1.2800000000000007,-9.720000000000015,-0.018514661861436056,0.008288899720351333,0.022231453582260034,199.93576302729528,-0.37422456575682383,172.4375,0.06512451,0.17307834360297758,-0.9827302304962788,-0.007997185076923069
86.0,0.0703872346291701,0.07866646973098587,-0.00028735869864902116,-0.06000000000000005,-1.2800000000000007,-9.720000000000015,-0.01673251703493639,0.020025343160423804,0.006850838453661033,199.9375,-0.375,172.4375,0.06512451,0.1730956999999999,-0.9827270500000009,-0.007995609999999992
87.0,0.07060856079404465,0.07903101736972704,-0.0014320719602977663,-0.06000000000000005,-1.2800000000000007,-9.720000000000015,-0.0033072270471464016,0.0107649658808933,0.0025608715880893296,199.9375,-0.375,172.4375,0.06512451,0.1730956999999999,-0.9827270500000009,-0.007995609999999992
88.0,0.07016532258064515,0.07997456575682382,-0.0006812965260545903,-0.06000000000000005,-1.2800000000000007,-9.720000000000015,-0.005174084987593051,0.004389927109181141,0.003684281947890819,199.9375,-0.375,172.4375,0.06512451,0.1730956999999999,-0.9827270500000009,-0.007995609999999992
89.0,0.06966062812635393,0.08032490940958684,-0.0010606057249202409,-0.06000000000000005,-1.2800000000000007,-9.720000000000015,-0.012952013544251446,0.00447572490793257,-0.0005319186581787391,199.9375,-0.375,172.4375,0.06512451,0.1730956999999999,-0.9827270500000009,-0.007995609999999992
90.0,0.07045042882744497,0.08099682195045098,0.0006431230060262317,-0.06000000000000005,-1.2800000000000007,-9.720000000000015,-0.014006927212572374,0.0019700953168695105,0.0007660951839379259,199.9375,-0.375,172.4375,0.06512451,0.1730956999999999,-0.9827270500000009,-0.007995609999999992
91.0,0.06989247311827956,0.08167056599314665,-0.0008871558548977904,-0.06000000000000005,-1.2800000000000007,-9.720000000000015,-0.026208692740950803,-0.022048426483910352,-0.009314073023750442,199.9375,-0.375,172.4375,0.06512451,0.1730956999999999,-0.9827270500000009,-0.007995609999999992
92.0,0.06845917523336878,0.08051502619244555,0.0006611524676040805,-0.06000000000000005,-1.2800000000000007,-9.720000000000015,-0.01071477805348773,-0.03203306550080744,0.008686832880381266,199.9375,-0.375,172.4375,0.06512451,0.1730956999999999,-0.9827270500000009,-0.007995609999999992
93.0,0.06963777620229233,0.07943617314585057,0.0007313206506754893,-0.06000000000000005,-1.2800000000000007,-9.720000000000015,-0.010289150813344361,-0.012976830517153096,0.004250364331009492,199.9375,-0.375,172.4375,0.06512451,0.1730956999999999,-0.9827270500000009,-0.007995609999999992
94.0,0.06786548308322501,0.07774164008034976,-0.00010284965930127201,-0.06000000000000005,-1.2800000000000007,-9.720000000000015,-0.00839278329197684,-0.020377304147465435,0.010397711607389027,199.9375,-0.375,172.4375,0.06512451,0.1730956999999999,-0.9827270500000009,-0.007995609999999992
95.0,0.0679600368269723,0.07773434361337588,-0.000247454606325574,-0.06000000000000005,-1.2800000000000007,-9.720000000000015,-0.0034519747725392886,-0.008699818326834453,0.004656051833471188,199.9375,-0.375,172.4375,0.06512451,0.1730956999999999,-0.9827270500000009,-0.007995609999999992
96.0,0.06802251713340421,0.07689584564181337,0.00031790096104612227,-0.06000000000000005,-1.2800000000000007,-9.720000000000015,0.009466728947575722,-0.012214412491630232,0.009184464728819567,199.9375,-0.375,172.4375,0.06512451,0.1730956999999999,-0.9827270500000009,-0.007995609999999992
97.0,0.06607347054826893,0.07781300218598605,0.0009321199633699631,-0.06000000000000005,-1.2800000000000007,-9.720000000000015,0.016750133547008546,-0.009987454581708613,0.012744754125802511,199.9375,-0.375,172.4375,0.06512451,0.1730956999999999,-0.9827270500000009,-0.007995609999999992
98.0,0.06727491490472759,0.07751651019809189,3.722608470267154e-05,-0.06000000000000005,-1.2800000000000007,-9.720000000000015,0.0007282064066988633,-0.0004056110707710602,0.01157529069453497,199.9375,-0.375,172.4375,0.06512451,0.1730956999999999,-0.9827270500000009,-0.00799560999999999
99.0,0.06678422916833426,0.07707152005122869,0.001615659769470903,-0.06000000000000005,-1.2800000000000007,-9.720000000000015,0.011922520361402386,-0.0002910692487793164,-0.0027930328483951,199.9375,-0.375,172.4375,0.06512450999999998,0.1730956999999999,-0.9827270500000009,-0.00799560999999999
100.0,0.067072015328584,0.07896752181221485,0.000574579264388057,-0.06000000000000005,-1.2800000000000007,-9.720000000000015,0.01736014355539102,-0.006147395666573281,0.00507060516389178,199.9375,-0.375,172.4375,0.06512451,0.1730956999999999,-0.9827270500000009,-0.00799560999999999
101.0,0.06717352046511126,0.07954424477707517,0.0001927635825268498,-0.06000000000000005,-1.2800000000000007,-9.720000000000015,-0.002403387563702338,-0.023799274270178604,0.0018185067070098939,199.9375,-0.375,172.4375,0.06512451,0.1730956999999999,-0.9827270500000009,-0.00799560999999999
102.0,0.06682516749062015,0.0788245417433763,0.001119567275134392,-0.06000000000000005,-1.2800000000000007,-9.720000000000015,-0.013172459910883427,-0.022342555481863494,0.0061858410551178505,199.9375,-0.375,172.4375,0.06512451,0.1730956999999999,-0.9827270500000009,-0.00799560999999999
103.0,0.06843599685665241,0.08002101176658928,0.0008953715668075706,-0.06000000000000005,-1.2800000000000007,-9.720000000000015,0.004242334040395954,-0.01736599678359564,0.011498877863667146,199.9375,-0.375,172.4375,0.06512451,0.1730956999999999,-0.9827270500000009,-0.00799560999999999
104.0,0.06814879967702547,0.0782909429280397,0.0006401935877742328,-0.06000000000000005,-1.2800000000000007,-9.720000000000015,-0.009325242969396196,-0.012194965093150576,0.012057971710189451,199.9375,-0.375,172.4375,0.06512451,0.1730956999999999,-0.9827270500000009,-0.007995609999999992
105.0,0.066972662865808,0.0777037841191067,-0.00022829030288707737,-0.06000000000000005,-1.2800000000000007,-9.720000000000015,-0.020403936621174526,0.016917405790893694,0.017241765011422272,199.9375,-0.375,172.4375,0.06512451,0.1730956999999999,-0.9827270500000009,-0.007995609999999992
106.0,0.06627178970223324,0.07691640818858558,0.00029164081885856073,-0.06000000000000005,-1.2800000000000007,-9.720000000000015,-0.02649901132133995,-0.0004618680210918113,0.01317317385235732,199.9375,-0.375,172.4375,0.06512451,0.1730956999999999,-0.9827270500000009,-0.007995609999999992
107.0,0.06732040942928039,0.07737678349875929,0.0001924627791563276,-0.06000000000000005,-1.2800000000000007,-9.720000000000015,-0.01933884537841191,0.011017951302729529,0.013361216656327543,199.9375,-0.375,172.4375,0.06512451,0.1730956999999999,-0.9827270500000009,-0.007995609999999992
108.0,0.0672892369727047,0.07859010545905708,-0.0006396557071960296,-0.06000000000000005,-1.2800000000000007,-9.720000000000015,-0.0049598712779156335,-0.002870560638957815,0.013469292803970224,199.9375,-0.375,172.4375,0.06512451,0.1730956999999999,-0.9827270500000009,-0.007995609999999992
109.0,0.0666153846153846,0.07839764267990074,0.00030784739454094314,-0.06000000000000005,-1.2800000000000007,-9.720000000000015,-0.017021750930521093,0.019518649193548388,0.011508413461538462,199.9375,-0.375,172.4375,0.06512451,0.1730956999999999,-0.9827270500000009,-0.007995609999999992
110.0,0.06845409429280395,0.07709956575682382,-0.0007815601736972703,-0.06000000000000005,-1.2800000000000007,-9.720000000000015,-0.013985441222084368,0.02641565214019851,0.00440495114764268,199.9375,-0.375,172.4375,0.06512451,0.1730956999999999,-0.9827270500000009,-0.007995609999999992
111.0,0.06752341811414392,0.07602962158808932,-0.0006453163771712158,-0.06000000000000005,-1.2800000000000007,-9.720000000000015,-0.02108987282878412,0.015523224255583125,0.005588942307692307,199.9375,-0.375,172.4375,0.06512451,0.1730956999999999,-0.9827270500000009,-0.007995609999999992
112.0,0.06798255272952852,0.07659793734491314,-0.0010509460297766747,-0.06000000000000005,-1.2800000000000007,-9.720000000000015,-0.0047989686724565755,0.004900259770471463,0.011145897952853596,199.9375,-0.375,172.4375,0.06512451,0.1730956999999999,-0.9827270500000009,-0.007995609999999992
113.0,0.06879218362282878,0.07701116625310174,-0.0004221464019851116,-0.06000000000000005,-1.2800000000000007,-9.720000000000015,-0.0015489299007444167,-0.004338554590570719,0.010392757444168734,199.9375,-0.375,172.4375,0.06512451,0.1730956999999999,-0.9827270500000009,-0.007995609999999992
114.0,0.06930179900744415,0.07829714640198512,-0.0009455645161290323,-0.06000000000000005,-1.2800000000000007,-9.720000000000015,0.008127520161290324,0.0026384150124069477,0.0065301256203473945,199.9375,-0.375,172.4375,0.06512451,0.1730956999999999,-0.9827270500000009,-0.007995609999999992
115.0,0.06825568897947928,0.08093600082712986,-0.0022453609338689987,-0.06000000000000005,-1.2800000000000007,-9.720000000000015,-0.006502823873035565,0.01920958325948245,-0.006432542451947693,199.9375,-0.375,172.4375,0.06512451,0.1730956999999999,-0.9827270500000009,-0.007995609999999992
116.0,0.06823043444011184,0.08078685897435897,-0.0007180976505573282,-0.06000000000000005,-1.2800000000000007,-9.720000000000015,0.0031607022849462372,0.004082730525522864,-0.005311639944956477,199.9375,-0.375,172.4375,0.06512451,0.1730956999999999,-0.9827270500000009,-0.007995609999999992
117.0,0.06739352056993184,0.07996236559139785,0.0008546996238528494,-0.06000000000000005,-1.2800000000000007,-9.720000000000015,0.004384757547559967,-0.014753328828429637,-0.000938475447043995,199.9375,-0.375,172.4375,0.06512451,0.1730956999999999,-0.9827270500000009,-0.007995609999999992
118.0,0.06739351687738782,0.07928417818740399,0.002145259758162984,-0.06000000000000005,-1.2800000000000007,-9.720000000000015,-0.007055713104100201,-0.0035719209106305897,-0.010355370436015596,199.9375,-0.375,172.4375,0.06512451,0.1730956999999999,-0.9827270500000009,-0.007995609999999992
119.0,0.067528700689991,0.07863291547162515,0.0027371911242878985,-0.06000000000000005,-1.2800000000000007,-9.720000000000015,-0.008190331174202141,-0.02883827641892158,-0.01597689944464138,199.9375,-0.375,172.4375,0.06512451,0.17309569999999988,-0.9827270500000007,-0.007995609999999992
120.0,0.06775948603367957,0.07861753300462979,0.0009410481991127156,-0.06000000000000005,-1.2800000000000007,-9.720000000000015,-0.011319627952692469,-0.020539529914529918,-0.016757010910236715,199.9375,-0.375,172.4375,0.06512451,0.17309569999999988,-0.9827270500000008,-0.007995609999999992
121.0,0.06817219250283765,0.07774474271248465,0.0020966220159768546,-0.06000000000000005,-1.2800000000000007,-9.720000000000015,-0.017110639136848814,-0.014195431584544487,-0.009852569025956121,199.9375,-0.375,172.4375,0.06512451,0.1730956999999999,-0.9827270500000008,-0.007995609999999992
122.0,0.0679937334171205,0.07634757715402879,0.0015845668668249316,-0.06000000000000005,-1.2800000000000007,-9.720000000000015,-0.0045521095168272584,-0.01629904313876088,0.00013200844854070748,199.9375,-0.375,172.4375,0.06512451,0.1730956999999999,-0.9827270500000009,-0.007995609999999992
123.0,0.06903782933016803,0.07811221873490515,0.000907742626079485,-0.06000000000000005,-1.2800000000000007,-9.720000000000015,-0.009920347271823012,-0.010905632386702255,0.007244693168559508,199.9375,-0.375,172.4375,0.06512451,0.1730956999999999,-0.9827270500000009,-0.00799560999999999
124.0,0.0701114028220883,0.07718217147738564,-0.0003120885335652655,-0.06000000000000005,-1.2800000000000007,-9.720000000000015,0.001628902610422805,0.0068016296296430825,-0.005470912307366235,199.9375,-0.375,172.4375,0.06512451,0.1730956999999999,-0.9827270500000009,-0.00799560999999999
125.0,0.06802394737878609,0.0776583934310005,0.0008119302989741909,-0.06000000000000005,-1.2800000000000007,-9.720000000000015,-0.012348787295905224,-0.004862648662225606,0.0005257294852746989,199.9375,-0.375,172.4375,0.06512451,0.1730956999999999,-0.9827270500000009,-0.00799560999999999
126.0,0.06774469258340227,0.07839396886091755,0.000677342517638657,-0.06000000000000005,-1.2800000000000007,-9.720000000000015,-0.00027801627980104937,0.005257167732379261,-0.013298003152907965,199.9375,-0.375,172.4375,0.06512451,0.1730956999999999,-0.9827270500000009,-0.00799560999999999
127.0,0.0691501240694789,0.07742151080014645,0.00024010495057560092,-0.06000000000000005,-1.2800000000000007,-9.720000000000015,-0.014883951816295813,-0.0066440095797909125,-0.015881592462270673,199.9375,-0.375,172.4375,0.06512451,0.1730956999999999,-0.9827270500000009,-0.00799560999999999
128.0,0.06790756823821337,0.07807816377171217,-0.00028225806451612906,-0.06000000000000005,-1.2800000000000007,-9.720000000000015,-0.0032238678660049622,0.0017234026054590568,0.005740151985111663,199.9375,-0.375,172.4375,0.06512451,0.1730956999999999,-0.9827270500000009,-0.007995609999999992
129.0,0.06740415632754343,0.07748573200992556,0.0018973325062034748,-0.06000000000000005,-1.2800000000000007,-9.720000000000015,0.005746937034739455,0.017642098325062035,0.012741353908188586,199.9375,-0.375,172.4375,0.06512451,0.1730956999999999,-0.9827270500000009,-0.007995609999999992
130.0,0.06859737165927673,0.07911108794695523,0.00015738772729121775,-0.06000000000000005,-1.2800000000000007,-9.720000000000015,0.0133397968743644,-0.0030781799795590453,0.015796397980820078,199.9375,-0.375,172.4375,0.06512451,0.1730956999999999,-0.9827270500000009,-0.00799560999999999
131.0,0.0679097280132612,0.07806198007769596,0.0012596802160029289,-0.06000000000000005,-1.2800000000000007,-9.720000000000015,0.011459416504800066,-0.00475302260454379,-0.015497863742220234,199.9375,-0.375,172.4375,0.06512451,0.1730956999999999,-0.9827270500000009,-0.00799560999999999
132.0,0.0695031347882683,0.0773420554854981,0.0012675960013017124,-0.06000000000000005,-1.2800000000000007,-9.720000000000015,0.013134378305129561,-0.0060474654741081236,-0.003991468316519546,199.9375,-0.375,172.4375,0.06512451,0.1730956999999999,-0.9827270500000009,-0.00799560999999999
133.0,0.07040582711290999,0.0772285132679765,0.00030211892703629895,-0.06000000000000005,-1.2800000000000007,-9.720000000000015,-0.009685912584407923,-0.012856238940528005,0.049182925891368016,199.9380376344086,-0.375,172.4375,0.06512451,0.17310042541935478,-0.9827260000215063,-0.00799560999999999
134.0,0.06783144178226144,0.08205175663398825,0.0003299909151310526,-0.06000000000000005,-1.2800000000000007,-9.720000000000015,0.0231465850384412,0.031342797868445675,0.08225590346987756,200.00127688172043,-0.375,172.4375,0.06512451,0.17367839004838692,-0.9826339905752692,-0.007964597741935472
135.0,0.06706617038875103,0.08682175351530187,0.0008339536807278746,-0.06120967741935489,-1.283548387096775,-9.720000000000015,0.13323511166253102,0.05082971464019851,-0.11894773573200991,199.952251344086,-0.359375,172.41582661290323,0.06537062080645159,0.1732408572822579,-0.9826893814973114,-0.008027846612903221
136.0,0.06309884201819685,0.08814288668320924,-0.0006525020678246484,-0.05584057071960297,-1.2869354838709686,-9.720000000000015,0.1870580024813896,0.0830761476426799,-0.12820835918114143,199.75430495244,-0.3259964330024814,172.3944052419355,0.06556549286724567,0.1714613567155706,-0.9829747721754551,-0.008248232921836223
137.0,0.06113254755996689,0.08889030190239863,-0.0019341914805624484,-0.05275899503722081,-1.2886290322580654,-9.720000000000015,0.1275550558312655,0.05754303660049628,-0.020044005893300236,199.68461215363936,-0.3182401519851117,172.38369455645162,0.06566002078846157,0.17085560802031619,-0.9830714272167602,-0.008342432428660042
138.0,0.06167648883374688,0.0909424627791563,-0.0018434398263027297,-0.051218207196029736,-1.2894758064516139,-9.720000000000015,0.08192268920595533,0.03613038926799007,0.0024779970533498844,199.64974895316377,-0.31436201147642684,172.3783392137097,0.06570728474906952,0.17055791666338377,-0.9831197875492408,-0.008389532182071953
139.0,0.061236429900744405,0.09092990074441684,-0.002542183622828784,-0.0504478132754342,-1.289899193548388,-9.720000000000015,0.03554299782878412,0.019388279311414392,-0.04643930288461538,199.63034952698513,-0.31242294122208436,172.37566154233872,0.06573091672937349,0.17039108342493775,-0.983146826604762,-0.008414051191842424
140.0,0.0625630194178581,0.09110019102761036,-0.0013731783449525382,-0.05002481389578159,-1.290000000000001,-9.720000000000015,0.013959754962779158,-0.0031694336129819978,-0.028467237287801806,199.6231699751861,-0.3119416873449131,172.375,0.06573504175682388,0.1703303704019849,-0.9831571775186114,-0.00842384960297766
141.0,0.061529648666745415,0.09120021958328405,-0.0028776561699948794,-0.04999999999999995,-1.290000000000001,-9.720000000000015,-0.009195680831265509,-0.014798116310213084,-0.020499127328764424,199.625,-0.3125,172.375,0.06573486000000005,0.17034878683374666,-0.9831543000000009,-0.008422849999999992
142.0,0.060356035411576484,0.09086225659385125,-0.0019719266201771403,-0.04999999999999995,-1.2900000000000007,-9.720000000000015,-0.007228813760705996,-0.007895336070739296,0.0013774474618484748,199.625,-0.3125,172.375,0.06573486000000005,0.17034911999999977,-0.9831543000000009,-0.008422849999999992
143.0,0.06013769512514307,0.08965347852734035,-0.0015317182384039824,-0.04999999999999995,-1.2900000000000007,-9.720000000000015,0.017339684181474958,0.0024882438629918457,0.010488350907063512,199.625,-0.3125,172.375,0.06573486000000005,0.17034911999999974,-0.9831543000000009,-0.008422849999999992
144.0,0.05902146853031347,0.08870247592620117,-0.0014300960919067056,-0.04999999999999995,-1.2900000000000007,-9.720000000000015,0.008811601163318123,0.01456487061325771,0.013625408006261283,199.625,-0.3125,172.375,0.06573486000000005,0.17034911999999974,-0.9831543000000009,-0.008422849999999992
145.0,0.059688665652765524,0.08763720826519991,-0.0009544233659738341,-0.04999999999999995,-1.290000000000001,-9.720000000000015,-0.003658715547373196,0.0177311040214266,-0.00395598519297791,199.625,-0.3125,172.375,0.06573486000000005,0.17034911999999974,-0.9831543000000009,-0.008422849999999992
146.0,0.06007882414151924,0.08968584979016817,0.0002374285155242492,-0.04999999999999995,-1.290000000000001,-9.720000000000015,-0.012026318071453346,0.011238380794832407,-0.006754667534454215,199.625,-0.3125,172.375,0.06573486000000005,0.17034911999999974,-0.9831543000000009,-0.008422849999999992
147.0,0.05941718362282877,0.09039095179014531,-0.00018069341053212032,-0.04999999999999995,-1.290000000000001,-9.720000000000015,-0.01092716087675765,0.01207080330064201,-0.0017986997321674742,199.625,-0.3125,172.375,0.06573486000000005,0.17034911999999974,-0.9831543000000009,-0.008422849999999992
148.0,0.058740849875930506,0.08917013027295283,-0.0001530707196029778,-0.04999999999999995,-1.290000000000001,-9.720000000000015,0.0019288926799007448,-0.001229063275434243,0.0023088554590570717,199.625,-0.3125,172.375,0.06573486000000005,0.17034911999999974,-0.9831543000000009,-0.008422849999999992
149.0,0.06045107009925557,0.08937786910669973,-0.0010219447890818859,-0.04999999999999995,-1.290000000000001,-9.720000000000015,-0.011132327853598014,-0.001033266129032258,0.007993757754342431,199.625,-0.3125,172.375,0.06573486000000005,0.17034911999999974,-0.9831543000000009,-0.008422849999999992
150.0,0.060217974565756824,0.0902976892059553,-0.0009004342431761787,-0.04999999999999995,-1.290000000000001,-9.720000000000015,0.003618854683622829,-0.0038093207196029776,-0.007070991004962781,199.625,-0.3125,172.375,0.06573486000000005,0.17034911999999974,-0.9831543000000009,-0.008422849999999992
151.0,0.059227977667493784,0.0909151674937965,6.048387096774103e-06,-0.04999999999999995,-1.290000000000001,-9.720000000000015,0.0011476426799007446,-0.00841927729528536,0.08098926023573201,199.625,-0.3125,172.375,0.06573486000000005,0.17034911999999974,-0.9831543000000009,-0.008422849999999992
152.0,0.05293186594940926,0.09236606861782895,-0.0008344262712492131,-0.045763119884448686,-1.290000000000001,-9.720000000000015,-0.01708524684270953,-0.009707351695307582,-0.7746853632157142,199.41797063071738,-0.2826492537313433,172.375,0.06572639748675979,0.16854175106403446,-0.9834585051420323,-0.008538514207992296
153.0,0.03949427737698168,0.09835052126337365,-0.0008701009439737524,-0.03148687303520348,-1.290000000000001,-9.720000000000015,0.013026992328170853,0.10684691416657771,0.0831352966298089,199.05469214647823,-0.18941523407629782,172.375,0.06565280270922429,0.16541920008609692,-0.9839836943357221,-0.009100531819366167
154.0,0.036811150785265034,0.10051713196599768,-0.0018906345384580388,-0.02752740523705434,-1.290000000000001,-9.720000000000015,0.010801588783831272,0.10620938083695455,0.20068242256954766,199.14629768614233,-0.15418342348976183,172.375,0.06561316875441663,0.1661911650088353,-0.9838534688003143,-0.009392209228353666
155.0,0.03663138184424543,0.10395087367530652,-0.001013555482628523,-0.028441121973365895,-1.290000000000001,-9.720000000000015,0.005121638064372212,0.012371129624432604,0.08860113684308647,199.25661658500667,-0.13656751819649382,172.375,0.06561101050624056,0.16716757218183703,-0.9836928960130595,-0.009506068969015544
156.0,0.0379397604010309,0.1058215906838071,-0.00027973059491227635,-0.02889798034152167,-1.290000000000001,-9.720000000000015,-0.002448486178732008,0.029572661586409855,0.04317618876893778,199.31177603443882,-0.1277595655498598,172.375,0.06560993138215253,0.16765577576833787,-0.9836126096194322,-0.00956299883934648
157.0,0.03710983797985696,0.10737914836586562,-0.0017014741267587564,-0.029258812029210532,-1.290000000000001,-9.720000000000015,0.004791506327322267,0.015944389753984156,0.056489810987557676,199.34582542694497,-0.12428842504743833,172.375,0.06560965627364726,0.16795635784083723,-0.9835629600119301,-0.009587849268012191
158.0,0.03884305210918114,0.10767753214527405,-0.0035362574253703294,-0.029819159335288392,-1.290000000000001,-9.720000000000015,0.030001668358523196,0.0059772762519738325,0.005598576490713587,199.3709677419355,-0.125,172.375,0.06561168632942324,0.16817598845552295,-0.9835264762512204,-0.009584518685239494
159.0,0.036838279436484433,0.10763145361402382,-0.004052601957095974,-0.030000000000000027,-1.2900000000000007,-9.720000000000015,0.0018713604618586406,-0.017911702428359884,0.00562443093132154,199.375,-0.125,172.375,0.06561278999999998,0.16821289000000003,-0.9835205099999985,-0.00958252
160.0,0.037995294410324336,0.10652008897709986,-0.0033532040821648004,-0.030000000000000027,-1.290000000000001,-9.720000000000015,0.005334507210401461,-0.013056363646975641,-0.006096172853009807,199.375,-0.125,172.375,0.06561278999999998,0.16821289,-0.9835205099999985,-0.009582520000000002
161.0,0.03733267356992643,0.10679672252825215,-0.0025576116564670153,-0.030000000000000027,-1.290000000000001,-9.720000000000015,-0.004619405048645424,0.013590944262120123,-0.0075618406913932415,199.375,-0.125,172.375,0.06561278999999998,0.16821289,-0.9835205099999985,-0.00958252
162.0,0.03790167492352717,0.10711237126845867,-0.0012291780366702322,-0.030000000000000027,-1.290000000000001,-9.720000000000015,-0.006064527448502475,-0.022933445904309586,-0.002027454277714424,199.375,-0.125,172.375,0.06561278999999998,0.16821289,-0.9835205099999985,-0.00958252
163.0,0.037757289074666814,0.10708224022480003,-0.002197715569203603,-0.030000000000000027,-1.290000000000001,-9.720000000000015,-0.00391625876147208,-0.019949973572502187,0.006678580553450481,199.375,-0.125,172.375,0.06561278999999998,0.16821289,-0.9835205099999985,-0.00958252
164.0,0.038167846490427135,0.10715346302443075,-0.0005495901947514854,-0.030000000000000027,-1.290000000000001,-9.720000000000015,-0.006018152993959446,0.010477716727716729,0.009547016603468217,199.375,-0.125,172.375,0.06561278999999998,0.16821289,-0.9835205099999985,-0.00958252
165.0,0.03901397468504819,0.10594248315877083,-0.0002332506203473947,-0.030000000000000027,-1.2900000000000007,-9.720000000000015,0.009016336944681735,0.010695076414272607,-0.005512705902711189,199.375,-0.125,172.375,0.06561278999999998,0.16821289000000003,-0.9835205099999985,-0.00958252
166.0,0.03939260328745326,0.10593722252871704,0.0013258624829904748,-0.030000000000000027,-1.2900000000000005,-9.720000000000015,0.006301672834783835,-0.004148779730909002,0.009870217928337033,199.375,-0.125,172.375,0.06561278999999998,0.16821289000000003,-0.9835205099999985,-0.00958252
167.0,0.04086885668724942,0.10661684475130168,0.00197373513294429,-0.030000000000000027,-1.2900000000000007,-9.720000000000015,0.011967400677504564,-0.01599528080247447,0.0017989082473226386,199.375,-0.125,172.375,0.06561278999999998,0.16821289,-0.9835205099999985,-0.00958252
168.0,0.040881275403375,0.10630743769724682,0.0004655000451046239,-0.030000000000000027,-1.2900000000000007,-9.720000000000015,0.002911503718168565,-0.014390418769822054,-0.0008692744595833928,199.375,-0.125,172.375,0.06561278999999998,0.16821289,-0.9835205099999985,-0.00958252
169.0,0.03997390013817574,0.10459367315954544,-0.001912194638521382,-0.030000000000000027,-1.290000000000001,-9.720000000000015,0.006203624953731571,0.006521360783272043,0.003972044797858073,199.375,-0.125,172.375,0.06561278999999998,0.16821289,-0.9835205099999985,-0.00958252
170.0,0.0399101897062355,0.10547574070050653,-0.0021471643167793016,-0.030000000000000027,-1.290000000000001,-9.720000000000015,0.0032180004929744785,-0.0023636331583782155,0.0008277016081386528,199.375,-0.125,172.375,0.06561278999999998,0.16821289,-0.9835205099999985,-0.00958252
171.0,0.040042223009964954,0.10632825239276851,-0.0025924613021387215,-0.030000000000000027,-1.290000000000001,-9.720000000000015,0.009752747252747253,-0.0014174445626058533,-0.0004884004884004884,199.375,-0.125,172.375,0.06561278999999998,0.16821289,-0.9835205099999985,-0.00958252
172.0,0.03818291386033323,0.10689684509039347,-0.0025660719209106304,-0.030000000000000027,-1.290000000000001,-9.720000000000015,0.007164520067745875,0.03508556855331049,0.0013879042104848554,199.375,-0.125,172.375,0.06561278999999998,0.16821289,-0.9835205099999985,-0.00958252
173.0,0.0384334948205916,0.10641565244791049,-0.0017489857812438457,-0.030000000000000027,-1.290000000000001,-9.720000000000015,0.036440362952459726,0.02430321694434598,0.010822600338729371,199.375,-0.125,172.375,0.0656103291129032,0.16821289,-0.9835205099999985,-0.009584980887096778
174.0,0.03812044586238135,0.10649417070384808,-0.0003315018315018316,-0.030000000000000027,-1.290000000000001,-9.720000000000015,0.018076172259640002,-0.011125204320768838,0.05737647209421403,199.37698511166252,-0.125,172.375,0.06558151401799006,0.16822597553846158,-0.9835185712605445,-0.009613311376550875
175.0,0.03755401945724526,0.10759199850328881,-0.002510664067115679,-0.030000000000000027,-1.290000000000001,-9.720000000000015,0.02986624990153216,-0.032191014071054395,-0.08987565973453068,199.4082506203474,-0.15725806451612903,172.375,0.06559715200899502,0.16857031800992567,-0.9834565367593049,-0.009597915688275439
176.0,0.03828289810547875,0.10712165209342629,-0.001455024813895781,-0.030000000000000027,-1.290000000000001,-9.720000000000015,-0.0011959073072984345,-0.009423080000196938,-0.09919730247351215,199.42388337468984,-0.17338709677419356,172.375,0.0656049710044975,0.1687351274458231,-0.983425519508685,-0.00959021784413772
177.0,0.03779014802401899,0.10633394898112639,-0.001158318160334289,-0.030000000000000027,-1.290000000000001,-9.720000000000015,-0.012408164052569294,-0.005815610660620742,-0.04769162009585397,199.43169975186106,-0.1814516129032258,172.375,0.06560888050224875,0.16878902807775026,-0.983410010883375,-0.009586368922068862
178.0,0.040286203044267554,0.11000669223249869,-0.00032210262855424126,-0.030000000000000027,-1.290000000000001,-9.720000000000015,-0.006723865292413679,-0.03990692327385876,-0.06700357214470118,199.43560794044666,-0.18548387096774194,172.375,0.06561091215384614,0.16881597839371387,-0.9834022565707201,-0.00956664626799008
179.0,0.041368907973746684,0.11117208060756448,0.0003798916137625814,-0.030000000000000027,-1.290000000000001,-9.720000000000015,-0.022220493440251506,-0.019240062133207295,-0.017264193020241406,199.4375,-0.1875,172.375,0.06561278999999998,0.16882904462861872,-0.9833984400000005,-0.009542154838709682
180.0,0.03960256813079394,0.10988256635837279,-0.0011065802477092802,-0.030000000000000027,-1.290000000000001,-9.720000000000015,-0.01579386954890987,0.0012980830773169482,-0.00492552082773857,199.4375,-0.1875,172.375,0.06561278999999998,0.16882502150537637,-0.9833984400000005,-0.009530832903225813
181.0,0.03981664504849989,0.11118611361756525,0.0004866484322129485,-0.030000000000000027,-1.290000000000001,-9.720000000000015,-0.015837627594180014,0.01384053194789082,0.003699849377772765,199.4375,-0.1875,172.375,0.06561278999999998,0.16882324000000004,-0.9833984400000005,-0.009525171935483877
182.0,0.038681839330024816,0.11169618486352359,0.0006550093052109182,-0.030000000000000027,-1.290000000000001,-9.720000000000015,-0.017974081110421838,0.015356990539702235,-0.004166505117866004,199.4375,-0.1875,172.375,0.06561278999999998,0.16882324000000004,-0.9833984400000005,-0.00952234145161291
183.0,0.037927109181141436,0.11095393920595532,-0.0007284429280397027,-0.030000000000000027,-1.290000000000001,-9.720000000000015,-0.024627791563275436,0.001771867245657568,0.00429590570719603,199.4375,-0.1875,172.375,0.06561278999999998,0.16882324000000004,-0.9833984400000005,-0.009521480000000006
184.0,0.039402760545905705,0.11060103908188584,-0.0028431296526054595,-0.030000000000000027,-1.290000000000001,-9.720000000000015,-0.017679900744416874,0.007337546526054591,0.0010933622828784117,199.4375,-0.1875,172.375,0.06561278999999998,0.16882324000000004,-0.9833984400000005,-0.009521480000000006
185.0,0.03870440446650124,0.11048200992555832,-0.0036020471464019857,-0.030000000000000027,-1.290000000000001,-9.720000000000015,-0.023106001861042183,0.006331420595533499,-0.0009421526054590572,199.4375,-0.1875,172.375,0.06561278999999998,0.16882324000000004,-0.9833984400000005,-0.009521480000000006
186.0,0.037416718362282886,0.11004249379652606,-0.0032848945409429285,-0.030000000000000027,-1.290000000000001,-9.720000000000015,-0.014817579094292804,0.013835685483870968,0.006949829404466501,199.4375,-0.1875,172.375,0.06561278999999998,0.16882324000000004,-0.9833984400000005,-0.009521480000000006
187.0,0.03692175868486353,0.11070362903225806,-0.0019724720843672457,-0.030000000000000027,-1.290000000000001,-9.720000000000015,0.003835006978908188,0.014098363833746899,0.017556800558312654,199.4375,-0.1875,172.375,0.06561278999999998,0.16882324000000004,-0.9833984400000005,-0.009521480000000006
188.0,0.03810669975186105,0.1107437965260546,0.000952233250620347,-0.030000000000000027,-1.290000000000001,-9.720000000000015,0.016301566377171214,0.0211654776674938,0.014079947270471464,199.4375,-0.1875,172.375,0.06561278999999998,0.16882324000000004,-0.9833984400000005,-0.009521480000000006
189.0,0.03823200992555832,0.11036693548387096,0.0007949751861042183,-0.030000000000000027,-1.290000000000001,-9.720000000000015,-0.006280048076923075,0.008364996898263028,0.009575643610421836,199.4375,-0.1875,172.375,0.06561278999999998,0.16882324000000004,-0.9833984400000005,-0.009521480000000006
190.0,0.037877791563275434,0.1102579094292804,0.0011022022332506203,-0.030000000000000027,-1.290000000000001,-9.720000000000015,-0.004179105924317618,-0.0003770549007444165,0.014759906172456577,199.4375,-0.1875,172.375,0.06561278999999998,0.16882324000000004,-0.9833984400000005,-0.009521480000000006
191.0,0.038284739454094295,0.11164267990074443,-0.000912220843672457,-0.030000000000000027,-1.290000000000001,-9.720000000000015,-0.014882521712158809,0.0069091191066997515,0.017565524193548388,199.4375,-0.1875,172.375,0.06561278999999998,0.16882324000000004,-0.9833984400000005,-0.009521480000000006
192.0,0.03734460297766749,0.11023449131513648,-0.0006881203473945412,-0.030000000000000027,-1.290000000000001,-9.720000000000015,0.01137077388337469,-0.015427264267990074,0.011876744727047146,199.4375,-0.1875,172.375,0.06561278999999998,0.16882324000000004,-0.9833984400000005,-0.009521480000000006
193.0,0.037255428039702235,0.11034305210918113,-0.0004830179900744419,-0.030000000000000027,-1.290000000000001,-9.720000000000015,0.011206478753101736,-0.020554823200992556,0.00527149891439206,199.4375,-0.1875,172.375,0.06561278999999998,0.16882324000000004,-0.9833984400000005,-0.009521480000000006
194.0,0.04287578953304759,0.111031741108354,-0.0007182776900518835,-0.030000000000000027,-1.290000000000001,-9.720000000000015,-0.004203911008346491,0.0029820733701782075,-0.028234794439431537,199.4375,-0.1875,172.375,0.06561278999999998,0.16882324000000004,-0.9833984400000005,-0.009521480000000006
195.0,0.04155824216106474,0.11220693755169563,-0.0004596351229415746,-0.030000000000000027,-1.290000000000001,-9.720000000000015,-0.00810381654635687,-0.0003855141833972479,-0.013923538658921724,199.4375,-0.1875,172.375,0.06561278999999998,0.16882324000000004,-0.9833984400000005,-0.009521480000000006
196.0,0.04199252058425445,0.11335905190239869,0.0012466092375366564,-0.030000000000000027,-1.290000000000001,-9.720000000000015,-0.007618905791788856,0.010989004694901872,0.0011492728541619675,199.4375,-0.1875,172.375,0.06561278999999998,0.16882324000000004,-0.9833984400000005,-0.009521480000000006
197.0,0.042245290999323254,0.1136028742762614,0.001980741033160388,-0.030000000000000027,-1.290000000000001,-9.720000000000015,-0.02028888450259418,0.010543790886532824,0.015848994755244757,199.4375,-0.1875,172.375,0.06561278999999998,0.16882324000000004,-0.9833984400000005,-0.009521480000000006
198.0,0.044796342770133085,0.11622947684036394,0.001315432551319648,-0.030000000000000027,-1.290000000000001,-9.720000000000015,-0.010330546469659373,0.02934912869388676,0.01751661896571171,199.4375,-0.1875,172.375,0.06561278999999998,0.16882324000000004,-0.9833984400000005,-0.009521480000000006
199.0,0.04461224763140085,0.11543389775547033,0.0010633858748778104,-0.030469208211143718,-1.290000000000001,-9.720000000000015,0.009818231163997292,-0.019462165858335212,0.2575211393948793,199.47513440860214,-0.1875,172.375,0.06561278999999998,0.1691277599608993,-0.9833483228543504,-0.009501911202346046
200.0,0.049654532295661316,0.11250762275359048,0.0007688172043010752,-0.038914956011730194,-1.290000000000001,-9.720000000000015,0.016828332957365216,0.008415987574253702,0.3726353367734416,199.83119501466274,-0.2153592375366569,172.375,0.06563570237536659,0.17217152383186704,-0.982817320664711,-0.009320777047898339
201.0,0.05503322148281825,0.10911733494999624,-0.0005337055417700578,-0.044780058651026355,-1.290000000000001,-9.720000000000015,-0.007838935258290096,0.02122102108241221,0.20143863612865626,200.05370234604106,-0.23368768328445746,172.375,0.06565575070381235,0.17408861288367544,-0.9824778364613869,-0.00920061755620723
202.0,0.057479389897736655,0.1098216947702835,-0.0003090363937138131,-0.04771260997067445,-1.290000000000001,-9.720000000000015,-0.016528028423189713,-0.02531535794514625,0.10175064560775245,200.16495601173023,-0.24285190615835778,172.375,0.06566577486803524,0.17504715740957966,-0.9823080943597249,-0.009140537810361678
203.0,0.05823422813745392,0.11008985638017899,-0.0007998345740281225,-0.04917888563049848,-1.290000000000001,-9.720000000000015,-0.011737959621024138,-0.016871921761034664,0.038665383675464314,200.22058284457478,-0.24743401759530792,172.375,0.06567078695014666,0.17552642967253176,-0.9822232233088938,-0.0091104979374389
204.0,0.05976340326340324,0.10949518760809084,-0.0021590345138732237,-0.04989736070381226,-1.290000000000001,-9.720000000000015,-0.0038458013760433113,-0.022270412719001428,0.014070313087450183,200.24722018572828,-0.249725073313783,172.375,0.06567329299120239,0.17575654955522974,-0.9821823539442799,-0.009096089525904197
205.0,0.060055210918114124,0.10709119106699751,-0.0002803970223325061,-0.04999999999999995,-1.290000000000001,-9.720000000000015,-0.005313663151364764,-0.022285010856079403,0.009494223014888337,200.25,-0.25,172.375,0.06567383000000004,0.17578125,-0.9821777299999983,-0.009094239999999995
206.0,0.05979187344913149,0.10821308933002477,-0.0019392059553349876,-0.04999999999999995,-1.290000000000001,-9.720000000000015,-0.00859665787841191,-0.03203270393920596,-0.0006964368796526059,200.25,-0.25,172.375,0.06567383000000004,0.17578125,-0.9821777299999983,-0.009094239999999995
207.0,0.05998666253101735,0.1069996898263027,-0.002017990074441687,-0.04999999999999995,-1.290000000000001,-9.720000000000015,-0.0059049317617866,-0.0295149658808933,0.010693238213399504,200.25,-0.25,172.375,0.06567383000000004,0.17578125,-0.9821777299999983,-0.009094239999999995
208.0,0.05993501861042182,0.10736088709677419,-0.002602047146401985,-0.04999999999999995,-1.290000000000001,-9.720000000000015,-0.012924550248138957,-0.02422553504962779,0.007230924317617866,200.25,-0.25,172.375,0.06567383000000004,0.17578125,-0.9821777299999983,-0.009094239999999995
209.0,0.059551876550868466,0.10684049317617865,-0.0008432071960297767,-0.04999999999999995,-1.290000000000001,-9.720000000000015,-0.022164818548387095,-0.00509508762406948,0.013114531637717121,200.25,-0.25,172.375,0.06567383000000004,0.17578125,-0.9821777299999983,-0.009094239999999995
210.0,0.05945580024813895,0.10786817617866006,-0.0012408498759305213,-0.04999999999999995,-1.290000000000001,-9.720000000000015,-0.0224022952853598,-0.007179551799007444,0.013190136476426799,200.25,-0.25,172.375,0.06567383000000004,0.17578125,-0.9821777299999983,-0.009094239999999995
211.0,0.0609083648206632,0.10652225261297842,-0.00032874887209564637,-0.05078201368523945,-1.290000000000001,-9.720000000000015,-0.007089466313256637,0.0024224242659222493,0.2848537719001428,200.3003421309873,-0.2583088954056696,172.375,0.06567383000000004,0.17621845969696964,-0.9821027942424227,-0.009067510850439876
212.0,0.06497771683961198,0.10459464057447929,-0.0007668480712835553,-0.05467884803368673,-1.290000000000001,-9.720000000000015,-0.03176957031543725,-0.011731512355252275,0.06863123225900443,200.4955184600346,-0.2864125122189638,172.375,0.06567383000000004,0.17795152595518454,-0.9818005278879604,-0.008960198343334076
213.0,0.06468101689976688,0.10506476285810964,0.0002925901383562672,-0.052339424016843335,-1.290000000000001,-9.720000000000015,0.0005592672616362131,0.014472613659861643,0.07092525460090984,200.5663076171141,-0.3004643206256109,172.375,0.06567383000000003,0.17856749765501156,-0.9816741095891419,-0.00893271078457026
214.0,0.06532476126024511,0.10665192871644485,-0.002368749530039853,-0.05116971200842164,-1.290000000000001,-9.720000000000015,0.008588051733213024,-0.0022548687871268526,0.043472253552898715,200.6017021956538,-0.3074902248289345,172.375,0.06567383000000003,0.1788754835049251,-0.9816109004397326,-0.008918967005188353
215.0,0.06376712534777049,0.10615617715617715,-0.0013941649748101363,-0.05058485600421079,-1.290000000000001,-9.720000000000015,-0.006101962553575456,-0.014168828483344612,0.02836162493420558,200.6193994849237,-0.3110031769305963,172.375,0.06567383000000003,0.17902947642988187,-0.981579295865028,-0.008912095115497398
216.0,0.06317632904729677,0.10768463794270244,0.0006250093992029472,-0.05026799007444163,-1.290000000000001,-9.720000000000015,-0.005128205128205127,-0.0013873223550642912,0.01917531393337845,200.62667493796528,-0.3125,172.375,0.06567383000000003,0.17909281008932992,-0.9815658353201,-0.008909494456575675
217.0,0.0647311827956989,0.10700391006842622,-5.865102639296188e-05,-0.04999999999999994,-1.290000000000001,-9.720000000000015,-0.008522727272727272,0.023674242424242424,0.01090542521994135,200.625,-0.3125,172.375,0.06567383000000003,0.1790771499999999,-0.9815673800000008,-0.008911129999999993
218.0,0.06378299120234601,0.10810361681329425,-0.0009090909090909091,-0.04999999999999994,-1.290000000000001,-9.720000000000015,-0.016495601173020527,0.017564760508308894,0.006750977517106549,200.625,-0.3125,172.375,0.06567383000000003,0.1790771499999999,-0.9815673800000008,-0.008911129999999993
219.0,0.06375366568914953,0.10790811339198439,1.466275659824047e-05,-0.04999999999999994,-1.290000000000001,-9.720000000000015,0.005681818181818182,0.005651270772238513,0.003604594330400782,200.625,-0.3125,172.375,0.06567383000000003,0.1790771499999999,-0.9815673800000008,-0.008911129999999993
220.0,0.06450146627565978,0.10824046920821118,0.0003274682306940371,-0.04999999999999994,-1.290000000000001,-9.720000000000015,-0.0031769305962854348,-0.008492179863147604,0.005498533724340176,200.625,-0.3125,172.375,0.06567383000000003,0.1790771499999999,-0.9815673800000008,-0.008911129999999993
221.0,0.06582979530499988,0.10728607694664513,0.0014317707649436104,-0.04999999999999994,-1.290000000000001,-9.720000000000015,-0.014526889015333888,0.0003852621058928222,-0.004418887964867743,200.625,-0.3125,172.375,0.06567383000000003,0.1790771499999999,-0.9815673800000008,-0.008911129999999993
222.0,0.06492369530645889,0.10682730044790711,0.0019011248741629097,-0.04999999999999994,-1.290000000000001,-9.720000000000015,-0.014380990939729506,0.012640700456660978,-0.010487791978523803,200.625,-0.3125,172.375,0.06567383000000003,0.1790771499999999,-0.9815673800000008,-0.008911129999999993
223.0,0.06264651814242568,0.10711873185392684,-0.00010103441735603521,-0.045146846413095756,-1.290000000000001,-9.720000000000015,0.05432195693088808,0.034528147386235976,-0.6148532447732015,200.35586181993258,-0.2787975445353875,172.375,0.06565737241694752,0.17671261715454978,-0.9819999459701495,-0.009061587698603749
224.0,0.05753015432649519,0.10962828088297516,0.0004136906264975591,-0.037250842561386596,-1.290000000000001,-9.720000000000015,0.02671804102653886,0.028785381686200175,-0.2915610027911424,199.9420438131921,-0.23113264323543573,172.375,0.06563409669234471,0.17316957777082315,-0.9826342178237845,-0.009301378204140587
225.0,0.055664618482143755,0.11110904983317116,-0.0005175700563278805,-0.03330284063553202,-1.290000000000001,-9.720000000000015,-0.004308426287241887,0.014262981842423344,-0.13299946522743825,199.73513480982186,-0.20730019258545979,172.375,0.0656224588300433,0.17139805807895983,-0.9829513537506019,-0.009421273456909006
226.0,0.05142884270279551,0.11125746184484747,0.0005873873358225787,-0.03132883967260473,-1.290000000000001,-9.720000000000015,-0.008804429802263217,-0.013180256791835992,-0.06528102775093626,199.63168030813674,-0.19538396726047183,172.375,0.06561663989889262,0.17051229823302816,-0.9831099217140107,-0.009481221083293216
227.0,0.05271047368615975,0.11171964001333282,-0.000457603422095478,-0.034709084848709326,-1.290000000000001,-9.720000000000015,-0.027001893448390803,-0.12610921817710455,-0.08051981871041813,199.56456844190956,-0.1963737454168364,172.375,0.06564087278567463,0.16984357493537267,-0.9832342789264846,-0.009337692881596983
228.0,0.051509305210918094,0.11114267990074439,-0.00019509925558312659,-0.03734491315136479,-1.290000000000001,-9.720000000000015,-0.05170207816377171,-0.0830955334987593,0.042800093052109175,199.52254962779156,-0.19097394540942927,172.375,0.06565786569230772,0.16933642186104214,-0.9833323750024818,-0.009245717379652608
229.0,0.05126581885856078,0.10950682382133994,-0.0010652915632754342,-0.03883374689826305,-1.290000000000001,-9.720000000000015,-0.032798929900744414,-0.05728908188585608,0.017926101116625306,199.51026674937964,-0.18923697270471462,172.375,0.0656668323622829,0.1691566194789082,-0.983368360888338,-0.00919458707692308
230.0,0.05064783715388553,0.1088125320020481,-0.0006741637618653749,-0.03957816377171218,-1.290000000000001,-9.720000000000015,-0.02096147999625822,-0.039893753200204815,0.03313739771653078,199.5041253101737,-0.1883684863523573,172.375,0.06567131569727051,0.16906671828784126,-0.983386353831266,-0.009169021925558313
231.0,0.05242371696403954,0.10803622878018038,-0.001317657253141124,-0.039950372208436745,-1.290000000000001,-9.720000000000015,-0.03358528791996533,-0.00045827548347709274,0.09991188666843909,199.502047146402,-0.18793424317617866,172.375,0.06567355736476431,0.16904115341935488,-0.9833909883771718,-0.009155754744416874
232.0,0.053566621998073605,0.1087512522200022,6.731619634845452e-05,-0.04000000000000002,-1.290000000000001,-9.720000000000015,0.002004822014902659,0.0069142564984298865,0.08225207462228631,199.56403488984134,-0.21975806451612903,172.375,0.06567383000000004,0.16972913455462818,-0.9832716830841425,-0.00912352834243176
233.0,0.05362806906355293,0.10654548498096883,0.00035623874333551753,-0.04000000000000002,-1.290000000000001,-9.720000000000015,-0.00038367770222608915,-0.0035048173153011857,0.035597433480498,199.5965335739529,-0.23588709677419353,172.375,0.06567383000000004,0.17009228937408827,-0.9832090538001362,-0.009107899816377168
234.0,0.05529046133078391,0.1074315514234869,-0.0005861486184066828,-0.04000000000000002,-1.290000000000001,-9.720000000000015,-0.014366776816373591,0.017090643451530548,0.023847103837023192,199.6127829160087,-0.2439516129032258,172.375,0.06567383000000004,0.17027386678381828,-0.9831777391581331,-0.00910008555334987
235.0,0.05502480449657868,0.10675882585156779,0.0009825174825174826,-0.04000000000000002,-1.290000000000001,-9.720000000000015,-0.01595638064892097,0.009393622170839912,0.016614559835325966,199.6209075870366,-0.24798387096774194,172.375,0.06567383000000004,0.1703646554886833,-0.9831620818371316,-0.009096178421836222
236.0,0.05490942458079554,0.10786576528310397,-0.00043181818181818154,-0.04000000000000002,-1.290000000000001,-9.720000000000015,-0.0003013913170163175,-0.004329243505150765,0.01016832210128581,199.62493890518084,-0.25,172.375,0.06567383000000004,0.17040944403714559,-0.9831543894868044,-0.009094239999999995
237.0,0.05484049317617865,0.10687569789081883,0.0007943548387096772,-0.04000000000000002,-1.290000000000001,-9.720000000000015,-0.006174879807692308,0.0007061298076923069,0.0046181955645161294,199.625,-0.25,172.375,0.06567383000000004,0.17041015999999992,-0.9831543000000009,-0.009094239999999995
238.0,0.05514143920595532,0.10717617866004964,-0.0002481389578163773,-0.04000000000000002,-1.290000000000001,-9.720000000000015,-0.010949131513647643,0.020936724565756824,0.0014267990074441684,199.625,-0.25,172.375,0.06567383000000004,0.17041015999999992,-0.9831543000000009,-0.009094239999999995
239.0,0.054181968569065334,0.1097102037747199,0.0006045567335889914,-0.04000000000000002,-1.290000000000001,-9.720000000000015,-0.013822467854725918,0.011849575156026769,0.005903639371381306,199.625,-0.25,172.375,0.06567383000000004,0.17041015999999992,-0.9831543000000009,-0.009094239999999996
240.0,0.055726220016542594,0.10919133017520116,0.00010128581096323014,-0.04000000000000002,-1.290000000000001,-9.720000000000015,0.005464696593728852,0.001877020828633732,-0.0032671629445822996,199.625,-0.25,172.375,0.06567383000000004,0.17041015999999992,-0.9831543000000009,-0.009094239999999995
241.0,0.05437427626137302,0.10873958568313408,-0.0014282652831039931,-0.04000000000000002,-1.290000000000001,-9.720000000000015,0.00995939544326641,0.008646326791488083,0.020559346567411083,199.625,-0.25,172.375,0.06567383000000004,0.17041015999999992,-0.9831543000000009,-0.009094239999999995
242.0,0.054221652003910055,0.10857409391683585,-0.0012938002857357698,-0.04000000000000002,-1.290000000000001,-9.720000000000015,-0.007557429130009775,0.0032525941800135346,0.026393196856906533,199.625,-0.25,172.375,0.06567383000000003,0.17041015999999992,-0.9831543000000009,-0.009094239999999996
243.0,0.054723729227761475,0.10726471445221444,-0.000706453492743815,-0.04000000000000002,-1.290000000000001,-9.720000000000015,-0.010478466426047071,0.011412277238890142,0.007272280810587263,199.625,-0.25,172.375,0.06567383000000004,0.17041015999999992,-0.9831543000000009,-0.009094239999999995
244.0,0.05472745601173018,0.1061787892886683,-0.0012623176554628166,-0.04000000000000002,-1.290000000000001,-9.720000000000015,-0.011516725881645236,0.018749882509963154,0.02312538771712159,199.625,-0.25,172.375,0.06567383000000004,0.17041015999999992,-0.9831543000000009,-0.009094239999999995
245.0,0.05455053011504623,0.1080326716294458,-0.003325870366192948,-0.04000000000000002,-1.290000000000001,-9.720000000000015,-0.01358055586886232,-0.012335278968343485,0.01671448511166253,199.625,-0.25,172.375,0.06567383000000004,0.17041015999999992,-0.9831543000000009,-0.009094239999999995
246.0,0.054649879690202255,0.10810521467779531,-0.004274635310925635,-0.04000000000000002,-1.290000000000001,-9.720000000000015,-0.00409035688773592,-0.013242889502970149,-0.0006495436686968946,199.625,-0.25,172.375,0.06567383000000003,0.17041015999999992,-0.9831543000000009,-0.009094239999999996
247.0,0.054799900368448756,0.10907948905932777,-0.0037083004361230174,-0.04000000000000002,-1.290000000000001,-9.720000000000015,-0.00958850876945635,0.01375649719903752,-0.0013250820080457173,199.625,-0.25,172.375,0.06567383000000004,0.17041015999999992,-0.9831543000000009,-0.009094239999999995
248.0,0.0540897764869539,0.1079913574328897,-0.004109733344612378,-0.04000000000000002,-1.290000000000001,-9.720000000000015,-0.012641648925671102,0.032258211378675086,-0.0004764367856605759,199.625,-0.25,172.375,0.06567383000000004,0.17041015999999992,-0.9831543000000009,-0.009094239999999995
249.0,0.05361151214377019,0.10703804797353186,-0.0035129709000676747,-0.04000000000000002,-1.290000000000001,-9.720000000000015,-0.01246992255056771,0.010831993946913303,-0.0032963004737198284,199.625,-0.25,172.375,0.06567383000000003,0.17041015999999992,-0.9831543000000009,-0.009094239999999996
250.0,0.052130818106624545,0.10613937138130687,-0.0031808030678998423,-0.04000000000000002,-1.290000000000001,-9.720000000000015,-0.013446499736822317,-0.01772296084292052,0.002663264155199639,199.625,-0.25,172.375,0.06567383000000004,0.17041015999999992,-0.9831543000000009,-0.009094239999999995
251.0,0.05357029663884501,0.1066473983006241,-0.00384602225731258,-0.04000000000000002,-1.290000000000001,-9.720000000000015,0.002761720806075645,0.005465254671403864,0.0031033818332205426,199.625,-0.25,172.375,0.06567383000000004,0.17041015999999992,-0.9831543000000009,-0.009094239999999995
252.0,0.053135024249943597,0.1076090589518009,-0.002588023535604181,-0.04000000000000002,-1.290000000000001,-9.720000000000015,0.009073168095345516,-0.020235734947176478,0.012981591661027145,199.625,-0.25,172.375,0.06567383000000004,0.17041015999999992,-0.9831543000000009,-0.009094239999999995
253.0,0.052226708775095866,0.10639339424016844,-0.0036849857132115202,-0.04000000000000002,-1.290000000000001,-9.720000000000015,0.007766267670501542,-0.013898836378675087,-0.00988637538536732,199.625,-0.25,172.375,0.06567383000000004,0.17041015999999992,-0.9831543000000009,-0.009094239999999995
254.0,0.05106203473945409,0.10619571960297769,-0.002987127791563275,-0.04000000000000002,-1.290000000000001,-9.720000000000015,-0.01080664547146402,-0.0177147952853598,0.005058739143920596,199.625,-0.25,172.375,0.06567383000000004,0.17041015999999992,-0.9831543000000009,-0.009094239999999995
255.0,0.05210669975186103,0.10610778535980148,-0.002399271091811414,-0.04000000000000002,-1.290000000000001,-9.720000000000015,-0.019066474100496278,0.024641361662531017,0.0013972355769230772,199.625,-0.25,172.375,0.06567383000000004,0.17041015999999992,-0.9831543000000009,-0.009094239999999995
256.0,0.05319602977667494,0.10714640198511166,-0.003032258064516128,-0.04000000000000002,-1.290000000000001,-9.720000000000015,0.0020781637717121586,0.030241935483870965,0.037872208436724564,199.625,-0.25,172.375,0.06567383000000004,0.17041015999999992,-0.9831543000000009,-0.009094239999999995
257.0,0.07354186070226726,0.10491899792651008,-0.001847309561847785,-0.06283694211224039,-1.2900000000000014,-9.720000000000017,0.0021321254971277065,0.06310122709813386,2.2731087902376013,200.6696310207689,-0.37638091029606713,172.37897702165267,0.06574632647370747,0.17932566027397256,-0.9814790816880252,-0.008489659390190012
258.0,0.09361395548868892,0.0990090728115666,-0.00047272515888627627,-0.09106316483826134,-1.2762365591397857,-9.720523609163175,-0.2379236700525294,0.034448714746607115,0.777552390227946,202.19780639397493,-0.5357243494911845,172.46394503256545,0.06523572117280513,0.19235609302618684,-0.9790039551731382,-0.00776699178953166
259.0,0.07500552385974653,0.09148409115362517,0.0027086274600494,-0.07847115534053001,-1.2434999242768436,-9.722151854558877,0.05596957726884591,0.013930836945525975,-0.4375221657709394,202.37073986213966,-0.46010433739893164,172.65209405194832,0.06343953262411267,0.1938832128738387,-0.9788717665688501,-0.008177267489495496
260.0,0.055884219182298245,0.07718974841161218,0.004512145145920632,-0.05923557767026502,-1.2262416532430156,-9.726237217602025,0.04161551274901804,0.044065012427195654,-0.20162351615112878,202.0946441246182,-0.3550521686994658,172.7393534775871,0.06243220436190976,0.1916602915982098,-0.9794064268328118,-0.008849582874757525
261.0,0.04326469023631043,0.0713119957938954,0.006921084979908209,-0.049617788835132515,-1.2168305040408625,-9.728279899123597,0.011998823372027631,0.0209624069580147,-0.10445629901849243,201.9565962558575,-0.30252608434973294,172.78298319040644,0.061910880406761376,0.19054883096039535,-0.9796737569647925,-0.009192422405120701
262.0,0.03848118430371557,0.06655252735070205,0.006885981831875992,-0.04409523997655876,-1.2121249294397858,-9.729301239884384,0.0019877610520697654,0.02240313318429985,-0.12516358239275688,201.8549276020781,-0.27231363872811437,172.80467376488946,0.061647952914383825,0.18971449125792647,-0.9798597726030321,-0.009382735314358851
263.0,0.03622867069323227,0.06475242075809996,0.005931303211403167,-0.040808723307587474,-1.2102022496661293,-9.729795547478428,0.0034190792170119754,0.018674392679106446,-0.044794565857435,201.77266015447523,-0.2542026351658337,172.81292594275328,0.06153357834124993,0.18902942507496617,-0.9800039528396176,-0.009491028559470219
264.0,0.035675671103090466,0.062462534777050875,0.00456833220542898,-0.04000000000000002,-1.210048875855327,-9.73000000000001,0.002809891721182043,-0.005166154410106021,-0.0071698294984585305,201.75,-0.25,172.8125,0.06152454373900302,0.18884277000000024,-0.9800414999999991,-0.009521062385141745
265.0,0.03557909429280398,0.061718672456575654,0.0035362903225806454,-0.04000000000000002,-1.2099999999999995,-9.73000000000001,0.009925558312655087,-0.011714872828784119,0.002332118486352358,201.75,-0.25,172.8125,0.06152344000000009,0.18884277000000024,-0.9800414999999991,-0.009521480000000006
266.0,0.0347334204773721,0.06206095897829765,0.0035904304029304025,-0.04000000000000002,-1.2099999999999995,-9.73000000000001,0.0047143940289101575,-0.011474288200598683,0.007900028678758516,201.75,-0.25,172.8125,0.06152344000000009,0.18884277000000024,-0.9800414999999991,-0.009521480000000006
267.0,0.033706660610894494,0.060980851697585534,0.0041500539111426205,-0.04000000000000002,-1.2099999999999995,-9.73000000000001,-0.007940569734924574,0.015184071780593956,0.010975448582555437,201.75,-0.25,172.8125,0.06152344000000009,0.18884277000000024,-0.9800414999999991,-0.009521480000000006
268.0,0.03444975555358622,0.06431824067509549,0.005014271682618457,-0.04000000000000002,-1.2099999999999995,-9.73000000000001,-0.005301608533715389,0.023236664069577376,0.014712241583461343,201.75,-0.25,172.8125,0.06152344000000009,0.18884277000000024,-0.9800414999999991,-0.009521480000000006
269.0,0.03527679309937376,0.06424077356335418,0.006083244712276972,-0.04000000000000002,-1.2099999999999995,-9.73000000000001,0.001176690692819725,-0.006070050021662924,0.011719150025601638,201.75,-0.25,172.8125,0.06152344000000009,0.18884277000000024,-0.9800414999999991,-0.009521480000000006
270.0,0.03440390523455041,0.06315140415140412,0.005338148410729056,-0.04000000000000002,-1.2099999999999995,-9.73000000000001,0.0008132212769309541,0.009309888140533303,0.010194252432155658,201.75,-0.25,172.8125,0.06152344000000009,0.18884277000000024,-0.9800414999999991,-0.009521480000000006
271.0,0.03388740694789083,0.0629640198511166,0.005942617866004964,-0.04000000000000002,-1.2099999999999995,-9.73000000000001,0.0009188895781637716,0.003838399503722084,0.01431839330024814,201.75,-0.25,172.8125,0.06152344000000009,0.18884277000000024,-0.9800414999999991,-0.009521480000000006
272.0,0.03464097394540945,0.06309491315136474,0.006442772952853599,-0.04000000000000002,-1.2099999999999995,-9.73000000000001,-0.01181567928039702,0.008812810173697271,0.015510623449131514,201.75,-0.25,172.8125,0.06152344000000009,0.18884277000000024,-0.9800414999999991,-0.009521480000000006
273.0,0.0354827378331866,0.06417300688385494,0.005208259125110062,-0.04000000000000002,-1.2099999999999995,-9.73000000000001,0.0003821827723525179,-0.011178322360521891,0.0027780244436884658,201.75,-0.25,172.8125,0.06152344000000009,0.18884277000000022,-0.9800414999999991,-0.009521480000000006
274.0,0.03486640768830547,0.06416489984391258,0.005746305431041383,-0.04000000000000002,-1.2099999999999995,-9.73000000000001,0.007509252056151445,-0.014947683202593452,0.007218339144921156,201.75,-0.25,172.8125,0.06152344000000009,0.18884277000000022,-0.9800414999999991,-0.009521480000000006
275.0,0.03401374499878664,0.06401589366235566,0.006322853496370667,-0.04000000000000002,-1.2099999999999995,-9.73000000000001,-0.007013813152031804,-0.0027315380938722506,-0.011893572603038652,201.75,-0.25,172.8125,0.06152344000000009,0.18884277000000022,-0.9800414999999991,-0.009521480000000006
276.0,0.03322145168012798,0.06306322893669788,0.005087879988229266,-0.04000000000000002,-1.2099999999999995,-9.73000000000001,-0.020444678613602853,-0.01719937357038729,-0.003597347665063239,201.75,-0.25,172.8125,0.06152344000000009,0.18884277000000022,-0.9800414999999991,-0.009521480000000006
277.0,0.033273219336421966,0.06356237669519597,0.004264478495675508,-0.04000000000000002,-1.2099999999999997,-9.73000000000001,-0.004625650473554808,-0.007275077816671273,0.004177055388332064,201.75,-0.25,172.8125,0.06152344000000009,0.18884277000000022,-0.9800414999999991,-0.009521480000000008
278.0,0.0335996689814264,0.06332974887482656,0.0033575254080874936,-0.04000000000000002,-1.21,-9.73000000000001,-0.002507934497963668,-0.018219788301329046,0.006535934908872935,201.75,-0.25,172.8125,0.06152344000000009,0.18884277000000022,-0.9800414999999991,-0.009521480000000008
279.0,0.03347853456275355,0.06301306942660721,0.0039911776564170755,-0.04000000000000002,-1.21,-9.73000000000001,-0.010331550695712002,0.01201193407314081,0.009845650957198013,201.75,-0.25,172.8125,0.06152344000000009,0.18884277000000022,-0.9800414999999991,-0.009521480000000008
280.0,0.0328726224390577,0.06398343028380045,0.00340850548438273,-0.04000000000000002,-1.21,-9.73000000000001,-0.010646781869978335,0.011134164093641073,0.021796298823516032,201.75,-0.25,172.8125,0.06152344000000009,0.18884277000000022,-0.9800414999999991,-0.009521480000000008
281.0,0.03344478074518505,0.06359584665877632,0.0031973738757144024,-0.04000000000000002,-1.2099999999999997,-9.73000000000001,-0.02373978269881615,-0.008274066081741657,0.014911783333509336,201.75,-0.25,172.8125,0.06152344000000009,0.18884277000000022,-0.9800414999999991,-0.009521480000000006
282.0,0.03285882677697899,0.0632415717725163,0.0024943084859241184,-0.04000000000000002,-1.2099999999999995,-9.73000000000001,0.0038484108998515093,-0.027014594475274097,0.021156564043285524,201.75,-0.25,172.8125,0.06152344000000009,0.18884277000000022,-0.9800414999999991,-0.009521480000000006
283.0,0.03327956947589845,0.06356762945198828,0.003038257260651966,-0.04000000000000002,-1.2099999999999995,-9.73000000000001,0.0019242054499257547,-0.011475993040620053,0.01564678705112594,201.75,-0.25,172.8125,0.06152344000000009,0.18884277000000022,-0.9800414999999991,-0.009521480000000006
284.0,0.03376257349965578,0.063675073831093,0.005395299285893101,-0.04000000000000002,-1.2099999999999995,-9.73000000000001,0.011823184930998256,0.005708413469284147,0.013660412256052044,201.75,-0.25,172.8125,0.06152344000000009,0.18884277000000022,-0.9800414999999991,-0.009521480000000006
285.0,0.032650720911647044,0.06554853638672575,0.004746829970815402,-0.04000000000000002,-1.2099999999999995,-9.73000000000001,0.017686116526842332,-0.0023513723240570278,0.012366298142833002,201.75,-0.25,172.8125,0.06152344000000009,0.18884277000000022,-0.9800414999999991,-0.009521480000000006
286.0,0.032654085494225986,0.06649162610426917,0.005110230141577696,-0.04000000000000002,-1.2099999999999995,-9.73000000000001,-0.0033657230985860015,-0.008920181809749968,0.01424766520044876,201.75,-0.25,172.8125,0.06152344000000009,0.18884277000000024,-0.9800414999999991,-0.009521480000000006
287.0,0.03178137336273394,0.06450947054159852,0.004573469476240028,-0.04000000000000002,-1.2099999999999995,-9.73000000000001,0.0019171226958525347,0.014174455552252118,0.007713654964240292,201.75,-0.25,172.8125,0.06152344000000009,0.18884277000000024,-0.9800414999999991,-0.009521480000000006
288.0,0.03325020801331286,0.06428907450076804,0.005294018817204302,-0.04000000000000002,-1.2099999999999995,-9.73000000000001,-0.00458579349078341,0.007542482718894008,0.013270849334357399,201.75,-0.25,172.8125,0.06152344000000009,0.18884277000000024,-0.9800414999999991,-0.009521480000000006
289.0,0.03260544674859192,0.06450340821812595,0.0048622311827956986,-0.04000000000000002,-1.2099999999999995,-9.73000000000001,0.0034247191820276496,0.0033932171658986173,-0.001114071300563236,201.75,-0.25,172.8125,0.06152344000000009,0.18884277000000024,-0.9800414999999991,-0.009521480000000006
290.0,0.03277596088730325,0.06479714830781427,0.004946236559139785,-0.04000000000000002,-1.2099999999999995,-9.73000000000001,-0.000731079047123532,-0.006990834510182845,0.003936574521414531,201.75,-0.25,172.8125,0.06152344000000009,0.18884277000000022,-0.9800414999999991,-0.009521480000000006
291.0,0.03360252217432239,0.06494209693936542,0.005289298515104967,-0.04000000000000002,-1.2099999999999995,-9.73000000000001,0.0070909376909799645,-0.003743433128107295,0.008264690230497331,201.75,-0.25,172.8125,0.06152344000000009,0.18884277000000022,-0.9800414999999991,-0.009521480000000006
292.0,0.03202783558792925,0.06573653746097816,0.006774193548387097,-0.04000000000000002,-1.2099999999999995,-9.73000000000001,-0.003638990959937565,0.015209376625910508,-0.002452076287721124,201.75,-0.25,172.8125,0.06152344000000009,0.18884277000000022,-0.9800414999999991,-0.009521480000000006
293.0,0.031921415873841744,0.0651785765901921,0.006486415130568356,-0.04000000000000002,-1.2099999999999995,-9.73000000000001,-0.009326725942718397,0.004516740684307021,0.004619085944081065,201.75,-0.25,172.8125,0.06152344000000009,0.18884277000000024,-0.9800414999999991,-0.009521480000000006
294.0,0.0320569780982112,0.06598142539187024,0.005347542242703533,-0.04000000000000002,-1.2099999999999995,-9.73000000000001,-0.0008201170036172632,0.015867241309895447,0.009602259705911501,201.75,-0.25,172.8125,0.06152344000000009,0.18884277000000024,-0.9800414999999991,-0.009521480000000006
295.0,0.03229246671786996,0.06577484959037377,0.00464125704045059,-0.04000000000000002,-1.2099999999999995,-9.73000000000001,-0.007513480862775217,0.0020656322004608306,0.007214961757552483,201.75,-0.25,172.8125,0.06152344000000009,0.18884277000000024,-0.9800414999999991,-0.009521480000000006
296.0,0.032204701100870474,0.06659458205325137,0.0033589349718381976,-0.04000000000000002,-1.2099999999999995,-9.73000000000001,-0.012545802931387608,0.0005445348502304149,0.0023946532578085,201.75,-0.25,172.8125,0.06152344000000009,0.18884277000000024,-0.9800414999999991,-0.009521480000000006
297.0,0.03134056579621097,0.06638904889912953,0.004907354070660523,-0.04000000000000002,-1.2099999999999995,-9.73000000000001,0.003676235279057859,0.0273707517281106,0.013690876216077827,201.75,-0.25,172.8125,0.06152344000000009,0.18884277000000024,-0.9800414999999991,-0.009521480000000006
298.0,0.03201052867383514,0.06658802163338451,0.0040473790322580645,-0.04000000000000002,-1.2099999999999995,-9.73000000000001,0.006614423323092677,0.018821704589093703,0.009677619367639528,201.75,-0.25,172.8125,0.06152344000000009,0.18884277000000024,-0.9800414999999991,-0.009521480000000006
299.0,0.03170730926779315,0.06588917690732206,0.003512224782386073,-0.04000000000000002,-1.2099999999999995,-9.73000000000001,-0.0034752224142345104,-0.003303211405529952,0.013322852662570403,201.75,-0.25,172.8125,0.06152344000000009,0.18884277000000024,-0.9800414999999991,-0.009521480000000006
300.0,0.03146809395801333,0.06588621671786991,0.003822164618535586,-0.04000000000000002,-1.2099999999999995,-9.73000000000001,-0.012778317812339988,-0.019380740367383513,0.004533290130568355,201.75,-0.25,172.8125,0.06152344000000009,0.18884277000000024,-0.9800414999999991,-0.009521480000000006
301.0,0.03182779697900667,0.06685691884280592,0.004375800051203278,-0.04000000000000002,-1.2099999999999995,-9.73000000000001,0.013031834037378395,-0.00564236111111111,0.010362663210445468,201.75,-0.25,172.8125,0.06152344000000009,0.18884277000000024,-0.9800414999999991,-0.009521480000000006
302.0,0.03195460509472608,0.06478022593445978,0.004179707501280081,-0.04000000000000002,-1.2099999999999995,-9.73000000000001,0.015284478206605223,-0.006205397145417306,0.010341661866359448,201.75,-0.25,172.8125,0.06152344000000009,0.18884277000000024,-0.9800414999999991,-0.009521480000000006
303.0,0.030773169482846918,0.06413658474142345,0.004053059395801331,-0.04000000000000002,-1.2099999999999995,-9.73000000000001,0.027157738095238096,-0.022413434459805426,0.016669066820276496,201.75,-0.25,172.8125,0.06152344000000009,0.18884277000000024,-0.9800414999999991,-0.009521480000000006
304.0,0.03290448619480879,0.06547760348970023,0.004201211646776163,-0.04000000000000002,-1.2099999999999995,-9.73000000000001,0.021231051094962386,-0.001393412255307416,0.0120327393260861,201.75,-0.25,172.8125,0.06152344000000009,0.18884277000000024,-0.9800414999999991,-0.009521480000000006
305.0,0.032883374689826314,0.06683762406947891,0.00413081575682382,-0.04000000000000002,-1.2099999999999995,-9.73000000000001,-0.002137290632754342,0.006415749069478908,0.011120696339950373,201.75,-0.25,172.8125,0.06152344000000009,0.18884277000000024,-0.9800414999999991,-0.009521480000000006
306.0,0.033099953473945426,0.06692183622828783,0.0042453473945409425,-0.04000000000000002,-1.2099999999999995,-9.73000000000001,-0.013259925558312655,0.018706866470223325,0.0053083320409429285,201.75,-0.25,172.8125,0.06152344000000009,0.18884277000000024,-0.9800414999999991,-0.009521480000000006
307.0,0.032404311414392074,0.06704458746898262,0.004476504342431763,-0.04000000000000002,-1.2099999999999995,-9.73000000000001,-0.014977997053349876,-0.006696843982630273,0.017097840415632753,201.75,-0.25,172.8125,0.06152344000000009,0.18884277000000024,-0.9800414999999991,-0.009521480000000006
308.0,0.03253661929468383,0.0668269888713437,0.004052080983532595,-0.04000000000000002,-1.2099999999999995,-9.73000000000001,-0.020811010226332805,0.0006714261880592528,0.013074232555079328,201.75,-0.25,172.8125,0.06152344000000009,0.18884277000000027,-0.9800414999999991,-0.009521480000000006
309.0,0.03217200809942747,0.06699094923893309,0.0037589169343201587,-0.04000000000000002,-1.2099999999999995,-9.73000000000001,-0.025487085718940556,0.028714883207070704,0.0038528829481450444,201.75,-0.25,172.8125,0.06152344000000009,0.18884277000000024,-0.9800414999999991,-0.009521480000000006
310.0,0.032390517077009025,0.0667788182919231,0.00387845040264395,-0.04000000000000002,-1.2099999999999995,-9.73000000000001,-0.01134146081852735,0.03003357179894478,0.0047465988872238876,201.75,-0.25,172.8125,0.06152344000000009,0.18884277000000024,-0.9800414999999991,-0.009521480000000006
311.0,0.03169816641691643,0.06669039394745038,0.00488603041224009,-0.04000000000000002,-1.2099999999999995,-9.73000000000001,0.010572436076468336,0.013039670902574126,0.0063435227686739785,201.75,-0.25,172.8125,0.06152344000000009,0.18884277000000024,-0.9800414999999991,-0.009521480000000006
312.0,0.03251490982136145,0.06661888648985423,0.003899668431926497,-0.04000000000000002,-1.2099999999999995,-9.73000000000001,0.004026137393072877,0.0024875773867709342,0.00422707892465957,201.75,-0.25,172.8125,0.06152344000000009,0.18884277000000024,-0.9800414999999991,-0.009521480000000006
313.0,0.032748168498168514,0.06723661822048918,0.0032621509315057706,-0.04000000000000002,-1.2099999999999995,-9.73000000000001,-0.0106946536886053,-0.00793570788530466,0.008513221769270156,201.75,-0.25,172.8125,0.06152344000000009,0.18884277000000024,-0.9800414999999991,-0.009521480000000006
314.0,0.0315852977667494,0.0667289081885856,0.0047199131513647645,-0.04000000000000002,-1.2099999999999995,-9.73000000000001,0.01931025124069479,0.021345766129032256,0.004336616004962779,201.75,-0.25,172.8125,0.06152344000000009,0.18884277000000024,-0.9800414999999991,-0.009521480000000006
315.0,0.03146510545905709,0.0674661910669975,0.004598169975186104,-0.04000000000000002,-1.2099999999999995,-9.73000000000001,0.013098053660049628,0.014146828473945407,0.0080305908808933,201.75,-0.25,172.8125,0.06152344000000009,0.18884277000000024,-0.9800414999999991,-0.009521480000000006
316.0,0.03160227977667496,0.06596510545905707,0.003011243796526054,-0.04000000000000002,-1.2099999999999995,-9.73000000000001,0.018653555366004965,0.0015755854528535975,-0.002157161135235732,201.75,-0.25,172.8125,0.06152344000000009,0.18884277000000024,-0.9800414999999991,-0.009521480000000006
317.0,0.03123208746898265,0.06747348014888338,0.0039577388337468985,-0.04000000000000002,-1.2099999999999995,-9.73000000000001,0.027519191997518608,-0.014695448200992556,-0.00818228520471464,201.75,-0.25,172.8125,0.06152344000000009,0.18884277000000024,-0.9800414999999991,-0.009521480000000006
318.0,0.031777838089330046,0.06490105459057072,0.005081187965260547,-0.04000000000000002,-1.2099999999999995,-9.73000000000001,0.01467315446650124,-0.002527915632754343,-0.014376550868486352,201.75,-0.25,172.8125,0.06152344000000009,0.18884277000000024,-0.9800414999999991,-0.009521480000000006
319.0,0.029429745657568257,0.06420455955334986,0.0037326302729528537,-0.04000000000000002,-1.2099999999999995,-9.73000000000001,-0.032733987282878414,-0.010147526364764268,-0.034406017369727045,201.72631048387098,-0.25,172.8125,0.06152344000000009,0.18858189661290348,-0.9800887529838709,-0.009544123870967746
320.0,0.02826325992555833,0.07197572890818857,0.004811724565756825,-0.04000000000000002,-1.2099999999999995,-9.73000000000001,0.12794131901364764,-0.04490006591191067,0.04414934863523574,201.70589717741936,-0.25,172.8125,0.06152344000000009,0.18836581459677443,-0.9801281303629035,-0.009564306451612905
321.0,0.02934212158808935,0.06043587158808932,0.005874457196029777,-0.03499751861042186,-1.2099999999999995,-9.73000000000001,0.028837430210918114,0.05712769463399504,-0.016445991004962773,201.69569052419354,-0.18945409429280397,172.8125,0.061464313131513695,0.18825777358870993,-0.9801478190524198,-0.009895235141439201
322.0,0.03029117555831267,0.050148728287841185,0.00532064205955335,-0.030511166253101754,-1.2099999999999995,-9.73000000000001,-0.0005403807382133984,0.10051614841811414,-0.025868486352357316,201.69058719758064,-0.15521091811414392,172.8125,0.06143087269478911,0.18820375308467766,-0.980157663397178,-0.010086385957816368
323.0,0.030349720843672476,0.043017912531017374,0.005949131513647643,-0.02493300248138959,-1.2099999999999995,-9.73000000000001,-0.013390780086848634,0.0491082506203474,-0.04487728753101737,201.6880355342742,-0.13808933002481388,172.8125,0.061414152476426814,0.18817674283266153,-0.980162585569557,-0.010181961366004952
324.0,0.03204652605459058,0.039619727047146405,0.006110421836228289,-0.02214392059553351,-1.2099999999999995,-9.73000000000001,-0.0059630893300248134,0.013391749379652606,-0.019602977667493793,201.6875,-0.12952853598014888,172.8125,0.061405792367245665,0.18817139000000024,-0.9801635700000007,-0.0102290414491315
325.0,0.03292276674937966,0.03756172456575683,0.006831885856079406,-0.020749379652605468,-1.2099999999999995,-9.73000000000001,-0.017071184863523575,0.017513182382133993,-0.0142447270471464,201.6875,-0.1252481389578164,172.8125,0.0614016123126551,0.18817139000000024,-0.9801635700000007,-0.010252304595533487
326.0,0.03227319163811101,0.03608981497892789,0.006665696758438696,-0.020208436724565765,-1.2099999999999995,-9.73000000000001,-0.008474050031509708,0.0006428411418330782,-0.0033525222537319306,201.6875,-0.125,172.8125,0.06140137000000001,0.18817139000000024,-0.9801635700000007,-0.010253909999999988
327.0,0.03151997050888182,0.03464540376737958,0.007207538205522079,-0.02000000000000001,-1.2099999999999995,-9.73000000000001,0.002765146200126038,-0.011488442952656662,-0.002630045245972665,201.6875,-0.125,172.8125,0.06140137000000001,0.18817139000000024,-0.9801635700000007,-0.010253909999999988
328.0,0.03147823122218285,0.03479498010949625,0.005191470715664265,-0.02000000000000001,-1.2099999999999995,-9.73000000000001,-0.013328868432195046,0.003863893443026508,0.01128578382862657,201.6875,-0.125,172.8125,0.06140137000000001,0.18817139000000024,-0.9801635700000007,-0.010253909999999988
329.0,0.03140785010240657,0.03389624935995905,0.005722286226318485,-0.02000000000000001,-1.2099999999999995,-9.73000000000001,-0.00916908682155658,0.012873323892729134,-0.00601188476062468,201.6875,-0.125,172.8125,0.06140137000000001,0.18817139000000024,-0.9801635700000007,-0.010253909999999988
330.0,0.03183702833904449,0.03310770904722519,0.0065515897632833124,-0.02000000000000001,-1.2099999999999995,-9.73000000000001,-0.0032927184262869745,0.017551784852692112,0.013449983875891133,201.6875,-0.125,172.8125,0.06140137000000001,0.18817139000000024,-0.9801635700000007,-0.010253909999999988
331.0,0.031054202853598036,0.03364934863523574,0.007283731389578165,-0.02000000000000001,-1.2099999999999995,-9.73000000000001,-0.009174841035980149,0.02004061336848635,0.01017321262406948,201.6875,-0.125,172.8125,0.06140137000000001,0.18817139000000024,-0.9801635700000007,-0.010253909999999988
332.0,0.03027628722084369,0.033674937965260554,0.00613872518610422,-0.02000000000000001,-1.2099999999999995,-9.73000000000001,0.001659429280397022,0.008334464174937967,0.01704452931141439,201.6875,-0.125,172.8125,0.06140137000000001,0.18817139000000024,-0.9801635700000007,-0.010253909999999988
333.0,0.030279312645240086,0.03413265587459137,0.006866925637086928,-0.02000000000000001,-1.2099999999999995,-9.73000000000001,0.014615096904663435,0.012060487255799756,0.014816417481488044,201.6875,-0.125,172.8125,0.06140137000000001,0.18817139000000024,-0.9801635700000007,-0.010253909999999988
334.0,0.030990424002520795,0.034556867639528935,0.006191217160975226,-0.02000000000000001,-1.2099999999999995,-9.73000000000001,-5.786524183701725e-05,-0.005218641685375556,0.012733261082555437,201.6875,-0.125,172.8125,0.06140137000000001,0.18817139000000024,-0.9801635700000007,-0.010253909999999988
335.0,0.030216055673716984,0.03417421545748159,0.0054765018807357525,-0.02000000000000001,-1.2099999999999995,-9.73000000000001,-0.0045962403132262,-0.018086988336484304,0.02147984394078144,201.6875,-0.125,172.8125,0.06140137000000001,0.18817139000000024,-0.9801635700000007,-0.010253909999999988
336.0,0.030897032179290265,0.03448060183544056,0.005388879042104848,-0.02000000000000001,-1.2099999999999995,-9.73000000000001,-0.0075209121076056555,0.007979710701484892,-0.0022735608925125057,201.6875,-0.125,172.8125,0.06140137000000001,0.18817139000000024,-0.9801635700000007,-0.010253909999999988
337.0,0.03012825928551737,0.03365540194572454,0.005971488636811219,-0.02000000000000001,-1.2099999999999995,-9.73000000000001,-0.01676288820946079,-0.01898958456418134,0.010267764829256763,201.6875,-0.125,172.8125,0.06140137000000001,0.18817139000000024,-0.9801635700000007,-0.010253909999999988
338.0,0.02990020038205524,0.031912265154200654,0.006994448875497265,-0.02000000000000001,-1.2099999999999995,-9.73000000000001,-0.02219697445251881,-0.01620242157036512,0.007407258679940131,201.6875,-0.125,172.8125,0.06140137000000001,0.18817139000000024,-0.9801635700000007,-0.010253909999999988
339.0,0.02992280490566783,0.031750177242112744,0.006425264139981884,-0.02000000000000001,-1.2099999999999995,-9.73000000000001,-0.013843524447103076,0.007128317750797589,0.012977822888357164,201.6875,-0.125,172.8125,0.06140137000000001,0.18817139000000024,-0.9801635700000007,-0.010253909999999988
340.0,0.02882200953168697,0.03073267950687307,0.007394619717200365,-0.02000000000000001,-1.2099999999999995,-9.73000000000001,-0.013436429162235614,-0.007228031824806017,-0.0011678285871834252,201.6875,-0.125,172.8125,0.06140137000000001,0.18817139000000024,-0.9801635700000007,-0.010253909999999988
341.0,0.02755988814053332,0.030765843475520912,0.006866044349915319,-0.02000000000000001,-1.2099999999999995,-9.73000000000001,-0.006051341131986293,0.008746405923825279,-0.013580192209224467,201.6875,-0.125,172.8125,0.06140137000000001,0.18817139000000024,-0.9801635700000007,-0.010253909999999988
342.0,0.02830631375792668,0.029449742014258158,0.008247410295797394,-0.02000000000000001,-1.2099999999999995,-9.73000000000001,-0.014218386899838512,-0.0029712670841703093,-0.008166184174248692,201.6875,-0.125,172.8125,0.06140137000000001,0.18817139000000024,-0.9801635700000007,-0.010253909999999988
343.0,0.02792924100988619,0.03127648784906851,0.007681308834534642,-0.02000000000000001,-1.2099999999999995,-9.73000000000001,0.003550196443341605,-0.018181102052069794,0.0035198560400173298,201.6875,-0.125,172.8125,0.06140137000000001,0.18817139000000024,-0.9801635700000007,-0.010253909999999988
344.0,0.02985171727913665,0.03165933573594865,0.007294748710071292,-0.02000000000000001,-1.2099999999999995,-9.73000000000001,-0.01325281741108354,0.023206285202252944,0.013562037201150103,201.6875,-0.125,172.8125,0.06140137000000001,0.18817139000000024,-0.9801635700000007,-0.010253909999999988
345.0,0.031252023514120306,0.033009647386663524,0.0062561813186813205,-0.02000000000000001,-1.2099999999999995,-9.73000000000001,0.004166282026665091,0.0008664554531489996,0.02313406519555713,201.6875,-0.125,172.8125,0.06140137000000001,0.18817139000000024,-0.9801635700000007,-0.010253909999999988
346.0,0.03261856758832567,0.03269961277521763,0.006252160138248848,-0.02258064516129033,-1.2099999999999995,-9.73000000000001,-0.013557367671530977,0.029767905145929335,0.16571560579877112,201.73487903225805,-0.13860887096774194,172.8125,0.06140137000000001,0.1885814072580645,-0.9800882619354836,-0.010239142258064514
347.0,0.033706538756942,0.0339978755563433,0.0072601914214817445,-0.026451612903225827,-1.2099999999999995,-9.73000000000001,-0.01336430146914018,-0.00024864668261845996,0.09331114114380243,201.8079637096774,-0.1640625,172.8125,0.06140137000000001,0.18925845282258047,-0.9799684088709671,-0.01021502161290323
348.0,0.03490904156327544,0.03512647332506204,0.00661166253101737,-0.02838709677419357,-1.2099999999999995,-9.73000000000001,-0.012461228287841191,0.007351601271712157,0.062792726426799,201.84450604838707,-0.17678931451612903,172.8125,0.06140137000000001,0.18959697560483846,-0.9799084823387089,-0.010202961290322589
349.0,0.03314143920595535,0.03332451923076924,0.006291718362282879,-0.029354838709677443,-1.2099999999999995,-9.73000000000001,0.00813769773573201,-0.0037996277915632757,0.060298736042183616,201.86277721774192,-0.18315272177419356,172.8125,0.06140137000000001,0.18976623699596748,-0.9798785190725797,-0.010196931129032267
350.0,0.03319789081885857,0.033579326923076934,0.006792183622828785,-0.029838709677419376,-1.2099999999999995,-9.73000000000001,0.00870085685483871,-0.0020495696339950372,0.03659322658188585,201.87191280241933,-0.1863344254032258,172.8125,0.06140137000000001,0.18985086769153198,-0.9798635374395153,-0.010193916048387106
351.0,0.03544852996465901,0.03269027746447102,0.006345138732235507,-0.030000000000000027,-1.2099999999999995,-9.73000000000001,-0.0010263929618768326,0.0063548011128656285,0.01886889991728701,201.875,-0.1875,172.8125,0.061401370000000004,0.1898803699999997,-0.9798583999999992,-0.01019287000000001
352.0,0.03361756523046847,0.030940672230994826,0.006667606586961427,-0.030000000000000027,-1.2099999999999995,-9.73000000000001,-0.016425107150913602,0.042468653658169785,0.005580541770057897,201.875,-0.1875,172.8125,0.061401370000000004,0.18988036999999972,-0.9798583999999991,-0.01019287000000001
353.0,0.03499894728926988,0.030918490112038517,0.007538104368749532,-0.030000000000000027,-1.2099999999999995,-9.73000000000001,-0.0031543725092112182,0.03616872039251072,0.007654828370554176,201.875,-0.1875,172.8125,0.06140137,0.1898803699999997,-0.9798583999999992,-0.01019287000000001
354.0,0.034666779457102045,0.03176385442514476,0.006096520415068803,-0.030000000000000027,-1.2099999999999995,-9.73000000000001,0.0072749830814346945,0.020729765865854576,-0.007840286393713813,201.875,-0.1875,172.8125,0.06140137,0.1898803699999997,-0.9798583999999992,-0.01019287000000001
355.0,0.036152248289345074,0.03170698924731184,0.006560667155425222,-0.030000000000000027,-1.2099999999999995,-9.73000000000001,0.0009622434017595312,0.014916681940371457,-0.0011130712365591397,201.875,-0.1875,172.8125,0.061401370000000004,0.1898803699999997,-0.9798583999999991,-0.01019287000000001
356.0,0.03525666403488985,0.032253449507481775,0.005328946255357546,-0.030000000000000027,-1.2099999999999995,-9.73000000000001,0.009597408639747349,0.041938142083051355,0.006223344447890819,201.875,-0.1875,172.8125,0.061401370000000004,0.18988036999999972,-0.9798583999999991,-0.01019287000000001
357.0,0.0356154598090082,0.03177204113091211,0.003980346266636589,-0.030000000000000027,-1.2099999999999995,-9.73000000000001,-0.002141432156553124,0.010326963023535602,0.009673542183622829,201.875,-0.1875,172.8125,0.06140137000000001,0.18988036999999972,-0.979858399999999,-0.01019287000000001
358.0,0.033737348672832554,0.031107127415595175,0.004317302992706219,-0.030000000000000027,-1.2099999999999995,-9.73000000000001,0.004731881861418152,-0.019131343287089257,0.007646427832919769,201.875,-0.1875,172.8125,0.06140137000000001,0.18988036999999972,-0.979858399999999,-0.01019287000000001
359.0,0.03529404466501242,0.03210010856079405,0.004068005583126551,-0.030000000000000027,-1.2099999999999995,-9.73000000000001,0.0060459638647642686,-0.005671816842431763,0.010610848325062035,201.875,-0.1875,172.8125,0.06140137000000001,0.18988036999999972,-0.979858399999999,-0.01019287000000001
360.0,0.03401188059252576,0.03149154071734719,0.005908865328220167,-0.030000000000000027,-1.2099999999999995,-9.73000000000001,-0.0003195729002180617,0.022926535829761632,0.012053537859989472,201.875,-0.1875,172.8125,0.061401370000000004,0.1898803699999997,-0.9798583999999992,-0.01019287000000001
361.0,0.035030754192044516,0.03252740807579519,0.0066194450710579745,-0.030000000000000027,-1.2099999999999995,-9.73000000000001,0.006508948041206106,0.016829272877659972,0.012757538160763967,201.875,-0.1875,172.8125,0.061401370000000004,0.18988036999999972,-0.9798583999999991,-0.01019287000000001
362.0,0.03480321828708926,0.03235551545228966,0.0070764719151815945,-0.030000000000000027,-1.2099999999999995,-9.73000000000001,0.0015019926310248892,-0.020074817655462818,0.015606436574178512,201.875,-0.1875,172.8125,0.06140137000000001,0.18988036999999972,-0.9798583999999991,-0.01019287000000001
363.0,0.03487179487179488,0.03312534777050907,0.00737138130686518,-0.030000000000000027,-1.2099999999999995,-9.73000000000001,-0.00187890066922325,-0.016135611700127832,0.03752443792766373,201.875,-0.1875,172.8125,0.06140137,0.1898803699999997,-0.9798583999999992,-0.01019287000000001
364.0,0.03764207498487711,0.0339011057951838,0.00578061306371369,-0.032156957149735224,-1.2099999999999995,-9.73000000000001,0.0037511166814248173,-0.03996847619560667,0.4326193446258444,202.03677178623013,-0.19953659123736156,172.8125,0.061415004049109274,0.1911747739287433,-0.9795960401348095,-0.010102126658642272
365.0,0.04300236691570346,0.031232077824278125,0.00581552647320582,-0.03623976889744827,-1.2099999999999995,-9.73000000000001,0.042549434196039876,-0.07797849518480235,-0.02339585065872979,202.2291019243956,-0.21551243051604146,172.8125,0.061439686379393316,0.19272078158313993,-0.9792833281416963,-0.009995718231569427
366.0,0.04398994201112641,0.03259220253346398,0.007092213195246418,-0.038281174771304785,-1.2099999999999995,-9.73000000000001,0.05038310870641154,-0.09637561122876481,-0.0031173929585099416,202.30229534147446,-0.2054162836842182,172.8125,0.06145202754453534,0.19323031522460998,-0.979173269075736,-0.009993585454983148
367.0,0.044501174479508604,0.03077749084489577,0.006410870865613283,-0.039301877708233054,-1.2099999999999995,-9.73000000000001,0.02071729877007922,-0.09315523737616901,0.06014260625027357,202.34671218686628,-0.19645814184210908,172.8125,0.06145819812710635,0.19353997228972425,-0.9791063067959328,-0.00999872450168512
368.0,0.04507072409214921,0.03212628207933939,0.006289501903969888,-0.039812229176697175,-1.2099999999999995,-9.73000000000001,0.024609015953954566,-0.06786916316511285,0.009100506448694947,202.36892060956217,-0.19197907092105454,172.8125,0.061461283418391854,0.19369480082228135,-0.9790728256560312,-0.010001294025036106
369.0,0.04648216031280547,0.030988514173998064,0.006141862170087977,-0.04000000000000002,-1.2099999999999995,-9.73000000000001,0.04290001832844575,-0.021852853128054735,-0.031574566226783965,202.37496945259045,-0.18936339198435972,172.8125,0.061462399999999945,0.1937317649657867,-0.9790642838318675,-0.010005414516129029
370.0,0.04525792352808482,0.032183745018422444,0.007263464358222425,-0.04000000000000002,-1.2099999999999995,-9.73000000000001,0.03556690705128206,-0.011620792681780585,-0.028154284391683587,202.37451124144673,-0.18774437927663734,172.8125,0.061462399999999945,0.1937221593597261,-0.979065685796677,-0.010009382160312802
371.0,0.046504817091510636,0.03312510809083391,0.005674742931799384,-0.04000000000000002,-1.2099999999999995,-9.73000000000001,0.023419450593089704,-0.017128211590157153,0.011857608537296034,202.375,-0.1875,172.8125,0.061462399999999945,0.19372558999999978,-0.9790649400000005,-0.010009769999999996
372.0,0.04754404936461387,0.03316576434318371,0.006317326490713588,-0.04000000000000002,-1.2099999999999995,-9.73000000000001,-0.0020442972685916216,0.0032910721670802333,2.120695165049903e-05,202.375,-0.1875,172.8125,0.061462399999999945,0.19372558999999978,-0.9790649400000005,-0.010009769999999996
373.0,0.04718028846153846,0.033432382133995055,0.006552264267990076,-0.04000000000000002,-1.2099999999999995,-9.73000000000001,-0.010398088554590571,-0.005622867555831265,-0.029139849565756826,202.375,-0.1875,172.8125,0.061462399999999945,0.19372558999999978,-0.9790649400000005,-0.010009769999999996
374.0,0.04725697890818858,0.032522642679900765,0.006244882133995039,-0.04000000000000002,-1.2099999999999995,-9.73000000000001,0.00039256358560794003,-0.009710375310173696,0.0002675248138957805,202.375,-0.1875,172.8125,0.061462399999999945,0.19372558999999978,-0.9790649400000005,-0.010009769999999996
375.0,0.04700235215053762,0.03332064910895557,0.006663910350402287,-0.04000000000000002,-1.2099999999999995,-9.73000000000001,0.014378269160275207,0.0005986998552522747,0.01443934929317994,202.375,-0.1875,172.8125,0.061462399999999945,0.19372558999999978,-0.9790649400000004,-0.010009769999999998
376.0,0.046315653432588914,0.032547653958944295,0.006995920745920748,-0.04000000000000002,-1.2099999999999995,-9.73000000000001,-0.0024449089217234397,-0.006735292597187758,0.006896900142867884,202.375,-0.1875,172.8125,0.061462399999999945,0.19372558999999978,-0.9790649400000005,-0.010009769999999996
377.0,0.04487618899917287,0.032191941123392756,0.007176620422588166,-0.04000000000000002,-1.2099999999999995,-9.73000000000001,-0.010364824187908867,-0.006717522229114971,-0.012052480449657869,202.375,-0.1875,172.8125,0.061462399999999945,0.19372558999999978,-0.9790649400000005,-0.010009769999999996
378.0,0.04502866521918941,0.0315128440108279,0.00816399259342808,-0.04000000000000002,-1.2099999999999995,-9.73000000000001,-0.014828814079066097,-0.015517570047559968,0.004829839179637567,202.375,-0.1875,172.8125,0.061462399999999945,0.19372558999999978,-0.9790649400000005,-0.010009769999999996
379.0,0.045651468155500405,0.033351567787051666,0.007638835626738854,-0.04000000000000002,-1.2099999999999995,-9.73000000000001,-0.01704845054139409,-0.03584186311000827,-0.016388391514399577,202.375,-0.1875,172.8125,0.061462399999999945,0.19372558999999978,-0.9790649400000005,-0.010009769999999996
380.0,0.045497363523573184,0.03319789081885857,0.0068807382133995055,-0.04000000000000002,-1.2099999999999995,-9.73000000000001,-0.026352163461538458,-0.016600108560794042,-0.002666524503722085,202.375,-0.1875,172.8125,0.061462399999999945,0.19372558999999978,-0.9790649400000005,-0.010009769999999996
381.0,0.04491493486352356,0.03261755583126552,0.006146324441687346,-0.04000000000000002,-1.2099999999999995,-9.73000000000001,-0.010361255428039702,-0.01562790787841191,0.003691551643920596,202.375,-0.1875,172.8125,0.061462399999999945,0.19372558999999978,-0.9790649400000005,-0.010009769999999996
382.0,0.045416873449131506,0.031516749379652625,0.006845533498759307,-0.04000000000000002,-1.2099999999999995,-9.73000000000001,-0.01579947270471464,0.0017098325062034746,0.007296836228287841,202.375,-0.1875,172.8125,0.061462399999999945,0.19372558999999978,-0.9790649400000005,-0.010009769999999996
383.0,0.045048311903150604,0.03207290961726447,0.007733842770133096,-0.04000000000000002,-1.2099999999999995,-9.73000000000001,0.003163125516956161,0.03203442223099481,0.01213589837581773,202.375,-0.1875,172.8125,0.061462399999999945,0.19372558999999978,-0.9790649400000004,-0.010009769999999998
384.0,0.04610905492357105,0.032511148573648584,0.007849039625249306,-0.04000000000000002,-1.2099999999999995,-9.73000000000001,0.00034012946059317037,-0.005116202961465057,0.006641770527859237,202.375,-0.1875,172.8125,0.061462399999999945,0.19372558999999978,-0.9790649400000005,-0.010009769999999996
385.0,0.04656494177865145,0.031127745126737077,0.0068751176019321205,-0.04000000000000002,-1.2099999999999995,-9.73000000000001,-0.006129751045325642,-0.0016271104287737337,0.006067332365215429,202.375,-0.1875,172.8125,0.061462399999999945,0.19372558999999978,-0.9790649400000004,-0.010009769999999998
386.0,0.04646748949974755,0.03211919979661917,0.005890296083844473,-0.04000000000000002,-1.2099999999999995,-9.73000000000001,0.0047968160871386676,-0.02092468463436205,0.006846379427024588,202.375,-0.1875,172.8125,0.061462399999999945,0.19372558999999978,-0.9790649400000005,-0.010009769999999996
387.0,0.04703027080446434,0.033275480791609836,0.005205693947629432,-0.04000000000000002,-1.2099999999999995,-9.73000000000001,0.008694934098159905,-0.01820117606407929,0.006245770358673584,202.375,-0.1875,172.8125,0.061462399999999945,0.19372558999999978,-0.9790649400000005,-0.010009769999999996
388.0,0.045394412039573326,0.03292561918368371,0.005513404158565449,-0.04000000000000002,-1.2099999999999995,-9.73000000000001,0.03969081993275542,-0.018371726839468774,-0.00643845401909918,202.375,-0.1875,172.8125,0.061462399999999945,0.19372558999999978,-0.9790649400000004,-0.010009769999999998
389.0,0.045397247913376945,0.032978193849161605,0.005287540416572676,-0.04000000000000002,-1.2099999999999995,-9.73000000000001,0.02038217159184901,0.012030039852620498,0.0011795999699225502,202.375,-0.1875,172.8125,0.061462399999999945,0.19372558999999978,-0.9790649400000004,-0.010009769999999998
390.0,0.044809534551470034,0.03260320324836455,0.006598090081961051,-0.04000000000000002,-1.2099999999999995,-9.73000000000001,0.003953304759756371,-0.0257773140837657,-0.002479509737574254,202.375,-0.1875,172.8125,0.061462399999999945,0.19372558999999978,-0.9790649400000004,-0.010009769999999996
391.0,0.04532040003007745,0.03268125422964134,0.007269268366042561,-0.04000000000000002,-1.2099999999999995,-9.73000000000001,-0.007700766974960525,-0.025156026768929994,0.00856173396495977,202.375,-0.1875,172.8125,0.061462399999999945,0.19372558999999978,-0.9790649400000005,-0.010009769999999996
392.0,0.043633431085043986,0.03205316189187159,0.006766448605158284,-0.04000000000000002,-1.2099999999999995,-9.73000000000001,-0.0015926949394691335,-0.03336200090232348,0.009075400406045566,202.375,-0.1875,172.8125,0.061462399999999945,0.19372558999999978,-0.9790649400000004,-0.010009769999999998
393.0,0.045964057447928405,0.031302654334912416,0.007655162042258819,-0.04000000000000002,-1.2099999999999995,-9.73000000000001,-0.008362940822618242,-0.02833201744492067,-0.004105101887359952,202.375,-0.1875,172.8125,0.061462399999999945,0.19372558999999978,-0.9790649400000005,-0.010009769999999996
394.0,0.045196781712910736,0.031396495977141156,0.007794119858635991,-0.04000000000000002,-1.2099999999999995,-9.73000000000001,-0.014122302428754042,-0.0252293405519212,0.00029137529137529105,202.375,-0.1875,172.8125,0.061462399999999945,0.19372558999999978,-0.9790649400000005,-0.010009769999999996
395.0,0.046380621144222485,0.032050123845020345,0.007776286624625577,-0.04000000000000002,-1.2099999999999995,-9.73000000000001,-0.006859538311151214,-0.007770405248739384,0.004571912600318956,202.375,-0.1875,172.8125,0.061462399999999945,0.19372558999999978,-0.9790649400000004,-0.010009769999999998
396.0,0.045192791961689405,0.032673945297200004,0.007793850508342566,-0.04000000000000002,-1.2099999999999995,-9.73000000000001,-0.010191555756071885,-0.002977944559853564,-0.01012099159065938,202.375,-0.1875,172.8125,0.061462399999999945,0.19372558999999978,-0.9790649400000005,-0.010009769999999996
397.0,0.04475182120078605,0.03225095114322367,0.00801960365104323,-0.04000000000000002,-1.2099999999999995,-9.73000000000001,-0.012503524701105346,0.02165069047667146,-0.0008144058637558878,202.375,-0.1875,172.8125,0.061462399999999945,0.19372558999999978,-0.9790649400000004,-0.010009769999999998
398.0,0.04537245169370831,0.03205396643558657,0.007470588350824271,-0.04000000000000002,-1.2099999999999995,-9.73000000000001,-0.023156698811940747,0.021950241847103306,0.00622581458823635,202.375,-0.1875,172.8125,0.061462399999999945,0.19372558999999978,-0.9790649400000004,-0.010009769999999998
