time,linaccel_x,linaccel_y,linaccel_z,gravity_x,gravity_y,gravity_z,gyro_x,gyro_y,gyro_z,euler_x,euler_y,euler_z,quaternion_w,quaternion_y,quaternion_x,quaternion_z
0.0,0.08731707317073172,0.08146341463414634,0.01048780487804878,2.750243902439024,1.5324390243902448,9.280243902439022,-0.16615853658536586,-1.0685975609756098,-0.32621951219512196,139.83689024390245,16.29420731707317,-9.367378048780488,0.33850842024390243,-0.12349645048780486,-0.10654356414634143,-0.9267131524390242
1.0,0.09310569105691058,0.08065447154471544,0.005162601626016259,2.797581300813008,1.5353130081300814,9.265414634146342,-0.2939278455284553,-0.41244918699186994,-0.28373983739837394,139.92583841463414,16.576194105691055,-9.398501016260163,0.33764489641463413,-0.12440726399593494,-0.1088869168821138,-0.926627976313008
2.0,0.09704529616724739,0.07385191637630661,0.001355400696864112,2.9038205574912883,1.5319912891986065,9.232034843205575,-0.25900479094076656,-0.5249782229965156,-0.3385670731707317,140.24143074912894,17.223726045296168,-9.411857578397212,0.33479982217770027,-0.12590040671254354,-0.11457527994947735,-0.9267344299912892
3.0,0.0924878048780488,0.06486422764227644,0.00649918699186992,2.894449593495935,1.538662601626016,9.233616260162599,-0.06836890243902438,2.0191768292682926,-0.19383130081300814,140.46266768292685,17.157738821138214,-9.449700203252032,0.33304655821626006,-0.125832787399187,-0.1141455477097561,-0.9274247977292682
4.0,0.09455861526357198,0.05719236821400472,0.008306058221872541,2.769056254917388,1.5385786782061368,9.271233674272226,-0.29679140440597956,-0.26088217938631,-0.19701514555468136,140.4988714594807,16.401325236034616,-9.411951711250984,0.33308011436270646,-0.12352307893509049,-0.10806926102084971,-0.9284445843206135
5.0,0.09912037765538945,0.06089358772619985,0.007382769472856018,2.783442368214005,1.531354642014162,9.269066876475215,-0.019043813926042485,-0.4074621361132965,-0.09875344217151848,140.5478965873328,16.489387047600317,-9.373142456726987,0.33262869877458684,-0.1233852936492919,-0.10895220103363493,-0.9285477474356804
6.0,0.10168922108575926,0.05044276160503541,0.011522029897718333,2.765184893784422,1.5478587726199842,9.271791502753736,0.05028152045633359,0.6331136900078678,0.0959861821400472,140.53813680173093,16.37667437057435,-9.47263473642801,0.3327362517340676,-0.12385463974803304,-0.1077231708192368,-0.9285927461654209
7.0,0.11204838709677421,0.046268292682926836,0.012331235247836348,2.7485391424075534,1.5451058221872538,9.278206136900074,-0.2535589594807238,-0.08903545436664045,-0.15595372738001573,140.51391374901652,16.27563680173092,-9.448238345790715,0.33299356405881186,-0.12343891801180173,-0.10691426709244688,-0.9286540042549172
8.0,0.10079661683713612,0.04877655389457122,0.01429661683713611,2.6694008654602674,1.535556648308419,9.302865853658531,-0.1920965283241542,0.7186381294256491,-0.12410011801730919,140.58547526553895,15.79670903815893,-9.370541158536584,0.3326237327838316,-0.12144018157061369,-0.10320861322678992,-0.9294648872692759
9.0,0.11191030684500396,0.043345790715971694,0.01579897718332022,2.61725295043273,1.5260952006294262,9.319707317073169,-0.061843528717545226,0.5183811959087333,0.002544748229740358,140.59177566876474,15.480030487804877,-9.29249360739575,0.3327403384205351,-0.12001876272187254,-0.1008119856565696,-0.9298789377635721
10.0,0.11924783634933125,0.048317269866247056,0.006156766325727775,2.5874581038552313,1.5617494099134548,9.321710464201416,0.08864452202989773,0.06303599527930762,-0.19210390440597955,140.61237091856805,15.301261309992132,-9.501183861132965,0.3325876998869002,-0.12120829022010227,-0.09877733869374508,-0.9300045262775377
11.0,0.11536585365853658,0.05084815106215579,0.00799370574350905,2.6293863099921313,1.5608182533438244,9.309855232100706,-0.3226888276947285,-0.26717151848937837,-0.38352675059008656,140.82052517702596,15.554209284028325,-9.50837922895358,0.33082381029425656,-0.12171529988827694,-0.10110845770574349,-0.9303128829976399
12.0,0.06616837136113296,0.04802045633359561,0.04206136900078678,2.653855232100708,1.5352714398111726,9.306851298190399,-1.2099527930763179,-0.30864476789929185,-1.1143882769472857,141.32133162863886,15.688542486231315,-9.359077498033045,0.3267066696081826,-0.1204155729771833,-0.1031582018898505,-0.9316941212352481
13.0,0.3588662470495672,-0.04146498819826908,-0.014067663257277725,2.358419354838709,1.612690794649882,9.358899291896146,1.9212086939417778,3.105173092053501,1.7902488198269078,140.62990755310778,13.908408733280883,-9.76826809598741,0.33273724584893793,-0.11927389878520848,-0.086448721368214,-0.9308628040590088
14.0,0.3019476415271065,-0.01053598591285453,0.013090180210557871,2.1020945449777075,1.8259278408452286,9.381471301187666,1.1510372176014387,1.827626587613802,1.8025768283316472,139.30226808662096,12.372962093964258,-10.995800901989435,0.34370252703690385,-0.1258968109878985,-0.06883176194895284,-0.9274636564487845
15.0,0.207137471432318,-0.04277861451425574,0.021434940616687274,1.9932872410175713,1.7992361470158484,9.41625256640815,-0.19205121810722714,1.1258756462852646,-0.3297599729309506,137.25627763103665,11.720873257839722,-10.80599447145105,0.3604323875743135,-0.12372346849945673,-0.061972581872194746,-0.9219506419450847
16.0,0.15086958150687496,0.0016740286988123423,0.006150200442096591,2.132684631523735,1.831813195459144,9.382214697838222,0.028687338428683776,0.0820775261324041,-0.4738941731295193,137.4528781939605,12.559611737102394,-11.03470270877824,0.35859812922618106,-0.12805432355224605,-0.06837804622219101,-0.9218396309248438
17.0,0.11472117942377578,0.033141499007155975,0.011427578584541605,2.1913706399160766,1.8298625379341353,9.371636853246411,0.06513045127571092,-0.5651817326064966,-0.38936152401558577,138.01626993883707,12.914719322524444,-11.040472912217602,0.35402070905054134,-0.1287968243866659,-0.07189891478772806,-0.9233697620108089
18.0,0.08726381551833952,0.06168768498744895,0.014544434453561126,2.390399029635458,1.844269978644487,9.318846652429658,-0.11809001629762841,-1.816713850174216,-0.48331483458843805,138.68215210651528,14.116558249971899,-11.187171939979768,0.34819090713817397,-0.1328764608143007,-0.08216953518015437,-0.9241430174166948
19.0,0.08283851298190403,0.07734461054287961,0.012054091266719118,2.761323170731707,1.8194437450826122,9.214876475216364,-0.7214730035405194,-1.0840049665617624,-0.9765268489378442,139.8950027045633,16.37080792682927,-11.162465578284813,0.3374754286113296,-0.13757517814063724,-0.10232455538808025,-0.9252143008796223
20.0,0.07824744295830056,0.06398741148701809,0.014627065302911092,2.885722265932336,1.8045892997639656,9.183564516129032,-0.34316483084185684,-0.33757130212431163,-0.4456702399685287,140.6892137096774,17.11889260424862,-11.105982002360346,0.33076714560975606,-0.13850911614988198,-0.10960887839732494,-0.9268279216380804
21.0,0.09184598741148704,0.06158457907159717,0.011227773406766325,2.910339496459481,1.7749736428009442,9.184760228166798,-0.34742820613690006,-0.22666330645161292,-0.3985825629425649,141.12590602871754,17.260297010228168,-10.930031717151849,0.3272347129504327,-0.13712495556904014,-0.11177182568174662,-0.9281265398355625
22.0,0.07022686053783615,0.055566483084185686,0.010212108374185479,2.9294639996772176,1.764036862756965,9.181077074381163,-0.4116548081966551,-1.5416808829611248,-0.4930419276664851,141.46514167751013,17.382567859952793,-10.868418076317859,0.3244148466995752,-0.13663008309438357,-0.11340003647548869,-0.9290189601743983
23.0,0.07631101091407938,0.053275177025963814,0.013380247735479836,2.8743207095160273,1.7641273023462247,9.199336924287355,-0.07213284764671471,1.6061504859387923,-0.03737277834937158,141.68632587907763,17.036898849331234,-10.850388473642802,0.3227951525231747,-0.13539713298267567,-0.11078642047161529,-0.9301001718734894
24.0,0.07719582803768485,0.04917387883556257,0.016069156125804437,2.820567612822529,1.764358006011822,9.216442655692063,-0.13974585930722833,0.4453887510339122,-0.1304807440133955,141.80828390728078,16.709805271439812,-10.832956333595593,0.3219385688623938,-0.1343582106566604,-0.10828059180838828,-0.930874311114164
25.0,0.08126117129657649,0.05196066089693156,0.010590046198228734,2.8711933264742076,1.7462269967116544,9.204197724384187,-0.4204826857511751,-1.1330884726341062,-0.49842782283281895,142.17038900320767,17.028958497246265,-10.73365460267506,0.3189071488395368,-0.13400877419693757,-0.1116044823447921,-0.9315488044500797
26.0,0.0849995864350703,0.04283870967741935,0.01614474772539289,2.91555417700579,1.7258105872622,9.193599255583123,-0.1596955128205128,-0.4787737799834575,-0.12325010339123245,142.37481389578164,17.303528225806453,-10.623790322580646,0.3171841455165426,-0.13358813367990072,-0.11435669044540941,-0.9318743908875102
27.0,0.07475844854070662,0.050474654377880186,0.014801075268817205,2.960303379416282,1.712753456221198,9.18171159754224,-0.24831269201228878,1.6007776497695851,0.2081005184331797,142.54390360983103,17.5712149577573,-10.559927035330261,0.31571832708179726,-0.13354698701305684,-0.11694773728225805,-0.9320540656198155
28.0,0.08980556179985763,0.037364785882881876,0.013428665093102544,2.7977632160653396,1.6699223614701584,9.239388745269938,-0.30529017271739534,1.6921005676070586,0.3251046701135214,142.33609298312166,16.578503697407363,-10.23719330720093,0.3178994436623581,-0.12875039029901464,-0.10930122143332023,-0.9328881757762728
29.0,0.09047939380315462,0.033932392941440945,0.0169965906110674,2.692929995129444,1.6361587613802406,9.276629856505934,-0.16408661861676221,0.2307781063841744,0.058671286669663925,142.1373761286576,15.942553259994005,-9.996394032632722,0.3198431677344049,-0.12542381302047506,-0.1044280782287569,-0.9332459349687814
30.0,0.08941711625641602,0.04240974485781725,0.020409585628114346,2.665247255629238,1.6437245419804434,9.284911702446518,0.0781129406916189,0.4865836096437001,-0.020840767955490613,142.11153080626428,15.770344170319582,-10.032924838897006,0.3200932651333315,-0.12533343541346337,-0.10286315297324941,-0.9333739430368102
31.0,0.06946259038627253,0.04387422726761831,0.01631366378179911,2.658841369750103,1.659237270990222,9.284274399610355,-0.04622578771870668,-0.1166376306620209,-0.056110908171293696,142.1478016934547,15.730837407740436,-10.127399919448504,0.3197795247803754,-0.12597565480753814,-0.10234624230920536,-0.9334637401393728
32.0,0.07873052714398111,0.03377812745869395,0.013748229740361922,2.6413784421715185,1.6726278520849727,9.287133359559402,-0.18939073564122738,0.6452670141620771,-0.0910306845003934,142.14032749803306,15.620670239968529,-10.205539437450827,0.31984902130723836,-0.12628660500668767,-0.10120580921911881,-0.9335353876526356
33.0,0.08546050454921422,0.033688172043010764,0.012500413564929695,2.5934317617866,1.6673035566583958,9.302784739454092,-0.14706239660876758,0.3776842948717949,-0.1402967328370554,142.18321701819684,15.337573666253101,-10.148344447890818,0.3196328971333746,-0.12513723186373038,-0.09899841049731185,-0.9340032854605047
34.0,0.08913751033912326,0.030924731182795713,0.01443569065343259,2.5596513647642674,1.6615308105872617,9.31295285359801,-0.11579430314309347,0.44390767162944583,-0.10144876964433416,142.22971334780812,15.132622518610422,-10.106606699751861,0.31932306857878406,-0.12423546214557488,-0.09747980318010752,-0.9343940281858976
35.0,0.08017762613730356,0.03799462365591399,0.017810587262200167,2.512236972704714,1.6578984698097599,9.326379652605453,-0.20772074028122414,0.25844577129859386,-0.11405603804797353,142.2035915529363,14.843680210918116,-10.072053349875931,0.3196784122531017,-0.12324151117762618,-0.09515157611827957,-0.9346402954679488
36.0,0.0800444582299421,0.035303763440860225,0.016445616211745246,2.5254410669975185,1.6433403639371384,9.325762406947888,-0.13188456368899917,0.012161393713813057,-0.07104011579818031,142.26154880066173,14.920227202233251,-9.982296836228286,0.31915964499751853,-0.12269026838316796,-0.09613759801075267,-0.9347917565363939
37.0,0.09048593879239039,0.05183333333333334,0.009460711331679075,2.535692307692308,1.6357588916459889,9.324070719602972,-0.08154208023159636,0.13879239040529362,-0.0555805417700579,142.2896453680728,14.981358560794042,-9.952589950372207,0.31891271446650116,-0.12250929993755175,-0.09676171127956988,-0.9348382737117453
38.0,0.11845967741935483,0.05195967741935486,0.006999999999999999,2.5520322580645156,1.611991935483871,9.322975806451609,-0.37525201612903225,-0.22358870967741934,-0.2589213709677419,142.43316532258066,15.079032258064515,-9.807157258064517,0.31775626012903224,-0.12149402170161291,-0.09811347185483871,-0.9352197954274194
39.0,0.10986290322580644,0.038685483870967756,0.014330645161290324,2.5831129032258064,1.58525,9.319120967741934,-0.12903225806451613,0.11310483870967744,-0.06547379032258063,142.60020161290322,15.268699596774194,-9.650252016129032,0.31638493800806455,-0.1206013830483871,-0.1002571848064516,-0.9355687304354838
40.0,0.1042258064516129,0.04312903225806453,0.013790322580645158,2.586032258064516,1.5945887096774196,9.315911290322578,-0.021270161290322588,0.09299395161290323,-0.009727822580645158,142.60211693548388,15.287752016129032,-9.708366935483872,0.3163440828225807,-0.12112579262096773,-0.10024064572580643,-0.9355195575000002
41.0,0.10043745082612116,0.05048937844217153,0.012066286388670338,2.538554091266718,1.6047372147915027,9.327965971675848,-0.33697875688434303,0.4132105625491739,-0.2892001868607396,142.6106805664831,14.999567269866247,-9.755037863886702,0.3163695004956727,-0.12078628694354837,-0.09773276475059009,-0.9358179736215579
42.0,0.10266227380015738,0.05603501180173093,0.007150078678206136,2.498103658536585,1.601110542879622,9.33983379228954,-0.027511555861526343,0.5210710070810385,-0.10440352084972465,142.75110641227377,14.75608403815893,-9.71970643194335,0.3153467578526751,-0.11977510868548388,-0.09595672839142409,-0.9364765944801339
43.0,0.0975125885129819,0.059186860739575145,0.009046813532651455,2.460926829268293,1.6115472069236818,9.347953186467354,-0.12260154405979543,0.3333177616050354,-0.13199006687647524,142.8067528029111,14.526857543273012,-9.773966119197482,0.3149300401884343,-0.11958335815322582,-0.09399380167958303,-0.936842303792486
44.0,0.0984883949645948,0.049575531077891435,0.008330841856805667,2.4387594413847364,1.6002261998426432,9.355701416207715,-0.015883162863886698,0.33249286978756887,0.0012760621557828533,142.87827252163652,14.391229838709677,-9.702109559402047,0.31442001417859955,-0.11858958811782061,-0.09312856588296618,-0.9372241561707316
45.0,0.0941191974822974,0.05434421715184895,-4.223278127458695,2.4530369787568844,1.5833792289535795,9.354600708103856,-0.09221577498033046,-0.7897767505900866,0.0669182730133753,142.86186811565696,14.48296370967742,-9.599845102281668,0.31454345499252556,-0.11800207443391031,-0.09414332814712825,-0.9371517776821401
46.0,0.087051730920535,0.0637653422501967,-2.107528127458694,2.714055861526357,1.5964771833202205,9.275805468135328,-0.17041945318646737,-1.4770333398898505,-0.15748303501180172,143.04659102084975,16.074856166404405,-9.761370230133753,0.31239898802340677,-0.12301419048210069,-0.10716497710660897,-0.9357214710125885
47.0,0.07215892997639653,0.07088670338316289,-1.0490261605035407,2.9621166404405974,1.6097466561762388,9.195858379228955,-0.21136900078678206,-1.0436577989771834,-0.3073957513768686,143.35114329268293,17.592594413847365,-9.932424026357198,0.3092731799189615,-0.12768758846282452,-0.11969345639201415,-0.9345803809659716
48.0,0.07224075531077889,0.0620562549173879,-0.5179767899291897,2.9347962234461056,1.6155023603461833,9.20639693154996,-0.28179337136113297,0.7495672698662471,-0.16710513375295044,143.54890833988986,17.41121656176239,-9.951317859952791,0.30775243495948074,-0.12726766467899292,-0.1183573915952006,-0.9353794595999213
49.0,0.07668686073957512,0.05858910306845004,-0.25357926829268296,2.9094870180959873,1.6182665224232882,9.215566679779704,-0.12506269669551534,0.25371754523996853,-0.13685705153422503,143.68213021243116,17.257929287962234,-9.95965283241542,0.3066998693719512,-0.1268452930121951,-0.11720132728068448,-0.9359663589423681
50.0,0.07314673485444531,0.05629346970889065,0.008710070810385523,2.873142014162077,1.6242560975609752,9.2260987411487,-0.18346036585365855,0.509962627852085,-0.17122836349331236,143.78585759244686,17.035545338316282,-9.97913552321007,0.30595904131471285,-0.12640166193194335,-0.11539285473485444,-0.9365095133760817
51.0,0.07875904799370574,0.05639378442171519,0.01067289535798584,2.748312942564909,1.584228756884343,9.27044512195122,-0.3036548485444532,1.465057041699449,-0.0721110346184107,143.8774144374508,16.267374360739574,-9.694096675845792,0.3055721458280881,-0.12218665132159715,-0.10982242943351692,-0.9378470995723838
52.0,0.07405743509047993,0.05099095200629426,0.008963808025177027,2.6291931549960657,1.5635572383949645,9.308592643587726,-0.28256171321793866,0.5505642702596381,-0.022654405979543667,143.80067368214003,15.547670387490165,-9.527726691581432,0.30647741830940195,-0.11920249946636506,-0.10414677943076317,-0.938587005014162
53.0,0.073786782061369,0.06166483084185681,0.012917387883556257,2.5656207710464196,1.5791132966168373,9.324147128245478,0.26433910306845004,0.28548878835562547,0.0012736034618410687,143.78551829268292,15.16755999213218,-9.608772619984265,0.30673545768292687,-0.11893443589850514,-0.10074813915892997,-0.9389180282974036
54.0,0.0657690794649882,0.06156412273800156,0.009640440597954368,2.5334272226593226,1.5923308418568056,9.331024783634934,-0.04740361919748226,0.17700383556254914,0.003041404405979543,143.89295092446895,14.971412765538945,-9.68007474429583,0.30590524027498034,-0.11894023873052714,-0.09904422337568843,-0.9393822674358774
55.0,0.06426770259638082,0.06397324940991346,0.015423682140047208,2.5394657749803304,1.6171284421715184,9.32525039339103,0.15677124311565696,0.2371398013375295,-0.6130741050354052,144.10201244099133,15.008385375688434,-9.832243312352478,0.30411272057966166,-0.12010107476652243,-0.09917124855094414,-0.9398068860940203
56.0,0.07722659323367428,0.0616573564122738,0.012042092840283243,2.4004984264358775,1.7560873328088114,9.334977183320222,0.2731805664830842,0.824523013375295,-0.8653791306058221,144.87328874901652,14.166613394964592,-10.644514653815893,0.29787696375137684,-0.12413339633162863,-0.09095591556687647,-0.9420370738540518
57.0,0.06922305271439812,0.052233084185680574,0.012197285601888277,2.390453776553895,1.8017887490165223,9.330065302911091,-0.1518882769472856,0.042941089693154966,-0.5131380310778914,145.32391325727775,14.10091094610543,-10.921490214398112,0.29414284740283236,-0.12586752528225806,-0.09024657252380017,-0.9430788894801336
58.0,0.07864877674122364,0.05604991382863138,0.009023565996028621,2.4426621801356263,1.824837922895358,9.311748473268139,0.1688523285002435,-0.105283967442209,-0.4635522624667491,145.88150827994454,14.422130060226294,-11.080048342606123,0.2894228458715391,-0.12737927946121352,-0.09312178072560975,-0.9440512591192909
59.0,0.06657910906298004,0.07185215990408753,0.011456511558203139,2.5907163182346116,1.8660279307631784,9.261887415233598,0.11283760209433889,-1.7026948456408528,-0.3435243855606759,146.36886438780863,15.329610343842495,-11.38657400902926,0.2850331737055374,-0.13141003066225507,-0.10059287386939417,-0.9440286979121237
60.0,0.07217901165186766,0.07413772432655204,0.01294668614888914,2.640407628039415,1.870944138473643,9.24806526544528,-0.33226321606534037,0.30416619834401093,-0.4144561837323442,146.796481023566,15.620337847963734,-11.428393465962309,0.2813833123663407,-0.1320325575100221,-0.1034238451534225,-0.9447641414649133
61.0,0.07869768835937208,0.07941740661646249,0.00872353976995991,2.606466599228204,1.8407867820613688,9.265020044209658,-0.3026137087407741,-0.048939717507774205,0.0934701772132929,146.8273317785021,15.419457869693904,-11.22909641826833,0.2812366526544528,-0.12996616386909446,-0.10221095108575923,-0.9452552808111347
62.0,0.0768091116855869,0.0733389157393878,0.013068300176089316,2.592763590723465,1.8108764752163649,9.275000187329063,-0.3889347064553595,0.2670968210258139,-0.1588215597017721,146.89172450451463,15.332889831778502,-11.045326139897345,0.2807948832524821,-0.12821998401873289,-0.10199533554523996,-0.9456639562120193
63.0,0.07776553894571203,0.061762391817466566,0.010047206923682137,2.5698095987411493,1.7837608182533438,9.28642328874902,-0.41621754523996857,0.139073564122738,-0.35037372147915025,147.17077104642016,15.191492918961448,-10.869590873328088,0.27853853114083404,-0.1262230654901652,-0.10152118238552321,-0.9466527572588513
64.0,0.07464673485444531,0.06277104642014163,0.012545239968528714,2.5543933910306853,1.7690125885129822,9.293794649881985,-0.05882179386309991,0.0694581038552321,-0.07250196695515342,147.39882474429584,15.09907553107789,-10.777011211644375,0.27674309397718333,-0.1250803974610543,-0.1012168609520063,-0.9473698846506688
65.0,0.06678599527930762,0.06112588512981905,0.01803658536585366,2.5574893784421717,1.7684331235247839,9.293142014162079,-0.2246951219512195,0.146043961447679,-0.1587086939417781,147.59969266325726,15.117510818253344,-10.7703801140834,0.2750928323583792,-0.12489168761644374,-0.1015897806365067,-0.9478395887053501
66.0,0.06479032258064517,0.05746774193548389,0.015008064516129033,2.572370967741935,1.7623306451612906,9.289862903225803,-0.12681451612903225,-0.010131048387096775,-0.1841733870967742,147.81244959677417,15.209375,-10.738558467741935,0.27331872750806446,-0.12463526597580643,-0.10266044379032256,-0.9482733451048388
67.0,0.0784193548387097,0.06056451612903227,0.010193548387096775,2.5894596774193546,1.7657016129032268,9.28560483870967,-0.16053427419354838,-0.07106854838709677,-0.1509072580645161,147.95433467741935,15.309375,-10.763306451612902,0.2720625844919354,-0.12490608529838709,-0.10364655472580644,-0.9484907086774195
68.0,0.0889032258064516,0.06301612903225808,0.007951612903225807,2.5987096774193548,1.752540322580645,9.284838709677414,-0.21310483870967742,-0.09203629032258065,-0.19742943548387096,148.13417338709678,15.366935483870968,-10.685534274193548,0.27058893008870966,-0.12424665906451615,-0.10447712534677417,-0.9489067816935486
69.0,0.11337096774193549,0.07046774193548389,0.0016693548387096773,2.585661290322581,1.7217096774193545,9.294120967741932,-0.2047883064516129,0.15882056451612903,-0.04778225806451612,148.27998991935482,15.285987903225806,-10.494153225806452,0.2694843419435484,-0.12238803960483871,-0.10438773800000001,-0.9494721937661295
70.0,0.11895161290322581,0.06949193548387098,0.0021370967741935476,2.5722419354838713,1.71758064516129,9.298112903225809,-0.20640120967741934,0.28689516129032255,-0.11980846774193549,148.33870967741936,15.205745967741937,-10.468296370967742,0.26903499586290325,-0.12194346828225808,-0.10382109548387097,-0.9497191896612904
71.0,0.12438709677419355,0.06715322580645162,-0.0018306451612903232,2.57408064516129,1.7195967741935476,9.297854838709677,-0.07923387096774193,-0.125554435483871,-0.12142137096774194,148.44052419354838,15.21743951612903,-10.484677419354838,0.268184835,-0.12198442008870969,-0.10401621115322582,-0.9499339447661292
72.0,0.11336290322580644,0.0637741935483871,0.002346774193548387,2.5765000000000002,1.727129032258064,9.295741935483873,-0.1298891129032258,0.1382056451612903,-0.11834677419354839,148.51446572580647,15.229637096774193,-10.522328629032257,0.26752910111290323,-0.12228767620967743,-0.10410471236290322,-0.9500687139193551
73.0,0.10141129032258064,0.06000000000000001,0.00817741935483871,2.586346774193548,1.731112903225806,9.292185483870966,-0.19526209677419354,0.34909274193548384,-0.18251008064516128,148.69616935483873,15.288004032258064,-10.550504032258065,0.26596650216129036,-0.12246600736290324,-0.10474666421774195,-0.9504115933064516
74.0,0.09393548387096773,0.05662096774193551,0.007766129032258064,2.5963387096774193,1.729346774193548,9.289201612903227,-0.20922379032258062,0.0859375,-0.16794354838709677,148.87147177419354,15.351260080645162,-10.539516129032258,0.2645153911209678,-0.12236042699193549,-0.10547391814516127,-0.9507488622258062
75.0,0.09736014948859167,0.05351966955153424,0.009999016522423288,2.5880045239968523,1.7277712431156569,9.292180763178603,-0.10587996656176238,0.10715111132966168,-0.13985542879622342,149.0968282848151,15.300260621557829,-10.528381933516917,0.2626572638444139,-0.12196699341856805,-0.10530402472246261,-0.9513341345354049
76.0,0.08853933910306845,0.06499567269866248,0.013140833988985053,2.586076907946498,1.7191835169158145,9.293868804091266,-0.17404848544453186,0.1966082317073171,-0.008902930763178593,149.17645308811956,15.292741935483871,-10.473939073564122,0.262025998829465,-0.12141959776553894,-0.1054246340037372,-0.9515645570833987
77.0,0.08170284927503653,0.06126089318496872,0.013347298714922634,2.5506000899179493,1.7040996309617475,9.306997190064063,-0.37135123965006933,0.5375478274512008,-0.0018184968716046606,149.15119937432092,15.07940908218126,-10.366838248379603,0.2623218819671519,-0.1201428815521243,-0.10380198799937243,-0.9518241600290265
78.0,0.09052519575887003,0.06068689820538758,0.011490277621670226,2.596616097186317,1.684645629612978,9.297171022067364,0.07890171312427408,0.028128512419916846,0.021505786126409653,149.1623532393878,15.357433275729646,-10.259322782023903,0.2621672774000506,-0.11981876918178411,-0.10639713398490126,-0.9516135058883609
79.0,0.07758045783222808,0.0652238582293657,0.01406653928290435,2.6341006331722303,1.6721314300700607,9.289231950844854,-0.44713573863849243,-0.1218388220748567,-0.23788683451350642,149.33723914428083,15.585199599115805,-10.192841219886853,0.26066920249634706,-0.11955935982653326,-0.10864744623281258,-0.9518026243126894
80.0,0.08572278757172544,0.0599783274684927,0.01636904401656565,2.626520146520146,1.654813319384523,9.294823060495762,-0.2101862699325327,0.26937396788891677,-0.11709939680041961,149.47572683676145,15.537607389987404,-10.08645596470144,0.25952469801217926,-0.11844725604441715,-0.10862421465870087,-0.9522621388352166
81.0,0.07561591778271558,0.054568235331413945,0.01812630013574152,2.5888745500500026,1.6453586659865183,9.307030727730176,-0.13681520420308776,0.17967616569111455,-0.15878081563073693,149.59216613277883,15.310198266197478,-10.016256109809413,0.2586754853609283,-0.11733835053204338,-0.10697190053470056,-0.9528158942940836
82.0,0.07348998654112737,0.05474187496217395,0.020331967272171833,2.5863543257162456,1.6400587492759016,9.309139787828222,-0.18443102760077584,0.26785267577950506,-0.1398982803192087,149.74675030909293,15.294164033252349,-9.983622486548331,0.2574491814062706,-0.1168976469756991,-0.10707408616750388,-0.9531969154465809
83.0,0.07450228973753759,0.04937093748108699,0.017750469043151973,2.562190219693761,1.6292651657285802,9.31870891081119,-0.17938429260223124,0.19278770501724868,-0.15197678992918962,149.8376704694466,15.141816079606205,-9.909308363089835,0.2567230727169601,-0.11589409889414756,-0.10606598405687022,-0.95363011214495
84.0,0.08690653432588916,0.05169727047146404,0.01196650124069479,2.539844913151365,1.62395988420182,9.325524400330849,-0.02760028949545079,0.2781405086848635,-0.08185483870967741,149.89872311827958,15.005580541770058,-9.871771608767576,0.25623339696980973,-0.1152790468585608,-0.10505452268775846,-0.9539499562841193
85.0,0.10903225806451615,0.0595483870967742,0.010846774193548387,2.512217741935483,1.6232016129032258,9.333016129032252,-0.18356854838709677,0.0794858870967742,-0.18286290322580645,149.98074596774194,14.840977822580644,-9.865776209677419,0.25562793437903225,-0.11479541332258067,-0.1037393874596774,-0.9543162185564513
86.0,0.12106451612903224,0.06535483870967743,0.004717741935483871,2.4981693548387085,1.623370967741936,9.336338709677413,-0.11890120967741935,0.2220766129032258,-0.1673891129032258,150.03321572580646,14.756149193548387,-9.865776209677419,0.2552091536774193,-0.11455388181451615,-0.10305727041129031,-0.9545278722016127
87.0,0.11602419354838708,0.06740322580645161,0.0030322580645161293,2.4837016129032254,1.6383225806451613,9.337596774193551,0.09848790322580647,0.533266129032258,-0.04067540322580647,150.02908266129032,14.667338709677418,-9.954485887096775,0.25525261691935475,-0.11511412611290323,-0.10211472025806453,-0.9545483976612903
88.0,0.10349193548387095,0.07633870967741936,0.008758064516129031,2.419572580645161,1.673548387096774,9.348040322580648,0.052520161290322595,0.6553427419354838,0.053175403225806446,149.90398185483872,14.279485887096774,-10.145060483870967,0.25637290728225803,-0.11605318114516129,-0.09829775880645163,-0.9545277733629033
89.0,0.0882258064516129,0.07135483870967742,0.008403225806451614,2.350008064516129,1.6885806451612897,9.363137096774192,-0.05907258064516129,0.2390625,-0.16411290322580646,149.85287298387095,13.863961693548386,-10.215372983870967,0.2568588753467742,-0.11586559649193548,-0.09459833916129032,-0.95479352325
90.0,0.11729543666404407,0.07676829268292681,0.0022779307631786,2.3788597560975613,1.688608575924469,9.35548308418568,-0.20599060778914238,0.4538773603461841,0.023087136113296616,150.01062770456332,14.037109067663259,-10.2231756490952,0.2554788439459087,-0.11613031194767898,-0.096202538254524,-0.9549624157987804
91.0,0.11761008392341987,0.06551125847664006,0.004346146641189915,2.3463797628414076,1.6850846259038623,9.363733093552135,-0.042973462496721744,0.5683509305571166,0.04703943979243939,149.85896808615263,13.843153708178786,-10.193581872166646,0.2567978333859728,-0.11563242060440786,-0.09445764256351392,-0.9548449361307652
92.0,0.10461945974298453,0.06021865048143568,0.008309186617211795,2.3406710969989883,1.6688826945412307,9.367634446067964,-0.2347974855756622,0.19211520269004534,-0.15872543647671497,150.05661511605035,13.814338459124798,-10.09534891208647,0.2551853749300045,-0.11456686051276649,-0.09460735851611966,-0.9553797940186673
93.0,0.09820489116181483,0.06914158330523397,0.0066303997602188,2.3734121614027206,1.668344573077067,9.360631739163018,-0.16742394440073433,-0.20001094704207412,-0.2331933633996478,150.25922993705746,14.007547253755947,-10.09654038346259,0.25344196190451845,-0.11483229748622194,-0.09644618430241467,-0.9556408733359465
94.0,0.08984841332284291,0.07182885616874603,0.011831328912367461,2.4016738226368437,1.667510996215953,9.353336030871828,-0.09318777865198007,0.24613867970476944,-0.019494867183694878,150.4295141620771,14.178067981716683,-10.099530272376457,0.2519694779925818,-0.1150368557794013,-0.0980497076552396,-0.9558461560752312
95.0,0.0847652766850249,0.06749979393803156,0.010099771458544078,2.339252332246825,1.6460363793038848,9.372739612603498,-0.2263981772882245,0.2771851935109213,-0.030636497321194413,150.34355330448466,13.80313705930838,-9.958321391105617,0.2528822604589187,-0.11320414789284777,-0.0950602000369038,-0.9561246571792362
96.0,0.07479661683713612,0.0732537372147915,0.015530684500393391,2.4682183320220297,1.6498607395751375,9.338064122738002,-0.10053107789142408,-0.7843528717545238,-0.1703825727773407,150.48195810385522,14.584930664830843,-10.016180664830841,0.2514772261211644,-0.11506865854012586,-0.10173246914594804,-0.9555605976510619
97.0,0.07371774193548387,0.0699274193548387,0.013766129032258066,2.5375403225806448,1.6665322580645157,9.31725,-0.11955645161290324,-0.11955645161290318,-0.2932459677419355,150.68941532258066,14.997127016129031,-10.134727822580643,0.24959958019354833,-0.11666919387903223,-0.10521205749193546,-0.9554932134274193
98.0,0.07591404405979543,0.07083772619984265,0.012966758457907158,2.5409516129032257,1.713223249409913,9.307758064516129,0.05744123721479151,-0.23029356805664827,-0.4487300845790716,151.0236747639654,15.017100216365066,-10.426021587332809,0.24674299533025176,-0.11880745446164437,-0.10515298735169157,-0.9559830403880802
99.0,0.09455369787568843,0.07387509834775766,0.010996852871754524,2.683691581431944,1.7169508261211643,9.266110739575137,-0.24627507867820614,-0.4146316876475216,-0.15089496459480722,151.37982518686073,15.884161093627066,-10.489792732100707,0.2435025964439418,-0.12056726058969312,-0.11276727956117229,-0.9556967265188827
100.0,0.08384972462627852,0.06725472069236821,0.013929583005507477,2.7025062942564917,1.7080243902439025,9.263086546026749,-0.15746705350118018,0.24387662273800154,-0.11265858575924469,151.53788970298976,15.99181377852085,-10.44119172895358,0.24214901804386307,-0.12019342372954366,-0.113926598140834,-0.9559752297448858
101.0,0.08394905586152637,0.06862332808811959,0.0145051140833989,2.6653741148701817,1.7030686467348546,9.274873918174663,-0.19450973642800945,0.10769940007867819,-0.13296739771833202,151.65213537568843,15.766647816679779,-10.39919969512195,0.24128575969531865,-0.1193381233849331,-0.11222076394944926,-0.9565149298119591
102.0,0.09408339889850513,0.06898505114083399,0.009768686073957516,2.666904799370575,1.69588512981904,9.276102281667974,-0.11827301337529503,0.03250393391030684,-0.11464398111723052,151.88289732494098,15.77833398898505,-10.352094807238394,0.23936758012588513,-0.11877932181746655,-0.11263270233359557,-0.9570216358898506
103.0,0.09659383889124251,0.072901914503016,0.009455849422017795,2.6811364360790018,1.6812734773749716,9.274949403861278,-0.21576981076882729,0.04170890576771772,-0.12217477153059371,152.09287899191025,15.864594555064658,-10.269004947648732,0.23762741033075108,-0.11803152788648148,-0.11372901898337671,-0.9574153988738325
104.0,0.09951957876898868,0.0700504851822712,0.008578436119348786,2.6287310819262037,1.6718782807803263,9.291469981238272,-0.20169883142689987,0.3887488273921201,-0.16266586727591842,152.19241215527848,15.544792360144445,-10.191121277915633,0.2368799099907099,-0.1167316062658214,-0.11128346901568523,-0.9580485232834934
105.0,0.09812406947890817,0.07223924731182796,0.011376550868486351,2.59340488006617,1.6554096360628612,9.304313275434241,-0.2254019334160463,0.47043656947890816,-0.14386243796526055,152.28248164805623,15.330996691480562,-10.078221929280398,0.23621668626364759,-0.11535641726902399,-0.10976507490674112,-0.9585557111759717
106.0,0.08487655086848633,0.08040591397849461,0.015377791563275435,2.608395988420182,1.6422733664185278,9.302104218362281,-0.09538745864350703,-0.11183312655086852,-0.11777295285359801,152.46818134822166,15.423814877998346,-10.004458746898262,0.23465541713585603,-0.1147208779127378,-0.11089573100578991,-0.9588872654791147
107.0,0.05096964836894026,0.08566351953842119,0.0130172789445016,2.720454386814339,1.6504252355302707,9.267166192580039,-0.31210843722891324,-0.24670137838164985,-0.15630730648187374,152.67819964342635,16.106541954144728,-10.090967325848816,0.2326701141482781,-0.11638859314657346,-0.11675086888487765,-0.958440189488672
108.0,0.05838926042486232,0.07847954366640442,0.016178796223446104,2.721835759244689,1.6381909913453971,9.269389850511407,-0.20792068253343823,0.4889321892210858,-0.08290838906372935,152.78238468725414,16.111185828088118,-10.018623377262,0.23181979141384734,-0.11568831550649095,-0.11704226271262783,-0.9587065651754523
109.0,0.06870180959874114,0.07553894571203776,0.012873918174665617,2.7918487411487014,1.6334171911880404,9.248854838709676,-0.2888006490952006,-0.8556549960660896,-0.2547194630212431,152.9933910306845,16.54336521439811,-10.01277783241542,0.2299404214079465,-0.11615475815125886,-0.1209436305651062,-0.9586099646819433
110.0,0.07602832415420929,0.06612431156569631,0.012916797797010226,2.7406542092840285,1.6232771439811169,9.266564516129034,-0.1977269374508261,0.19293863099921316,-0.17133654602675058,153.1047600314713,16.2306291797797,-9.932548190401258,0.229102212324941,-0.11486456226514555,-0.11851521543174665,-0.9592808735143588
111.0,0.07027222659323368,0.06041699449252558,0.014664044059795434,2.720012588512982,1.6179732494099133,9.274129032258063,-0.2694531864673485,0.7904209284028324,-0.18334972462627852,153.23262195121953,16.099714791502755,-9.895407159716758,0.228071254920535,-0.11417902837450825,-0.11759596952635717,-0.9597277170999212
112.0,0.07688198269079466,0.051978756884343044,0.01864673485444532,2.6453721479150274,1.616929976396538,9.29600550747443,-0.14498918174665618,0.4640883162863887,-0.257125295043273,153.4080399291896,15.644895751376868,-9.862519669551533,0.22673096874114868,-0.11298126024154209,-0.11397474566404403,-0.9606252947151847
113.0,0.06652439024390244,0.05606254917387884,0.016242328874901655,2.62316679779701,1.6309921321793859,9.300652635719906,0.11556599134539734,0.15079415814319433,-0.023502655389457117,153.44406225413059,15.513419551534223,-9.942481313926042,0.2264486126829268,-0.11339863305940204,-0.11274027958890637,-0.9607979406313923
114.0,0.08410483870967742,0.05215322580645162,0.010548387096774192,2.6436290322580644,1.6413387096774188,9.29279838709677,-0.13634072580645162,0.038457661290322576,-0.2759576612903226,153.5579133064516,15.63860887096774,-10.010584677419352,0.2254408308387097,-0.11402765094354837,-0.11378744776612904,-0.9608398436209677
115.0,0.07966935483870968,0.04566935483870968,0.011903225806451614,2.633338709677419,1.6308951612903226,9.297024193548388,-0.2300907258064516,-0.006905241935483875,-0.2768649193548387,153.81461693548385,15.579082661290322,-9.943094758064515,0.22333846543548386,-0.11312649654838709,-0.11363628719354837,-0.9614539851532258
116.0,0.06691935483870967,0.053935483870967756,0.013556451612903227,2.6545887096774186,1.6317500000000003,9.291314516129031,0.0007560483870967666,-0.2772177419354839,-0.10952620967741937,153.97202620967744,15.704788306451611,-9.954435483870967,0.22196817744354835,-0.11328671429032257,-0.11487357821774191,-0.9616062781693548
117.0,0.0944776674937965,0.06184160463192721,0.009595533498759308,2.7770498345740275,1.6350508684863525,9.250415425971877,-0.21409610215053765,0.47563714846980965,-0.06934708436724565,154.22386398883373,16.457719447890817,-10.017836279983456,0.21960785188110002,-0.11472579686186929,-0.12142304215219189,-0.961059876015922
118.0,0.0861985111662531,0.06091273779983457,0.01153970223325062,2.743287014061207,1.61074317617866,9.266623035566585,-0.2765793010752688,-0.3828215467328371,-0.0540787841191067,154.28998138957817,16.246526054590568,-9.85213890612076,0.2191717888558726,-0.11297990481803141,-0.11996341700351532,-0.9615977188103806
119.0,0.0795347394540943,0.07289185277088503,0.01626985111662531,2.704708023159636,1.623774813895781,9.277001033912324,-0.07720094086021503,0.5172585814722911,-0.03147487593052109,154.19247053349875,16.012779156327543,-9.923221670802317,0.22003914961745244,-0.11329406740095121,-0.11774230339288666,-0.9616674145059969
120.0,0.10254962779156328,0.06290157154673286,0.011276054590570721,2.6630475599669143,1.6176253101736968,9.29029487179487,-0.16009744623655914,0.550766387510339,-0.10812655086848635,154.29230381513645,15.758304900744417,-9.873304383788254,0.21926261059904883,-0.11239910513999174,-0.11578293996257236,-0.9622051614909015
121.0,0.09749255583126551,0.055999172870140626,0.015714640198511164,2.6240963606286183,1.6085545905707197,9.30376840363937,-0.06979166666666667,0.23085194375516954,-0.0024503722084367255,154.37994727047146,15.521339950372207,-9.804998966087675,0.2185738660777502,-0.11135136209015717,-0.11398536284822167,-0.9627071509793217
122.0,0.0901532258064516,0.05875806451612904,0.01640322580645161,2.5455725806451603,1.6258629032258063,9.321612903225809,-0.2701108870967742,0.9953629032258065,-0.19173387096774194,154.35372983870968,15.040524193548386,-9.88921370967742,0.21894186706451618,-0.11127801711290322,-0.10969646804032257,-0.9631281699032256
123.0,0.09608870967741934,0.061572580645161294,0.018306451612903226,2.518427419354838,1.6180241935483872,9.33068548387097,-0.10252016129032258,-0.36108870967741946,-0.19455645161290325,154.42802419354837,14.880493951612904,-9.833366935483872,0.21838004845967746,-0.11049287813709677,-0.10850436295161289,-0.9634868498467742
124.0,0.08952989771833203,0.06443154996066092,0.014109756097560976,2.5035110149488586,1.6007322974036193,9.338081825334385,-0.13086521439811172,1.1506441778127459,0.09273947678992918,154.6037322974036,14.781329907553108,-9.718464791502754,0.21692640998977186,-0.10923045212431157,-0.10804858509815105,-0.9640107279763966
125.0,0.09236369000786783,0.08159716758457908,0.011607789142407553,2.495263965381589,1.6092403619197482,9.338874311565696,-0.0575420436664044,0.16651381785995278,-0.21260449449252555,154.59233379228954,14.732249459087333,-9.76685434697089,0.217028055938631,-0.10957841007651456,-0.10756295939516128,-0.9639958820979545
126.0,0.09090991345397326,0.0787728166797797,0.01013906372934697,2.496716168371361,1.6290338316286386,9.335036585365852,-0.12676042486231315,-0.11494762981904011,-0.20314098151062154,154.7412077104642,14.747964201416208,-9.888347020062943,0.21574861143941776,-0.11047127982769475,-0.1075818302714398,-0.9641787857413453
127.0,0.08500334382376082,0.06574527930763178,0.009573564122738,2.520999213217938,1.6393717545239965,9.326881195908733,-0.09775521243115658,-0.171863935877262,-0.10285577301337528,154.9152611132966,14.893488149095202,-9.960680566483084,0.21425794358261213,-0.11112056082513772,-0.10887782626475218,-0.9642973981569629
128.0,0.08525570416994493,0.05648151062155783,0.01491581431943352,2.5334996066089692,1.636435877261998,9.323795436664046,-0.10779897718332022,-0.3963906372934697,-0.16929583005507476,155.06251966955153,14.972374114870181,-9.94445318646735,0.21300988125098347,-0.11097166178756887,-0.10970779754366641,-0.964494624667191
129.0,0.07263965381589299,0.055345397324941,0.014719905586152637,2.5984177812745877,1.6365853658536582,9.30552871754524,-0.23714594807238393,-0.05244394177812747,-0.14250098347757673,155.2727773406766,15.367628835562549,-9.96662077104642,0.2111370867191188,-0.11158386230999214,-0.11325265826829267,-0.9644274232108576
130.0,0.08135051140833988,0.06119984264358774,0.01302084972462628,2.5911569630212434,1.6380094413847364,9.30794925255704,-0.021921715184893775,0.2653004523996853,-0.01870820220298977,155.29889358772618,15.319155684500394,-9.971769276160504,0.21091542407553104,-0.11152662309834777,-0.11286588888631,-0.9645327912789146
131.0,0.08883025177025963,0.06866443745082615,0.01190381589299764,2.6582299370574347,1.6317112509834777,9.28900216365067,-0.1817909126671912,-0.8107506392604248,-0.16845618607395751,155.44333448072382,15.729601445712039,-9.955962332808811,0.2095792224626278,-0.11186292722580646,-0.11657041294433518,-0.9643163216898112
132.0,0.09616915814319435,0.05902576711250987,0.009157553107789141,2.66512706530291,1.6222830448465775,9.288771243115658,-0.23635916601101492,0.5795793174665618,-0.18158192368214005,155.61254425649093,15.770017456726986,-9.898444876081825,0.20815904769099133,-0.11127989070161291,-0.1171390447503934,-0.964632309598938
133.0,0.08682651455546814,0.05919433516915816,0.012768292682926827,2.6512651455546807,1.615774586939418,9.294429976396536,-0.11394571203776553,-0.16497344610542886,-0.07491394571203776,155.7266350314713,15.68513473642801,-9.856102478363493,0.20721414614791503,-0.11067320508064518,-0.11660256113729348,-0.9649803495051141
134.0,0.07778855232100707,0.07219984264358774,0.008990755310778913,2.76495436664044,1.6086111329661685,9.261779110936267,-0.21971872541306053,0.3414757081038552,-0.12373746066089694,155.91153742132178,16.368693450039338,-9.84535552714398,0.2054839495114083,-0.1114053217897325,-0.122666766206727,-0.9644850773497247
135.0,0.08023957513768686,0.06685208497246262,0.010734067663257277,2.7097230527143976,1.574223446105429,9.283981117230526,-0.3552124311565696,0.5396734854445318,-0.012900767112509842,155.95916601101493,16.035102773406763,-9.61628638867034,0.2051948790594021,-0.10896950752006294,-0.12024771902635722,-0.9651452211247049
136.0,0.07766660110149488,0.06703737214791503,0.013322974036191976,2.659147128245476,1.5580456333595598,9.30186231313926,0.0665371754523997,0.27048092053501177,0.01071130015735641,155.9035257671125,15.7296875,-9.503432336742723,0.20580287054701024,-0.1076520558992919,-0.11777474398367428,-0.965478901156373
137.0,0.08917604248623132,0.06097836349331236,0.014169551534225019,2.649380015735641,1.5546679779701025,9.305358575924467,-0.32585439614476785,0.40454489575137687,-0.089982051534225,155.9653213512982,15.671522177419353,-9.476766571597167,0.2052948011646341,-0.10728357136093625,-0.11735531061683713,-0.9656860062354444
138.0,0.070301730920535,0.057666601101494894,0.017399291896144767,2.619488394964594,1.5481404405979546,9.31505428796223,-0.0807447383949646,0.3402008752950433,-0.11633679189614476,156.05410724822974,15.493296370967741,-9.427622197088906,0.20458632514280095,-0.10652530322482295,-0.11596215184067661,-0.966094562315303
139.0,0.07378796223446105,0.06024862313139262,0.019062549173878833,2.5787804878048775,1.553900865460268,9.325285208497245,0.03828186467348543,0.35828088119590873,-0.06671174272226593,156.0709800354052,15.245665322580646,-9.454310090479936,0.20452466248269077,-0.10635494382612118,-0.11382029438001574,-0.9663852735326514
140.0,0.06559780810587262,0.0638023159636063,0.018197477253928864,2.549110835401158,1.577209263854426,9.329744623655913,-0.07171474358974358,0.13756203473945408,-0.143283447063689,156.07626525020677,15.06542467948718,-9.5862063172043,0.20446513173469805,-0.10717894285235731,-0.11207473077874275,-0.9665115425020676
141.0,0.07957712985938792,0.07261889991728701,0.022135028949545076,2.6098457402812243,1.5831772125723742,9.311610215053761,-0.24331704921422664,-0.7053117245657567,-0.22847136062861867,156.27863161703885,15.440046009098428,-9.63975134408602,0.2026999030246071,-0.10796866966811414,-0.11537274172808105,-0.9663929386461951
142.0,0.10211321087776631,0.06991891101293146,0.019389800076660815,2.748534003106781,1.569557430047005,9.272312483608705,-0.14255066170388753,-0.7215902643285117,0.01236370009481734,156.4914917526579,16.280066769301378,-9.599591447023341,0.20069402429308636,-0.10863505886542998,-0.12284631863577537,-0.9657717076445964
143.0,0.08407696342472107,0.0748672053097702,0.021575112469486984,2.8015561439609433,1.5805246827654384,9.255179058484128,-0.16117870418003188,-0.1294031425891182,-0.07578608858359054,156.54494126873652,16.60413215038633,-9.686074367296092,0.20015347503796727,-0.10975869883476064,-0.12548911740590896,-0.9654313939800481
144.0,0.07919151082329678,0.07606322499949564,0.012475105408622327,2.784063477173234,1.5823311848130883,9.261081956464722,-0.20562070043777358,0.1799815030563457,-0.20669836490548527,156.64556760525733,16.49266464423329,-9.685216692892734,0.19932211891473497,-0.10949621474596019,-0.12464963926097965,-0.9657655313857754
145.0,0.11491502753737215,0.061593233674272226,0.01189594807238395,2.725780291109363,1.5322185287175452,9.286583988985047,-0.19086349331235247,0.48527611132966164,0.0290691384736428,156.7295817761605,16.138102380015734,-9.364248131392603,0.19874067541601098,-0.1062318063035012,-0.12219815756431941,-0.9665630004604644
146.0,0.11157041699449252,0.061232100708103865,0.00837136113296617,2.65636191974823,1.5299197482297404,9.307062155782845,-0.02385916601101494,-0.32346577498033047,-0.06364083398898505,156.70977576711252,15.717387883556254,-9.333182533438237,0.19901854822816678,-0.10536598389771834,-0.118674280552321,-0.9670359352100709
147.0,0.10243194335169156,0.07444138473642802,0.006885916601101496,2.8004468922108576,1.5428332022029898,9.260960660896927,-0.3214053894571204,-0.7480773013375295,-0.3211644374508261,157.03984067663256,16.596223446105427,-9.45277832415421,0.19601800084107002,-0.10725153788827693,-0.1263219278103855,-0.9664393557317075
148.0,0.09377065302911092,0.0838170731707317,0.008867820613690007,2.955863099921322,1.538803697875688,9.213436270653029,-0.24426386703383163,-0.5152611132966168,-0.33617722265932337,157.43630999213218,17.54927222659323,-9.47621705350118,0.192452159236428,-0.10831430658379229,-0.13476545001219511,-0.9658841621396541
149.0,0.0772983870967742,0.0631209677419355,0.01675806451612903,2.965677419354839,1.5383145161290321,9.211540322580646,-0.22716733870967742,0.26355846774193536,-0.18780241935483868,157.66048387096774,17.60383064516129,-9.469102822580645,0.19052035308870963,-0.10811752799999999,-0.13545921086290325,-0.9662239328951616
150.0,0.06736290322580644,0.061758064516129044,0.019032258064516125,2.9416935483870965,1.5450645161290317,9.218145161290323,-0.1728326612903226,0.646875,-0.1543850806451613,157.815877016129,17.45423387096774,-9.502066532258063,0.18922571915322578,-0.10803749301612905,-0.13427562081451616,-0.9666702270080647
151.0,0.06517722265932335,0.06135837922895359,0.025918371361132966,2.844784815106216,1.5534018489378438,9.24693784421715,-0.13959849527930762,0.4559684795436664,-0.1957612116443745,157.88276332612116,16.86330399291896,-9.526062155782846,0.1888047951878442,-0.10735441438276949,-0.12921869487844218,-0.9675110161249016
152.0,0.0802895357985838,0.050424665617623925,0.018531274586939418,2.80221833202203,1.539019669551534,9.262117427222655,-0.21823982100708103,0.6400496656176239,-0.01421493902439025,158.03922354445317,16.60475880212431,-9.426899341070023,0.1875756274154209,-0.10597588045102282,-0.12728405204642013,-0.9681685166589299
153.0,0.07774960660896932,0.058038945712037764,0.019277734067663255,2.8088672305271434,1.5482114476789932,9.259054681353264,-0.09190720889063729,-0.2967594413847364,-0.2515379130605822,158.15842225609754,16.647515489771834,-9.485097856018882,0.18656885590932337,-0.1063925944956727,-0.12768798716030683,-0.9682696059907554
154.0,0.07626572555427788,0.05028642901813633,0.014942423692226996,2.8517366549658054,1.5508672002662955,9.245355090883418,-0.14346122954870988,-0.3394363790877363,-0.21845338064112652,158.35791705753593,16.908923041618753,-9.516212596330368,0.18479937471944663,-0.10676852551251792,-0.1300662603420434,-0.9682520805196746
155.0,0.07225786277713894,0.057723859670358486,0.01939056668482318,2.9080981661925804,1.5593408581976638,9.227008190603001,-0.07140299380661301,0.08960640723032542,-0.11875289999798261,158.56550086747762,17.25113490790615,-9.589230290100668,0.1829683772347233,-0.10756467869174283,-0.13310426166698944,-0.968094910255805
156.0,0.07663876616433657,0.05871716193588735,0.017179941092214893,2.9188405858500275,1.5659812080130728,9.222579626379392,-0.17281302326050554,0.01301229094797152,-0.14591264197381426,158.67694299864834,17.312787162843712,-9.63021703332728,0.18196969556386047,-0.10786553340094615,-0.13371904865332163,-0.9681717930279811
157.0,0.07742638544251447,0.05760090984284534,0.013058105872622003,3.022559553349876,1.5608356079404468,9.18917100909843,-0.040335504549214224,0.4837288047973532,-0.11561466087675765,158.96074234904881,17.95024684656741,-9.636312293217536,0.17941749477956986,-0.1083414257830852,-0.13943734107961125,-0.9677579023110008
158.0,0.08614061207609594,0.055985938792390416,0.01601695616211745,2.999400744416873,1.5704057071960298,9.195016956162117,-0.10449234904880067,-0.22421422663358148,-0.06047870140612076,159.06484698097603,17.80665064102564,-9.687636993382961,0.17858093128494623,-0.10846118880686519,-0.13823895193093466,-0.9680741682684038
159.0,0.07485287175452399,0.04581156569630213,0.019915617623918178,2.923062352478363,1.5661957120377656,9.220170928402833,-0.3213193351691581,0.4818597560975608,-0.1610714988198269,159.0556549960661,17.33504991148702,-9.636367771439811,0.17879075383025175,-0.10747460236132966,-0.13426145974645945,-0.9687116802256097
160.0,0.06987804878048781,0.042889653815893006,0.01809087332808812,2.8594223052714396,1.5495615656963022,9.242710464201416,-0.2098028127458694,0.188762539339103,-0.2737313139260425,159.19803919158142,16.949253786388667,-9.509993361526357,0.17768824312883552,-0.1058110199911487,-0.13123420706274586,-0.9695185129474824
161.0,0.07493095987411486,0.044739181746656184,0.01744059795436664,2.836876475216365,1.5294219118804095,9.253548780487801,-0.1892764063729347,0.2912310680566483,-0.16872049567269864,159.39158511998426,16.815932336742723,-9.382945269472856,0.17608245792328875,-0.10433392955605822,-0.13042031955153421,-0.9700881522600315
162.0,0.0845824154209284,0.05643410700236035,0.016704169944925254,2.8439382376081825,1.5268601494885923,9.252846970889063,-0.1031815499606609,-0.22613345790715972,-0.12422919944925255,159.51416453579856,16.860889555468134,-9.368362755704169,0.17501561254228953,-0.10413822838690007,-0.13093653230802513,-0.9702372667348544
163.0,0.0774162077104642,0.05739850511408341,0.01591660110149488,2.8639771833202206,1.520280881195909,9.247544453186467,-0.21913109756097562,0.1529110936270653,-0.21098052714398113,159.69352380015735,16.98311614870181,-9.330426337529506,0.1735073016058222,-0.10378073160070811,-0.1322193402265932,-0.9703752467706529
164.0,0.06929032258064516,0.05547580645161292,0.01919354838709677,2.8793387096774197,1.5134032258064516,9.244467741935486,-0.19057459677419353,0.056451612903225805,-0.1061491935483871,159.87046370967744,17.075050403225806,-9.28563508064516,0.1720117872419355,-0.10333133758870969,-0.13321631632258063,-0.970555311733871
165.0,0.07127419354838709,0.0692741935483871,0.022362903225806453,2.9246854838709684,1.5137661290322584,9.228693548387099,-0.2679435483870968,-1.7833165322580646,-0.3671875,160.0461693548387,17.36502016129032,-9.305846774193549,0.1704450548467742,-0.1036017623951613,-0.13580888264516128,-0.9704049878387094
166.0,0.07189516129032258,0.05955645161290323,0.019427419354838712,2.9127661290322573,1.4974112903225807,9.234233870967744,-0.2513608870967742,1.745766129032258,0.05458669354838708,160.22615927419355,17.285685483870967,-9.203427419354838,0.16895048054032258,-0.10243810764516129,-0.13542888999999997,-0.9708308552661287
167.0,0.06682258064516128,0.06687903225806452,0.02120161290322581,2.9377499999999994,1.5043629032258068,9.224838709677421,-0.059324596774193564,0.3243447580645161,-0.07222782258064517,160.24979838709677,17.439516129032256,-9.252318548387095,0.16871908838709676,-0.10300617766129032,-0.1367010793629032,-0.9706310636532255
168.0,0.07771066089693156,0.06183123524783635,0.017907946498819827,2.8122122344610543,1.499032061369001,9.265762785208498,-0.029065450432730136,0.9261678796223445,0.05273406766325727,160.19734215184894,16.666258113690006,-9.177868066483082,0.16933697461054287,-0.10156178321184106,-0.13013242899645946,-0.9715794086687646
169.0,0.09206097560975612,0.05289948859166011,0.013752360346184107,2.722795633359559,1.5059636113296615,9.29105074744296,0.001974331235247829,0.2671666011014948,-0.10412691778127459,160.22583841463415,16.121712726199842,-9.19697334775767,0.1692114816036585,-0.10103657465027537,-0.1254813964337136,-0.9722826243585756
170.0,0.07194984264358774,0.053260228166797804,0.014985051140833988,2.7312566876475213,1.507001966955153,9.289033438237613,-0.33873057631785997,0.1781397521636507,-0.14609067663257277,160.39689098151064,16.173406766325726,-9.206904012588513,0.16774455742682925,-0.1009856490267506,-0.1260502260515342,-0.9724869109494493
171.0,0.06718863099921323,0.04634382376081826,0.022581235247836354,2.7461081825334386,1.507533241542093,9.28541188040913,-0.1389973446105429,0.11855576317859952,-0.004648160896931555,160.4116763375295,16.259435238001572,-9.213835070810386,0.167626590390834,-0.1011589199972463,-0.12679668725157356,-0.9724031178013374
172.0,0.07232415420928402,0.04894610542879624,0.020601101494885917,2.7504815106215577,1.4954480723839496,9.285923682140048,-0.1957587529504327,0.1904774783634933,-0.11207710464201416,160.50094905586153,16.288210562549175,-9.143157454760033,0.16686033760267505,-0.10048532308733282,-0.12721372530723837,-0.9725561899248625
173.0,0.07370967741935484,0.051169354838709685,0.02,2.7324516129032257,1.496266129032258,9.290951612903225,-0.1324092741935484,0.22111895161290324,-0.12479838709677418,160.603125,16.179082661290323,-9.143195564516128,0.16601734788709674,-0.10025162164516128,-0.12636831999193548,-0.9728353688467742
174.0,0.07783634933123526,0.053824547600314715,0.013741148701809598,2.791315696302124,1.4878566089693155,9.27196125098348,-0.2043199252557042,-2.1099097659323367,-0.02448490361919748,160.51315892997638,16.547964201416207,-9.110580989378441,0.16664916388099915,-0.10048711269944924,-0.1295487879651849,-0.9722045792645555
175.0,0.07897462627852087,0.06332356412273801,0.013314122738001574,2.976516719118804,1.4768920141620767,9.212807238394966,-0.21959947875688435,0.48574572187254117,-0.40334628245476,161.05889801337528,17.67771193941778,-9.100930615656964,0.16179831946872542,-0.10097280312391815,-0.13971020851888277,-0.9714726300959874
176.0,0.10208811959087334,0.05940774980330449,0.013661093627065298,2.89539948859166,1.4627806845003932,9.243427812745868,-0.2033733280881196,0.45307951416207715,-0.007267899291896168,161.28227158733281,17.17963217938631,-8.9888977675059,0.16003483319000783,-0.09925051348937843,-0.1357559189287962,-0.9725752405318646
177.0,0.11418922108575924,0.06705468135326514,0.009882966168371358,2.8529699055861526,1.4647411487018094,9.257516325727773,-0.38812819630212425,0.05524439417781277,-0.7428476593233674,161.64952793076318,16.917941089693155,-8.993163601494885,0.15698845871597167,-0.09858682201081824,-0.13382004658536586,-0.9734469065320612
178.0,0.12511369000786782,0.05280605822187255,0.002113296616837135,2.7760114083398895,1.4485558615263572,9.283979937057435,-0.12138326121164435,0.704287962234461,-0.029467446892210813,161.89392702596382,16.44375,-8.866829760031472,0.15500300587726198,-0.09676256009952791,-0.13011313472580646,-0.974470557519276
179.0,0.11905616917831707,0.05064297746575482,0.006095987411487017,2.6917514928685264,1.444948309427263,9.30912799834574,-0.24414739428876917,2.592113770703464,0.5938037445278299,161.8202928619702,15.93064900693982,-8.820424654269807,0.15572147246807477,-0.09590235724438156,-0.12568569378314576,-0.9750179719731382
180.0,0.10831437491173918,0.049962617765135484,0.015354445318646735,2.5802507464342628,1.4439701224555672,9.338600289495451,0.018223681887873447,-0.7875620662611715,0.2882577190381085,161.13801941485605,15.264870874437653,-8.787707286812322,0.16166136594371477,-0.09554001928751338,-0.11942620204076643,-0.974782196583343
181.0,0.09062089713328896,0.05402969597934194,0.014411093627065302,2.5926294054751957,1.446331835421332,9.337521918941277,-0.13153836066896651,0.3253469910629627,0.028302246615828433,160.94365688484737,15.330469711412373,-8.800506869212612,0.1633161034073413,-0.09600053134133733,-0.11979948050828643,-0.9744791854731231
182.0,0.08574996469567672,0.06078904153805807,0.019358772619984265,2.573588896285985,1.444016724162279,9.343857733664187,-0.04459982549577357,0.13646381811212654,-0.061025287982408354,160.94324981339142,15.2168981621578,-8.779285692670822,0.16333446103431581,-0.09573074258599126,-0.1188506686291432,-0.9746577125309164
183.0,0.10896939619520263,0.06228122415219191,0.01143548387096774,2.6800281224152194,1.4531956162117448,9.310799834574029,-0.14550506617038877,-0.6135442514474773,-0.2483922663358147,161.22657671629446,15.862117452440033,-8.863787220843673,0.16078952410173697,-0.09685684059511993,-0.12458315875516957,-0.9742180437564101
184.0,0.11022580645161288,0.06919354838709678,0.008911290322580645,2.754870967741936,1.4446209677419355,9.291080645161294,-0.06849798387096775,-0.1334677419354839,-0.20534274193548388,161.5462701612903,16.315524193548384,-8.829737903225805,0.15797015779032259,-0.09671620994354839,-0.12878093082258069,-0.9741671653951611
185.0,0.1064516129032258,0.06811290322580646,0.009225806451612903,2.7648870967741934,1.433217741935484,9.290548387096775,-0.20141129032258065,-0.09909274193548387,-0.22701612903225804,161.7789314516129,16.379082661290322,-8.763810483870968,0.1559934555564516,-0.09598501891935485,-0.1295935849354839,-0.9744762296290321
186.0,0.09633575924468922,0.07252301337529504,0.008549370574350906,2.7911487018095977,1.427907553107789,9.283765735641227,-0.20872959284028325,0.3416195416994493,-0.1848249409913454,161.9855920535012,16.538528963414635,-8.736964004720692,0.15420866253127458,-0.09570447307592445,-0.1311552416233281,-0.9745900162614082
187.0,0.08649508261211644,0.06752124311565695,0.010185877261998426,2.7496803697875682,1.4166671911880409,9.297784618410702,-0.045734166011014946,0.18123401848937845,-0.1428390538945712,162.1108231707317,16.282948957513767,-8.6598310877262,0.15319001413394964,-0.09463229052832414,-0.12917858751101496,-0.9751226378745083
188.0,0.08730802517702596,0.07093804091266717,0.014717938630999211,2.744134539732494,1.4206319826907947,9.299106018882767,-0.3481190991345397,0.4007732592446892,-0.1883298092053501,162.24850634343036,16.24807730133753,-8.676815745476002,0.15203229457907158,-0.0945960688690008,-0.12894685403776554,-0.9753424495985445
189.0,0.08869433516915814,0.06122305271439812,0.014350904799370574,2.664986624704957,1.3986345397324942,9.325919944925257,-0.0957833398898505,0.5630126376868607,-0.11238567073170731,162.37488321203776,15.763101150668765,-8.51832218725413,0.15105038133792292,-0.09264046161191974,-0.1250706065914634,-0.9761802745694336
190.0,0.07855829248118786,0.06513861486009402,0.014425245617220441,2.6472848756279124,1.3992190481954443,9.330818636647905,-0.15115495571829166,-0.08439460650809982,-0.1755289344146543,162.49902207024553,15.661875869999395,-8.518342235066271,0.15000590746486717,-0.09239709615697309,-0.12432699581010309,-0.9764656586162925
191.0,0.08060408723193932,0.06062831608464969,0.016502158607194013,2.642562186043696,1.4038770299985877,9.33200963303678,-0.32609380358691925,0.25132157951542294,-0.23542870796263793,162.61244868264438,15.633219602977668,-8.544438623434,0.14907557995902682,-0.09247503363710181,-0.12408524398058261,-0.9766333263183744
192.0,0.09235318444995864,0.05394830438378827,0.014118899917287013,2.5055446650124065,1.390606492969396,9.370376964433419,0.09398004549214226,0.775365746484698,0.09524788047973531,162.49902036807276,14.801287220843673,-8.432083591811413,0.15019346905583125,-0.09072909115529362,-0.11698338198242349,-0.9774658847673698
193.0,0.07931368899917288,0.07132899090157156,0.018111869313482215,2.6469013647642683,1.4066298593879232,9.327708643507032,-0.11853417080231597,-0.5512032154673283,-0.12835892266335816,162.7114557485525,15.659968207196028,-8.57246820719603,0.14819989544727047,-0.09254218621071134,-0.12443483714040526,-0.9766539619119108
194.0,0.06993507030603807,0.06798304383788256,0.01618899917287014,2.658269230769231,1.4022423490488003,9.326721257237386,-0.16655035153019024,-0.020233664185277056,-0.14742038875103392,162.89151416459885,15.726380272952852,-8.547952853598016,0.14664461181637717,-0.09222704602067826,-0.12516130151778326,-0.9768567033995037
195.0,0.08326612903225808,0.07481451612903225,0.015862903225806455,2.7162016129032267,1.4107903225806444,9.309064516129032,-0.10730846774193549,-0.6953629032258064,-0.14808467741935483,163.05539314516128,16.076310483870966,-8.616330645161291,0.14518294819354838,-0.09298277827419354,-0.12825602885483867,-0.9766122632903225
196.0,0.0739758064516129,0.06939516129032258,0.01886290322580645,2.764887096774194,1.391572580645161,9.297701612903227,-0.41829637096774197,0.13709677419354838,-0.18709677419354837,163.2711189516129,16.372227822580644,-8.510987903225807,0.14330798699193548,-0.09213753956451612,-0.1310936223145161,-0.9765987767258064
197.0,0.08404012588512981,0.0659022423288749,0.015662077104642014,2.7446705350118017,1.3665540912667198,9.307467741935483,-0.18891374901652244,0.1638928501180173,-0.10801903029110936,163.3894669551534,16.247740460267504,-8.351696498819827,0.1423482697637687,-0.09057422106785996,-0.13029204979071596,-0.9770019283131393
198.0,0.0875200629425649,0.06714063729346971,0.014185877261998426,2.7913876868607397,1.3470391424075534,9.296354838709675,-0.33089840676632576,0.12390711054287963,-0.08548632966168371,163.55189073564122,16.534202891424076,-8.242582120377655,0.14090507826494886,-0.08975173852183321,-0.13299898044374509,-0.9769223737694727
199.0,0.07696164437450825,0.06363080251770259,0.017959874114870183,2.7449317466561762,1.3351123131392604,9.311556451612905,-0.10733428402832415,0.6407085955940204,-0.003831874508261217,163.60492722265934,16.252938139260422,-8.157278963414633,0.14055104720908732,-0.08872140861978756,-0.13067507728638866,-0.9773818533444136
200.0,0.07319784038411103,0.059090525328330215,0.019449540035102585,2.7328545209707675,1.3233165990841051,9.317144127378,-0.13386901339546894,-0.11279293131796081,-0.14670049577356817,163.68137179991527,16.181225066321694,-8.082565117563396,0.1398972381912889,-0.0879240807727763,-0.1302235429761141,-0.9776124641156521
201.0,0.07851424277270068,0.05948477879319736,0.018406221630454522,2.7593264540337707,1.3071179769614076,9.311737386269641,-0.40529136153644413,0.2531549456313421,-0.16886436079000988,163.8945165451189,16.339226444451167,-7.987073889426859,0.13807414112790253,-0.08703275307590427,-0.13184200006870223,-0.9777304675699228
202.0,0.07696050454921423,0.051710918114143925,0.020228287841191066,2.727894540942928,1.2787415219189413,9.324900951199334,-0.22127274607113315,0.03102770885028948,-0.19789598842018197,164.07350728908187,16.154969241108354,-7.80407490694789,0.1365734451980976,-0.08511319890301902,-0.13056647917597186,-0.9782838852892888
203.0,0.08566976840363937,0.04925868486352358,0.01700124069478908,2.690455334987593,1.2659110835401157,9.337591604631928,-0.24097911497105046,0.2675299834574028,-0.14536936517783292,164.18370424937964,15.927308209263854,-7.713302574441687,0.13567615567162944,-0.0840473138910256,-0.12875684874524398,-0.9787430539551281
204.0,0.09079859387923904,0.04739950372208438,0.016024813895781642,2.6560421836228283,1.2573829611248963,9.348944995864354,-0.24075165425971878,0.42267628205128205,-0.06172198097601324,164.2839640198511,15.717434346567412,-7.648007133995037,0.13485746028742762,-0.08321286314309344,-0.12709896311455748,-0.9791454311832093
205.0,0.08129838709677419,0.06306451612903227,0.018516129032258064,2.6972741935483873,1.2445161290322582,9.338056451612907,0.26925403225806455,-1.1131552419354838,-0.03432459677419355,164.2969758064516,15.967288306451614,-7.585635080645162,0.13470075004032256,-0.08287363329032257,-0.12937169252419356,-0.9788814917338708
206.0,0.08613571990558616,0.08620574350904803,0.011619394177812745,2.8597596380802517,1.2999317466561768,9.27965932336743,-0.08653619197482296,0.365602871754524,-0.36732764555468134,164.553842938631,16.959032012195124,-7.969756835169158,0.1323200390609756,-0.08664782808890636,-0.1376808512714398,-0.9776757650436665
207.0,0.08816778127458694,0.07952124311565699,0.015403815892997637,2.782320023603462,1.3378560188827697,9.299169748229744,0.18309279110936272,0.06844389260424862,-0.2627225118017309,164.77206186073957,16.487025472069238,-8.181888031077891,0.13053032144826907,-0.08778077344315499,-0.1335702952800944,-0.9784177615080644
208.0,0.07416089693154995,0.08305428796223448,0.010879032258064516,2.7658693941778125,1.3584183713611329,9.301702006294256,-0.25190179976396543,0.2214557926829268,-0.3973802616050354,165.08733895554684,16.383910306845003,-8.302902488198269,0.1278477636996459,-0.08835359273387097,-0.13279374846538156,-0.978845605170338
209.0,0.06122560975609756,0.07975295043273015,0.015000000000000001,2.724483084185681,1.3748987018095986,9.312153422501964,0.09952793076317859,0.4745131785995279,0.011415715971675844,165.34107371164436,16.128699105035405,-8.38937967151849,0.12573622699901651,-0.08860125902419355,-0.1306894621036585,-0.9793917478512979
210.0,0.07964909520062942,0.07861841070023604,0.009870967741935483,2.7167899291896145,1.3954130605822186,9.311576711250982,-0.25830055074744296,-0.051553894571203795,-0.0964594807238395,165.42308221872543,16.085090479937058,-8.516640440597953,0.12500460985837922,-0.08950493974193549,-0.13025785976553894,-0.9794714516191974
211.0,0.06152399685287175,0.08427380015735642,0.01706372934697089,2.7410818253343825,1.3763021243115654,9.307267505900864,-0.033777537372147906,-0.46875983477576716,0.11229838709677417,165.50685483870967,16.236831235247838,-8.406259834775767,0.12428011136506686,-0.08860524502832415,-0.13173079494964593,-0.9794530548654602
212.0,0.06947167584579071,0.08906451612903227,0.014263571990558617,2.7218509047993704,1.3726160503540519,9.312890243902437,-0.05777684893784422,0.4396218528717545,-0.24968774586939418,165.6119541699449,16.114260424862312,-8.378115165224234,0.12339241239378441,-0.08814740238434304,-0.13079374193587723,-0.9797294153792289
213.0,0.09162861076767448,0.0823566183357686,0.01194108500992844,2.6419713105541187,1.367293001386235,9.336462168895883,-0.2668689235135439,1.2797655928028173,-0.2232431460979356,165.87839264639769,15.63044963658162,-8.325472947341801,0.12118542657454759,-0.08702039477296655,-0.12684404948616573,-0.9806119667303026
214.0,0.1011566539282904,0.08074734929376942,0.008055908358622757,2.620934022704282,1.3622039357835978,9.343654471544713,-0.20016034196920313,-0.32772575493612066,-0.22598833642426286,166.09977608323032,15.502729735678694,-8.287682997077667,0.1192993395389457,-0.08635679334724253,-0.12599558925321266,-0.9810132231723897
215.0,0.09855816567382264,0.08028496496946536,0.011298115469633958,2.681854108126335,1.362226967891799,9.32654497770784,-0.09244408227492414,-0.08659473230677002,-0.25495485369600235,166.39961082387322,15.871576561387734,-8.304174159829156,0.11669447986624706,-0.0864419857663632,-0.12939461863467083,-0.980877552824098
216.0,0.07990064066539282,0.07456026375931962,0.017100670638042787,2.7251206024502643,1.3695949945674575,9.313390506163124,-0.24331094751039678,0.05382104454685103,-0.21318749765838674,166.6277410925031,16.13331975197632,-8.362870911543215,0.11470204131392603,-0.0868652595275561,-0.1317848143488067,-0.9807635279384062
217.0,0.08785669326739351,0.07074512007792891,0.017651830204937994,2.713678318534338,1.3584583942152784,9.318396275898241,-0.25204984826345955,0.19063986924431456,-0.125181475029036,166.85107058559066,16.058718294556215,-8.292715943576486,0.11281503131864673,-0.0859670025647222,-0.13139911124993442,-0.9811209828724288
218.0,0.0807002360346184,0.0773733280881196,0.016672305271439813,2.7315511408339894,1.3651262785208498,9.312128245476005,-0.085183910306845,0.021683221872541313,-0.11086742722265933,166.97278471675844,16.171592250196696,-8.33786142800944,0.11174330051416208,-0.08629332143981118,-0.1323943493292683,-0.9810858012564909
219.0,0.08040204563335954,0.0699282061369001,0.016390440597954366,2.71670397324941,1.3849171911880411,9.313386703383163,0.00847020062942564,0.1439405487804878,-0.14883949645948072,167.10417855035405,16.081114771833203,-8.455929140440597,0.11062309072993706,-0.08707315852871753,-0.13161335376298194,-0.9812502665889064
220.0,0.0851042486231314,0.06387136113296618,0.014804091266719121,2.705614083398899,1.389430369787569,9.315314319433517,-0.18442417387883556,0.0553624114870181,-0.11827055468135327,167.23659028324155,16.014196498819828,-8.479098642800944,0.10948219057867821,-0.08707834594177813,-0.13110110248229745,-0.9814463810444529
221.0,0.09809500393391027,0.06732120377655389,0.010305271439811173,2.735312942564909,1.3957261998426436,9.305764948859167,-0.06410921518489378,0.2044367132179386,-0.07863272029897718,167.31953924075532,16.195040814319434,-8.527068990952007,0.10874995755920533,-0.08750086035877261,-0.1326903995338316,-0.9812764760926435
222.0,0.08603206136900077,0.06328383162863886,0.012667191188040912,2.74430782848151,1.4049960660896927,9.30162627852085,-0.08616861723052713,-1.3134662667191188,-0.2335562549173879,167.47397841266718,16.253555271439808,-8.581674124704957,0.10741643885346183,-0.08782443627989772,-0.13325051323367426,-0.9813088683965379
223.0,0.07677812745869395,0.07261369000786781,0.0152448859166011,2.881706333595594,1.408506097560975,9.257724429583003,-0.18282725216365064,0.12436565696302115,-0.23129425649095203,167.8182140047207,17.094519571203776,-8.64116468332022,0.10434140943882769,-0.08841939873269081,-0.1407240769071597,-0.9804972739724626
224.0,0.06637293469708891,0.06754878048780488,0.016400668764752165,2.9054539732494096,1.4131038552321002,9.250608182533437,-0.045370279307631774,0.388795731707317,-0.05939712824547601,167.96626426042485,17.23319728560189,-8.676807140047206,0.10307023507828482,-0.08865754260424862,-0.14202449821164437,-0.9804528143330054
225.0,0.06321872541306059,0.058766325727773426,0.0149543666404406,2.8904044059795435,1.4155680566483078,9.255675059008652,-0.1304976396538159,0.24081923682140044,-0.19915420928402833,168.1210857592447,17.14149783634933,-8.688453973249409,0.10179601824075532,-0.08852595210857593,-0.1413469484122738,-0.9807100915656961
226.0,0.056294649881982683,0.058693941778127465,0.014729740361919747,2.874151848937844,1.4152482297403615,9.260735247836347,-0.10545338316286389,0.2777070220298977,-0.1900177025963808,168.27773406766323,17.042095298977184,-8.683418568056648,0.10044010572462628,-0.08821516008339891,-0.14061663680487807,-0.9809912731990558
227.0,0.05249193548387096,0.0567741935483871,0.018475806451612904,2.876306451612903,1.4196854838709672,9.259879032258059,-0.3170362903225806,0.2296875,-0.24536290322580642,168.4564516129032,17.052469758064518,-8.712298387096773,0.09893562538709677,-0.08822981241935485,-0.1408369003387097,-0.9811159691935483
228.0,0.05870161290322579,0.05609677419354841,0.013983870967741938,2.8708870967741937,1.403346774193548,9.263862903225805,-0.10095766129032258,-0.15630040322580646,-0.1811491935483871,168.63341733870965,17.024092741935483,-8.611139112903226,0.09740275716935486,-0.08715022840322581,-0.14079127169354838,-0.9813705444112903
229.0,0.05889968528717544,0.06833064516129034,0.01627694728560189,2.8916347364280086,1.3995068843430363,9.258132966168374,-0.16447556058221874,0.2663810483870968,-0.10639998033044847,168.76614870180958,17.14994836742722,-8.592343627065304,0.09627312097659324,-0.08690239359441385,-0.14195103096990558,-0.9813350193621165
230.0,0.06535031471282454,0.053118804091266736,0.016480920535011802,2.8249284028324153,1.3758088119590877,9.282063139260428,-0.29662298387096775,0.24898455940204567,-0.08168887686860739,168.8432939122738,16.745060483870965,-8.428176632572779,0.09562054228029108,-0.08522463292387883,-0.13862620104130605,-0.982014528304288
231.0,0.07623564122738,0.05038198269079466,0.012526750590086549,2.809383556254917,1.3378640833988982,9.292471085759246,-0.6035282258064516,0.3073047797010228,-0.03799665617623918,168.9450088512982,16.64954637096774,-8.183846380802517,0.09480965466837135,-0.08302288076435876,-0.13805185319807234,-0.9823667780755311
232.0,0.07099685287175451,0.0643038945712038,0.016618214004720695,2.864909520062942,1.3328070416994493,9.275844413847368,0.0976814516129032,-0.7034544649881982,-0.0834640538945712,169.01197015145556,16.98865927419355,-8.171963512981904,0.09418923423741148,-0.08300028456766326,-0.1410583130788749,-0.981991199602282
233.0,0.08232100708103857,0.07834146341463415,0.012151848937844219,2.9665515342250184,1.36273013375295,9.239176239181747,0.04959677419354839,-0.5569187647521636,-0.10672698662470495,169.13519374508263,17.6125,-8.384923288749016,0.093078848638867,-0.0849598807757671,-0.14636243419669553,-0.9811445502446894
234.0,0.09195043273013376,0.0827836349331235,0.014164044059795435,3.005458300550747,1.3859402045633356,9.223262391817467,-0.10958890637293471,-0.8774513178599528,-0.2851789929189614,169.31076662077106,17.84854937057435,-8.545239968528719,0.0915188245381589,-0.0861778856671912,-0.1484971884579072,-0.9808685015165226
235.0,0.09875806451612903,0.09199999999999998,0.004750000000000002,3.1461854838709673,1.3846774193548383,9.174459677419357,-0.2568548387096774,0.7479334677419354,-0.34395161290322585,169.77394153225805,18.711189516129032,-8.579435483870967,0.08742031022580646,-0.08620172324193548,-0.1562529038064516,-0.9799980409919355
236.0,0.09582828481510622,0.0681369000786782,0.008528127458693944,2.922807238394965,1.383194925255704,9.246768882769477,-0.09528053697875688,1.5939012096774192,0.06720594020456333,169.75475634343036,17.338603953579856,-8.507474429583006,0.08773787626770259,-0.08498298899331233,-0.14442483225649091,-0.9818382424254525
237.0,0.09370043273013376,0.07333457907159716,0.010768095987411486,2.8832261998426434,1.3763273013375292,9.26023524783635,-0.21389530881195912,0.42127016129032263,-0.07229420731707317,169.81747393784423,17.100451170338317,-8.449251327694729,0.08722993684756097,-0.08434054453697876,-0.14248051796695516,-0.982233030426436
238.0,0.09749651495894612,0.0664279388327382,0.013993539308842222,2.7921267475640015,1.3734624513304685,9.289863074703948,0.04103298558574914,0.6598027812241521,-0.10022575853860274,169.84649286222236,16.542889331033507,-8.406917976709234,0.08703688516395833,-0.08368255100794347,-0.13768382692082248,-0.9830242292514728
239.0,0.07745390264076338,0.05632687264217556,0.014605640622163046,2.656317406040065,1.3676223546974924,9.33150008573907,0.032084033115455206,0.7514991728701406,0.02488712073069864,169.8399046972402,15.714841842936108,-8.333272496419134,0.08719298535214046,-0.08269432055639107,-0.13058340376283062,-0.9840721505571879
240.0,0.08097537775625896,0.06181046621880612,0.014542788839799068,2.5916636204079158,1.390513577034033,9.347299511791643,0.15238827442554823,-0.22714429633440258,0.15173533357542013,169.5902875915391,15.326968152978676,-8.455885608949142,0.08938670932565718,-0.08380850673167706,-0.12694488121097863,-0.9842818532188966
241.0,0.08531538360668967,0.06335055175613793,0.015332763420686315,2.6198569872299218,1.395591170893098,9.338705617422177,-0.14697659449454298,0.07312140021989547,-0.10499385956948898,169.65137904360589,15.49276220394803,-8.49535035758236,0.08883375403576328,-0.08415416666796283,-0.12839829220029658,-0.9841243789336025
242.0,0.09293591760979643,0.06692527587806896,0.012613962355504448,2.596154300066574,1.4029528435110645,9.344945550646575,-0.14931995047307794,0.25478146623898,-0.12734572010732512,169.75545262664167,15.34837202939337,-8.535830420726665,0.08794515635255908,-0.08430413267672332,-0.12720209567272894,-0.9843563537208335
243.0,0.09841762204488405,0.06959875988160805,0.007631570566857742,2.6326405436289386,1.4077153441234866,9.334013600089914,-0.16069994333295867,0.30787859203476825,-0.19985388333146004,169.9560894824098,15.571156651586676,-8.573746475872017,0.08621976760555992,-0.08451630669284588,-0.1292482488531434,-0.9842256951281705
244.0,0.08602676932299277,0.06588218875276312,0.012759432018283317,2.6610225731519987,1.422829642950807,9.323966674159827,-0.23635963433367052,-0.16629329642950808,-0.3797779448128582,170.33103574238507,15.742138735903488,-8.6719200760556,0.08295343812496722,-0.08497957961324039,-0.1309521493497621,-0.9842383535090106
245.0,0.08809206286763327,0.0651991588925106,0.014841557079165263,2.696648186654677,1.4365171031433817,9.310830701360011,-0.06558835375220112,-0.19607446096062345,-0.24833212740249522,170.65880563673147,15.96142637031209,-8.760133916863362,0.08014100216633883,-0.08547352277672247,-0.13304516193294558,-0.9841499342289348
246.0,0.07532858454160578,0.05674031508748269,0.014589936682776965,2.683398935970926,1.4464568206511559,9.312866275148926,-0.15251044359521937,0.3119260120452587,-0.22181616696639317,170.8163373187591,15.880627130868081,-8.818390620902175,0.07877328759211906,-0.08575677314996627,-0.13242576008891574,-0.9843229953170637
247.0,0.08546671162564161,0.05071289947922522,0.013585290922033644,2.679425274437076,1.4487606683900942,9.313775879509945,-0.05034796373309356,0.2721172398935971,-0.08830223670900304,170.96366261099246,15.855535339627588,-8.834674141096249,0.07751286992105952,-0.08571394214353152,-0.13228838342752236,-0.9844489433561123
248.0,0.0773170731707317,0.05477734067663259,0.012807238394964596,2.672898505114084,1.4601998426435876,9.3145192761605,-0.11859756097560975,0.3251475216365067,-0.0011211644374508334,170.9633261211644,15.81644374508261,-8.902753737214791,0.07752041108418568,-0.0862594827238395,-0.13190362868764752,-0.9844505478332022
249.0,0.07683320220298975,0.060845003933910326,0.013213217938631,2.6919874114870184,1.455848151062156,9.309459480723834,-0.09394669551534225,-0.42378048780487804,-0.11688139260424862,170.98201219512194,15.936703383162861,-8.882754720692368,0.07735887723918175,-0.08610983893233673,-0.13296805120849725,-0.9843277764767899
250.0,0.07653488067138733,0.06120797272488855,0.015428871155071,2.7256724364017835,1.4583468772245327,9.298838990671012,-0.15857463658161927,0.11938012813307855,-0.16350303004758157,171.1640817597692,16.139570454460305,-8.904020432917463,0.07575259793490316,-0.08616095245313027,-0.13484197779037876,-0.9841935491628637
251.0,0.06870391705069123,0.056606758832565295,0.01768202764976959,2.744664362519202,1.4545902457757294,9.29388748079877,-0.2750216013824885,-0.13460061443932408,-0.26747071812596,171.3595958141321,16.25510752688172,-8.885817492319509,0.07405198616013825,-0.08582409764708143,-0.1360172953709677,-0.9841925876620581
252.0,0.06730012925705292,0.060299642201491144,0.021731454422839164,2.8468984676482707,1.441221263721853,9.264337229777826,-0.29166414943239294,-1.0034676951032182,-0.3696132357348919,171.74826884530364,16.8780209152898,-8.833731056348583,0.0706718543559346,-0.0851066224764715,-0.14175764661290322,-0.9836659199578976
253.0,0.07720622119815668,0.06733737027462441,0.01608927166460605,2.9169950638792104,1.4353471582181254,9.243775420553746,-0.08933190260762056,-0.05149904228016933,-0.03574092156532166,171.91959567363529,17.30490222593758,-8.817599448315912,0.06915212138026863,-0.08490445556337342,-0.14557414373229738,-0.9832433771531227
254.0,0.07621198156682026,0.061108201266344475,0.018016410025851415,2.9176225319396054,1.420721966205837,9.24677883930913,-0.3450439754973586,0.20658414821475404,-0.18977066239556406,172.04301356262408,17.308071072646214,-8.725583998351503,0.06811566604900528,-0.08399467487846088,-0.14572295116050354,-0.9833834681572066
255.0,0.06938556067588324,0.06039818665467762,0.020078865535199136,2.907741373496684,1.4025468509984638,9.252670525645346,-0.11344460679629835,0.4196803229553033,-0.037516859615600764,172.108065921097,17.249417640777793,-8.615652982278672,0.06760918642849649,-0.08296220777333184,-0.14527774298808588,-0.9835795380463452
256.0,0.07461290322580644,0.054394177812745886,0.018236821400472072,2.890633359559401,1.399290322580645,9.258564909520057,-0.1601593233674272,0.3251819433516916,-0.13220889063729346,172.25103756884343,17.141601101494885,-8.593027143981118,0.06637987693391031,-0.082539964465775,-0.14446802078206133,-0.9838202086829269
257.0,0.0651317859952793,0.05327104642014164,0.017096380802517706,2.8393088119590875,1.3975074744295828,9.274357985837922,-0.18093036978756882,0.3409200432730134,-0.13375295043273014,172.36739525963807,16.82486231313926,-8.56694040125885,0.06537941877852084,-0.0820988904169945,-0.14183549152006295,-0.9843058262077106
258.0,0.09078225806451612,0.06260483870967742,0.013669354838709678,2.78066935483871,1.38741935483871,9.293532258064515,-0.04939516129032258,0.24652217741935484,-0.05866935483870967,172.45378024193548,16.466129032258063,-8.490625,0.06466379415322579,-0.08123734967741937,-0.138840755516129,-0.9848505824516129
259.0,0.09314673485444533,0.07283457907159716,0.010796223446105431,2.7699012588512977,1.3939663650668757,9.295911880409125,-0.09788429386309991,0.35655119000786784,-0.16467471479150275,172.57334284028323,16.402951662077104,-8.526875983477577,0.06362429389791502,-0.08139842484913457,-0.13836035788296616,-0.9849757756862706
260.0,0.09471852871754524,0.06616325727773407,0.010720692368214005,2.7646038552321004,1.3990033438237597,9.29641561762392,-0.06439073564122737,0.15113345790715974,-0.17192909126671913,172.7576895653029,16.374636113296617,-8.551845249803304,0.0620691683239575,-0.08138906175118017,-0.13822949709874113,-0.9850936510003935
261.0,0.09072619984264357,0.0633961447678993,0.011029701022816678,2.7766567663257273,1.3943766719118802,9.29412313139261,-0.16263891620771048,-0.04398972265932337,-0.14594438434303697,172.96485788749015,16.448406766325725,-8.524637342643587,0.0603038950611723,-0.08095100689575135,-0.13901860788808026,-0.9851267968872937
262.0,0.08627955980552363,0.06380415178841616,0.013722563497347134,2.801150033286934,1.399225866973309,9.285865742702093,-0.18223640909641106,-0.05395244507655994,-0.12852753232867314,173.08854841231414,16.604285062236478,-8.567782251760171,0.05921415814876232,-0.08115488689059694,-0.1404288413184198,-0.9849768151033862
263.0,0.09972848958018116,0.06067626944259518,0.010954023684157438,2.8149943714821757,1.4065322883253644,9.280384484254268,-0.05777647067723778,0.04036248713913938,-0.19773150809982043,173.22693549647965,16.687525595634366,-8.612494956525246,0.05799337281631664,-0.08136947815497589,-0.1412353716390486,-0.9849174645315317
264.0,0.09629618814178215,0.056707135508079654,0.011385745122959916,2.842571930036918,1.4222629970344365,9.269724106800616,-0.17186128805301698,0.024483957967681415,-0.2061877446085255,173.40194630842865,16.85551535485888,-8.714906998325565,0.056473407529322756,-0.082063670214388,-0.14276392965115292,-0.9847282767032166
265.0,0.08941274788678408,0.052319146038854944,0.014453297423793096,2.8692074835078376,1.4290766204684373,9.260257116342876,-0.10989246050959267,-0.13278346849845668,-0.24196766754423127,173.54534581845508,17.018927278137546,-8.762813451955859,0.055209514139366325,-0.08231655593292178,-0.1442644022583066,-0.9845573050466319
266.0,0.09337572878210171,0.05822005689039522,0.014008906776412679,2.886486806270048,1.4334092779761543,9.254080171074662,-0.1588272786418931,-0.16679496005567995,-0.20528322893340595,173.6928846027759,17.120955574552646,-8.795116403397284,0.053949695751134785,-0.08242906933742865,-0.14525500124205654,-0.9844721572087998
267.0,0.10240696302124311,0.05023603461841072,0.011649291896144769,2.8468747049567265,1.4225592053501177,9.26795436664044,-0.25554312549173874,1.3533327596380804,0.010104002753737212,173.78084308615263,16.87405709087333,-8.715824154209283,0.05322500417859953,-0.08161000318371363,-0.14320744738493313,-0.9848704244480723
268.0,0.08447364280094413,0.04805350118017311,0.01265932336742722,2.716828481510621,1.4065578284815103,9.308622344610544,-0.22966168371361131,0.651086742722266,-0.09320908733280882,173.66882376081827,16.084583988985052,-8.582105625491739,0.054235537524783634,-0.08044465271282454,-0.13631964468843427,-0.9858637438772619
269.0,0.09699606608969313,0.051419354838709685,0.010011801730920533,2.6453363493312345,1.3906848937844214,9.332049173878836,-0.1756048387096774,0.44775521243115657,-0.0785970692368214,173.72636703383162,15.648694433516916,-8.471545535011801,0.05379176478756885,-0.07935480315892997,-0.13261754799252556,-0.9864915302604249
270.0,0.09159795436664042,0.05942328874901651,0.009006687647521636,2.5936673878835563,1.3843314319433517,9.347511605035407,-0.13424714791502754,0.03487780291109363,-0.07735911683713612,173.8638719512195,15.341484313532652,-8.422658094020456,0.05262774739771833,-0.07872643161880408,-0.1300719281386703,-0.9869532374944924
271.0,0.10390401258851298,0.06833320220298976,0.010957513768686075,2.640456726986625,1.3904480723839492,9.333512195121953,-0.1636678796223446,-0.48285060975609756,-0.2735911683713611,174.0245525177026,15.623037962234461,-8.470375196695514,0.051207348509048,-0.07901317661250984,-0.1326417190715971,-0.9866654704409912
272.0,0.10732179386309992,0.07350570416994491,0.010108969315499608,2.721990755310779,1.3878636900078676,9.310756884343037,-0.06127925845790716,0.15666183123524785,-0.17645431746656176,174.3011236231314,16.117626376868607,-8.475131540125885,0.048833025749409925,-0.07879932705133753,-0.13710156808811957,-0.9861883322307238
273.0,0.08542014162077104,0.07339476789929189,0.013396931549960663,2.7135822187254126,1.3986048387096774,9.311544059795438,-0.13842569826907947,-0.2828579858379229,-0.22507376081825334,174.48118730330447,16.067087922895357,-8.537863886703384,0.04722637266070023,-0.0791077850479937,-0.13676633554209283,-0.9862937247645556
274.0,0.09088749016522424,0.0627820613690008,0.009932336742722267,2.817452399685287,1.4014838709677417,9.279892997639656,-0.2534618410700236,-0.5734854445318647,-0.16142800944138475,174.73532651455548,16.6993705743509,-8.580625491738788,0.04501664088276948,-0.07922066510464201,-0.1424279432226593,-0.9855780600314714
275.0,0.0807002360346184,0.055861526357199064,0.01580015735641228,2.8658725413060573,1.399132966168371,9.26588985051141,-0.10670731707317072,0.005595987411487036,-0.08664437450826121,174.91458497246262,16.992417387883556,-8.576809598741146,0.04348417283713611,-0.07902700516915814,-0.14509386853658535,-0.9852834109362709
276.0,0.07411093627065304,0.052120377655389474,0.017384736428009445,2.8476136900078677,1.3950700236034614,9.27221715184894,-0.24850019669551535,0.500831038552321,-0.1554878048780488,175.0256933516916,16.875535995279307,-8.54819040125885,0.04250640471518488,-0.07863689372541308,-0.14417601198269075,-0.985498623154996
277.0,0.07963199205724777,0.05331918998913493,0.015916151511745535,2.8706910007118505,1.3890342062867633,9.265905885879137,-0.1108923654040688,-0.168956881533101,-0.19642857142857142,175.2058939577011,17.02158604492151,-8.518196676782434,0.04098829198911618,-0.07814288421125096,-0.14556354877561722,-0.9853970211582559
278.0,0.08143133453223933,0.05596741410962497,0.014695178149938183,2.8917388539207973,1.3887226405904611,9.259879435015552,-0.11035116003521787,-0.3550424885729272,-0.19598834813232924,175.3378494272414,17.151419778670714,-8.527518639241691,0.0398487500895714,-0.07805614498131391,-0.14674522907909032,-0.985278441016916
279.0,0.09202693791914877,0.05848636244426961,0.01378877711588176,3.006726724364018,1.394934294331422,9.222059505076622,-0.14298107273987487,-0.506389384530366,-0.18140413669401673,175.64806945693306,17.858969256959277,-8.599227209077966,0.037113292112743994,-0.07826824361801729,-0.15304318923329024,-0.9843913320348152
280.0,0.08137499531677345,0.05488067138735905,0.016622457007980217,3.0669892473118274,1.3941287325315646,9.201956090067817,-0.1507483796036117,0.021100277247012134,-0.11250515154921134,175.80694803491812,18.225352178636992,-8.615406410400508,0.0357129928084373,-0.07819241276160503,-0.1563416573740212,-0.9839387463729348
281.0,0.07696208459780451,0.04540257015473382,0.018205012925705297,3.0551980068187774,1.3975836424262855,9.205734142594885,-0.106157037952868,0.16463648795474134,-0.12253896444494398,175.8887710276872,18.154350951631635,-8.631341088756509,0.035031049354651386,-0.07821609238788356,-0.15576857798284066,-0.9840596776357201
282.0,0.0661741785620621,0.05340751564197671,0.016802854894908396,3.135227230152486,1.3874830467198678,9.178980555243339,-0.46027687235397696,-1.0828216908321158,-0.5878163519538421,176.17500515154921,18.648708834438573,-8.591039582630849,0.03254331598272826,-0.07744702471675845,-0.16025495105466261,-0.9834569993908059
283.0,0.05792963920422614,0.05622756734479788,0.019733992731632385,3.0826443370424492,1.3752392192124687,9.197685362107077,-0.13077207672998387,1.2815298227867071,0.16473717732569026,176.17405211494508,18.319698119216216,-8.497276703757821,0.03257676418568056,-0.07668747286913191,-0.1574303054198044,-0.9839454625986288
284.0,0.08584916263909183,0.050297103892697925,0.0148237233524409,2.977403993855607,1.3753890824622532,9.233051965081863,0.16334625903862726,0.8977230152485857,0.13223090180210556,176.0394257427597,17.674576636319358,-8.465224701210147,0.0337893608025177,-0.07664327270915292,-0.1517782206957401,-0.9848043658626502
285.0,0.08445880633921549,0.06171031433816643,0.014398486381177175,2.9151339402794947,1.3935914727810865,9.251022442021652,-0.042540088419317376,0.6091683526282267,0.03611938481135962,176.00262494848448,17.29263843617699,-8.5607742310142,0.03413358174665618,-0.07749686741673224,-0.14840754394739797,-0.9852593888557941
286.0,0.09189974148589412,0.058785133565621386,0.014493499681540595,2.9022672061743657,1.4006549024015578,9.253709490090294,-0.14350155483121652,0.008168952081225866,-0.17733271514742796,176.09335122325876,17.215816661046794,-8.59823723352441,0.03336653910936271,-0.07771376666666668,-0.14779436421130715,-0.9853771330329326
287.0,0.08491210520400136,0.060276123037728085,0.016031171555955192,2.9346638941965457,1.40959259675546,9.24292555543067,-0.12758771683338954,0.3279878985425799,-0.20515927653516164,176.31559772020532,17.411443932411675,-8.663654415345997,0.03144534537057434,-0.07796584409572517,-0.14964188365168035,-0.9851474355880635
288.0,0.07518646734854446,0.04789535798583794,0.018622344610542883,2.881619197482297,1.4052509834775762,9.260791502753733,-0.17651947285601888,0.19923780487804876,-0.04503835562549173,176.36747147915025,17.085282258064517,-8.623637883556256,0.03102248878206136,-0.07755372384893786,-0.14687328594335164,-0.9856127980267503
289.0,0.0703446105428796,0.041804484657749816,0.019214398111723055,2.8622328874901655,1.3995232100708102,9.267269079464988,-0.23483231707317073,0.19756835169158143,-0.11834923288749015,176.4304214201416,16.96883113690008,-8.581326219512196,0.0304553166404406,-0.0771053891007081,-0.1459228736396538,-0.9858097774697088
290.0,0.08029032258064515,0.03676612903225807,0.018411290322580647,2.8689677419354838,1.3933870967741933,9.265983870967741,-0.19894153225806452,0.31204637096774196,-0.1138608870967742,176.51738911290323,17.010030241935482,-8.549445564516128,0.029682233612903224,-0.07674220920967742,-0.14632061370967742,-0.9858043051612901
291.0,0.07275,0.02445967741935484,0.023935483870967736,2.7356774193548383,1.381604838709677,9.306943548387096,-0.1423891129032258,1.192540322580645,0.11698588709677421,176.45907258064517,16.200705645161293,-8.435433467741934,0.03022362574193548,-0.07586305687096774,-0.13926401403225805,-0.9868434286774195
292.0,0.06364516129032259,0.04065322580645162,0.02510483870967742,2.7010241935483874,1.3827822580645157,9.317637096774195,-0.2569556451612903,-0.35383064516129037,-0.1615423387096774,176.43623991935485,15.991431451612904,-8.434274193548386,0.030448421709677414,-0.07589386971774192,-0.137438816766129,-0.9870985951693548
293.0,0.07503225806451613,0.04206451612903227,0.021887096774193544,2.684274193548387,1.3686854838709681,9.324548387096776,-0.004082661290322587,0.6298891129032258,0.24037298387096773,176.39778225806452,15.882862903225806,-8.347328629032257,0.0307703814516129,-0.07518064463709677,-0.13649611928225805,-0.9872844569838708
294.0,0.07785483870967744,0.05812903225806454,0.015274193548387096,2.577556451612903,1.4136129032258067,9.346379032258065,0.4837701612903226,0.5866431451612903,-0.33896169354838707,176.42993951612902,15.234022177419355,-8.595665322580643,0.030491687612903225,-0.07724432166129032,-0.13086537987096775,-0.9878559730403227
295.0,0.08392741935483872,0.06504838709677421,0.012387096774193548,2.428854838709677,1.5690645161290322,9.358983870967743,0.7905241935483871,0.0405241935483871,-0.5459677419354838,176.55473790322577,14.345262096774192,-9.51360887096774,0.02945276051612903,-0.08490925480645159,-0.123080592016129,-0.988204809185484
296.0,0.08979838709677421,0.07824193548387098,0.017467741935483873,2.4855967741935476,1.7082258064516131,9.318959677419356,0.3354334677419355,-2.558618951612903,-0.48064516129032253,176.98876008064514,14.70171370967742,-10.386139112903226,0.02566680927419354,-0.0917603524677419,-0.12643181627419353,-0.9872552203790321
297.0,0.12039516129032261,0.08284677419354838,-0.002653225806451614,2.769314516129032,1.6992580645161293,9.236556451612906,-0.5046370967741934,0.5581653225806449,-0.8752520161290321,177.79732862903222,16.41310483870968,-10.416582661290322,0.018640432080645156,-0.09073875183064516,-0.14187661505645163,-0.9852863432258065
298.0,0.10047350230414748,0.07771505376344084,0.0056213517665130545,2.8155883256528416,1.6571282642089091,9.234741551459294,-0.6117055491551459,0.14010896697388622,-0.2541834677419354,178.66165994623657,16.689708141321045,-10.167065092165899,0.011229595095238094,-0.08756098624462366,-0.144939616296467,-0.985338760106375
299.0,0.09146159754224271,0.07294892473118278,0.008318356374807987,2.8913175883256526,1.6211705069124425,9.219252304147467,-0.49831749231950845,-0.5414578533026113,-0.32770497311827956,179.13980654761906,17.149937596006144,-9.96946044546851,0.007121952681643624,-0.08521115106144393,-0.14927896712980032,-0.984996006576805
300.0,0.10810294668614892,0.07108471020194071,0.005764311940354427,3.018778876774943,1.5672044509385188,9.18802967292346,-0.33624384155707915,0.043802569218088505,-0.17484960988722792,179.65261804072534,17.932042460473568,-9.671887234929377,0.002687446748866659,-0.08182655897368027,-0.1563926882814619,-0.9842237999569705
301.0,0.10103937656888093,0.07242945187516392,0.010128123712112698,2.92331685774231,1.5371425480499048,9.224321288074636,-0.36459369497208793,0.9281008813832378,0.16728789666928928,179.69823442358847,17.34956457701098,-9.452601883593719,0.0023274969873365555,-0.08013525844651753,-0.15133708539879542,-0.9851747621075174
302.0,0.09858420441347271,0.06927117755048519,0.004245513468959574,2.801767299838897,1.5075269191862426,9.266878385972799,-0.246586162002173,0.15916132778839306,0.27709152897980593,179.28883495372972,16.606183498182908,-9.23058521599041,0.005852798735603763,-0.07897055215874263,-0.1446592376631074,-0.9862421864610167
303.0,0.10205477501779625,0.07335064253868345,0.007186504814356899,2.837142482484733,1.4988133827882062,9.258794799745232,-0.2678255310778914,-0.09589936682776966,-0.01830907421977443,179.2028516166498,16.819542401933237,-9.188420488179535,0.0065620043386160135,-0.07868018278367239,-0.1464559861095875,-0.9860251748242104
304.0,0.10298898505114082,0.06602478363493314,0.007287568843430368,2.917669551534225,1.463000393391031,9.239319826907948,-0.3864329268292683,-0.5549149291896144,-0.18227281667977968,179.3970815302911,17.31432189221086,-8.987072187254128,0.004898523143194335,-0.07664503645712038,-0.15085499894649881,-0.9855331692600313
305.0,0.10446774193548383,0.05576612903225808,0.01171774193548387,2.9581935483870967,1.4436370967741938,9.230056451612906,-0.2055443548387097,0.1750504032258064,-0.1880040322580645,179.68714717741935,17.55871975806452,-8.883770161290322,0.002389772629032258,-0.07531753030645161,-0.15314424572580643,-0.985301946798387
306.0,0.09276337529504325,0.05148485444531866,0.014432926829268293,2.9519295830055077,1.4150178992918958,9.236573760818256,-0.25786290322580646,0.25760228166797794,-0.2087664732494099,179.97634982297404,17.51921961054288,-8.708980379622343,-6.945798603461874e-05,-0.07346930210503541,-0.15297144452380015,-0.9854778102747835
307.0,0.08764378442171519,0.051891620771046434,0.016672108575924473,3.0014567269866244,1.4025371754523994,9.222532848151063,-0.18835685483870968,-0.2529528914240755,-0.2751241640440598,180.24029184697088,17.822008998819825,-8.643174665617625,-0.0023720802228560187,-0.07246123515735642,-0.15578983259657747,-0.9851125627865854
308.0,0.07993882769472854,0.06186113296616838,0.01759008654602675,3.078792879622345,1.401691974822973,9.19690755310779,-0.19254032258064516,-0.33136555861526357,-0.21107518686073956,180.48504007671124,18.300848249409913,-8.66805910700236,-0.004444333502557041,-0.0721523175706137,-0.1600562599152242,-0.9844420508328089
309.0,0.0661750590086546,0.058624114870180974,0.02015794649881983,3.131706923682141,1.403297600314712,9.178397324940988,-0.1543346774193548,-0.31457390833988985,-0.21604666601101497,180.6023738690008,18.62300476986625,-8.693454956726987,-0.005438251594020455,-0.072125318974823,-0.1629248974777734,-0.9839718535938234
310.0,0.07768905969456716,0.06350405495370093,0.016706661421452922,3.2058296818576135,1.4022680102483396,9.15289551937703,-0.1685251240694789,-0.31895659333454374,-0.21332794942403518,180.77049718574108,19.07608636446166,-8.70934120871916,-0.006898552373106174,-0.07182756313339991,-0.16697603456115714,-0.9833035036516472
311.0,0.07094995864350703,0.058331885856079416,0.022271505376344085,3.2260485938792396,1.4038680727874266,9.146066170388753,-0.23809320719602978,0.19327052315963608,-0.05412660256410257,180.9167493796526,19.201659429280397,-8.718252429693962,-0.008137952739660875,-0.07165553186331679,-0.16814195394540946,-0.9831119544253515
312.0,0.07706309891262685,0.05110034497367308,0.017009769210595334,3.2358764802598405,1.3924796697532726,9.144397561984302,-0.17218082370029655,-0.07608614380963907,-0.11237690769432507,181.0262039089451,19.26396651637112,-8.654846243367832,-0.00905255339648268,-0.07094225840500615,-0.16873198791212246,-0.9830601014694615
313.0,0.07631783977889409,0.0516146886158688,0.015694400734329924,3.2403374336783077,1.3983728993927649,9.14165442615344,-0.1328646053985354,-0.0346912573886905,-0.08842131675038833,181.07955860769835,19.296096161411363,-8.688587436200045,-0.009519592153886501,-0.0711364073920192,-0.16902685025444836,-0.9829922663758597
314.0,0.0737946397950332,0.0489562428130485,0.020454497770784154,3.2459402549980836,1.388645241985918,9.141231717404022,-0.17687560521697027,0.019291984405576067,-0.11689948606992273,181.22268277552502,19.333616776614413,-8.632414538320322,-0.01076540999708487,-0.0704191889855454,-0.16940723029628396,-0.9829654868700698
315.0,0.07893371361132967,0.04325727773406768,0.013625098347757669,3.2690462234461055,1.3830637293469707,9.133676239181742,-0.17347192171518488,0.21182754720692368,-0.17038626081825334,181.40878245476003,19.479292879622342,-8.61334333202203,-0.012329742774390244,-0.06989677725786782,-0.17075547644590872,-0.9827465273514948
316.0,0.07329268292682926,0.03965656963021245,0.015055074744295828,3.3178957513768683,1.378736821400472,9.115900865460269,-0.14550059008654603,-0.13661487018095989,-0.13236378835562548,181.62707513768686,19.782912077104644,-8.601873524783635,-0.014211522852478363,-0.06932413874468923,-0.17351873746577495,-0.9822766578387093
317.0,0.08343391030684501,0.04311624704956729,0.009657356412273799,3.3867016129032255,1.3701835169158145,9.091613690007868,-0.16538404799370574,-0.19156176239181746,0.007613345790715972,181.8149193548387,20.20457562942565,-8.568816384736428,-0.01580940873072384,-0.06857303874527931,-0.17729107747167583,-0.9816127723623129
318.0,0.08216719118804092,0.04676553894571205,0.004720692368214005,3.3913713611329657,1.3691616837136118,9.090755704169947,-0.1306967938630999,0.3370500590086546,0.0096110346184107,181.8343405782848,20.22908389063729,-8.563087627852084,-0.015964547340676635,-0.06847477753186468,-0.17751595879858378,-0.9815861710507474
319.0,0.06652340676632573,0.04056687647521638,0.009439024390243904,3.391794256490951,1.36077832415421,9.091999409913452,-0.10941310975609755,-0.02439393194335171,-0.08716438827694728,181.8608071892211,20.232982149881984,-8.511692319040126,-0.016223022985837925,-0.06800433241817468,-0.17754839484146342,-0.9816149921925648
320.0,0.06740243902439025,0.04055940204563338,0.009893784421715185,3.3814079464988196,1.367899685287176,9.095324547600313,-0.07556304091266719,-0.11121164437450827,-0.10370771046420141,181.88850314712823,20.172182336742722,-8.54438434303698,-0.01646810106254918,-0.06831034060149488,-0.17703686886309994,-0.9816870180578283
321.0,0.07506313926042485,0.04149606608969317,0.008288355625491737,3.406402635719906,1.368734264358773,9.086186270653027,-0.08659642997639654,0.06694531864673486,-0.08268587726199841,181.96166896144769,20.32704317466562,-8.56099036191975,-0.01706945877517703,-0.06825233255330448,-0.17843427868568057,-0.9814282096630603
322.0,0.07151140833988984,0.04309480723839498,0.014007081038552319,3.4313182533438233,1.367943745082612,9.076935877261997,-0.19518833595594018,0.10685975609756097,-0.19356068056648307,182.1102699645948,20.48070908733281,-8.562148406766326,-0.01833136399645948,-0.06796597648229741,-0.17984888281864675,-0.9811680590452398
323.0,0.06907199055861526,0.040748819826907964,0.013545633359559398,3.4100100314712822,1.3616823367427227,9.085332612116442,-0.17865730723839496,0.4490337332808812,-0.15436295239968528,182.2726556353265,20.350036880409128,-8.515904061762392,-0.019747838182336743,-0.06742098637647521,-0.17878279302616049,-0.9813732911984657
324.0,0.06789889850511409,0.04162037765538947,0.017119590873328087,3.3725574350904792,1.359917781274587,9.09971872541306,-0.05155143587726199,0.3805148505114083,-0.05084579071597168,182.4045485837923,20.117609166011015,-8.492402635719905,-0.020884218143587728,-0.06715104001888277,-0.17686006676711252,-0.9817157325145554
325.0,0.06729169944925258,0.035641030684500405,0.01613650668764752,3.3005926435877253,1.362166601101495,9.125544649881984,-0.058102625885129815,0.23912642604248624,-0.029076514555468138,182.39815352084972,19.670965283241543,-8.482850609756097,-0.020846937299960656,-0.06727496495357985,-0.17299138553933907,-0.982390974800944
326.0,0.08806117230527145,0.04668745082612119,0.006406963021243114,3.3152439024390237,1.3558937844217152,9.121131195908735,-0.21133457907159717,0.07402389850511407,0.14856658143194337,182.43652635719906,19.76018022226593,-8.44822974036192,-0.021150102154012584,-0.06686972274291896,-0.17378814864870176,-0.9822735009004719
327.0,0.08524429583005508,0.05307356412273802,-4.219558615263572,3.052073564122738,1.5404146341463414,9.17392446892211,2.703203678206137,3.037263965381589,-0.9871582415420926,181.9803599527931,18.134399586939416,-9.515848741148702,-0.017232436032651458,-0.07733983636742722,-0.15972129667112506,-0.9837164015550747
328.0,0.1523790322580645,0.02694354838709678,-2.109338709677419,2.699895161290323,1.9494999999999998,9.197064516129032,2.0396673387096773,1.3381048387096774,-0.8498487903225805,182.3407258064516,15.992691532258064,-11.93578629032258,-0.020367973249999997,-0.09841534975806454,-0.14220118401612902,-0.9842420022661289
329.0,0.12776612903225806,0.02517741935483871,-1.0528064516129032,2.6061935483870973,2.2498790322580637,9.16134677419355,1.1428931451612903,0.297429435483871,-0.6103326612903225,182.86446572580644,15.415776209677418,-13.778074596774193,-0.02484554191129032,-0.11354645748387097,-0.13834853615322582,-0.9832033218387093
330.0,0.12370967741935482,0.030169354838709684,-0.5252258064516129,2.6043709677419358,2.403056451612902,9.12948387096774,0.32893145161290327,-0.16078629032258068,-0.5566028225806451,183.5737399193548,15.40866935483871,-14.732157258064515,-0.030910122443548384,-0.12064898151612902,-0.1393495126048387,-0.9822019519516128
331.0,0.10888709677419353,0.034161290322580654,-0.26101612903225807,2.661201612903226,2.469169354838708,9.099266129032259,-0.027368951612903203,-0.6371471774193549,-0.45030241935483867,184.1391129032258,15.753225806451614,-15.168195564516129,-0.03575109629838709,-0.12329913775806452,-0.14309431510483872,-0.9812692462016126
332.0,0.09818784421715188,0.028214004720692375,0.004716561762391817,2.666493902439025,2.4976437844217143,9.091752753737218,0.21025521243115652,0.6938163847364278,-0.023463316286388675,184.40337947482297,15.777424272226593,-15.35540666797797,-0.03800182275354051,-0.12451060815086545,-0.14366839114299768,-0.9809960228408733
333.0,0.08433988985051141,0.036655389457120394,0.006854248623131392,2.6762751770259636,2.518511408339889,9.083678796223447,-0.35419699055861525,-0.4849466463414635,-0.05376794846577497,184.40342864870178,15.835486329661684,-15.48783438237608,-0.03799131077596381,-0.1255889018052714,-0.1442538601481117,-0.9807851520615657
334.0,0.0834031955456031,0.041629597127236795,0.0083875254695475,2.7562551443442467,2.509443049083097,9.061920146664246,-0.152857128447215,-0.3211637439730477,-0.07653050545703968,184.52881252017386,16.325155023805202,-15.47242086157679,-0.03903266908763037,-0.12486239907116341,-0.14862037118788962,-0.9801877083052865
335.0,0.08289514615989833,0.03895995985394099,0.009052633702515685,2.809123539914059,2.4889312019609022,8.985230234622446,-0.1793015480945752,-0.19047098488974964,-0.0747571882123908,184.67047984879662,16.64367630222518,-15.369904987240009,-0.04021488245913778,-0.12356735894687204,-0.15148072402136414,-0.9798689641163529
336.0,0.08108466985414271,0.04479046379793825,0.003703736206096552,2.8520254796344493,2.4995260848514196,9.002445762472512,-0.01573444340212632,-0.19634436341261674,-0.13296831184813088,184.71936290826926,16.910295812402914,-15.452215598458714,-0.04063100455214953,-0.1239840898202102,-0.1538904648816498,-0.9794266407597892
337.0,0.08130551352659927,0.04543221065585348,0.004141403901632069,2.9049269805725357,2.4973594232282275,9.002816114910527,-0.24655722956888376,-0.09418909752062782,-0.18110846748976173,184.82412873973652,17.231332996681395,-15.465363306703786,-0.04152678024617705,-0.1236761616292239,-0.1567947034400381,-0.978968708137566
338.0,0.0792227803667615,0.032207155681978676,0.0023072283080150897,2.947862192095866,2.4709602977667497,9.004397829288466,-0.41801270703463855,-0.3946567537170409,-0.22657778803284312,184.9917850622365,17.493214319937863,-15.317034525106417,-0.042956372786640835,-0.12198602290666544,-0.15918824415166738,-0.9787322549307027
339.0,0.07530369787568844,0.03200845790715973,0.0007383949645948067,2.9941420141620774,2.4525645161290326,8.99789535798584,-0.17924001770259637,0.03532774390243901,-0.09220225216365067,185.14405733674272,17.777123082218726,-15.224563581825333,-0.044251242064122745,-0.1207444812366247,-0.16174732663414637,-0.9784052726514554
340.0,0.07914378442171519,0.0374840676632573,0.00124822974036192,3.055288749016523,2.438314516129032,8.985617033831627,-0.24261900078678206,-0.37868189417781273,-0.22697310188827696,185.33503270062943,18.1568327104642,-15.170774734461052,-0.04584927164496459,-0.11964136443686074,-0.16517185237352477,-0.9778939783821792
341.0,0.06770495672698662,0.04477025963808026,0.0037450826121164437,3.102837922895359,2.431064516129033,8.97194964594807,-0.13713611329661682,-0.0711201809598741,-0.09743312352478363,185.48422501966954,18.447821597167582,-15.144585955940205,-0.04711269552006294,-0.11894561026278518,-0.16784650220692368,-0.9774664736789926
342.0,0.07614752163650668,0.050169551534225046,-0.0003957513768686077,3.1175314712824553,2.41657474429583,8.969880409126674,-0.1404455153422502,-0.08273259244689221,-0.09368607395751377,185.554730527144,18.540064417781274,-15.070267014162077,-0.04773580643587727,-0.11810095736664043,-0.16866304993902437,-0.977402432191975
343.0,0.08121774193548387,0.055088709677419384,-0.002790322580645161,3.115459677419355,2.416685483870968,8.971000000000002,-0.20171370967741933,0.29611895161290325,-0.11834677419354839,185.61552419354837,18.520917338709676,-15.07172379032258,-0.04823027525806452,-0.11801393572580643,-0.16855995420161285,-0.9774069510645159
344.0,0.07132258064516128,0.060443548387096785,-0.003967741935483871,3.150217741935484,2.4131774193548385,8.959677419354843,-0.12681451612903225,-0.35347782258064514,-0.19768145161290324,185.73316532258065,18.735131048387096,-15.067439516129031,-0.04921668257258065,-0.11760903745161287,-0.17054950321774193,-0.9770579187258064
345.0,0.08335483870967741,0.052887096774193565,-0.007435483870967741,3.188459677419355,2.406048387096774,8.947524193548386,-0.17222782258064517,0.31471774193548385,-0.033467741935483866,185.84314516129032,18.974243951612905,-15.040625,-0.05014249779838709,-0.11697840583064514,-0.17270429054032257,-0.9767076557661292
346.0,0.07953068450039338,0.04801239181746658,-0.0020521243115656966,3.1361211644374514,2.3951695515342246,8.968864280094415,-0.2540568450039339,0.6407983379228953,-0.15954464988198272,185.8539658733281,18.651460464201413,-14.941090922501967,-0.050223931390833976,-0.11648646691915812,-0.16986316417269864,-0.9772602719325336
347.0,0.07797233149750854,0.043495546611793674,0.001821642558857351,3.1189565706389084,2.385461119853133,8.977785738062098,-0.18493914417276927,0.2333327659424237,-0.19984831749682264,185.9507538733886,18.548526706459683,-14.862842168240231,-0.05105438632434585,-0.11585055815550542,-0.16901872952017893,-0.9774442785920938
348.0,0.07682487542617362,0.045316321692993614,-0.0022343400108939065,3.0526839304807436,2.3924442696039856,8.998485610966533,-0.21305928982832012,1.3395494474873408,-0.18061972326454034,185.98409669475882,18.135125248391134,-14.875347495410438,-0.05141321183959227,-0.11628372331565595,-0.1655166025383153,-0.9779609515863696
349.0,0.0916100183582481,0.038517031814238746,0.0024473461235853047,2.917241158788759,2.3729560057697343,9.047279095805845,-0.21623226588190197,-0.42042184883697453,-0.023097160019366958,186.0318416941536,17.309976938711696,-14.68580882835038,-0.05186031739963484,-0.115441740548957,-0.15831660084577054,-0.9791975985794752
350.0,0.10431995803829006,0.05264354737840183,-0.0028870665133450338,3.052081240291311,2.372382900603199,9.00099733704533,-0.1643581421856402,0.5199019296334404,-0.10625378260606427,186.33004297040486,18.134604667231535,-14.755294387621294,-0.05434764840969153,-0.11471194460463197,-0.16580710605309767,-0.9778589871095644
351.0,0.10385156045108837,0.0559441182997438,-0.00304699509774254,2.95601465633763,2.35777838971938,9.037704018640682,-0.26804649831547944,0.14715100415582327,-0.10351536494583308,186.32459072202383,17.547303317093345,-14.611508326776816,-0.05434756409863019,-0.11414218823150561,-0.16062409800451893,-0.9788235261055296
352.0,0.09361605035405193,0.05339339103068451,-0.004128048780487805,2.918068253343824,2.331303304484657,9.058477380015733,-0.2753306943351692,0.5578518391030685,-0.12663626081825335,186.39857395751375,17.308481264752164,-14.422017604248623,-0.0550179305566483,-0.11270592051632573,-0.1585200602140047,-0.9793240428697874
353.0,0.08032651455546815,0.04619807238394966,0.0030721872541306055,2.8017090873328088,2.2956595200629417,9.103979937057431,-0.36349945908733283,0.5252077596380803,-0.08825973642800944,186.37385178992918,16.598553058615263,-14.144665863493312,-0.054869076119000784,-0.11112039284225018,-0.15212259345180956,-0.9805198852690793
354.0,0.10040519276160506,0.03952933573114534,0.005359634333670526,2.630993368551197,2.2337742684800115,9.166888970064814,-0.5308316707879059,2.0068327104642014,0.09138520475066501,186.26641178206137,15.559046354576449,-13.686929465924843,-0.054033262481735414,-0.10833645783164735,-0.14274819473339323,-0.9822075887374582
355.0,0.06368710426735605,0.06281532164399985,0.029848900378404694,2.2074866809036755,2.1777271177550483,9.284368391967334,-0.22744891770634296,2.0169988830504666,0.36579816230189954,185.24323595734518,13.021231524671236,-13.199496494604922,-0.045393389122738,-0.1072230914730527,-0.1195208035442471,-0.9856216879319154
356.0,0.07853021617773781,0.05979131542467499,0.021392978906747587,2.078052152410925,2.1204432205612385,9.333253531152824,-0.5003559252182384,1.0131224008092614,0.11222884118242105,185.00773434865687,12.243452849275037,-12.795787906035743,-0.043425661306058225,-0.10475026537372148,-0.11229525422314637,-0.9869934197819489
357.0,0.0857270240905174,0.0639814918886516,0.009300513281630509,2.084196170993968,2.0673118279569893,9.346409276535159,-0.40699346221572813,-0.1290697238769622,-0.02284009591247986,185.02334822599377,12.277357067925518,-12.463754168071635,-0.043552812860514795,-0.10200247856805665,-0.112454111358885,-0.987362317740062
358.0,0.08498855550124465,0.06796653867299578,0.006893500378578964,2.2070944260455363,2.026870925048335,9.327739247529653,-0.2750870372209777,-1.0171712679912137,-0.2281138936737669,185.23314754537938,13.012757381418524,-12.252254510709559,-0.045354842539711594,-0.09948614710985673,-0.11895224020389678,-0.9867835339968314
359.0,0.0797846003312675,0.06287267025815688,0.007323862324466134,2.361503434220924,2.0038609617561183,9.29520065295069,-0.29668810386394506,-0.3015291823827036,-0.19738547986299712,185.48905361139936,13.940518475655498,-12.157266848288728,-0.04752316473990187,-0.09772807944356124,-0.12715877344987464,-0.98583452293774
360.0,0.08560581783076432,0.0523802675407528,0.0065590125754435135,2.415528214806314,1.9499059033050947,9.293344566106683,-0.5696334144511738,0.008768818946897017,-0.2948956969207459,185.7115486951006,14.265444529686429,-11.840274169152043,-0.04944324892525047,-0.09457408360810934,-0.1299798095421416,-0.9857194908436778
361.0,0.08838906155110207,0.05107998428178474,0.0030788768620726614,2.4477428642875,1.8939214803700928,9.297310363305114,-0.2499671792948237,-0.5359873450505483,-0.28470197906619515,185.96996592898222,14.457904208194906,-11.503890035008752,-0.05168795997009967,-0.09129542142010504,-0.13169282610702673,-0.9856991884045297
362.0,0.08579744936234057,0.05348162040510128,0.007391972993248312,2.526657914478619,1.8827134283570892,9.278353338334579,-0.35058842835708925,-0.03731010877719429,-0.10916166541635411,186.21267113653414,14.931995498874718,-11.463268942235558,-0.05377904454726181,-0.09025731780682669,-0.1359607784943736,-0.9851106276822957
363.0,0.07226435877261998,0.05757159716758459,0.005005704169944924,2.5423229740361917,1.8758493312352478,9.276272619984262,-0.03593258261211646,0.17212701612903225,-0.19727084972462627,186.26435754327298,15.028353658536584,-11.427129228953579,-0.05421574152261997,-0.08981236262214791,-0.13680684549213218,-0.9850191113153031
364.0,0.06719752264520165,0.05261416913796932,0.01071532106760274,2.582995440698823,1.885992076701164,9.263083166898664,-0.17476620342351068,-0.06351581885856081,-0.07217890087554721,186.43054325157857,15.272028100980451,-11.500206467247676,-0.05557567047191793,-0.0900473696205239,-0.13908256566769556,-0.9846037551883584
365.0,0.05468865117311224,0.055821935080392994,0.01241617744961569,2.5978275787286407,1.8924400784764672,9.257963888720774,-0.26386753817910386,0.46578462597591236,-0.1813300336399766,186.53580848161147,15.360135682079525,-11.539221054237526,-0.05648613851388973,-0.09020918533298025,-0.13995567588302166,-0.9844149989113505
366.0,0.05413061590913675,0.054846451411164246,0.009950024208678816,2.55645814420303,1.8718127811737175,9.27363517016684,-0.1503813497347132,0.3997773936331175,-0.08791804101353669,186.6479949666122,15.106579937813956,-11.40012968034457,-0.05747157491017067,-0.08911138376326433,-0.1377622766915108,-0.9847673146371269
367.0,0.06927478867840786,0.07661824930904397,0.006304182049264663,2.486616070527951,1.930726905929109,9.27962157800238,0.6110099053844136,1.5087854808448828,-0.46348473844539934,186.73040483971837,14.683157568238213,-11.741244275656157,-0.05818704307123403,-0.09227531297181706,-0.1343703941701063,-0.9848761670218481
368.0,0.068126132377372,0.08988305472240482,0.015831998806455836,2.3372831143996127,2.0276680840003625,9.295373338175072,0.031159308354293036,-1.4667015956615792,-0.5406492453319709,187.13772519994444,13.795965437184812,-12.291190885197846,-0.06170819509516545,-0.09723977429261632,-0.12739388832240517,-0.9850563945518549
369.0,0.05996641015654609,0.11446001962163016,0.0010195087970598917,2.4211259008131822,2.1055402927386897,9.256829998876027,0.06212047894377774,-0.16518274276757328,-1.1021033949689514,187.89760240855074,14.299365945580472,-12.805822312503214,-0.06817832516426711,-0.10019359136467043,-0.1327398289668271,-0.9836173021134555
370.0,0.06958625479540619,0.107284335238862,0.014171850236078183,2.508229017620258,2.1559041615804646,9.223117708216254,-0.21186223439570695,-0.5315067361134709,-1.183043754732237,189.16388189626892,14.826509899469642,-13.147048927410424,-0.07898335454965069,-0.10097603396846161,-0.13870133981273802,-0.9818796721509169
371.0,0.06651431150470546,0.09154785211982439,0.006591334244711001,2.5819455473624497,2.163817147666707,9.200921658986177,-0.641175265506272,0.5824308864672614,-0.7700710020710752,190.49522588617538,15.263532782150243,-13.225910626175708,-0.09031525208884973,-0.09943993456290902,-0.1436970457682888,-0.980321314448098
372.0,0.06324142011112535,0.07744190403001447,0.01634051369985353,2.5127705706914525,2.099756724895509,9.23496909070473,-0.6636000245706026,0.14861119461049926,-0.5757318031598492,191.19693926094766,14.848918240012964,-12.807069199791236,-0.09637126039926358,-0.09561103288334277,-0.14028931832867625,-0.9806735089195644
373.0,0.06888520475066504,0.07799970027350042,0.015760368663594468,2.534829717882432,2.0653225806451605,9.236847064553594,-0.3571545652092466,-0.083017215540819,-0.6259928440298228,191.803829006032,14.98243790041587,-12.598828959199729,-0.10157147276366565,-0.09298440178318533,-0.14174439528979807,-0.9802340991648871
