time,linaccel_x,linaccel_y,linaccel_z,gravity_x,gravity_y,gravity_z,gyro_x,gyro_y,gyro_z,euler_x,euler_y,euler_z,quaternion_w,quaternion_y,quaternion_x,quaternion_z
0.0,0.06265624999999998,0.032187500000000015,0.05890624999999999,-0.060000000000000046,-1.3199999999999985,-9.71,0.00390625,0.0390625,-0.0068359375,177.6875,-0.375,172.1875,0.06750488000000003,-0.01983643000000001,-0.9974975599999995,0.004638670000000006
1.0,0.06411773989898988,0.033557449494949515,0.056605113636363606,-0.06000000000000004,-1.3199999999999983,-9.71,0.003827335858585858,-0.03748421717171717,-0.0035412720959595956,177.6875,-0.375,172.1875,0.06750488000000004,-0.01983643000000001,-0.9974975599999995,0.004638670000000006
2.0,0.06510540501165499,0.03249165417915419,0.058896697052947034,-0.06000000000000004,-1.3199999999999983,-9.71,-0.02253553737928738,-0.006174554612054614,-0.017451753975191473,177.6875,-0.375,172.1875,0.06750488000000003,-0.01983643000000001,-0.9974975599999995,0.004638670000000006
3.0,0.06426970182595182,0.03116277195027197,0.05874666375291375,-0.06000000000000004,-1.3199999999999985,-9.71,-0.018208891802641805,-0.0069840229215229225,0.011855848144910645,177.6875,-0.375,172.1875,0.06750488000000003,-0.01983643000000001,-0.9974975599999995,0.004638670000000006
4.0,0.06441202581021128,0.03228306169636816,0.05900254013459656,-0.06000000000000005,-1.3199999999999985,-9.71,-0.005878202778404391,0.022524837393789004,-0.022122536821377548,177.6875,-0.375,172.1875,0.06750488000000003,-0.01983643000000001,-0.9974975599999996,0.004638670000000006
5.0,0.06417929919542822,0.03288044213850667,0.05847052409955634,-0.06000000000000005,-1.3199999999999985,-9.71,0.00859063651402361,0.0338178622452816,-0.006918753289721032,177.6875,-0.375,172.1875,0.06750488000000003,-0.01983643000000001,-0.9974975599999995,0.004638670000000006
6.0,0.06447298669072862,0.032483457402812256,0.05954678923227308,-0.06000000000000005,-1.3199999999999985,-9.71,0.015152337581773066,0.026071274155951576,-0.0019399954883825852,177.6875,-0.375,172.1875,0.06750488000000003,-0.01983643000000001,-0.9974975599999996,0.004638670000000006
7.0,0.06347162380630121,0.03215284983833372,0.05968526768929992,-0.06000000000000005,-1.3199999999999985,-9.71,-0.0005391030340627101,0.004447585344762764,0.005344856756147079,177.6875,-0.375,172.1875,0.06750488000000003,-0.01983643000000001,-0.9974975599999996,0.004638670000000006
8.0,0.061842590429283965,0.03091257443273574,0.05912763916191334,-0.06000000000000005,-1.3199999999999985,-9.71,0.011227799698061793,0.03358186112722403,1.9458588006975117e-05,177.6875,-0.375,172.1875,0.06750488000000003,-0.01983643000000001,-0.9974975599999995,0.004638670000000006
9.0,0.059846537040702294,0.03263651510916197,0.06019231201614144,-0.06000000000000005,-1.3199999999999983,-9.71,0.04018764038389325,-0.013869322058905894,-0.08433873549349596,177.68027804525758,-0.3697038998555609,172.1875,0.06750488000000004,-0.019912128411169967,-0.9974975599999996,0.00463443874337988
10.0,0.06065430915310548,0.027610208547136823,0.05885844664082505,-0.06000000000000005,-1.3199999999999985,-9.71,0.06290772566651237,0.0002812392497033812,-0.059168824942777754,177.6193728935965,-0.3400938854116514,172.1875,0.06750488000000003,-0.020535817270101127,-0.9974975599999996,0.004605055016851227
11.0,0.05720422409613944,0.02682430453391093,0.05654499438171505,-0.059323109465891095,-1.3186462189317814,-9.71,0.02899738884716824,0.0062383294243065985,-0.06559074815051673,177.588920317766,-0.32528887818969665,172.1975475938657,0.0674506559915389,-0.020843530636637027,-0.9974975599999995,0.004566090451312973
12.0,0.054564729901946676,0.030713732060730893,0.05694299509392565,-0.054500264410364874,-1.31932310946589,-9.709999999999999,0.08241149832103942,0.024190472220115333,-0.026214870811612542,177.57369402985074,-0.31788637457871927,172.19252379693285,0.0676037757377049,-0.020992881462959523,-0.9974975599999995,0.004413368612753262
13.0,0.05226775695723819,0.041215876301140424,0.0568247097996058,-0.056035710952810514,-1.319661554732944,-9.71,-0.005161453634576825,-0.14922238233516988,-0.7175026343455972,177.39055906426123,-0.33173730493641845,172.19001189846642,0.06768774843811243,-0.022572078198272928,-0.9974401137001898,0.004647858547363347
14.0,0.04186102615039845,0.054413701958259855,0.058466829072717115,-0.05322522874829466,-1.3221902243710788,-9.710000000000003,2.2615916049507218e-05,-0.18289494520844057,-0.5155352259698274,176.45676673895366,-0.31021618324749256,172.17539189393366,0.06778892789647559,-0.030637190569870354,-0.9971830677809703,0.005055624039621558
15.0,0.05230662083840376,0.06038551102875771,0.05676620432721287,-0.07128542543405511,-1.3235282919090414,-9.710000000000003,0.05303993255923,0.05761314419833201,0.22893479750781942,176.2704628625644,-0.4228788289509352,172.17407267507744,0.06777426262104887,-0.03218843111903656,-0.9971422999550013,0.006101912683405248
16.0,0.07387061796622914,0.06611992934530729,0.053606642240663166,-0.08269612361073456,-1.333529953917049,-9.710000000000004,0.15930496288005314,-0.03867284166528213,0.20084459902587465,176.69850908105178,-0.48197512876118187,172.10996543778802,0.06827220877853074,-0.028461642387953724,-0.9972227225304959,0.006422402144754674
17.0,0.09083339494155433,0.07043091664818418,0.053169480108759035,-0.09019947920517171,-1.3422488479262658,-9.710000000000003,0.10344300110073354,-0.029761956102088927,0.2106703641867304,176.8734175415034,-0.526269822445107,172.0519585253456,0.0687036621312008,-0.026956652036139374,-0.9972341335233126,0.006681015823110476
18.0,0.10018862857572536,0.07060084002019484,0.05211086762699664,-0.095782851557045,-1.3466082949308744,-9.71,0.050181807439871946,-0.024262363980105915,0.13975648007906072,176.9976373760648,-0.5478686635944701,172.0229550691244,0.06891915715668195,-0.025880780920821106,-0.9972416342165898,0.00682160962882279
19.0,0.10486194450710583,0.06996471270664817,0.05315967903064675,-0.09868635665409847,-1.3487142857142846,-9.71,0.010801698301698302,-0.01213947342979601,0.07779351025318768,177.08607387236418,-0.5595622119815667,172.00887096774193,0.06902505488479255,-0.02511541162630916,-0.9972525196497696,0.006882831897360705
20.0,0.1066613870000967,0.07062751764364666,0.05262592246463213,-0.09952981427174964,-1.3497649769585245,-9.71,0.0026934758789597477,0.013457913054687248,0.025719911808621487,177.1215795629102,-0.5615783410138249,172.00164170506912,0.06908004296774184,-0.024809695983661492,-0.9972552200184331,0.0068871444763301225
21.0,0.10721548612677648,0.0710326528310399,0.0541263252876156,-0.09987781036168122,-1.3499999999999992,-9.71,-0.005320888788630724,0.0037911685089104434,0.005659495074817656,177.1230449657869,-0.5625,172.0,0.0690917999999999,-0.024797542478005856,-0.9972534200000001,0.006895657434017596
22.0,0.10708319234528918,0.07125416384690578,0.05503410030829385,-0.0999999999999999,-1.3499999999999992,-9.71,0.0044704959019475155,-0.018642614106323785,-0.00806627847958493,177.125,-0.5625,172.0,0.0690917999999999,-0.024780269999999993,-0.9972534200000001,0.0068969700000000005
23.0,0.10624791170934511,0.07087434038819315,0.05432862463585667,-0.0999999999999999,-1.3499999999999992,-9.709999999999999,-0.005996361750459044,-0.01251359473426331,-0.002339690908727069,177.125,-0.5625,172.0,0.0690917999999999,-0.024780269999999993,-0.9972534200000001,0.0068969700000000005
24.0,0.10793217451772995,0.069972962358921,0.05272867805971343,-0.0999999999999999,-1.3499999999999992,-9.709999999999999,-0.013473357580244937,-0.00863127101176659,0.005686403135756023,177.125,-0.5625,172.0,0.0690917999999999,-0.024780269999999993,-0.9972534200000001,0.0068969700000000005
25.0,0.10729354021585423,0.06965603457633245,0.052814882773747227,-0.0999999999999999,-1.3499999999999992,-9.71,-0.00035131558142256596,-0.030487128663263547,0.011089092941289546,177.125,-0.5625,172.0,0.0690917999999999,-0.024780269999999993,-0.9972534200000001,0.0068969700000000005
26.0,0.10598607982374891,0.06767527951294858,0.05189271244422128,-0.0999999999999999,-1.3499999999999992,-9.71,0.011167818191751593,-0.03147110289409977,0.013366797094684711,177.125,-0.5625,172.0,0.0690917999999999,-0.024780269999999993,-0.9972534200000001,0.0068969700000000005
27.0,0.10593123075329114,0.0674834025957855,0.051634077103379895,-0.09999999999999988,-1.349999999999999,-9.71,0.00338073592496069,-0.0043314985107388865,0.006916028820295209,177.125,-0.5625,172.0,0.0690917999999999,-0.024780269999999993,-0.9972534200000001,0.0068969700000000005
28.0,0.10497394003845617,0.068411316282284,0.05285658069529035,-0.0999999999999999,-1.3499999999999992,-9.71,0.006486803966642675,0.003996451577096737,0.002384913473623151,177.125,-0.5625,172.0,0.0690917999999999,-0.024780269999999993,-0.9972534200000001,0.0068969700000000005
29.0,0.10356200251361541,0.0672543406414374,0.053538495554624574,-0.0999999999999999,-1.3499999999999992,-9.71,0.008704920751291718,0.007196096913838849,0.0014873679188195316,177.125,-0.5625,172.0,0.0690917999999999,-0.024780269999999993,-0.9972534200000001,0.0068969700000000005
30.0,0.10360895824605498,0.06791113904017128,0.0524486221663641,-0.0999999999999999,-1.3499999999999992,-9.71,0.028851482858539307,-0.00014400921658986113,0.006028385816692268,177.125,-0.5625,172.0,0.0690917999999999,-0.024780269999999993,-0.9972534200000001,0.0068969700000000005
31.0,0.10325993227202904,0.06805439184471442,0.05015800283945446,-0.0999999999999999,-1.3499999999999992,-9.71,0.024154364061118094,-0.007624487967229902,0.014366919482846902,177.125,-0.5625,172.0,0.0690917999999999,-0.024780269999999993,-0.9972534200000001,0.0068969700000000005
32.0,0.10399241551459293,0.0672663850486431,0.05185691884280594,-0.0999999999999999,-1.3499999999999992,-9.71,0.023402997791858678,0.00455629160266257,0.006671426971326165,177.125,-0.5625,172.0,0.0690917999999999,-0.024780269999999993,-0.9972534200000001,0.0068969700000000005
33.0,0.1037855222734255,0.06654649897593444,0.052314548131080385,-0.0999999999999999,-1.3499999999999992,-9.71,0.013575868855606759,-0.007487479198668715,0.006391409050179212,177.125,-0.5625,172.0,0.0690917999999999,-0.024780269999999993,-0.9972534200000001,0.0068969700000000005
34.0,0.10250976062467995,0.06767929147465436,0.05043530785970301,-0.0999999999999999,-1.3499999999999992,-9.71,0.017892645129288273,0.00684893833205325,-0.007572984671018944,177.125,-0.5625,172.0,0.0690917999999999,-0.024780269999999993,-0.9972534200000001,0.0068969700000000005
35.0,0.10217749935995898,0.0673876728110599,0.051587701612903214,-0.0999999999999999,-1.3499999999999992,-9.71,0.01995127688172043,-0.003602230542754736,0.004744803667434716,177.125,-0.5625,172.0,0.0690917999999999,-0.024780269999999993,-0.9972534200000001,0.0068969700000000005
36.0,0.10262895594548818,0.06745360687699396,0.053208746898263014,-0.0999999999999999,-1.3499999999999992,-9.71,0.013134563688999172,0.004902513760880696,0.00697290780456103,177.125,-0.5625,172.0,0.0690917999999999,-0.024780269999999993,-0.9972534200000001,0.0068969700000000005
37.0,0.10115947168870555,0.06839212020058794,0.05279927174080398,-0.09999999999999988,-1.3499999999999992,-9.71,0.006215259315057701,0.011954410536819811,0.009856316118916925,177.125,-0.5625,172.0,0.0690917999999999,-0.024780269999999993,-0.9972534200000001,0.0068969700000000005
38.0,0.10289760418792676,0.06852425710490224,0.05356625453399646,-0.0999999999999999,-1.3499999999999992,-9.71,0.0015085273149789277,0.007300539961830285,0.008417881401752368,177.125,-0.5625,172.0,0.0690917999999999,-0.024780269999999993,-0.9972534200000001,0.0068969700000000005
39.0,0.10236673720544687,0.06818779070391973,0.05368044142237689,-0.09999999999999988,-1.349999999999999,-9.71,0.0033347924476956736,-0.010859749569426988,0.0016124108866044347,177.125,-0.5625,172.0,0.0690917999999999,-0.024780269999999993,-0.9972534200000001,0.0068969700000000005
40.0,0.10234371363403619,0.06858414703575991,0.05433764085376987,-0.0999999999999999,-1.3499999999999992,-9.71,0.010728653067362745,0.0027345862023281375,0.004008133443617314,177.125,-0.5625,172.0,0.0690917999999999,-0.024780269999999993,-0.9972534200000001,0.0068969700000000005
41.0,0.1024931967673903,0.06739629188016283,0.05588470132018517,-0.0999999999999999,-1.3499999999999992,-9.71,0.0037436689654431594,0.01074229310116407,0.00840139922801213,177.125,-0.5625,172.0,0.0690917999999999,-0.024780269999999993,-0.9972534200000001,0.0068969700000000005
42.0,0.1012490421764615,0.06847215150440955,0.05234741871032192,-0.0999999999999999,-1.3499999999999992,-9.71,-0.003587222589238718,0.015983786598705953,0.014920255595658821,177.125,-0.5625,172.0,0.0690917999999999,-0.024780269999999993,-0.9972534200000001,0.0068969700000000005
43.0,0.10023265847056168,0.06751221896383186,0.05181922512970899,-0.0999999999999999,-1.3499999999999992,-9.71,0.0052022825964358225,-0.01139494745845552,0.006851842713737875,177.125,-0.5625,172.0,0.0690917999999999,-0.024780269999999993,-0.9972534200000001,0.0068969700000000005
44.0,0.0991192617866005,0.06862903225806449,0.05222192928039701,-0.0999999999999999,-1.3499999999999992,-9.71,-0.002530823511166253,-0.005758568548387095,0.007549821650124069,177.125,-0.5625,172.0,0.0690917999999999,-0.024780269999999993,-0.9972534200000001,0.0068969700000000005
45.0,0.09968121898263026,0.06949069478908187,0.05396952543424317,-0.0999999999999999,-1.3499999999999992,-9.71,0.0048915361352357325,-0.01057159196650124,0.014584464174937965,177.125,-0.5625,172.0,0.0690917999999999,-0.024780269999999993,-0.9972534200000001,0.0068969700000000005
46.0,0.0993138957816377,0.06762841191066997,0.05243083126550868,-0.0999999999999999,-1.3499999999999992,-9.71,0.006525279156327543,-0.008609258684863522,0.012631823821339951,177.125,-0.5625,172.0,0.0690917999999999,-0.024780269999999993,-0.9972534200000001,0.0068969700000000005
47.0,0.0995775434243176,0.06866284119106698,0.05425015508684862,-0.0999999999999999,-1.3499999999999992,-9.71,0.010381125930521092,-0.01606021246898263,0.011433777915632755,177.125,-0.5625,172.0,0.0690917999999999,-0.024780269999999993,-0.9972534200000001,0.0068969700000000005
48.0,0.09979869727047144,0.06811553970223323,0.05519951923076921,-0.0999999999999999,-1.3499999999999992,-9.71,0.010928776364764269,0.005974236197270472,0.008710065136476427,177.125,-0.5625,172.0,0.0690917999999999,-0.024780269999999993,-0.9972534200000001,0.0068969700000000005
49.0,0.09850031017369723,0.06882459677419353,0.054462624069478896,-0.0999999999999999,-1.3499999999999992,-9.71,0.007607009925558313,0.019380040322580644,0.00373274658808933,177.125,-0.5625,172.0,0.0690917999999999,-0.024780269999999993,-0.9972534200000001,0.0068969700000000005
50.0,0.09763228908188581,0.06803636786600495,0.05278466191066996,-0.0999999999999999,-1.3499999999999992,-9.71,0.013682537220843671,0.017987166563275432,0.008581633839950371,177.125,-0.5625,172.0,0.0690917999999999,-0.024780269999999993,-0.9972534200000001,0.0068969700000000005
51.0,0.09756079404466497,0.06781575682382132,0.0523275434243176,-0.0999999999999999,-1.3499999999999992,-9.71,0.01862593052109181,0.0046215880893300245,0.006102667493796526,177.125,-0.5625,172.0,0.0690917999999999,-0.024780269999999993,-0.9972534200000001,0.0068969700000000005
52.0,0.10021215880893297,0.06716594292803969,0.05289578163771711,-0.0999999999999999,-1.3499999999999992,-9.71,0.01058467741935484,-0.006265508684863523,0.01578396401985112,177.125,-0.5625,172.0,0.0690917999999999,-0.024780269999999993,-0.9972534200000001,0.0068969700000000005
53.0,0.10058995037220841,0.06773557692307691,0.05352853598014888,-0.0999999999999999,-1.3499999999999992,-9.71,0.0020820409429280406,-0.006575682382133995,0.00880699441687345,177.125,-0.5625,172.0,0.0690917999999999,-0.024780269999999993,-0.9972534200000001,0.0068969700000000005
54.0,0.0983846059854124,0.06840602441912925,0.05389435295886908,-0.09999999999999988,-1.3499999999999992,-9.71,-0.004397358354011579,0.019660782765621474,0.006862798659673659,177.125,-0.5625,172.0,0.0690917999999999,-0.024780269999999993,-0.9972534200000001,0.0068969700000000005
55.0,0.09709878562297916,0.06829300135348523,0.05303867772012932,-0.0999999999999999,-1.3499999999999992,-9.71,0.014856027708850287,0.02595554646965937,0.03894289514249192,177.125,-0.5625,172.0,0.0690917999999999,-0.024780269999999993,-0.9972534200000001,0.0068969700000000005
56.0,0.09063210579742836,0.05671308463042334,0.053998522758603396,-0.0998566308243727,-1.331146953405017,-9.710645161290328,-0.019377886338571824,-0.02317297118204376,0.48043091820813594,177.51792114695343,-0.5669802867383512,172.1227598566308,0.06817911505376342,-0.021315050071684584,-0.9973982401433694,0.006694396093189965
57.0,0.07738362827517156,0.04644250716785793,0.05703277713442593,-0.09024205823145277,-1.3199283154121855,-9.710322580645165,0.060083355345279504,0.13893571094862936,1.05156654173774,177.8561490401139,-0.5178996661265773,172.19173786026414,0.06767788078803945,-0.01837802730053518,-0.9974962844419898,0.00605862307310846
58.0,0.08598049673267485,0.04885080491999057,0.056375643201300576,-0.10020528525438799,-1.3229468250147103,-9.710161290322585,0.08020840326845102,0.11819019012164256,0.610007907514272,178.81941419266167,-0.5844944888167792,172.1733845777007,0.06786105847779442,-0.009995812916035527,-0.9975916020717411,0.00605369770169626
59.0,0.09224489157259352,0.04798845231336771,0.055458105080611185,-0.10526393294977471,-1.326150831862193,-9.710080645161291,0.05186495432239756,0.061890183037360866,0.2651090368460901,179.29478774149212,-0.6057553089245187,172.1512084178826,0.06800389762599399,-0.00592131113543712,-0.9976430220036125,0.006002807399235227
60.0,0.09571301650589974,0.0476691641219444,0.05364716668422618,-0.10779325679746805,-1.3277528352859345,-9.710040322580646,0.0065311123969307855,0.03440352824324619,0.09818727276547681,179.5210601238478,-0.6163857189783883,172.14012033797357,0.06807531720009376,-0.003949971907668935,-0.9976687319695483,0.0059773622480047105
61.0,0.09497710942597039,0.05312466026234072,0.05542064264481755,-0.1056215387929992,-1.3291429947038984,-9.71,-0.02279011136425862,-0.0031695396418177646,-0.005880245582070981,179.4920806993465,-0.6049431242334105,172.13074005249933,0.06813954839171354,-0.0041946856357341095,-0.9976546299642874,0.005897463010203075
62.0,0.09915920973185055,0.05621666916376833,0.055727419116351457,-0.10819535078947698,-1.32989407799711,-9.71,-0.022509896431305014,-0.01521286730892683,0.19749900668311388,179.65709188099652,-0.6174433915466655,172.12581246990854,0.06817306685604235,-0.002676210232904956,-0.9976663016180594,0.0059903713960223655
63.0,0.10307825306414013,0.058240737085495126,0.05737769052184373,-0.10910008271298602,-1.3299999999999987,-9.71,0.0015723544768403656,-0.009126053298180314,0.08222071737066697,179.73661647492293,-0.6208455522971652,172.125,0.06817626999999998,-0.0018989419387923916,-0.9976735983439359,0.006047401205955328
64.0,0.10331122640800058,0.05399684186780959,0.05861824197308067,-0.10955004135649307,-1.3299999999999987,-9.71,0.00836435070306038,0.0012820512820512827,0.046821189563125046,179.77657436649372,-0.6229227761485825,172.125,0.06817626999999998,-0.0015066638726220028,-0.9976771291719679,0.006077429473945401
65.0,0.10375166699412276,0.05053223987251042,0.05569453681940674,-0.1097750206782466,-1.3299999999999987,-9.709999999999999,-0.01499956642386403,0.008841617972731395,-0.055675193259740616,179.79691001203096,-0.6239613880742914,172.125,0.06817626999999998,-0.0013221825610608617,-0.997678894585984,0.006092443607940438
66.0,0.10463487553029695,0.04723092932041943,0.055796926278716075,-0.10999503722084378,-1.3299999999999987,-9.709999999999999,0.015013657648283036,-0.02162085768030097,0.04147447570639558,179.81113523573197,-0.625,172.125,0.06817626999999998,-0.001212658323541184,-0.9976804782729529,0.00610224777171215
67.0,0.10625292163611623,0.04831769791083006,0.05621359961578483,-0.11000000000000011,-1.3299999999999987,-9.71,0.0028232059953573994,0.006838454534539339,0.02261378872168414,179.8125,-0.625,172.125,0.06817626999999998,-0.001210348397502602,-0.9976806600000001,0.006103519999999991
68.0,0.1070988453533979,0.049080805250940523,0.057624689826302714,-0.11000000000000011,-1.3299999999999987,-9.709999999999999,0.015530009305210916,0.008622140898903384,0.0195455079844713,179.8125,-0.625,172.125,0.06817626999999998,-0.001216508553590011,-0.9976806600000001,0.006103519999999991
69.0,0.1051077353317858,0.045674397662691116,0.05591408188585607,-0.11000000000000011,-1.3299999999999987,-9.709999999999999,0.05086363988833746,0.018237869456895858,-0.010528114494116706,179.8125,-0.625,172.125,0.06817626999999998,-0.0012195886316337156,-0.9976806600000001,0.006103519999999991
70.0,0.10431513397502601,0.046137126791002965,0.055453759105098845,-0.11000000000000011,-1.3299999999999987,-9.71,0.018109219287801168,-0.01099232757844393,-0.01665593669955175,179.8125,-0.625,172.125,0.06817626999999998,-0.0012207000000000008,-0.9976806600000001,0.006103519999999991
71.0,0.10398907388137359,0.04716032978467943,0.05637721123829344,-0.11000000000000011,-1.3299999999999987,-9.709999999999999,0.04531800308172577,0.004703884175138076,-0.02450222124389658,179.8125,-0.625,172.125,0.06817626999999998,-0.0012207000000000006,-0.9976806600000001,0.006103519999999991
72.0,0.10445111262306891,0.04713351476827024,0.05445287360922116,-0.11000000000000011,-1.3299999999999987,-9.709999999999999,0.008197152905627154,-0.01835215220523493,-0.013538331465620747,179.8125,-0.625,172.125,0.06817626999999998,-0.0012207000000000006,-0.9976806600000001,0.006103519999999991
73.0,0.10588840750820458,0.047918994636996726,0.05369365844873128,-0.11000000000000011,-1.3299999999999987,-9.71,-0.007445388167373729,-0.007322538121347954,-0.004492891018970624,179.8125,-0.625,172.125,0.06817626999999998,-0.0012207000000000008,-0.9976806600000001,0.006103519999999991
74.0,0.1036311277172359,0.04686848349361356,0.054725573463996965,-0.11000000000000011,-1.3299999999999987,-9.71,-0.011733706788499972,0.014842915207119162,-0.0016164051869046665,179.8125,-0.625,172.125,0.06817626999999998,-0.0012207000000000008,-0.9976806600000001,0.006103519999999991
75.0,0.10731680455340703,0.048727045717030106,0.055856583258053066,-0.11000000000000011,-1.3299999999999987,-9.71,-0.025966108977376536,0.021937586635817644,-0.12493971624109501,179.80158188585608,-0.625,172.125,0.06817626999999998,-0.0013292613101736975,-0.9976806600000001,0.006093342173697265
76.0,0.10976130348346885,0.052476107697069424,0.05373563627934414,-0.11801155512758792,-1.3299999999999987,-9.71,-0.04543258816784711,-0.08032050032832411,-0.20309971158475612,179.75407994148364,-0.6789239287433798,172.125,0.06820212975926818,-0.0018260327494537237,-0.997660443996149,0.006452944404133179
77.0,0.11230733795874322,0.05128341675176051,0.05542223834983825,-0.12182591441618887,-1.3299999999999987,-9.71,-0.030568410255722184,-0.019002350604044756,0.025070111521893687,179.52375917895296,-0.7042591295720809,172.125,0.06826365806145232,-0.0038230145467698746,-0.9976390526432362,0.006766510911744011
78.0,0.11935468029570875,0.050079143339459856,0.05532460772850914,-0.1262355378532557,-1.3299999999999987,-9.71,-0.045114582013917284,-0.01268592751326067,0.06552601976328815,179.558348111849,-0.7291456938182985,172.125,0.06828296790169391,-0.003602073881085247,-0.9976283569667799,0.00702237245899375
79.0,0.12458233837543324,0.0488382246296732,0.05487286749417303,-0.13153712376533747,-1.3299999999999987,-9.71,-0.03028972434423069,0.018871449965847904,0.11911536720174332,179.6094935348327,-0.762432648397983,172.125,0.06829262282181472,-0.003100071168830464,-0.9976230091285516,0.00718183718731325
80.0,0.12405295578821292,0.05191166814610211,0.05563122282897237,-0.13286533607621712,-1.3299999999999987,-9.71,0.0011159939072891232,0.014041804387390451,-0.13513834617580328,179.62061215203173,-0.7708332596828624,172.125,0.06829745028187512,-0.0030085332047626264,-0.9976203352094376,0.007253345037825355
81.0,0.12288227953108287,0.0527950252141199,0.05544801391809716,-0.1315048875855327,-1.3299999999999987,-9.71,0.012120647411035027,0.0038161597767477056,-0.14380593283754053,179.58917884924648,-0.7607476361004586,172.125,0.0682990558944282,-0.0032944749341097656,-0.997619630000001,0.007265888171295918
82.0,0.12096460017609863,0.053816867445769634,0.054466431201472834,-0.13083064516129028,-1.3299999999999987,-9.71,0.007328041203073721,0.012859326222684705,-0.09047579144320819,179.5799175038021,-0.7557556606699751,172.125,0.06829834000000004,-0.0033828021713559558,-0.997619630000001,0.007267979569518922
83.0,0.1199854218362283,0.053620192307692306,0.054327388337468974,-0.1304153225806451,-1.3299999999999987,-9.71,0.010151403535980149,0.005519153225806451,-0.03731971153846154,179.5706071650124,-0.7528778303349876,172.125,0.06829834000000004,-0.00346507302636476,-0.997619630000001,0.007265929071960289
84.0,0.11984879032258067,0.05335848325062034,0.055267912531017364,-0.13011088709677415,-1.3299999999999987,-9.71,-0.011053330490074441,-0.0035059320719602978,-0.011929086538461538,179.5648941532258,-0.7507875504032258,172.125,0.06829834000000004,-0.0035184438407258023,-0.9976196300000009,0.0072639183870967655
85.0,0.11938244047619048,0.055205827326795055,0.055643788894796944,-0.12999999999999995,-1.3299999999999987,-9.71,-0.004478848184745362,0.011914408676001418,0.005873714379258734,179.5625,-0.75,172.125,0.06829834000000004,-0.0035400399999999956,-0.997619630000001,0.007263179999999992
86.0,0.11886208717357913,0.05601017172791365,0.056367761382882325,-0.12999999999999995,-1.3299999999999987,-9.71,0.005494320867304739,-0.007462654532967033,0.007977179770274527,179.5625,-0.75,172.125,0.06829834000000004,-0.0035400399999999956,-0.997619630000001,0.007263179999999992
87.0,0.11912610407066054,0.05567141650911811,0.056432368594666965,-0.12999999999999995,-1.3299999999999987,-9.71,0.007755980998168498,-0.003589568193902872,0.009485691699653392,179.5625,-0.75,172.125,0.06829834000000004,-0.0035400399999999956,-0.997619630000001,0.007263179999999992
88.0,0.12038210445468513,0.05625052680294615,0.05734168832959154,-0.12999999999999995,-1.3299999999999987,-9.71,0.005720858442632636,0.011341556628855014,-0.002108842658237819,179.5625,-0.75,172.125,0.06829834000000004,-0.0035400399999999956,-0.997619630000001,0.007263179999999992
89.0,0.12193923120757147,0.05765668099532563,0.05606898712485339,-0.12999999999999992,-1.3299999999999987,-9.709999999999999,0.02626503580100094,0.018848657927010553,0.0022929532006177424,179.5625,-0.75,172.125,0.06829834000000004,-0.003493802081165452,-0.997619630000001,0.007263179999999992
90.0,0.12461400884495319,0.05444149973985431,0.057211400884495306,-0.12999999999999995,-1.3299999999999987,-9.709999999999999,-0.0035485496878251803,0.0009277851847034335,0.017099497593652445,179.5625,-0.75,172.125,0.06829834000000004,-0.0034224126534859525,-0.997619630000001,0.007263179999999992
91.0,0.12296744176738975,0.05115952933642838,0.057144898643240204,-0.12999999999999995,-1.3299999999999987,-9.71,-0.007485348044905146,-0.022932170140278554,0.08539407067958056,179.58582506203473,-0.7574441687344913,172.125,0.06829834000000004,-0.0032316322026734977,-0.9976196300000009,0.007270450272952847
92.0,0.11488089830304972,0.04912311144240772,0.05774331625710396,-0.1276612903225806,-1.3299999999999987,-9.71,-0.015492926038581606,0.009183486502441366,-0.14697660377311295,179.48343672456576,-0.7421293424317618,172.1532258064516,0.06818512975806457,-0.00419209053682062,-0.997619630000001,0.007144253846153838
93.0,0.11781226987112785,0.05088246918274232,0.055169890138477534,-0.1236693548387097,-1.3299999999999987,-9.71,-0.021208970773633234,-0.01715773333066517,-0.007278576002561432,179.4520006203474,-0.7138066066997518,172.17137096774195,0.06808470730583127,-0.004480110965680784,-0.9976196300000009,0.007007436228287839
94.0,0.11320634305210919,0.04973363833746898,0.05621657878411909,-0.12167338709677425,-1.3299999999999987,-9.71,0.013881726892059552,-0.06442889267990075,0.004311414392059551,179.44273418114142,-0.6996452388337469,172.1804435483871,0.06803401139485109,-0.0046135027565136506,-0.9976196300000009,0.006928578114143917
95.0,0.11173169975186106,0.052666718362282865,0.05700697890818857,-0.12067540322580653,-1.3299999999999987,-9.71,-0.008668385545905707,-0.046579365694789085,-0.011453163771712158,179.43810096153845,-0.6925645549007444,172.1849798387097,0.068008663439361,-0.00470976347503102,-0.997619630000001,0.006875368089330022
96.0,0.11213632133995038,0.0545889423076923,0.05588934553349875,-0.12017641129032267,-1.3299999999999987,-9.71,-0.014748274658808933,-0.034642040167493796,-0.021739299007444167,179.43505544354838,-0.6887915826612904,172.18724798387098,0.06799598946161596,-0.004762740263570103,-0.997619630000001,0.006848535880893297
97.0,0.11333684863523572,0.05201969602977666,0.05535204714640197,-0.1200000000000001,-1.3299999999999987,-9.71,-0.027359258684863524,-0.03484026054590571,-0.00494727047146402,179.43709677419355,-0.6875,172.1875,0.06799319029280393,-0.0047562333903536005,-0.9976196300000009,0.006839177013027293
98.0,0.11391408188585606,0.05144905397022331,0.054970068238213377,-0.1200000000000001,-1.3299999999999987,-9.71,-0.04400686259305211,-0.010704869727047145,-0.050907258064516125,179.4375,-0.6875,172.1875,0.06799315999999996,-0.004771785186491937,-0.997619630000001,0.006819080020161284
99.0,0.11582264834180159,0.05246259822167079,0.05613766788766786,-0.1200000000000001,-1.3299999999999987,-9.71,-0.026887243860530152,0.04963158411369096,-0.1491055427547363,179.38424859190985,-0.6875,172.1875,0.06801716344086023,-0.005236171858678957,-0.997619630000001,0.006749572258064512
100.0,0.11472502609397771,0.05034904880066168,0.054054488410335166,-0.1200000000000001,-1.3299999999999987,-9.71,-0.023857703816121154,0.0257688492063492,-0.0001978357384103402,179.34089910985074,-0.6875,172.1875,0.06803666623655916,-0.005633830460356848,-0.9976196300000009,0.006698247741935481
101.0,0.11618811788569852,0.04886404052936309,0.05501363533419984,-0.1200000000000001,-1.3299999999999987,-9.71,0.004026919261294261,-0.02050771249359959,0.0018384561227303155,179.3246834258931,-0.6875,172.1875,0.06804641763440863,-0.005827329101146166,-0.997619630000001,0.006672585483870966
102.0,0.11560522519595101,0.04766775227460711,0.05621773578124383,-0.1200000000000001,-1.3299999999999987,-9.71,0.009201735064890306,0.0038823100063019415,-0.01117754613218323,179.3165755839143,-0.6875,172.1875,0.06805129333333336,-0.005924078421540825,-0.997619630000001,0.006659754354838708
103.0,0.11538829808184647,0.04801230355665838,0.05561642837449288,-0.1200000000000001,-1.3299999999999987,-9.71,0.013122162895348378,0.004776336454763874,-0.004643712582220646,179.3125216629249,-0.6875,172.1875,0.06805373118279573,-0.0059720531220607345,-0.997619630000001,0.00665389258064516
104.0,0.11740741068966876,0.04911623882390011,0.055639755405884436,-0.1200000000000001,-1.3299999999999987,-9.71,-0.005087664072039071,0.022229438068651776,0.002558456048879436,179.31215880893302,-0.6875,172.1875,0.06805420000000004,-0.005981783166253102,-0.997619630000001,0.006652829999999999
105.0,0.11666400311158377,0.04767722611170191,0.058422855370436,-0.1200000000000001,-1.3299999999999987,-9.71,-0.005676586378451297,0.01854337908395368,-3.9010188959785665e-05,179.3125,-0.6875,172.1875,0.06805420000000004,-0.00598145,-0.9976196300000009,0.006652829999999999
106.0,0.11554974349127575,0.04790867353972192,0.05798662929812122,-0.1200000000000001,-1.3299999999999987,-9.71,0.004737941689806609,0.006798781275847807,0.004469532203907204,179.3125,-0.6875,172.1875,0.06805420000000004,-0.00598145,-0.997619630000001,0.006652829999999999
107.0,0.11629893728583247,0.048518228858954654,0.05682417582417581,-0.1200000000000001,-1.3299999999999987,-9.71,-0.015244906443243136,0.006046310040765685,0.009781249076863995,179.3125,-0.6875,172.1875,0.06805420000000004,-0.00598145,-0.997619630000001,0.006652829999999999
108.0,0.11572759364291627,0.04783270313915475,0.05647660404112015,-0.1200000000000001,-1.3299999999999987,-9.71,-0.01037887963291189,0.037706874778447357,0.010450730385206192,179.3125,-0.6875,172.1875,0.06805420000000004,-0.00598145,-0.997619630000001,0.006652829999999999
109.0,0.1177152285438576,0.0489112312418764,0.05576648351648351,-0.1200000000000001,-1.3299999999999987,-9.71,-0.007799083756745047,0.0191739502097365,0.007674752722635787,179.3125,-0.6875,172.1875,0.06805420000000004,-0.00598145,-0.9976196300000009,0.006652829999999999
110.0,0.11686009566150699,0.04911814663830792,0.05882120701878765,-0.1200000000000001,-1.3299999999999987,-9.71,-0.010738871903186419,0.00786551108501713,0.001821247329059829,179.3125,-0.6875,172.1875,0.06805420000000004,-0.00598145,-0.9976196300000009,0.006652829999999999
111.0,0.11779244702430189,0.04805705719012171,0.05574124867068414,-0.1200000000000001,-1.3299999999999987,-9.71,-0.0036053230483674027,-0.0035174712720075635,0.003793058140336366,179.3125,-0.6875,172.1875,0.06805420000000004,-0.00598145,-0.9976196300000009,0.006652829999999999
112.0,0.11568928349875934,0.04856746277915632,0.05611344602977666,-0.1200000000000001,-1.3299999999999987,-9.71,-0.003740016284119107,0.007078260700992555,0.012094350961538462,179.3125,-0.6875,172.1875,0.06805420000000004,-0.00598145,-0.9976196300000009,0.006652829999999999
113.0,0.11630986352357321,0.048280707196029775,0.054329404466501224,-0.1200000000000001,-1.3299999999999987,-9.71,0.009297456575682383,0.01102085918114144,0.006881978908188586,179.3125,-0.6875,172.1875,0.06805420000000004,-0.00598145,-0.9976196300000009,0.006652829999999999
114.0,0.11622441066997521,0.04688228908188585,0.05724410669975185,-0.1200000000000001,-1.3299999999999987,-9.71,0.011294199751861042,-0.019722200682382132,0.010923929900744417,179.3125,-0.6875,172.1875,0.06805420000000004,-0.00598145,-0.997619630000001,0.006652829999999999
115.0,0.117223867866005,0.045912608560794044,0.05795704094292803,-0.1200000000000001,-1.3299999999999987,-9.71,0.013308390198511166,0.0011035398573200992,0.012471890508684864,179.3125,-0.6875,172.1875,0.06805420000000004,-0.00598145,-0.9976196300000009,0.006652829999999999
116.0,0.11669913151364766,0.04687515508684863,0.056352512406947886,-0.1200000000000001,-1.3299999999999987,-9.71,0.00507909429280397,0.014396906017369728,0.006141439205955335,179.3125,-0.6875,172.1875,0.06805420000000004,-0.00598145,-0.997619630000001,0.006652829999999999
117.0,0.11837065756823824,0.04506536910669974,0.05597526364764267,-0.1200000000000001,-1.3299999999999987,-9.71,0.012697735732009925,0.022040264423076925,-0.024976736972704715,179.3125,-0.6875,172.1875,0.06805420000000004,-0.00598145,-0.997619630000001,0.006652829999999999
118.0,0.11860049627791565,0.04708901985111662,0.05826488833746897,-0.1200000000000001,-1.3299999999999987,-9.71,-0.002434378877171217,-0.020016865694789082,-0.009045925093052107,179.3125,-0.6875,172.1875,0.06805420000000004,-0.00598145,-0.9976196300000009,0.006652829999999999
119.0,0.11903815136476428,0.04659894540942926,0.056471153846153824,-0.1200000000000001,-1.3299999999999987,-9.71,-0.008478404156327543,-0.010228946960297768,0.0028012562034739463,179.3125,-0.6875,172.1875,0.06805420000000004,-0.00598145,-0.997619630000001,0.006652829999999999
120.0,0.11859599875930524,0.04496448511166252,0.05682614764267989,-0.1200000000000001,-1.3299999999999987,-9.71,-0.006953221929280397,-0.007440776209677419,0.001679784429280397,179.3125,-0.6875,172.1875,0.06805420000000004,-0.00598145,-0.9976196300000009,0.006652829999999999
121.0,0.11829345508881803,0.045469393733506634,0.05759758162983968,-0.1200000000000001,-1.3299999999999987,-9.71,0.0006669042203316395,-4.9403161802355315e-05,0.001863957754834771,179.3125,-0.6875,172.1875,0.06805420000000004,-0.00598145,-0.9976196300000009,0.006652829999999999
122.0,0.11819639410768445,0.046173049844420805,0.05823411959903894,-0.1200000000000001,-1.3299999999999987,-9.71,0.027313717308676985,-0.022829738026310605,0.0022945622365985272,179.3125,-0.6875,172.1875,0.06805420000000004,-0.00598145,-0.9976196300000009,0.006652829999999999
123.0,0.11815030623498365,0.04705302616290519,0.05645080669778249,-0.1200000000000001,-1.3299999999999987,-9.71,0.025009215974437747,-0.006925104745165228,0.011623397743609437,179.3125,-0.6875,172.1875,0.06805420000000004,-0.00598145,-0.9976196300000009,0.006652829999999999
124.0,0.11706910473039507,0.04512177517822678,0.056292439639213813,-0.1200000000000001,-1.3299999999999987,-9.71,-0.016508748867619834,-0.0024229858403245494,0.02876091762180472,179.3125,-0.6875,172.1875,0.06805420000000004,-0.00598145,-0.997619630000001,0.006652829999999999
125.0,0.11340303871755485,0.045761880144944665,0.05564994190397414,-0.1200000000000001,-1.3299999999999987,-9.71,-0.03944233969435582,0.026642105094726063,-0.0010196652585765503,179.3125,-0.6875,172.1875,0.06805420000000004,-0.00598145,-0.9976196300000009,0.006652829999999999
126.0,0.11419511894915121,0.045814887845129784,0.056706179349324495,-0.1200000000000001,-1.3299999999999987,-9.71,-0.03367406283232896,0.02292166698668715,0.005602558563748078,179.3125,-0.6875,172.1875,0.06805420000000004,-0.00598145,-0.997619630000001,0.006652829999999999
127.0,0.11474520215447635,0.04907121563472369,0.05622902019575404,-0.1177766749379654,-1.3299999999999987,-9.71,-0.005283061192839415,0.013647558059100399,-0.10689164875782818,179.2658498759305,-0.6875,172.1875,0.06805420000000004,-0.006280475866004966,-0.9976196300000009,0.006638291836228284
128.0,0.11191897204498011,0.05287482152703926,0.05521380445271572,-0.11372704714640211,-1.3299999999999987,-9.71,-0.0009719237415809984,0.016290134876324393,-0.03512740199988183,179.1924007444169,-0.6875,172.1875,0.06805420000000004,-0.006761001642679907,-0.9976196300000009,0.006614061563275429
129.0,0.11094444635027362,0.05695680787590256,0.05600497389649313,-0.11170223325062047,-1.3299999999999987,-9.709999999999999,-0.01205939611896948,0.022161432227444197,-0.08280437640316672,179.15567617866003,-0.6875,172.1875,0.06805420000000004,-0.007001264531017376,-0.997619630000001,0.0066019464267990016
130.0,0.1092433445269033,0.055995714584294184,0.05251097487608933,-0.11068982630272964,-1.3299999999999987,-9.709999999999999,-0.00556468368318004,0.021476950703505072,-0.011735551075268809,179.13731389578163,-0.6875,172.1875,0.06805420000000004,-0.00712139597518611,-0.997619630000001,0.006595888858560788
131.0,0.1083108683720026,0.05691490798339133,0.05375164719226893,-0.11018362282878424,-1.3299999999999987,-9.71,0.0032820462792497126,-0.008510756599092319,-0.011692148297491038,179.12813275434246,-0.6875,172.1875,0.06805420000000004,-0.0071814616972704776,-0.997619630000001,0.006592860074441681
132.0,0.1081008436152817,0.05624529518276267,0.055168627566357785,-0.11000000000000011,-1.3299999999999987,-9.71,-0.006811210110995491,0.012331160161992302,-0.017539622535842292,179.125,-0.6875,172.1875,0.06805420000000004,-0.007202150000000006,-0.997619630000001,0.006591799999999993
133.0,0.10722907685446707,0.055849705994086854,0.055846134152585755,-0.11000000000000011,-1.3299999999999987,-9.709999999999999,0.005896635449184876,0.010028641833077317,-0.041090371719273905,179.125,-0.6875,172.1875,0.06805420000000004,-0.007202150000000006,-0.997619630000001,0.006591799999999993
134.0,0.10762883405183093,0.05431233792511108,0.05437038551112433,-0.11000000000000011,-1.3299999999999987,-9.709999999999999,0.00692276563764597,0.0025271939984804186,0.030114056331863304,179.125,-0.6875,172.1875,0.06805420000000004,-0.007202150000000006,-0.997619630000001,0.006591799999999993
135.0,0.10957862593528567,0.0558696866276861,0.055101219381266206,-0.11000000000000011,-1.3299999999999987,-9.71,0.01456609352030788,-0.017737619078588774,-0.03121793343161059,179.125,-0.6875,172.1875,0.06805420000000004,-0.007202150000000006,-0.997619630000001,0.006591799999999993
136.0,0.10899524924433873,0.05406321488446228,0.05479958975438944,-0.11000000000000011,-1.3299999999999987,-9.709999999999999,0.011269366400739968,-0.005155023469889171,0.03243384995994582,179.125,-0.6875,172.1875,0.06805420000000004,-0.007202150000000006,-0.997619630000001,0.006591799999999993
137.0,0.10754275489512222,0.054881367057615746,0.05380263296652474,-0.11000000000000011,-1.3299999999999987,-9.709999999999999,0.006879255160667752,-0.0016084612541753546,0.02413362395639971,179.125,-0.6875,172.1875,0.06805420000000004,-0.007202150000000006,-0.9976196300000009,0.006591799999999993
138.0,0.10743588036284447,0.055055767023183766,0.05466464172317449,-0.11000000000000011,-1.3299999999999987,-9.71,0.012875586320402917,-0.01885545042128354,0.012546584619132745,179.125,-0.6875,172.1875,0.06805420000000004,-0.007202150000000006,-0.997619630000001,0.006591799999999993
139.0,0.10680260186206487,0.05417146673370497,0.053637458816645875,-0.1100000000000001,-1.3299999999999987,-9.709999999999999,0.017431021316967426,-0.02575716373733043,0.0031667328340222326,179.125,-0.6875,172.1875,0.06805420000000004,-0.007202150000000006,-0.9976196300000009,0.006591799999999994
140.0,0.10813668399554857,0.05277373739911055,0.054873164892193904,-0.11000000000000011,-1.3299999999999987,-9.709999999999999,0.005848827190741777,-0.022880471989632955,0.007033215207333696,179.125,-0.6875,172.1875,0.06805420000000004,-0.007202150000000006,-0.9976196300000009,0.006591799999999993
141.0,0.10717968434949124,0.05342901229997151,0.05502763343465054,-0.11000000000000011,-1.3299999999999987,-9.709999999999999,0.023605995281114907,-0.017260995620206696,0.02179184173478027,179.125,-0.6875,172.1875,0.06805420000000004,-0.007202150000000006,-0.997619630000001,0.006591799999999993
142.0,0.11018413497871585,0.05170333989688401,0.05577312192824338,-0.11000000000000011,-1.3299999999999987,-9.709999999999999,0.03294133510954008,-0.05000766902598424,0.027296355110566314,179.125,-0.6875,172.1875,0.06805420000000004,-0.007202150000000006,-0.997619630000001,0.006591799999999993
143.0,0.11336139672642911,0.049880087767182404,0.05876469716483852,-0.11000000000000011,-1.3299999999999987,-9.71,0.011126325516879618,-0.03049218576747241,0.01820046890192934,179.125,-0.6875,172.1875,0.06805420000000004,-0.007202150000000006,-0.997619630000001,0.006591799999999993
144.0,0.11428119528682097,0.04972331132418281,0.059419408003402535,-0.11000000000000011,-1.3299999999999987,-9.71,-0.0004162363165436129,-0.023438354893422858,0.02297469618700758,179.125,-0.6875,172.1875,0.06805420000000004,-0.007202150000000006,-0.997619630000001,0.006591799999999993
145.0,0.11436013969410173,0.04852565015773913,0.05747880122392347,-0.11000000000000011,-1.3299999999999987,-9.71,-0.0160023789909651,-0.025725323840080604,0.0067530450981120845,179.125,-0.6875,172.1875,0.06805420000000004,-0.007202150000000006,-0.997619630000001,0.006591799999999993
146.0,0.1147795858934972,0.04772313428059396,0.05701508896569379,-0.11000000000000011,-1.3299999999999987,-9.71,-0.007627488159242191,-0.04647797459037378,0.010439168106758831,179.125,-0.6875,172.1875,0.06805420000000004,-0.007202150000000006,-0.997619630000001,0.006591799999999993
147.0,0.11456523494426724,0.04782678891449053,0.058247890326519336,-0.11000000000000011,-1.3299999999999987,-9.71,-0.00646039808086179,-0.04576874458426878,0.005692356618515892,179.125,-0.6875,172.1875,0.06805420000000004,-0.007202150000000006,-0.9976196300000009,0.006591799999999993
148.0,0.1144294697093865,0.048025403432271276,0.05801653751497661,-0.11000000000000011,-1.3299999999999987,-9.709999999999999,0.009934595119298553,-0.03674322700077123,0.007907332868311016,179.125,-0.6875,172.1875,0.06805420000000004,-0.007202150000000006,-0.997619630000001,0.006591799999999993
149.0,0.11286117622694108,0.046759757527707585,0.05893018376004847,-0.11000000000000011,-1.3299999999999987,-9.709999999999999,-0.0059454008530491365,-0.009531047704174657,-0.010591264441420528,179.125,-0.6875,172.1875,0.06805420000000004,-0.007202150000000006,-0.997619630000001,0.006591799999999993
150.0,0.11386146368950742,0.04632406719191319,0.05881097001622494,-0.11000000000000011,-1.3299999999999987,-9.71,-0.027174249325654112,0.0017308919185219911,-0.005151623004120403,179.125,-0.6875,172.1875,0.06805420000000004,-0.007202150000000006,-0.997619630000001,0.006591799999999993
151.0,0.11343305250940529,0.047458896982310095,0.06037752141199069,-0.11000000000000011,-1.3299999999999987,-9.709999999999999,-0.01830174897942848,-0.004842274173537181,0.0013465040422636675,179.125,-0.6875,172.1875,0.06805420000000004,-0.007202150000000006,-0.997619630000001,0.006591799999999993
152.0,0.11342124089490116,0.04827783558792924,0.05761804110301767,-0.11000000000000011,-1.3299999999999987,-9.709999999999999,-0.00858480749219563,-0.0062130105359001035,-0.004398087929240375,179.125,-0.6875,172.1875,0.06805420000000004,-0.007202150000000006,-0.997619630000001,0.006591799999999993
153.0,0.11333392950052029,0.04981269510926119,0.057310581425598334,-0.11000000000000011,-1.3299999999999987,-9.71,-0.0011706555671175864,0.018501845408428717,0.0006625585327783559,179.125,-0.6875,172.1875,0.06805420000000004,-0.007202150000000006,-0.997619630000001,0.006591799999999993
154.0,0.11330921566077004,0.05014340530697191,0.057325864984391246,-0.11000000000000011,-1.3299999999999987,-9.709999999999999,-0.0038808451482830386,0.01730781737773153,-0.0028697320499479705,179.125,-0.6875,172.1875,0.06805420000000004,-0.007202150000000006,-0.997619630000001,0.006591799999999993
155.0,0.11264151099218739,0.04939989965809424,0.056965183836281644,-0.11000000000000011,-1.3299999999999987,-9.709999999999999,-0.0032167542593693737,0.015633355373453575,0.0016373305956097317,179.125,-0.6875,172.1875,0.06805420000000004,-0.007202150000000006,-0.997619630000001,0.006591799999999993
156.0,0.11264229555852864,0.04851368552103463,0.0598249436351023,-0.11000000000000011,-1.3299999999999987,-9.71,0.0025702128807211402,0.017604658956237716,-0.010904149478469849,179.125,-0.6875,172.1875,0.06805420000000004,-0.007202150000000006,-0.997619630000001,0.006591799999999993
157.0,0.11199151068249014,0.049836479857291505,0.057170536333680175,-0.11000000000000011,-1.3299999999999987,-9.71,0.020926613496812182,0.02356102403457047,-0.002774403368267182,179.125,-0.6875,172.1875,0.06805420000000004,-0.007202150000000006,-0.997619630000001,0.006591799999999993
158.0,0.11405599119633977,0.04998000388153874,0.05683079588061376,-0.11000000000000011,-1.3299999999999987,-9.71,0.028274196645359496,0.012655067988867414,0.008758947669425036,179.125,-0.6875,172.1875,0.06805420000000004,-0.007202150000000006,-0.997619630000001,0.006591799999999993
159.0,0.11584693420378905,0.04885576676907322,0.05692476318484381,-0.11000000000000011,-1.3299999999999987,-9.71,0.004170266897081413,-0.003005192332309267,-0.008611551139272911,179.125,-0.6875,172.1875,0.06805420000000004,-0.007202150000000006,-0.997619630000001,0.006591799999999993
160.0,0.11542986751152073,0.049778625832053246,0.056468013952892984,-0.11000000000000011,-1.3299999999999987,-9.71,0.020070284498207885,0.01773063476062468,-0.005937880024321556,179.125,-0.6875,172.1875,0.06805420000000004,-0.007202150000000006,-0.997619630000001,0.006591799999999993
161.0,0.1155394745263697,0.05107406874039938,0.05573340693804404,-0.11000000000000011,-1.3299999999999987,-9.71,0.024758084517409115,0.02546312964029698,0.001489595334101383,179.125,-0.6875,172.1875,0.06805420000000004,-0.007202150000000006,-0.997619630000001,0.006591799999999993
162.0,0.11516641065028163,0.04963229646697388,0.05666458653353813,-0.11000000000000011,-1.3299999999999987,-9.71,0.016301043266769073,0.010258656554019458,0.006714429723502304,179.125,-0.6875,172.1875,0.06805420000000004,-0.007202150000000006,-0.997619630000001,0.006591799999999993
163.0,0.11543522785458271,0.04940396185355863,0.05806091589861751,-0.11000000000000011,-1.3299999999999987,-9.71,0.005542354710701485,-0.010279657898105476,-0.004643297171018944,179.125,-0.6875,172.1875,0.06805420000000004,-0.007202150000000006,-0.997619630000001,0.006591799999999993
164.0,0.11480862775217618,0.04916378648233487,0.05760368663594468,-0.11000000000000011,-1.3299999999999987,-9.71,0.0071824596774193545,-0.00024801587301587213,0.006792434715821812,179.125,-0.6875,172.1875,0.06805420000000004,-0.007202150000000006,-0.997619630000001,0.006591799999999993
165.0,0.11522817460317464,0.048442620327700976,0.057333589349718356,-0.11000000000000011,-1.3299999999999987,-9.71,0.011599742383512544,0.006828437019969279,0.0034442204301075264,179.125,-0.6875,172.1875,0.06805420000000004,-0.007202150000000006,-0.997619630000001,0.006591799999999993
166.0,0.11602083952727815,0.047687028744033175,0.05791113340931237,-0.11000000000000011,-1.3299999999999987,-9.709999999999999,0.012099629214979436,0.020055799700213074,-0.00048706343012404384,179.125,-0.6875,172.1875,0.06805420000000004,-0.007202150000000006,-0.997619630000001,0.006591799999999993
167.0,0.11567675040880039,0.04774220388814561,0.058753953801430364,-0.11000000000000011,-1.3299999999999987,-9.709999999999999,0.001371765212328428,-0.013598612246667658,0.01065616586558314,179.125,-0.6875,172.1875,0.06805420000000004,-0.007202150000000006,-0.997619630000001,0.006591799999999993
168.0,0.1139750879540162,0.046835771682936095,0.0587318156103926,-0.11000000000000011,-1.3299999999999987,-9.71,0.007918345483788381,0.014674068172621114,0.012736557075136679,179.125,-0.6875,172.1875,0.06805420000000004,-0.007202150000000006,-0.997619630000001,0.006591799999999993
169.0,0.11377325826272239,0.04803258118196983,0.05884747462547278,-0.11000000000000011,-1.3299999999999987,-9.71,0.00887148713001503,0.017777702289075534,-0.001968255000578102,179.125,-0.6875,172.1875,0.06805420000000004,-0.007202150000000006,-0.997619630000001,0.006591799999999993
170.0,0.11429330186809378,0.04871858637662488,0.05972136023157093,-0.11000000000000011,-1.3299999999999987,-9.709999999999999,0.015614386417504914,0.007612003297243282,0.005779660220834778,179.125,-0.6875,172.1875,0.06805420000000004,-0.007202150000000006,-0.997619630000001,0.006591799999999993
171.0,0.11365029297358903,0.049486764572287456,0.05899959790975008,-0.11000000000000011,-1.3299999999999987,-9.709999999999999,0.005579695810209273,0.014862193115843286,0.0009387374985547463,179.125,-0.6875,172.1875,0.06805420000000004,-0.007202150000000006,-0.997619630000001,0.006591799999999993
172.0,0.11432010616421387,0.05066576131840178,0.058942843309713736,-0.11000000000000011,-1.3299999999999987,-9.71,-0.006140973667476008,0.02984478103372809,-0.00390941149265811,179.125,-0.6875,172.1875,0.06805420000000004,-0.007202150000000006,-0.997619630000001,0.006591799999999993
173.0,0.1143693093132154,0.051062857700312166,0.05749398413111342,-0.11000000000000011,-1.3299999999999987,-9.709999999999999,-0.009537997528616024,0.025192467156607695,0.0030241935483870967,179.125,-0.6875,172.1875,0.06805420000000004,-0.007202150000000006,-0.997619630000001,0.006591799999999993
174.0,0.11333636836628513,0.048850481269510915,0.05763560093652444,-0.11000000000000011,-1.3299999999999987,-9.709999999999999,-0.012486992715920915,-0.0099119569458897,0.04107862903225806,179.125,-0.6875,172.1875,0.06805420000000004,-0.007202150000000006,-0.997619630000001,0.006591799999999993
175.0,0.11363827155905723,0.04648633770625836,0.05676186501742562,-0.11270353302611374,-1.3299999999999987,-9.71,-0.0066011966701352755,-0.04178981970975175,0.02544827385081677,179.125,-0.6875,172.1875,0.06805420000000004,-0.007202150000000006,-0.997619630000001,0.006608299662058369
176.0,0.11394615190856089,0.04719226159506466,0.0567957510570999,-0.11651305683563756,-1.3299999999999987,-9.71,0.013899502471383975,-0.0701483120726178,0.1272024635383116,179.17540322580646,-0.6875,172.1875,0.06805420000000004,-0.00685513637096774,-0.997619630000001,0.006655669831029188
177.0,0.1188800238450993,0.046424488427805284,0.05666861839455491,-0.12103816613494037,-1.328967741935482,-9.71,-0.01956573806331546,-0.02830728064859178,0.5818413837542674,179.38494106699753,-0.7063585607940446,172.1875,0.06801881991066998,-0.00507261031203474,-0.9976365911910674,0.006789482925440151
178.0,0.12362732507188154,0.04139163737248414,0.056430538323683485,-0.12829942100909847,-1.3243225806451595,-9.71,-0.034165332735141205,-0.07030665347197605,0.06546368198333924,179.63643494722123,-0.7455723935562645,172.1875,0.06790600156823828,-0.0029091728032267913,-0.9976596099503725,0.007051163162668877
179.0,0.1253242472133601,0.03986164529914531,0.05575055141990625,-0.12947229114971048,-1.3219999999999983,-9.71,-0.02239075608531254,-0.0495812501230848,0.03351939139489543,179.7032981187719,-0.7487942612942613,172.1875,0.0678540930421837,-0.00237798914354888,-0.997671119330025,0.007136500936173152
180.0,0.12660989626413013,0.03805934287486708,0.05630077494190397,-0.12997424081295045,-1.320838709677418,-9.71,-0.018875869594115562,-0.002133174984737484,0.028888471939127185,179.73672970454723,-0.7504051951632597,172.1875,0.06782813877915643,-0.0021123973137099237,-0.9976768740198513,0.007178654208485964
181.0,0.12625675489385169,0.03715424494859979,0.058121386230257185,-0.13014841072905584,-1.3202580645161275,-9.71,-0.027839474034030483,0.00840170694001339,0.0004469209106305865,179.75187039662845,-0.7512106620977588,172.1875,0.06781516164764279,-0.0019904455746977043,-0.9976797513647644,0.007198508334081696
182.0,0.1258567637559573,0.03684432480601836,0.05755870406475244,-0.13015360983102914,-1.3199999999999985,-9.71,-0.010010071413801253,0.006016354277442987,-0.009823213301035881,179.75368023553506,-0.7510240655401945,172.1875,0.06780977870967753,-0.001979751556579622,-0.9976806600000001,0.007204993896569386
183.0,0.12473585755642205,0.03927981729292214,0.055856924997045955,-0.12999999999999995,-1.3199999999999985,-9.71,-0.009277309132399858,-0.010872711238134625,0.019769972970577806,179.75,-0.75,172.1875,0.06781006000000012,-0.0020141600000000005,-0.9976806600000001,0.007202150000000006
184.0,0.1246442159990547,0.03894794989956281,0.05641849816849816,-0.12999999999999995,-1.3199999999999985,-9.71,-0.01091700638071606,-0.012407994111623143,0.0038666474654377864,179.75,-0.75,172.1875,0.06781006000000012,-0.0020141600000000005,-0.9976806600000001,0.007202150000000006
185.0,0.12572456575682384,0.041742280121312376,0.05457381641655834,-0.12999999999999995,-1.3199999999999985,-9.71,-0.011362881070542358,-0.0017557123655913979,0.0056455613159242185,179.75,-0.75,172.1875,0.06781006000000012,-0.0020141600000000005,-0.9976806600000001,0.007202150000000006
186.0,0.12664392059553348,0.04173218224427901,0.05551519604947023,-0.12999999999999995,-1.3199999999999985,-9.71,-0.008651353686635945,-0.00011793062448304387,0.007684753362676749,179.75,-0.75,172.1875,0.06781006000000012,-0.0020141600000000005,-0.9976806600000001,0.007202150000000006
187.0,0.12680811571940603,0.04075848546614676,0.054788871410847206,-0.12999999999999995,-1.3199999999999985,-9.71,-0.017324908794162826,-0.016500140624384575,0.011590811042675961,179.75,-0.75,172.1875,0.06781006000000012,-0.0020141600000000005,-0.9976806600000001,0.007202150000000006
188.0,0.12801331285202253,0.040599816849816846,0.05445644767418961,-0.12999999999999995,-1.3199999999999985,-9.71,-0.0059447804659498215,0.016303751132380164,0.0011478580783016263,179.75,-0.75,172.1875,0.06781006000000012,-0.0020141600000000005,-0.9976806600000001,0.007202150000000006
189.0,0.12811040214266017,0.04007646520146521,0.05531164579148448,-0.12999999999999995,-1.3199999999999985,-9.71,-0.004306875640040962,-0.004416313413289219,-0.004360294443459766,179.75,-0.75,172.1875,0.06781006000000012,-0.0020141600000000005,-0.9976806600000001,0.007202150000000006
190.0,0.127654791445114,0.039807817854188826,0.055674256075465736,-0.12999999999999995,-1.3199999999999985,-9.71,-0.015066264240911417,-0.007408489527945173,0.006764425230907084,179.75,-0.75,172.1875,0.06781006000000012,-0.0020141600000000005,-0.9976806600000001,0.007202150000000006
191.0,0.12693223443223442,0.038830320217416996,0.0566022490054748,-0.12999999999999995,-1.3199999999999985,-9.71,-0.000870455709165387,0.005336833865059671,0.00676867934932451,179.75,-0.75,172.1875,0.06781006000000012,-0.0020141600000000005,-0.9976806600000001,0.007202150000000006
192.0,0.12646761392729133,0.03819124423963133,0.05831349206349205,-0.12999999999999995,-1.3199999999999985,-9.71,-0.037410394265232974,-0.027541762672811058,0.001088069636456733,179.75,-0.75,172.1875,0.0678025593343575,-0.0020141600000000005,-0.9976806600000001,0.007202150000000006
193.0,0.12760400665642602,0.04199116743471583,0.055945020481310795,-0.12999999999999995,-1.3199999999999985,-9.71,-0.06213197644649257,-0.0170430907578085,0.0016801075268817202,179.75,-0.75,172.1875,0.06771180128008203,-0.0020141600000000005,-0.9976806600000001,0.007202150000000006
194.0,0.12657466077828983,0.04156778033794163,0.05738879288274448,-0.12999999999999995,-1.3199999999999985,-9.71,-0.030513952892985148,0.0024631576420890942,-0.01160074244751664,179.75,-0.75,172.1875,0.06766642225294428,-0.0020141600000000005,-0.9976806600000001,0.007202150000000006
195.0,0.1261682812216111,0.04070568387344532,0.056845248418479405,-0.12999999999999992,-1.3199999999999985,-9.709999999999999,-0.01276628478416167,0.003990545717506566,-0.007644763458409725,179.75,-0.75,172.1875,0.0676437327393754,-0.0020141600000000005,-0.9976806600000001,0.007202150000000006
196.0,0.124048362320995,0.04054945451992799,0.056332890466280164,-0.12999999999999995,-1.3199999999999985,-9.709999999999999,-0.018364659209157128,-0.02184175271088317,0.001187688915316387,179.75,-0.75,172.1875,0.06763238798259097,-0.0020141600000000005,-0.9976806600000001,0.007202150000000006
197.0,0.12265270138579193,0.03950667810481807,0.05591094088086152,-0.12999999999999995,-1.3199999999999985,-9.71,-0.011542480654245742,-0.039698718137315625,0.0177949453281139,179.75,-0.75,172.1875,0.06762695000000009,-0.0020141600000000005,-0.9976806600000001,0.007202150000000006
198.0,0.12279812488644433,0.039985193891118716,0.05644589382752753,-0.12999999999999995,-1.3199999999999985,-9.71,-0.020545685891639,0.009463266939406703,0.009370002905992434,179.75,-0.75,172.1875,0.06762695000000009,-0.0020141600000000005,-0.9976806600000001,0.007202150000000006
199.0,0.12513768106965298,0.0403911889070578,0.054913243479840765,-0.12999999999999992,-1.3199999999999985,-9.709999999999999,-0.008727719864393902,0.02729368227953686,-0.0016850110665147088,179.75,-0.75,172.1875,0.06762695000000009,-0.0020141600000000005,-0.9976806600000001,0.007202150000000006
200.0,0.12505583325074743,0.039391744297441494,0.055822906859587386,-0.12999999999999995,-1.3199999999999985,-9.709999999999999,0.0031315875183753703,-0.004075583417983909,0.0037425621046198562,179.75,-0.75,172.1875,0.06762695000000009,-0.0020141600000000005,-0.9976806600000001,0.007202150000000006
201.0,0.12362366675338193,0.040013332466181065,0.05765543704474503,-0.12999999999999995,-1.3199999999999985,-9.71,0.003949946344953174,-0.00987029298907388,0.00624756113423517,179.75,-0.75,172.1875,0.06762695000000009,-0.0020141600000000005,-0.9976806600000001,0.007202150000000006
202.0,0.12536875650364204,0.040115114464099905,0.05715010405827262,-0.12999999999999992,-1.3199999999999985,-9.709999999999999,0.004166395681581685,0.007960864334027054,-0.0036552500650364203,179.75,-0.75,172.1875,0.06762695000000009,-0.0020141600000000005,-0.9976806600000001,0.007202150000000006
203.0,0.12513397502601456,0.039644250780437054,0.055560939125910494,-0.12999999999999995,-1.3199999999999985,-9.709999999999999,0.024764649453694068,0.00205880918314256,-0.018476440556711757,179.75,-0.75,172.1875,0.06762695000000009,-0.0020141600000000005,-0.9976806600000001,0.007202150000000006
204.0,0.12621588168739575,0.041365697727235196,0.054935219079827555,-0.12999999999999995,-1.3199999999999985,-9.71,0.011821514641453184,-0.018631208526377948,-0.005442622521389757,179.75,-0.75,172.1875,0.06762695000000009,-0.0020141600000000005,-0.9976806600000001,0.007202150000000006
205.0,0.12614045492459908,0.04046227474687413,0.05752053292701054,-0.12999999999999995,-1.3199999999999985,-9.71,0.011306852670828997,0.005060565811695818,0.012497912769643061,179.75,-0.75,172.1875,0.06762695000000009,-0.0020141600000000005,-0.9976806600000001,0.007202150000000006
206.0,0.12669779640090517,0.03747391833077318,0.05635619518358851,-0.12999999999999992,-1.3199999999999985,-9.709999999999999,0.034206447277141866,0.01268358594304874,0.012870985033364715,179.75,-0.75,172.1875,0.06762695000000009,-0.0020141600000000005,-0.9976806600000001,0.007202150000000006
207.0,0.1283983258799531,0.03865495324206954,0.05799451478542268,-0.12999999999999995,-1.3199999999999985,-9.709999999999999,-0.02613799144187411,-0.08038452376584855,0.029459385896975325,179.75,-0.75,172.1875,0.06762695000000009,-0.0020141600000000005,-0.9976806600000001,0.007202150000000006
208.0,0.1302351818605721,0.03513164070292063,0.056313867194200166,-0.13373200992555823,-1.3199999999999985,-9.71,-0.01673970756957229,-0.015346864085157518,0.05197404197144051,179.78870967741932,-0.7733250620347394,172.1875,0.06761774249627794,-0.001693324109181142,-0.9976806600000001,0.007243828133995037
209.0,0.12957838738900132,0.036101984730496695,0.05558520771632114,-0.13702729528535973,-1.3199999999999985,-9.709999999999999,-0.007833561397557235,-0.005520520062663657,0.014428603827667303,179.83387096774192,-0.7939205955334987,172.1875,0.06759084689330022,-0.0013497110868486355,-0.9976806600000001,0.007254488421836224
210.0,0.130901584887537,0.03531673737292884,0.05730873289041863,-0.13867493796526048,-1.3199999999999985,-9.709999999999999,-0.011653275834467302,0.008400454254382456,0.014798787320899703,179.8564516129032,-0.8042183622828784,172.1875,0.06757739909181137,-0.001177904575682382,-0.9976806600000001,0.007259818565756818
211.0,0.1309138517569839,0.03624577763547587,0.0578973425118066,-0.13949875930521086,-1.3199999999999985,-9.709999999999999,4.289902345313429e-05,0.004931886856639719,0.01030977347314496,179.86774193548388,-0.8093672456575682,172.1875,0.06757067519106694,-0.0010920013200992557,-0.9976806600000001,0.007262483637717114
212.0,0.13247305491075004,0.03739956375570319,0.058472244456895854,-0.13991066997518606,-1.3199999999999985,-9.709999999999999,0.025060221223885376,0.037926551368766506,-0.011183512767149604,179.8733870967742,-0.811941687344913,172.1875,0.06756731324069472,-0.0010490496923076923,-0.9976806600000001,0.0072638161736972625
213.0,0.13644996634623327,0.03727471590439853,0.05899526989082139,-0.13999999999999996,-1.3199999999999985,-9.71,0.049489522168128436,-0.004853633213170807,-0.007251431833572832,179.875,-0.8124999999999999,172.1875,0.06756591999999992,-0.0010375999999999999,-0.9976806600000001,0.007263179999999992
214.0,0.13856833417983916,0.03589612444873892,0.05638579707810976,-0.13999999999999996,-1.3199999999999985,-9.71,0.005783289485365772,-0.012716249323827693,0.011580934728209702,179.875,-0.8124999999999999,172.1875,0.06756591999999992,-0.0010375999999999999,-0.9976806600000001,0.007263179999999992
215.0,0.13513850176733894,0.03521116706307914,0.054820922732603264,-0.13999999999999996,-1.3199999999999985,-9.71,0.01068839373461837,0.0406586344106668,0.018139257686685496,179.875,-0.8124999999999999,172.1875,0.06756591999999992,-0.0010375999999999999,-0.9976806600000001,0.007263179999999992
216.0,0.13230650374527197,0.0351550112110401,0.055771543572337004,-0.13999999999999996,-1.3199999999999985,-9.709999999999999,0.01345749031163801,0.0182156335424822,0.007931491486422871,179.875,-0.8124999999999999,172.1875,0.06756591999999992,-0.0010375999999999999,-0.9976806600000001,0.007263179999999992
217.0,0.1324612155823134,0.03574534834745553,0.05459444114100719,-0.13999999999999996,-1.3199999999999985,-9.709999999999999,0.00800457680904481,0.010100130279305617,0.007982252799663048,179.875,-0.8124999999999999,172.1875,0.06756591999999992,-0.0010375999999999999,-0.9976806600000001,0.007263179999999992
218.0,0.13204986022331233,0.03595511144971344,0.05657013403696544,-0.13999999999999996,-1.3199999999999985,-9.71,-0.024799554913449942,0.005258078452504831,0.004007127423897064,179.875,-0.8124999999999999,172.1875,0.06756591999999992,-0.0010375999999999999,-0.9976806600000001,0.007263179999999992
219.0,0.1309417660794807,0.03648291555175662,0.057469200609484156,-0.13999999999999996,-1.3199999999999985,-9.709999999999999,-0.0019222036661959256,-0.015261138003154782,0.009343904461498439,179.875,-0.8124999999999999,172.1875,0.06756591999999992,-0.0010375999999999999,-0.9976806600000001,0.007263179999999992
220.0,0.13092703223328872,0.037523211808136364,0.05521141482087111,-0.13999999999999996,-1.3199999999999985,-9.709999999999999,-0.009261883083097963,-0.014151486340287067,0.00881446735171696,179.875,-0.8124999999999999,172.1875,0.06756591999999992,-0.0010375999999999999,-0.9976806600000001,0.007263179999999992
221.0,0.1318640496217564,0.037938471933171465,0.05536382973671604,-0.13999999999999996,-1.3199999999999985,-9.71,-0.00591515276332524,-0.025955919243347704,0.006999915736542622,179.875,-0.8124999999999999,172.1875,0.06756591999999992,-0.0010375999999999999,-0.9976806600000001,0.007263179999999992
222.0,0.13137305303668462,0.03781752225690832,0.05673685438448704,-0.13999999999999996,-1.3199999999999985,-9.71,-0.0005004191235981038,-0.01404902817006095,0.007421958876335827,179.875,-0.8124999999999999,172.1875,0.06756591999999992,-0.0010375999999999999,-0.9976806600000001,0.007263179999999992
223.0,0.13154290132633004,0.038083108286672294,0.0598430815701237,-0.13999999999999996,-1.3199999999999985,-9.71,-0.010474863939679236,-0.009528674351287514,0.001694850405909849,179.875,-0.8124999999999999,172.1875,0.06756591999999992,-0.0010375999999999999,-0.9976806600000001,0.007263179999999992
224.0,0.13183387736815155,0.037452476958525355,0.06117903545826932,-0.13999999999999996,-1.3199999999999985,-9.71,0.0016221038146441357,-0.022628448220686125,9.150585637480784e-05,179.875,-0.8124999999999999,172.1875,0.06756591999999992,-0.0010375999999999999,-0.9976806600000001,0.007263179999999992
225.0,0.1328680235535074,0.038833365335381474,0.05718013952892985,-0.13999999999999996,-1.3199999999999985,-9.71,0.0036232318868407573,-0.023957533282130055,0.002976190476190476,179.875,-0.8124999999999999,172.1875,0.06756591999999992,-0.0010375999999999999,-0.9976806600000001,0.007263179999999992
226.0,0.13204589093701996,0.03780633960573477,0.057924427163338454,-0.13999999999999996,-1.3199999999999985,-9.71,0.010548175083205324,0.002438156041986687,-0.008320532514080901,179.875,-0.8124999999999999,172.1875,0.06756591999999992,-0.0010375999999999999,-0.9976806600000001,0.007263179999999992
227.0,0.13248247887864822,0.03836749551971326,0.05776609703020992,-0.13999999999999996,-1.3199999999999985,-9.71,-0.0024851590501792113,0.002274645577316948,0.005442348310291858,179.875,-0.8124999999999999,172.1875,0.06756591999999992,-0.0010375999999999999,-0.9976806600000001,0.007263179999999992
228.0,0.13072196620583715,0.03822836661546339,0.05924731182795699,-0.13999999999999996,-1.3199999999999985,-9.71,0.01241679467485919,0.005312339989759345,0.007904505888376856,179.875,-0.8124999999999999,172.1875,0.06756591999999992,-0.0010375999999999999,-0.9976806600000001,0.007263179999999992
229.0,0.13090117767537118,0.03678955453149002,0.0557347670250896,-0.13999999999999996,-1.3199999999999985,-9.71,0.010080645161290322,0.004256272401433692,0.0008960573476702511,179.875,-0.8124999999999999,172.1875,0.06756591999999992,-0.0010375999999999999,-0.9976806600000001,0.007263179999999992
230.0,0.13062735830477762,0.036724723305368474,0.05551593209657725,-0.13999999999999996,-1.3199999999999985,-9.71,-0.0014912954429083464,-0.003923451100870456,0.0013445783607073931,179.875,-0.8124999999999999,172.1875,0.06756591999999992,-0.0010375999999999999,-0.9976806600000001,0.007263179999999992
231.0,0.13012670460537262,0.0374146055124203,0.05644906163324476,-0.13999999999999996,-1.3199999999999985,-9.709999999999999,-0.004659704672711956,-0.006556084105511784,0.009821261811376275,179.875,-0.8124999999999999,172.1875,0.06756591999999992,-0.0010375999999999999,-0.9976806600000001,0.007263179999999992
232.0,0.13163017257918402,0.03816070777413129,0.055198417145347414,-0.13999999999999996,-1.3199999999999985,-9.709999999999999,0.00899887270204648,0.013827052673306575,0.011159030803281584,179.875,-0.8124999999999999,172.1875,0.06756591999999992,-0.0010375999999999999,-0.9976806600000001,0.007263179999999992
233.0,0.13238702689379067,0.03698101952966677,0.057094856294127874,-0.13999999999999996,-1.3199999999999985,-9.71,-0.02100619600944783,0.001153157673058818,0.0069556034712772484,179.875,-0.8124999999999999,172.1875,0.06756591999999992,-0.0010375999999999999,-0.9976806600000001,0.007263179999999992
234.0,0.1321433342354258,0.0367905609681104,0.0558451752028755,-0.13999999999999996,-1.3199999999999985,-9.71,-0.011639170713377268,0.012641350981946716,0.007606065944547994,179.875,-0.8124999999999999,172.1875,0.06756591999999992,-0.0010375999999999999,-0.9976806600000001,0.007263179999999992
235.0,0.13131396280329682,0.03669921068496772,0.055418865517070495,-0.13999999999999996,-1.3199999999999985,-9.709999999999999,-0.016023799716730257,0.006001997031035792,0.009495220597344037,179.875,-0.8124999999999999,172.1875,0.06756591999999992,-0.0010375999999999999,-0.9976806600000001,0.007263179999999992
236.0,0.13154928108947356,0.03765501637266076,0.058315572196620584,-0.13999999999999996,-1.3199999999999985,-9.709999999999999,0.009743042909584922,-0.0024132834824009386,0.007999431318443091,179.875,-0.8124999999999999,172.1875,0.06756591999999992,-0.0010375999999999999,-0.9976806600000001,0.007263179999999992
237.0,0.1299177857060271,0.03634514931536264,0.05852774577572963,-0.13999999999999996,-1.3199999999999985,-9.71,-0.005051613625852701,0.0038021788233156602,0.006819146102769932,179.875,-0.8124999999999999,172.1875,0.06756591999999992,-0.0010375999999999999,-0.9976806600000001,0.007263179999999992
238.0,0.13092558554101769,0.03671613521604887,0.058433120703331565,-0.13999999999999996,-1.3199999999999985,-9.709999999999999,0.001959988474693369,0.03169106154364477,-0.005628382426945975,179.875,-0.8124999999999999,172.1875,0.06756591999999992,-0.0010375999999999999,-0.9976806600000001,0.007263179999999992
239.0,0.13051447607824052,0.036529230562453524,0.057748186375731314,-0.13999999999999996,-1.3199999999999985,-9.709999999999999,0.007667922264740437,0.013419375497884852,-0.008572559749059263,179.875,-0.8124999999999999,172.1875,0.06756591999999992,-0.0010375999999999999,-0.9976806600000001,0.007263179999999992
240.0,0.13205178901941525,0.03586148857789195,0.05821741116021588,-0.13999999999999996,-1.3199999999999985,-9.71,-0.0035213483171119674,0.0036537502334575644,-0.0029290317203251827,179.875,-0.8124999999999999,172.1875,0.06756591999999992,-0.0010375999999999999,-0.9976806600000001,0.007263179999999992
241.0,0.13188526950970764,0.03593729670830081,0.05804267735430148,-0.13999999999999996,-1.3199999999999985,-9.71,0.005248524430153694,0.0055283620118900725,-0.0010707406585496876,179.875,-0.8124999999999999,172.1875,0.06756591999999992,-0.0010375999999999999,-0.9976806600000001,0.007263179999999992
242.0,0.13065021850175204,0.031694416034051154,0.056820695066728905,-0.1382531017369727,-1.3180148883374685,-9.71,-0.035289868135419435,0.03435270651773164,-0.08350828828833193,179.83579404466502,-0.8095223325062034,172.20089950372207,0.0674883766153846,-0.0013046403176178664,-0.9976903536972704,0.0072757818858560745
243.0,0.12664077454803263,0.023269491709007842,0.06113654043089525,-0.13396526054590568,-1.3035235732009918,-9.711588089330025,-0.15274820665445668,0.008310470331639685,0.03842753628539918,179.8494416873449,-0.7787531017369727,172.2919665012407,0.06680017715136478,-0.0010916375583126556,-0.9977397890124067,0.007119242292803971
244.0,0.12518977236920786,0.009640843699311443,0.06233734343613375,-0.13182133995037218,-1.2859553349875927,-9.715955334987601,-0.1665136904426219,0.013505651774300968,0.0017944714895319729,179.86222084367245,-0.7633684863523573,172.40102357320097,0.065985969866005,-0.0008756071662531022,-0.9978047328933004,0.00700219953349876
245.0,0.12366759483795775,0.004171420313557411,0.0635304228701406,-0.1307493796526054,-1.2771712158808932,-9.71813895781639,-0.07948860405387624,0.004328670741221145,0.018994393962891945,179.8686104218362,-0.7556761786600497,172.45555210918116,0.06557886622332512,-0.0007675919702233257,-0.9978372048337474,0.006943678153846155
246.0,0.12212121212121216,0.0009477216332055046,0.0633860628618693,-0.13021339950372202,-1.2727791563275437,-9.719230769230784,-0.03948428923227311,-0.0048938125046996015,0.010474001804646966,179.8718052109181,-0.7518300248138958,172.48281637717122,0.06537531440198517,-0.0007135843722084374,-0.9978534408039708,0.006914417464019853
247.0,0.12187698323182194,-0.0008598860816602751,0.06289154259718775,-0.12999999999999995,-1.270645161290323,-9.71977667493798,-0.00695523394616137,0.005129086303481464,0.015891467403564178,179.87462779156326,-0.75,172.49602977667493,0.06527596172208444,-0.0006782355632754349,-0.9978612558610429,0.006899393310173698
248.0,0.12351169260846681,-0.0018716303857432889,0.06437877377998344,-0.12999999999999995,-1.2700000000000005,-9.720000000000015,0.012651415284983833,0.014227074169110461,0.002967445860591022,179.875,-0.75,172.5,0.06524658000000005,-0.0006713900000000007,-0.9978637700000007,0.0068969700000000005
249.0,0.12399503722084368,-0.0018446805210918112,0.06356490384615382,-0.12999999999999995,-1.2700000000000005,-9.720000000000015,0.004669568083126551,0.00037172379032258084,0.014440524193548387,179.875,-0.75,172.5,0.06524658000000005,-0.0006713900000000007,-0.9978637700000006,0.0068969700000000005
250.0,0.1241011166253102,-0.0017932692307692307,0.06266222084367246,-0.12999999999999995,-1.2700000000000005,-9.720000000000015,0.005202194478908189,0.0012571727667493797,0.01310483870967742,179.875,-0.75,172.5,0.06524658000000005,-0.0006713900000000007,-0.9978637700000006,0.0068969700000000005
251.0,0.12362375930521094,-0.0019909274193548386,0.06247254962779156,-0.12999999999999995,-1.2700000000000005,-9.720000000000015,0.0060595339640198516,-0.010072406172456576,-0.007870657568238213,179.875,-0.75,172.5,0.06524658000000005,-0.0006713900000000007,-0.9978637700000006,0.0068969700000000005
252.0,0.12371712158808935,-0.001532258064516129,0.061523573200992554,-0.12999999999999995,-1.2700000000000005,-9.720000000000015,0.0026674937965260547,0.0067928039702233245,0.0008529776674937959,179.875,-0.75,172.5,0.06524658000000005,-0.0006713900000000007,-0.9978637700000007,0.0068969700000000005
253.0,0.1225586886232048,-0.0018237273479208961,0.062466125272576875,-0.12999999999999995,-1.2700000000000002,-9.720000000000015,0.008292916760658697,0.034320249642830286,0.006369134897360703,179.875,-0.75,172.5,0.06524658000000005,-0.0006713900000000007,-0.9978637700000006,0.0068969700000000005
254.0,0.12290093240093244,-0.00039821603128054734,0.061269042785171805,-0.12999999999999995,-1.2700000000000002,-9.720000000000015,0.009326359124746221,0.015849640950447403,0.007837172907737423,179.875,-0.75,172.5,0.06524658000000005,-0.0006713900000000007,-0.9978637700000007,0.0068969700000000005
255.0,0.12320977141138433,-0.0005688350627866757,0.061160575983156606,-0.12999999999999995,-1.2700000000000002,-9.720000000000015,-0.0023777633656665922,0.0009459122866380936,0.00421325146627566,179.875,-0.75,172.5,0.06524658000000005,-0.0006713900000000007,-0.9978637700000007,0.0068969700000000005
256.0,0.12338156064365742,-0.0007261048763064892,0.060701876080908324,-0.12999999999999995,-1.2700000000000005,-9.720000000000015,-0.002786276223776224,-0.007622577355440259,0.0010675438472817502,179.875,-0.75,172.5,0.06524658000000005,-0.0006713900000000007,-0.9978637700000006,0.0068969700000000005
257.0,0.12329779024738703,-0.0003454113091209865,0.0600232395292879,-0.12999999999999995,-1.2700000000000005,-9.720000000000015,-0.014296363918339725,0.008217635019550341,0.001865095589893977,179.875,-0.75,172.5,0.06524658000000005,-0.0006713900000000007,-0.9978637700000006,0.0068969700000000005
258.0,0.12498711604255958,-0.0016243185577862998,0.06073742621625685,-0.12999999999999995,-1.2700000000000002,-9.720000000000015,-0.00542225331791864,0.007530127382697947,0.007591883083314535,179.875,-0.75,172.5,0.06524658000000005,-0.0006713900000000007,-0.9978637700000006,0.0068969700000000005
259.0,0.12437611850515076,-0.0018756673434092786,0.06036619294683809,-0.12999999999999995,-1.2700000000000002,-9.720000000000015,-0.012949281900894803,0.0023002199413489736,0.002630366944883074,179.875,-0.75,172.5,0.06524658000000005,-0.0006713900000000007,-0.9978637700000007,0.0068969700000000005
260.0,0.12400782013685241,-0.0016292390405293628,0.05977471990375213,-0.12999999999999995,-1.27,-9.720000000000015,-0.002836209489435296,-0.003031595420708324,0.006676018873599518,179.875,-0.75,172.5,0.06524658000000005,-0.0006713900000000007,-0.9978637700000006,0.0068969700000000005
261.0,0.12339845101135427,-0.0037029569892473115,0.061334010075945536,-0.12999999999999995,-1.2700000000000002,-9.720000000000015,0.00014051808406647108,-0.007300537164448454,-0.007200141927964508,179.875,-0.75,172.5,0.06524658000000005,-0.0006713900000000007,-0.9978637700000007,0.0068969700000000005
262.0,0.12299699225505681,-0.00455123035566584,0.06035931273028045,-0.12999999999999995,-1.2700000000000002,-9.720000000000015,0.006428819836077901,0.01730196466839612,-0.003646597018572825,179.875,-0.75,172.5,0.06524658000000005,-0.0006713900000000007,-0.9978637700000007,0.0068969700000000005
263.0,0.12295744040905335,-0.003089398169035266,0.061250037596811774,-0.12999999999999995,-1.2700000000000002,-9.720000000000015,-0.0036893046469659374,0.027086344015527484,0.004316730816226784,179.875,-0.75,172.5,0.06524658000000005,-0.0006713900000000007,-0.9978637700000006,0.0068969700000000005
264.0,0.12387599363002591,-0.0026588903927613605,0.06209967317628607,-0.12999999999999995,-1.2700000000000002,-9.720000000000015,-0.00767402540336008,0.009494162871179001,0.007310195125215286,179.875,-0.75,172.5,0.06524658000000005,-0.0006713900000000007,-0.9978637700000007,0.0068969700000000005
265.0,0.12234855399976369,-0.003418888011629947,0.06481572124112445,-0.12999999999999995,-1.27,-9.720000000000015,-0.0029664115286595124,0.003418269118873958,0.002998328256644789,179.875,-0.75,172.5,0.06524658000000005,-0.0006713900000000007,-0.9978637700000006,0.0068969700000000005
266.0,0.12386596199499426,-0.0032609469383662933,0.0658033579323902,-0.12999999999999995,-1.27,-9.720000000000015,-0.0005529416819739399,-0.0025006803232609683,0.01160510636317088,179.875,-0.75,172.5,0.06524658000000005,-0.0006713900000000007,-0.9978637700000006,0.0068969700000000005
267.0,0.1235037006004748,-0.003804170739654611,0.06549224968579806,-0.12999999999999995,-1.27,-9.720000000000015,0.011130166876134618,-0.0009091490946329652,0.006810617697714472,179.875,-0.75,172.5,0.06524658000000005,-0.0006713900000000007,-0.9978637700000007,0.0068969700000000005
268.0,0.12424391737294967,-0.004495551043938141,0.06422059660769337,-0.12999999999999995,-1.2700000000000002,-9.720000000000015,0.008756582798921508,-0.007982866148188729,0.009162085674182448,179.875,-0.75,172.5,0.06524658000000005,-0.0006713900000000007,-0.9978637700000006,0.0068969700000000005
269.0,0.12446939619520267,-0.003306752387397549,0.06206421535453792,-0.12999999999999995,-1.27,-9.720000000000015,0.0026152694751485073,-0.009728527520866231,0.010774893789006692,179.875,-0.75,172.5,0.06524658000000005,-0.0006713900000000007,-0.9978637700000006,0.0068969700000000005
270.0,0.12364931573802544,-0.003254887585532747,0.0620264681555004,-0.12999999999999995,-1.2700000000000002,-9.720000000000015,0.007232422315587638,-0.009284943886758403,0.011854333502518986,179.875,-0.75,172.5,0.06524658000000005,-0.0006713900000000007,-0.9978637700000006,0.0068969700000000005
271.0,0.12431977028347999,-0.0038341886608015646,0.061308933002481386,-0.12999999999999995,-1.2700000000000002,-9.720000000000015,0.022738889554665763,-0.0201300086002707,0.0207426603973983,179.875,-0.75,172.5,0.06524658000000005,-0.0006713900000000007,-0.9978637700000007,0.0068969700000000005
272.0,0.1232825024437928,-0.0028631476050830886,0.06362367471238438,-0.12999999999999995,-1.2700000000000002,-9.720000000000015,0.01736103278441988,-0.014984091849011203,0.01718244792841567,179.875,-0.75,172.5,0.06524658000000005,-0.0006713900000000007,-0.9978637700000006,0.0068969700000000005
273.0,0.1245792164824423,-0.0030171817429881943,0.06494086961425669,-0.12999999999999995,-1.2700000000000002,-9.720000000000015,0.01454279927062185,-0.00926003599894729,-3.160481991127187e-05,179.875,-0.75,172.5,0.06524658000000005,-0.0006713900000000007,-0.9978637700000006,0.0068969700000000005
274.0,0.1247944958267539,-0.004216313256635838,0.06351882190390254,-0.12999999999999995,-1.2700000000000002,-9.720000000000015,0.012876849293179938,0.005633911619294683,-0.008278876701255733,179.875,-0.75,172.5,0.06524658000000005,-0.0006713900000000007,-0.9978637700000007,0.0068969700000000005
275.0,0.12433769456350101,-0.003723541243702534,0.06204228936386193,-0.12999999999999995,-1.2700000000000005,-9.720000000000015,-0.004169515800060156,0.017844871442401683,-0.02220705621663283,179.875,-0.75,172.5,0.06524658000000005,-0.0006713900000000007,-0.9978637700000006,0.0068969700000000005
276.0,0.12521625686141813,-0.0031206293706293707,0.06030473155876381,-0.12999999999999995,-1.2700000000000002,-9.720000000000015,-0.0041495718663057376,-0.01258341792615986,-0.0018008872847582527,179.875,-0.75,172.5,0.06524658000000005,-0.0006713900000000007,-0.9978637700000006,0.0068969700000000005
277.0,0.12535062786675688,-0.004387106173396497,0.060136462327994564,-0.12999999999999995,-1.2700000000000002,-9.720000000000015,0.0012006013140085717,-0.004153860252650575,0.005337337393789007,179.875,-0.75,172.5,0.06524658000000005,-0.0006713900000000007,-0.9978637700000006,0.0068969700000000005
278.0,0.12580682758102113,-0.0030285406797503573,0.05883994332280621,-0.12999999999999995,-1.2700000000000002,-9.720000000000015,-0.0010979003355515453,0.004033491709903001,0.006964574404090533,179.875,-0.75,172.5,0.06524658000000005,-0.0006713900000000007,-0.9978637700000007,0.0068969700000000005
279.0,0.1256380178960824,-0.0038528272802466363,0.05829239040529362,-0.12999999999999995,-1.2700000000000002,-9.720000000000015,0.006609167042634784,-0.0017195841792615983,-0.008484660500789533,179.875,-0.75,172.5,0.06524658000000005,-0.0006713900000000007,-0.9978637700000006,0.0068969700000000005
280.0,0.12499096554224144,-0.004878637631827329,0.06006067985136352,-0.12999999999999995,-1.27,-9.720000000000015,0.008926366047890481,-0.0027694435840198957,-0.003202553945813455,179.875,-0.75,172.5,0.06524658000000005,-0.0006713900000000007,-0.9978637700000006,0.0068969700000000005
281.0,0.12497837622175612,-0.00497841950017564,0.061907172770256536,-0.12999999999999995,-1.27,-9.720000000000015,0.004004971880250226,-0.008257888947435168,-0.0008986865525743718,179.875,-0.75,172.5,0.06524658000000005,-0.0006713900000000007,-0.9978637700000007,0.0068969700000000005
282.0,0.12459197779431291,-0.005215128992136095,0.06306254194569672,-0.12999999999999995,-1.27,-9.720000000000015,-0.009836280132511928,0.01682563857763966,0.0008153194803110547,179.875,-0.75,172.5,0.06524658000000005,-0.0006713900000000007,-0.9978637700000006,0.0068969700000000005
283.0,0.12415021665864227,-0.004847682409069026,0.061879358705008665,-0.12999999999999995,-1.27,-9.720000000000015,0.0039267669168818655,0.042436905921273395,0.00028165167563939833,179.875,-0.75,172.5,0.06524658000000005,-0.0006713900000000007,-0.9978637700000006,0.0068969700000000005
284.0,0.12652281116412079,-0.007743978056929432,0.06230331571614069,-0.12999999999999995,-1.27,-9.720000000000015,0.020307102911031355,0.011550197828671888,-0.00876374405465342,179.875,-0.75,172.5,0.06524658000000005,-0.0006713900000000007,-0.9978637700000006,0.0068969700000000005
285.0,0.13182062561094823,-0.007326490713587491,0.062171157135874865,-0.12999999999999995,-1.27,-9.720000000000015,-0.02529420973851417,0.008844429679863148,-0.02052595002443793,179.875,-0.75,172.5,0.06524658000000005,-0.0006713900000000007,-0.9978637700000007,0.0068969700000000005
286.0,0.13438046205920542,-0.006818035920106217,0.06187499088137026,-0.12999999999999995,-1.27,-9.720000000000015,-0.014557208459170422,0.006102870909382704,-0.010294477028347996,179.875,-0.75,172.5,0.06524658000000005,-0.0006713900000000007,-0.9978637700000006,0.0068969700000000005
287.0,0.13642776768649426,-0.00574528384470609,0.061262519878612795,-0.12999999999999995,-1.27,-9.720000000000015,0.0023743771975897653,0.006793493128200639,-0.008614369501466275,179.875,-0.75,172.5,0.06524658000000005,-0.0006713900000000007,-0.9978637700000006,0.0068969700000000005
288.0,0.1359753696692491,-0.006834029996644347,0.06102471057469252,-0.12999999999999995,-1.27,-9.720000000000015,-0.0076562864745189,0.013416296906231306,-0.00783541055718475,179.875,-0.75,172.5,0.06524658000000005,-0.0006713900000000007,-0.9978637700000007,0.0068969700000000005
289.0,0.13491294237278534,-0.007139212156003204,0.06110604654232783,-0.12999999999999995,-1.2700000000000002,-9.720000000000015,0.0015467909683199166,0.016939180861567416,-0.025960011091059478,179.875,-0.75,172.5,0.06524658000000005,-0.0006713900000000007,-0.9978637700000006,0.0068969700000000005
290.0,0.13444487844445718,-0.0057974286586467624,0.06342348698084133,-0.12999999999999995,-1.2700000000000002,-9.720000000000015,-0.00870871137067875,0.015431535995299839,-0.001891295868110385,179.875,-0.75,172.5,0.06524658000000005,-0.0006713900000000007,-0.9978637700000007,0.0068969700000000005
291.0,0.1333652164909319,-0.006377211541493542,0.06210149608022916,-0.12999999999999992,-1.2700000000000005,-9.720000000000015,-0.000652133187008967,0.0076706307805098125,0.0037369743344151506,179.875,-0.75,172.5,0.06524658000000005,-0.0006713900000000007,-0.9978637700000008,0.0068969700000000005
292.0,0.1343452606820475,-0.007174191399642819,0.06222308751097334,-0.12999999999999992,-1.2700000000000005,-9.720000000000015,0.011546609800258636,0.015331908102143757,0.009378893317552912,179.875,-0.75,172.5,0.06524658000000005,-0.0006713900000000007,-0.9978637700000007,0.0068969700000000005
293.0,0.13417063047109662,-0.006041732796595603,0.06259738207494557,-0.12999999999999992,-1.2700000000000005,-9.720000000000015,-0.012689417036655281,-0.020256010374006164,-0.035783022611514906,179.875,-0.75,172.5,0.06524658000000005,-0.0006713900000000007,-0.9978637700000008,0.0068969700000000005
294.0,0.12830286394807325,-0.006114508345985229,0.06136345123761108,-0.12999999999999992,-1.2700000000000005,-9.720000000000015,0.054283571187159894,0.03345394168685284,-0.02829885581212364,179.875,-0.75,172.5,0.06524658000000005,-0.0006713900000000007,-0.9978637700000007,0.0068969700000000005
295.0,0.12966863410723123,-0.008728186144896883,0.0643370976271302,-0.13266389177939636,-1.2700000000000005,-9.720000000000015,0.0253913913102813,-0.0069066546118285235,-0.0482991376810358,179.875,-0.766649323621228,172.5,0.06524658000000005,-0.0006713900000000007,-0.9978637700000008,0.007035173870967748
296.0,0.12941012428178278,-0.006486221763022626,0.06431249867922119,-0.13965163775296255,-1.266302359171883,-9.720000000000015,-0.044712292370392454,-0.07519141108058927,0.11340270296900888,179.90485074626866,-0.8093598086570271,172.5173326913818,0.06505380665382762,-0.00044006058257101637,-0.997872702652865,0.007383122758786714
297.0,0.11046867161061447,0.008777214228276469,0.06503648294041992,-0.12390482775913672,-1.2614938630829031,-9.720000000000017,-0.051721743331097095,0.09200800463528916,-0.25348793184844565,179.6580413151633,-0.719371348928794,172.5488720492907,0.06471236249007417,-0.002681425225834362,-0.9978764535494342,0.006733717440636928
298.0,0.09458093046169509,0.0316568942563463,0.06050867104034669,-0.10536222760060428,-1.282539298647313,-9.716074511585653,0.250962529720918,0.035507261466711716,0.07034432605449653,179.94961924913093,-0.613377178326278,172.4240271196022,0.06581050441177949,-0.00013635643617933443,-0.9978097685852579,0.005636460085606969
299.0,0.07455734342580611,0.032011204506755146,0.06070049927066193,-0.07930804227155039,-1.2975132210861624,-9.712875965470246,0.25261307342735484,0.02386213286779895,-0.49229753516173236,179.7187612374687,-0.46289476027113335,172.32924123628544,0.06659093794221514,-0.0021241548450181384,-0.9977632642902912,0.004455121662719333
300.0,0.05619401953156211,0.04021976815643253,0.05884656876807514,-0.05811916161444326,-1.3109496774665281,-9.711276692412543,0.23421943062083256,0.05936470016431089,-0.15890993248993168,179.3577857703954,-0.34786257264337106,172.25333029556208,0.06732130549012537,-0.005264526009413264,-0.9977006733126952,0.0036772278944314017
301.0,0.04832492725031867,0.042571755860742834,0.05649731867906367,-0.04734797753326882,-1.321558131944626,-9.710477055883691,0.14172894237608052,-0.007281790134873546,-0.07978782428726056,179.19610521066713,-0.2892719218537029,172.21483317859472,0.06773906110567898,-0.006597917371581939,-0.9976559347690105,0.003289441592858452
302.0,0.04339118643733236,0.042952099351151046,0.0552081864883998,-0.042563656835825636,-1.3269548490485161,-9.710077237619265,0.08149889092133798,-0.007702372393289976,-0.03635212025155789,179.1234441434355,-0.26345608715406044,172.19486983847924,0.06795559696003914,-0.007190955885416969,-0.9976335878543515,0.00312127905963633
303.0,0.041769423295903794,0.0411909519927041,0.05322994512970648,-0.04050490883590464,-1.328920404987683,-9.71,0.019516199208965215,-0.0055123629344914216,-0.02933576026208062,179.07414540202217,-0.25245441795231416,172.18928237494157,0.06802421288710728,-0.007602029864562192,-0.9976245569099114,0.0030613401272738643
304.0,0.04045708551064835,0.04312019998671418,0.054457026723877935,-0.04000000000000002,-1.3297640828117463,-9.71,-0.0066811063508523776,0.017357458983000628,-0.0006549966844261504,179.06126624939816,-0.25,172.1875,0.06805129077034186,-0.007705681454020233,-0.9976204527443436,0.003051142840635527
305.0,0.04021650616408681,0.04343928965299933,0.05576316022686989,-0.04000000000000002,-1.3299999999999987,-9.71,-0.01663635703454252,0.03451457816377171,0.014845319331206428,179.0625,-0.25,172.1875,0.06805420000000004,-0.007690430000000011,-0.9976196300000009,0.0030517599999999954
306.0,0.04038384487376424,0.04502398922761826,0.054530049923195066,-0.04000000000000002,-1.3299999999999987,-9.71,-0.0028871847798259105,0.020530606266493362,0.005250459106305881,179.0625,-0.25,172.1875,0.06805420000000004,-0.007690430000000011,-0.9976196300000009,0.0030517599999999954
307.0,0.039315913141517986,0.04405656115837567,0.05584850599669146,-0.04000000000000002,-1.3299999999999987,-9.71,-0.0017476118471582186,-0.004623034335735949,0.013735355985860018,179.0625,-0.25,172.1875,0.06805420000000004,-0.007690430000000011,-0.9976196300000009,0.0030517599999999954
308.0,0.03899011382882352,0.04598241364370396,0.05548221670802314,-0.04000000000000002,-1.3299999999999987,-9.71,0.0090965821812596,-0.009808997006577651,0.011561478396155815,179.0625,-0.25,172.1875,0.06805420000000004,-0.007690430000000011,-0.9976196300000009,0.0030517599999999954
309.0,0.039177439048406794,0.044529668360313523,0.05611455748552521,-0.04000000000000002,-1.3299999999999987,-9.71,0.009976330792863052,-0.013100838453661034,0.0033381213320729445,179.0625,-0.25,172.1875,0.06805420000000004,-0.007690430000000011,-0.997619630000001,0.0030517599999999954
310.0,0.041282267911300186,0.045186670408444596,0.053427005789909,-0.04000000000000002,-1.3299999999999987,-9.71,0.014370919738863286,-0.012947751733033992,0.007663167365788333,179.0625,-0.25,172.1875,0.06805420000000004,-0.007690430000000011,-0.997619630000001,0.0030517599999999954
311.0,0.040233870967741954,0.04447348014888336,0.05372425558312654,-0.04000000000000002,-1.3299999999999987,-9.71,0.004015780086848634,-0.0015751008064516132,-0.00602997053349876,179.0625,-0.25,172.1875,0.06805420000000004,-0.007690430000000011,-0.9976196300000009,0.0030517599999999954
312.0,0.03966780397022334,0.04639554900744415,0.05508297146401984,-0.04000000000000002,-1.3299999999999987,-9.71,0.00349672379032258,-0.0032999573511166254,0.0060731040632754345,179.0625,-0.25,172.1875,0.06805420000000004,-0.007690430000000011,-0.9976196300000009,0.0030517599999999954
313.0,0.03919866132970973,0.04618744584268777,0.05639325224506675,-0.04000000000000002,-1.3299999999999987,-9.71,-0.0026471694188428064,-0.008582172335952577,0.014671546671294654,179.0625,-0.25,172.1875,0.06805420000000004,-0.007690430000000011,-0.9976196300000009,0.0030517599999999954
314.0,0.039609411310016156,0.045425453690574644,0.05586741551459292,-0.04000000000000002,-1.3299999999999987,-9.71,-0.0014810947900665643,0.0028930697718500143,0.020317754182421523,179.0625,-0.25,172.1875,0.06805420000000004,-0.007690430000000011,-0.9976196300000009,0.0030517599999999954
315.0,0.03834415763448022,0.04535652877588361,0.05346599636922217,-0.04000000000000002,-1.3299999999999987,-9.71,0.001419727226178839,0.010906208486853648,0.015330458072393555,179.0625,-0.25,172.1875,0.06805420000000002,-0.007690430000000011,-0.9976196300000009,0.0030517599999999954
316.0,0.03776929325732656,0.04594609437273328,0.05566431972467351,-0.04000000000000002,-1.3299999999999987,-9.71,0.0013232070854339324,-0.003026644415822354,0.013698607728264336,179.0625,-0.25,172.1875,0.06805420000000004,-0.007690430000000011,-0.9976196300000009,0.0030517599999999954
317.0,0.03696405109516453,0.04453508192582072,0.055711812467795815,-0.04000000000000002,-1.3299999999999987,-9.71,0.0011191097461909117,-0.014021076550342938,0.007058671109789735,179.0625,-0.25,172.1875,0.06805420000000004,-0.007690430000000011,-0.997619630000001,0.0030517599999999954
318.0,0.03735555345336823,0.044300311060196586,0.05633772907055945,-0.04000000000000002,-1.3299999999999987,-9.71,0.010928218467565502,-0.009346687788740336,0.01288993463323588,179.0625,-0.25,172.1875,0.06805420000000004,-0.007690430000000011,-0.997619630000001,0.0030517599999999954
319.0,0.03762938962990993,0.046753133197592084,0.056388467512947224,-0.04000000000000002,-1.3299999999999987,-9.71,0.008488302782169848,0.008718405485282438,-0.004542935909188511,179.0625,-0.25,172.1875,0.06805420000000004,-0.007690430000000011,-0.997619630000001,0.0030517599999999954
320.0,0.037957505409378464,0.045912641634871076,0.05768301558396511,-0.04000000000000002,-1.3299999999999987,-9.71,0.012360307188692334,0.011749493903093669,-0.0009033803969905687,179.0625,-0.25,172.1875,0.06805420000000004,-0.007690430000000011,-0.997619630000001,0.0030517599999999954
321.0,0.03735548367403206,0.046346059070857454,0.05768686118988537,-0.04000000000000002,-1.3299999999999987,-9.71,0.005171338657981803,-0.002301831932628305,0.004828516717377604,179.0625,-0.25,172.1875,0.06805420000000004,-0.007690430000000011,-0.9976196300000009,0.0030517599999999954
322.0,0.037689838611209586,0.048281396470912605,0.0560888943046201,-0.04000000000000002,-1.3299999999999987,-9.71,0.012650563482216708,-0.0022692375388947976,0.00945495896352751,179.0625,-0.25,172.1875,0.06805420000000004,-0.007690430000000011,-0.997619630000001,0.0030517599999999954
323.0,0.0374291486962858,0.04786445655598881,0.05591567091063057,-0.04000000000000002,-1.3299999999999987,-9.71,0.015581874163023358,-0.015671549132990664,0.009463782605163652,179.0625,-0.25,172.1875,0.06805420000000004,-0.007690430000000011,-0.997619630000001,0.0030517599999999954
324.0,0.03858604612233646,0.04733444601992988,0.05680612174563786,-0.04000000000000002,-1.3299999999999987,-9.71,0.015256914904092323,-0.011285245332624365,0.01615137214935602,179.0625,-0.25,172.1875,0.06805420000000004,-0.007690430000000011,-0.997619630000001,0.0030517599999999954
325.0,0.03754699131513648,0.047214330024813886,0.057052574441687334,-0.04000000000000002,-1.3299999999999987,-9.71,0.015940989454094293,0.014782684553349875,0.017604295905707196,179.0625,-0.25,172.1875,0.06805420000000004,-0.007690430000000011,-0.997619630000001,0.0030517599999999954
326.0,0.03866431451612904,0.04648185483870966,0.059128024193548366,-0.04000000000000002,-1.3299999999999987,-9.71,0.009513608870967742,0.013199344758064516,0.01115171370967742,179.0625,-0.25,172.1875,0.06805420000000004,-0.007690430000000011,-0.997619630000001,0.0030517599999999954
327.0,0.03807459677419356,0.04445060483870966,0.059410282258064495,-0.040564516129032266,-1.3297580645161275,-9.71,-0.03386466733870968,-0.04174017137096774,0.025012600806451613,179.06602822580646,-0.251008064516129,172.18800403225805,0.06804435556451618,-0.007681077661290332,-0.9976215987096783,0.0030606197580645123
328.0,0.035396025345622126,0.03967367511520736,0.05888839285714285,-0.04500115207373274,-1.314026497695851,-9.710368663594473,-0.06561869959677419,-0.17847782258064518,-1.365070564516129,178.11587701612905,-0.2638680875576037,172.25457229262673,0.06731933079608299,-0.016074290457373283,-0.9975373574331798,0.0037091816578340973
329.0,0.048487838744067674,0.028633027976477064,0.06017530650319827,-0.04866331075039551,-1.3065293778801828,-9.710184331797237,-0.12452370832330284,-0.1647341982125662,-0.3896704418933558,177.45389722255658,-0.28678479004745855,172.28555227534562,0.06696221830126729,-0.021902350753482014,-0.9974567170772066,0.00426064600465128
330.0,0.06002900961780956,0.024372077544306127,0.0618509261010615,-0.05899627391078402,-1.3027808179723488,-9.710092165898619,-0.14240673343392485,-0.15111324885986732,-0.09836029655151662,177.28124008593267,-0.3329085240559873,172.30104226670505,0.06678366205385944,-0.02330293620367392,-0.9974696688791047,0.004782772505653851
331.0,0.06614857738954993,0.02039924441731436,0.061069112244079134,-0.06498200792313394,-1.3009065380184315,-9.71004608294931,-0.055121587483091455,-0.0676653693896111,-0.052787129122532514,177.20412810748246,-0.35597039106025175,172.30878726238478,0.06669438393015552,-0.023907723101836947,-0.9974816455685843,0.005051335930246278
332.0,0.0721212677014314,0.01811376871403353,0.05972286417375487,-0.06795723380027663,-1.299976958525344,-9.710023041474654,-0.05503755225409053,-0.04256124332255773,-0.04544103359928468,177.16546186120092,-0.3674698225462549,172.3126440092166,0.06665005250691242,-0.024210408811503138,-0.9974875723911467,0.005185340775102975
333.0,0.07354399278568755,0.016352583281747952,0.06029870807254051,-0.06931502243009222,-1.2999999999999985,-9.71,-0.030102941513630008,-0.02094940046312218,0.02646823128023477,177.17587609189076,-0.3728334135772749,172.3125,0.06665038999999998,-0.024099317636166302,-0.9974931991034071,0.005232214071883283
334.0,0.07358377516806239,0.015286733189633821,0.058462755809920205,-0.06994879672299024,-1.2999999999999985,-9.709999999999999,-0.009071032158961398,-0.0388097096278678,0.013436505097616569,177.18692396313367,-0.375,172.3125,0.06665038999999998,-0.023992789114183285,-0.9974972162007163,0.005248551239119298
335.0,0.07396162644731843,0.01464413464397206,0.05974213059313214,-0.06999999999999998,-1.2999999999999985,-9.709999999999999,0.005017095287646796,-0.03239768635515254,0.003694059000421188,177.1875,-0.375,172.3125,0.06665038999999998,-0.023986819999999978,-0.9974975599999993,0.005249019999999995
336.0,0.07300903903011083,0.015348781031663454,0.05905957336108219,-0.06999999999999998,-1.2999999999999985,-9.71,-0.004547903969079827,0.006734624564359214,0.0080056736534364,177.1875,-0.375,172.3125,0.06665038999999998,-0.023986819999999978,-0.9974975599999993,0.005249019999999995
337.0,0.07214365203243975,0.014315042614340228,0.05947214170093981,-0.06999999999999998,-1.2999999999999985,-9.709999999999999,-0.006060516905340006,-0.000995289504979932,0.00561945641940439,177.1875,-0.375,172.3125,0.06665038999999998,-0.023986819999999978,-0.9974975599999993,0.005249019999999995
338.0,0.07215989565267661,0.014776568926217737,0.05726551273475051,-0.06999999999999998,-1.2999999999999985,-9.709999999999999,0.0006819791305353218,-0.0008656683059973902,0.010298207472375006,177.1875,-0.375,172.3125,0.06665038999999998,-0.023986819999999978,-0.9974975599999993,0.005249019999999995
339.0,0.07304404772228001,0.014253529000049558,0.05820091453594965,-0.06999999999999998,-1.2999999999999985,-9.71,-0.0037888231298416003,-0.005521934048940422,0.012416923715375849,177.1875,-0.375,172.3125,0.06665038999999998,-0.023986819999999978,-0.9974975599999993,0.005249019999999995
340.0,0.07342018534347489,0.015171879387377574,0.057935862733924634,-0.06999999999999998,-1.2999999999999985,-9.71,0.003517434793246122,-0.00843283002370216,-0.000959996923674082,177.1875,-0.375,172.3125,0.06665038999999998,-0.023986819999999978,-0.9974975599999993,0.005249019999999995
341.0,0.07388931214178353,0.01461770972697092,0.05858350676378771,-0.06999999999999998,-1.2999999999999985,-9.71,-0.007765142130386667,0.0012034318583486114,0.0018911532918751968,177.1875,-0.375,172.3125,0.06665038999999998,-0.023986819999999978,-0.9974975599999993,0.005249019999999995
342.0,0.07417930747567844,0.014350998463901697,0.05872983870967741,-0.06999999999999998,-1.2999999999999985,-9.71,0.00029601894521249367,-0.010340661802355352,0.00040902617767537143,177.1875,-0.375,172.3125,0.06665038999999998,-0.023986819999999978,-0.9974975599999993,0.005249019999999995
343.0,0.07352846582181258,0.014630696364567338,0.060752528161802336,-0.06999999999999998,-1.2999999999999985,-9.71,0.0015721006144393237,-0.004130264336917563,0.00969312035970302,177.1875,-0.375,172.3125,0.06665038999999998,-0.023986819999999978,-0.9974975599999993,0.005249019999999995
344.0,0.07415898617511521,0.013811443932411682,0.06088293650793649,-0.06999999999999998,-1.2999999999999985,-9.71,-0.007792498719918074,-0.008020513312852022,0.0030741967485919093,177.1875,-0.375,172.3125,0.06665038999999998,-0.023986819999999978,-0.9974975599999993,0.005249019999999995
345.0,0.07359973489916259,0.014222587664965404,0.059145364658176824,-0.06999999999999998,-1.2999999999999985,-9.709999999999999,-0.005112843351006722,-0.007460283909783129,0.005923443616520489,177.1875,-0.375,172.3125,0.06665038999999998,-0.023986819999999978,-0.9974975599999993,0.005249019999999995
346.0,0.07410657507886956,0.013847084923112506,0.05974933363477196,-0.06999999999999998,-1.2999999999999985,-9.709999999999999,0.0018438599425201927,-0.013650776875526485,0.012098306549683696,177.1875,-0.375,172.3125,0.06665038999999998,-0.023986819999999978,-0.9974975599999993,0.005249019999999995
347.0,0.07303111012007996,0.012745115042201417,0.059408436978676316,-0.06999999999999998,-1.2999999999999985,-9.71,0.00835640577771171,-0.020087737228085822,-0.004015740878383958,177.1875,-0.375,172.3125,0.06665038999999998,-0.023986819999999978,-0.9974975599999993,0.005249019999999995
348.0,0.07463284359876451,0.013707344366813678,0.05958000924962422,-0.06999999999999998,-1.2999999999999985,-9.709999999999999,-0.0067959188097715655,-0.004352665667376905,-0.0085553862543977,177.1875,-0.375,172.3125,0.06665038999999998,-0.023986819999999978,-0.9974975599999993,0.005249019999999995
349.0,0.07409445559354509,0.014224383908957278,0.060339159770741446,-0.06999999999999998,-1.2999999999999985,-9.709999999999999,0.007962767681647756,-0.006520610867482615,0.0048428905901590595,177.1875,-0.375,172.3125,0.06665038999999998,-0.023986819999999978,-0.9974975599999993,0.005249019999999995
350.0,0.07502903411624795,0.013429478841484571,0.06242318476124406,-0.06999999999999998,-1.2999999999999985,-9.71,-0.0031545567303404177,0.0029979015431181137,0.004851536304775118,177.1875,-0.375,172.3125,0.06665038999999998,-0.023986819999999978,-0.9974975599999993,0.005249019999999995
351.0,0.07453704650000825,0.01302938355796707,0.061448407536792024,-0.06999999999999998,-1.2999999999999985,-9.71,0.012407616668111921,0.0002908734546107723,-0.002398540603372809,177.1875,-0.375,172.3125,0.06665038999999998,-0.023986819999999978,-0.9974975599999993,0.005249019999999995
352.0,0.07415043336967114,0.0129854091307005,0.059573872082651996,-0.06999999999999998,-1.2999999999999985,-9.709999999999999,-0.008600614955486183,0.0026518793977008074,0.0001563325859306609,177.1875,-0.375,172.3125,0.06665038999999998,-0.023986819999999978,-0.9974975599999993,0.005249019999999995
353.0,0.0736967914333614,0.011908813776984958,0.06003531322778852,-0.06999999999999998,-1.2999999999999985,-9.709999999999999,-0.019831882143683,0.02982092466821102,-0.017135838629156134,177.1875,-0.375,172.3125,0.06665038999999998,-0.023986819999999978,-0.9974975599999993,0.005249019999999995
354.0,0.07319805664043436,0.012599232157309685,0.06156404285534098,-0.06999999999999998,-1.2999999999999985,-9.71,0.007332844668627707,-0.01573956744961883,-0.006896403246640629,177.1875,-0.375,172.3125,0.06665038999999998,-0.023986819999999978,-0.9974975599999996,0.005249019999999995
355.0,0.0717425156572529,0.012208946891211464,0.0594424255396875,-0.06999999999999998,-1.2999999999999985,-9.71,-0.03481924074812342,-0.0428012501078887,0.010863852809701861,177.1875,-0.375,172.3125,0.06665038999999998,-0.023986819999999978,-0.9974975599999996,0.005249019999999995
356.0,0.07279084529760906,0.01090282177066777,0.060190079084980225,-0.06999999999999998,-1.2999999999999985,-9.71,-0.0337315419001163,-0.02433103952354733,-0.006833262413387284,177.1875,-0.375,172.3125,0.06665038999999998,-0.023986819999999978,-0.9974975599999996,0.005249019999999995
357.0,0.07109737574253702,0.009610539997636777,0.06195776266744008,-0.06999999999999998,-1.2999999999999985,-9.71,-0.011447736850962656,-0.03307422863874477,-0.013870985645179194,177.1875,-0.375,172.3125,0.06665038999999998,-0.023986819999999978,-0.9974975599999996,0.005249019999999995
358.0,0.07112053537859989,0.009242499436047828,0.06425565832017444,-0.06999999999999998,-1.2999999999999985,-9.71,0.0011260245131212874,-0.036005996691480566,-0.004436423791262502,177.1875,-0.375,172.3125,0.06665038999999999,-0.023986819999999978,-0.9974975599999996,0.005249019999999995
359.0,0.07091950522595683,0.00859974434167983,0.06393379201443716,-0.06999999999999998,-1.2999999999999985,-9.71,0.0035413846905782394,-0.020568980750432366,0.010321499736822316,177.1875,-0.375,172.3125,0.06665038999999998,-0.023986819999999978,-0.9974975599999995,0.005249019999999995
360.0,0.07250043952463306,0.009761646955195345,0.06348125261834937,-0.06999999999999998,-1.2999999999999985,-9.71,0.011684926856297823,-0.013807177365645108,-0.0019454280038957456,177.1875,-0.375,172.3125,0.06665038999999998,-0.023986819999999978,-0.9974975599999995,0.005249019999999995
361.0,0.0730938922188922,0.008456505859731669,0.0629168049692243,-0.06999999999999998,-1.2999999999999985,-9.71,-0.006564484462669946,-0.0033365911642121325,0.0009038368665384797,177.1875,-0.375,172.3125,0.06665038999999998,-0.023986819999999978,-0.9974975599999996,0.005249019999999995
362.0,0.07421568060076124,0.008688550696615217,0.06293358858883051,-0.06999999999999998,-1.2999999999999985,-9.71,0.00563525156519108,-0.006057253398483237,0.005817923396048396,177.1875,-0.375,172.3125,0.06665038999999998,-0.023986819999999978,-0.9974975599999995,0.005249019999999995
363.0,0.07324380271703633,0.010516894656458936,0.062442633573095166,-0.06999999999999998,-1.2999999999999985,-9.71,0.019951759002128377,-0.004855544164700249,-0.007262869760518864,177.1875,-0.375,172.3125,0.06665038999999999,-0.023986819999999978,-0.9974975599999996,0.005249019999999995
364.0,0.07203940807894826,0.010030624747584309,0.06305582619514973,-0.06999999999999998,-1.2999999999999985,-9.71,0.011478525670419027,-0.01683364405815658,-0.016928435888323948,177.1875,-0.375,172.3125,0.06665038999999998,-0.023986819999999978,-0.9974975599999995,0.005249019999999995
365.0,0.07361454647302626,0.009374340442497645,0.06054341372597871,-0.06999999999999998,-1.2999999999999985,-9.71,0.004489728319545965,-0.013649156898509932,-0.005812411864936541,177.1875,-0.375,172.3125,0.06665038999999998,-0.023986819999999978,-0.9974975599999996,0.005249019999999995
366.0,0.07432836504792753,0.008199577169139645,0.06055706666447818,-0.06999999999999998,-1.2999999999999985,-9.71,-0.005920458420872177,-0.003908945694912533,0.004607751883908901,177.1875,-0.375,172.3125,0.06665038999999998,-0.023986819999999978,-0.9974975599999995,0.005249019999999995
367.0,0.07815312346324269,0.007219896506770962,0.0623558874593738,-0.0718975332068311,-1.2999999999999985,-9.71,-0.017475246406830774,0.10114421370377714,0.9063209389163378,177.36681688804555,-0.3958728652751423,172.3125,0.06663834605313092,-0.022490936584440215,-0.997521649108159,0.005306928842504741
368.0,0.10101992409867175,0.013500524696682198,0.06223906043355757,-0.09128112241964238,-1.299061583577712,-9.71078201368524,-0.10507594625093439,0.09805691521476625,1.0214138688833305,178.4795044850785,-0.5354853084928987,172.32227517106548,0.06653220192685874,-0.012829845955954223,-0.9976413394514396,0.005784872329365765
369.0,0.10908075057980184,0.019643631523968343,0.06270913595154579,-0.11038966515247359,-1.2847637666992504,-9.71555229716521,-0.0660292365663274,0.004231190582293529,1.0644255724344966,179.23179973357867,-0.6492390700170587,172.41057754969046,0.06582474707454047,-0.006353559644643779,-0.9977435836325294,0.006322437275793994
370.0,0.11666465960773362,0.023394361495820234,0.06160509164565141,-0.12389068511079901,-1.2940777358841877,-9.712997346739288,0.005725606545770798,0.0677213940622681,0.5353622241449121,179.78937336909348,-0.7254835903080685,172.35186135549037,0.06633747570777712,-0.0015361150573449311,-0.9977438790236375,0.006699288822228796
371.0,0.1292311142825952,0.030658107290687117,0.05944604161525206,-0.13524361277512842,-1.3022001582646752,-9.711498673369643,0.008740668586700265,0.10482743455450946,0.36281651595569586,180.45477609548644,-0.7896059840273395,172.29992261322906,0.0667482312737109,0.004243687777545395,-0.9977152227376254,0.0068580389178932635
372.0,0.13674590307619766,0.032934257265253064,0.05719506868384848,-0.13869154073291523,-1.3062613694549188,-9.710749336684822,0.02367362943274584,0.04621913801875232,0.16655230629196266,180.68600585901163,-0.8074571665867247,172.2739532420984,0.06695170249406605,0.006116216564294515,-0.9977001418099892,0.006839755460223812
373.0,0.13951909034552798,0.035154811917084014,0.05739030071533577,-0.13983941650526505,-1.308321300563237,-9.710350230414749,0.005055289789686704,-0.011607561977916115,0.057707971327799513,180.77014735765832,-0.8123460075357866,172.26066308243728,0.06705656692151982,0.006773945053897008,-0.9976892374152586,0.00681609813822529
374.0,0.14507825647937855,0.03234076535899819,0.05684499558412601,-0.1406664905921568,-1.30978341013825,-9.710013824884793,0.061109939616250976,-0.043001616195865844,0.08194411070462963,180.8324875860465,-0.8168383772608877,172.25141129032258,0.06712944859740863,0.0073630581721097965,-0.9976824602488481,0.006850305868762366
375.0,0.15226706159665487,0.02900235715663487,0.0566686870866394,-0.1434266518894851,-1.3100000000000012,-9.71,0.010486731594725983,-0.050344746417677694,0.16444444989325774,180.8747713541718,-0.8344128522249139,172.25,0.06713881268349692,0.007836477594562522,-0.9976806600000001,0.006955999022293267
376.0,0.1535228212647568,0.02621279795473345,0.05917046394465749,-0.1468068275810213,-1.3100000000000012,-9.71,0.024919166854650725,-0.03731859538311151,0.10008553274682308,180.9051714414618,-0.8552908113391984,172.25,0.06713866999999996,0.008183993177832923,-0.9976806600000001,0.0070199513461162415
377.0,0.15462741559515758,0.024327242649823312,0.059742800210542145,-0.1485647041130914,-1.3100000000000012,-9.71,0.025479124370253403,-0.04275979396947139,0.054664354462741566,180.923367358448,-0.8661534701857283,172.25,0.06713866999999996,0.008388083040529366,-0.9976806600000001,0.007054922784720648
378.0,0.15033667944958273,0.02470760959470638,0.05967345289119482,-0.14842702458831514,-1.3108602150537638,-9.71,0.035527929731558765,-0.024740112038499136,-0.34632373674712386,180.88552898714187,-0.865719696969697,172.24511241446726,0.06720406049853367,0.008061032605308674,-0.9976806600000001,0.007102970356192189
379.0,0.14070046648103945,0.03229376773924199,0.05866038673651816,-0.13911214960613139,-1.3155913978494618,-9.71,0.08527715952299186,0.04613074094898842,-0.3414662409388878,180.49720271303082,-0.807226331684685,172.2152981427175,0.06754938847507329,0.004549787757476997,-0.9976806600000001,0.006971060314255472
380.0,0.13512826166370945,0.03669045857448602,0.05805536067407155,-0.1343004916765148,-1.3179569892473104,-9.71,0.030520187401168086,0.026346632223497896,-0.15944326784894614,180.29866339125488,-0.7770002626165361,172.20039100684264,0.06772205246334309,0.0027423666975970604,-0.9976806600000001,0.006899880489633937
381.0,0.13241028467800858,0.038129348393942775,0.05733537264472807,-0.13182766519309608,-1.3191397849462352,-9.71,-0.009181593644329107,-0.008352738478821772,-0.07441766370114798,180.19872685691774,-0.76148400227601,172.19293743890518,0.06780838445747801,0.0018319014133146596,-0.9976806600000001,0.006863972502881484
382.0,0.13071623104868169,0.04022898871310041,0.05737484358042855,-0.1305912519513867,-1.3197311827956972,-9.71,0.0070807001536418975,-0.007956611174894757,-0.05349537418928368,180.1487585897492,-0.7537258721057469,172.18921065493646,0.06785155045454547,0.0013766687711734592,-0.9976806600000001,0.006846018509505256
383.0,0.13080532960058716,0.04097470941031365,0.05501928884788777,-0.1300048146364949,-1.3199999999999985,-9.71,-0.0015610673229835476,-0.002374566584514827,0.011329658946413884,180.12524073182476,-0.7500300914780934,172.1875,0.06787109000000001,0.0011624616803081378,-0.9976806600000001,0.006836086928261913
384.0,0.13076135521916693,0.03833761951016405,0.05562230691792559,-0.12999999999999995,-1.3199999999999983,-9.71,-0.04001982109529052,-0.09541874694175187,-0.033920509958665954,180.1153707270101,-0.75,172.1875,0.06787297086663459,0.0011126506451612907,-0.9976806600000001,0.006828886981222914
385.0,0.12243882528761559,0.0466313504241706,0.05631201425760885,-0.12761194029850742,-1.3210784785748664,-9.71,-0.03453816735743794,-0.13637505350180634,-1.5489696088697054,179.85201011073661,-0.7379634087626384,172.1860556090515,0.0679091767790082,-0.0011070679489648529,-0.9976679655368321,0.006785865507944149
386.0,0.06222610899650503,0.05683476151685431,0.05651125373813854,-0.08178873638875878,-1.330791117325436,-9.709575784357053,0.01175637605818575,-0.16339555557581223,-3.910331536138853,176.18956559447568,-0.46956721034685167,172.1297738275041,0.06821335438817844,-0.032918767078768764,-0.9965644086057999,0.006605922179513392
387.0,0.02218768092140242,0.07419611059713682,0.05677792288424953,-0.0352302315719885,-1.353251346138999,-9.7056133191235,0.17248308603668303,0.13713468337196105,-1.6837888705362198,173.97085015966667,-0.19944204919619624,172.00114165758504,0.06933288109351994,-0.05216245973483026,-0.995795746067606,0.005375608812716849
388.0,-0.0029736684775545294,0.07595610106779402,0.054756581522736436,0.00017763719677199585,-1.3538064066090483,-9.70681682306153,-0.029838404155562798,-0.10514175826179593,-1.3195199223528324,172.36078411651033,0.0038472476069394274,171.99268583100195,0.06941327194534591,-0.06617869756295203,-0.9951108884248765,0.0044693950161684105
389.0,-0.007968404880193836,0.08786624397529216,0.05220549880716076,-0.005412973516309345,-1.3623512319783595,-9.70582776636948,0.1488737284309652,0.11608851208506524,-0.8232352594163991,171.94077361819737,-0.032126555407999816,171.94627571119992,0.06976263373680923,-0.06980118234778425,-0.9950004998755206,0.005147104115637835
390.0,-0.01238092848728036,0.08511511524715498,0.047600101353508166,0.00447695089230272,-1.3772709457917798,-9.70275259286216,0.10812427394104832,0.07718243610993754,-0.547194784258031,171.25166690057677,0.02165639008608194,171.87338460572033,0.07048531136768241,-0.07576608207904378,-0.9945923838616889,0.005055907139667734
391.0,-0.011607779584066438,0.08452761099044925,0.0492476185750511,0.003501196816694206,-1.384444133965267,-9.70122826284734,0.08394758515027194,0.04803940630066033,-0.06791568982778162,171.11375006030232,0.017823461707441528,171.83867529004533,0.07083771035021329,-0.07702758821461277,-0.9944909394781102,0.005063969589956918
392.0,-0.00412676781180155,0.08710973712738639,0.04858554708808631,0.0016391183324457746,-1.3874806058820646,-9.70058329650906,0.04927363114320643,0.019592936957574775,0.422189799808418,171.34769743909789,0.008185331422980726,171.82446098468108,0.07098649824482682,-0.07498432365965138,-0.9946372652223948,0.005218079582674229
393.0,-0.0006115071869766148,0.08723071161973424,0.04840120839145874,0.0003290598290598293,-1.389332437275986,-9.700161290322583,0.08171107474414527,0.06914737468571124,0.16388611121398794,171.56746318423393,0.0012341813986313265,171.81560819892474,0.07109937956400793,-0.07299361878067677,-0.99476824939446,0.005327267417622393
394.0,0.0003073219510388501,0.0857901559201511,0.047852968408577445,0.0004019851116625312,-1.3900000000000006,-9.700000000000003,0.02286998629680382,0.0060682937668975236,0.09652466575312026,171.65810155179435,0.002059182993222473,171.8125,0.07115132847376024,-0.07214445673352829,-0.9948189679880011,0.005341357839635572
395.0,-3.27238160651739e-05,0.08701567730937013,0.047859385679318266,3.970223325062035e-05,-1.3900000000000006,-9.700000000000003,0.011374354260728838,-0.01165140628910489,0.060837379199199126,171.71864514277246,0.00021712158808933002,171.8125,0.07116014359171885,-0.07158792918284498,-0.9948553684860568,0.0053618807301211106
396.0,0.0011329941122911755,0.08746758500152818,0.04858462213974972,0.0,-1.3900000000000006,-9.700000000000001,0.00830986805950696,-0.002443086657097249,0.011180289111199077,171.7459075589793,0.0,171.8125,0.07116455115069814,-0.07133346263360604,-0.9948714335532026,0.005370619990370731
397.0,0.0010681675891112577,0.08928601671692668,0.0481481783609853,0.0,-1.3900000000000006,-9.700000000000003,-0.016764114422997425,0.003590813508964689,0.001823694547575144,171.75045137217137,0.0,171.8125,0.07116666677900821,-0.07128653279730368,-0.9948735201396254,0.005371413273952821
398.0,0.0009036071455426292,0.09170728375567083,0.0493425051650858,0.0,-1.3900000000000006,-9.700000000000001,0.019685768980123815,0.011703025916735594,-0.032933542711768515,171.75,0.0,171.8125,0.07116699000000003,-0.07128905999999988,-0.9948730500000009,0.005371090000000004
399.0,0.0005139494192214461,0.09532895760688248,0.048172752526989396,0.0,-1.392002888781898,-9.700000000000003,0.01650513773994154,-0.03771423460653721,0.0029785732609817865,171.75,0.0,171.79853755416465,0.07122952473278767,-0.07128905999999988,-0.9948730500000009,0.005371090000000005
400.0,0.001598616938349726,0.09934336443393978,0.04748080441598737,0.0,-1.3961627347135304,-9.700000000000003,0.03559250044377331,-0.05604858846651396,-0.020718680133927483,171.75,0.0,171.77326071256618,0.07135576962445832,-0.07128905999999988,-0.9948730500000009,0.005371090000000005
401.0,0.001707002925256416,0.1024494599947477,0.0464828031762011,0.0,-1.3982426576793463,-9.700000000000003,0.006442796328110182,-0.009563476377277832,-0.006930757001283902,171.75,0.0,171.76062229176696,0.07141889207029364,-0.07128905999999988,-0.9948730500000008,0.005371090000000005
402.0,0.0010746083127673163,0.10351283436612338,0.04923091207761103,0.0,-1.3992826191622543,-9.700000000000003,-0.028891448666533676,0.021368254291998727,-0.009756734993611347,171.75,0.0,171.75430308136737,0.0714504532932113,-0.07128905999999988,-0.9948730500000009,0.005371090000000004
403.0,0.00101625480922544,0.10365705882412671,0.048460942149916614,0.0,-1.3998025999037083,-9.700000000000001,-0.030736016911991872,-0.011183522383570527,-0.02372932395801919,171.75,0.0,171.75114347616756,0.07146623390467013,-0.07128905999999988,-0.9948730500000009,0.005371090000000004
