time,linaccel_x,linaccel_y,linaccel_z,gravity_x,gravity_y,gravity_z,gyro_x,gyro_y,gyro_z,euler_x,euler_y,euler_z,quaternion_w,quaternion_y,quaternion_x,quaternion_z
0.0,-0.03465116279069769,-0.043720930232558165,-0.019534883720930228,1.8453488372093028,-3.642558139534884,8.907674418604644,-1.0319767441860466,-1.2732558139534884,0.5174418604651163,240.51453488372093,10.832848837209303,22.223837209302324,-0.49250403162790707,0.21305527744186045,0.012604469767441862,-0.8437145141860465
1.0,-0.03504245108896273,-0.03266888150609082,-0.012543373938722773,1.831941675895164,-3.439265411590994,8.987478774455514,1.116325212255445,0.023994093761535662,-0.46442414174972313,240.3877814691768,10.759759136212624,20.926794942783314,-0.4925846229235881,0.20312563089331856,0.007581675160575859,-0.8460972290143963
2.0,-0.031882304822099,-0.025011402178568544,-0.015410574893598957,1.9207276171954883,-3.4253297756992764,8.974842819714386,-0.08951915990446091,-0.3851872002346032,-0.4847532036070242,240.90573909654614,11.2916389329413,20.884131630530828,-0.49623247128780945,0.20495334801351278,0.004154396114114393,-0.8435539669992012
3.0,-0.0286670268031584,-0.030403695000405163,-0.012915178852785203,1.9834289855855374,-3.52577178150519,8.921918519118744,0.28586666846734915,-0.17081093734525385,-0.30751897469140804,241.26820670033942,11.662114428868541,21.55812321619894,-0.4982203833164249,0.2113945466014279,0.004687384593090782,-0.8407717040142613
4.0,-0.024571378036146667,-0.02390107979956662,-0.013172962230104564,2.066128108682223,-3.5445709249612047,8.896758370777363,-0.2810322571932181,-0.09602574859742807,-0.1598144527421054,241.53654376137587,12.158300844810505,21.714591485414907,-0.4998595998580655,0.2145862249566311,0.001974582851888931,-0.8390342157425419
5.0,-0.030037091154321686,-0.029064104005095355,-0.005779850886066464,2.079675171406092,-3.5964223895695175,8.873309167884303,-0.2997545989284777,-0.2678758757633659,-0.14048040538009066,241.65475019669552,12.244672829792812,22.054914343786294,-0.5004272265156795,0.21740050416320106,0.0029568824972837286,-0.8379927127883932
6.0,-0.031192911468285196,-0.029829905211494517,-0.011933610580345432,2.072742872129182,-3.579909707392005,8.883341201153947,0.3230536510434228,0.21319920572477613,-0.16340714098385223,241.8638422127309,-13.580909763590725,21.66340948259713,-0.5020774707946499,0.216381218567682,0.003220706255666704,-0.8372883614124612
7.0,-0.03976561387733694,-0.036668689820538766,-0.01381259600614439,1.9521889026263533,-3.4449406916188976,8.960293731969575,0.9904607358285564,1.47260078303548,0.1416835262822674,241.93927260125133,-1.4128830879322622,20.880863867970476,-0.5036637418882769,0.2066529023184594,0.005144533372522573,-0.8386858259886854
8.0,-0.05169240567981717,-0.04206369188115845,-0.0126498070510659,1.7628568431306433,-3.3557040200816752,9.032507212168895,0.3806798171668352,0.7973989359709265,-0.1572266868982054,242.16436486081452,3.908256528417819,20.304294050428986,-0.5062896703225805,0.19719715252429654,0.011542513842044135,-0.839306758808662
9.0,-0.0523253531152823,-0.04529227080289237,-0.01126982878123712,1.6821011202277925,-3.3310502791203023,9.058708366115917,0.13106079764714695,0.1654431737289723,-0.015326561387733695,242.2940972612491,6.656896753587352,20.14415626990371,-0.5075725492368214,0.1937881365453898,0.01466783884863812,-0.8393364439912704
10.0,-0.045155371159863136,-0.04513506120432548,-0.015132645966369639,1.7519299763965384,-3.346999972554114,9.040148756701367,-0.6341495434834318,-0.8917614312114613,-0.30685638254075714,242.28562847647885,8.67795260552943,20.291596184107,-0.5072683014957551,0.19648782212910543,0.012010366651482994,-0.8389432283373099
11.0,-0.050504514848224255,-0.05027406089327212,-0.0033767085063948913,1.6816652242328871,-3.314833581871077,9.064653449947851,0.5820696027665453,1.2494625180685417,-0.5544411731743912,242.94582367962417,9.867472565549924,20.068349232887492,-0.5124263108816306,0.19285937618256999,0.015357296295843778,-0.83655247315764
12.0,-0.034175251129855644,-0.0353995206118603,-0.010246281082465739,1.8386860739575133,-3.329736519495728,9.023831445666293,-0.24735032843576743,-3.7394013137430697,-1.0250981190419557,243.0646979580261,10.822737315426417,20.23913257277734,-0.512737847084698,0.19811358064753992,0.008895869665526138,-0.8350962741392056
13.0,-0.05969344775218195,-0.01758567690703164,-0.0011963112729401876,2.1645680566483083,-3.307621210180594,8.947503449032988,0.796530382595649,1.7509622070151687,0.21965491372843204,244.0571178617825,12.772408193511792,20.280802517702597,-0.5188131178287376,0.20653246396893127,-0.004155453369439924,-0.8289576150452125
14.0,-0.040967888313541805,-0.02665672515689898,-0.009374709531041296,2.037205350118017,-3.290612336010832,8.989986972352845,-0.018827648985417,-1.0157216895687335,-0.5373007886117871,243.9465123140541,12.008647055056446,20.102734067663256,-0.5186443332220005,0.20202944642585036,0.0007048472806616265,-0.8303901781717014
15.0,-0.029334906897456076,-0.020350118017309203,-0.0029163763066202097,2.036705593645798,-3.2134098010565357,9.022503577985088,0.5564017365404069,1.4045469446629952,-0.45433409201603536,243.9629154021955,11.994554344160953,19.59322571278708,-0.5192313770927278,0.1983009688152186,-0.0013506868212131437,-0.8310485180931024
16.0,0.00976212955677944,-0.026288355625491738,-0.00309076093065078,1.9317438275073995,-3.1901274024952233,9.055228972312765,0.37313104136225694,1.1941843692630476,0.3299238273200704,243.49844727623542,11.363647156344834,19.39636206961148,-0.5163173101632013,0.1942303880071372,0.0018427529387246636,-0.8338421965288485
17.0,-0.004032613989734354,-0.013047703345697055,-0.009257717957363904,1.8567740905174026,-3.194467058184406,9.071364626653178,-0.16606738928852421,-0.8508010659023639,-0.16287565331010453,243.83518894477538,10.920160002435278,19.387567204301074,-0.5189786666566634,0.1923097201616369,0.005776925226246674,-0.8326832384210312
18.0,-0.02572252819302386,-0.01043610205687311,0.009632085721778877,1.8636656550897306,-3.129130418493124,9.093560001498632,2.5257928702558914,0.9775228541455923,2.458117904911768,243.79602909220336,10.949622531939605,18.969950076804917,-0.5189344789251058,0.18936284298078002,0.003734264591809973,-0.8333695375317521
19.0,-0.028462965044396986,-0.026755647971226263,-0.005718781611779257,1.6938025926342215,-3.094048743021992,9.138030422239705,-0.045043273013375185,-0.2330162788955078,-0.0180608632123187,242.5127500842981,9.946392276422763,18.69043169982391,-0.5101672765533325,0.18315380147221907,0.008233161404218649,-0.8400557060134501
20.0,-0.017296623807519822,-0.03942246014465289,-0.01178769431033717,1.6655360442898177,-3.141572919362244,9.128522409347982,-1.43111262353916,-0.21357146777983696,0.6609819375575601,242.10303648429527,9.775332498194235,18.980436038887767,-0.5070555583503454,0.1846050425003899,0.010084618571933924,-0.8416958657442843
21.0,-0.010545243453720573,-0.03672853927767657,-0.008040188618583221,1.7017278962597788,-3.2471294966598787,9.085554674382884,-0.6290938806130103,-0.17543738613224735,0.13041229057264314,241.62006171185652,9.99177718536777,19.651975493873465,-0.5029624048651806,0.19050817419512017,0.010444444122316293,-0.8428837711663987
22.0,-0.02097201478069866,-0.05939514146829391,-0.005029329632059584,1.7180702161603119,-3.2494433216318015,9.082456442507844,0.6497668733385438,-0.4214143910542096,-0.5501036735664752,241.47968659194413,10.084334253206158,19.66554742997596,-0.5019088089893885,0.19101942091045582,0.009527876482873333,-0.8434545119674675
23.0,-0.00517073257861504,-0.0201332981328956,-0.011398277269665847,1.7820205713449266,-3.186775442989667,9.091849123430688,-0.20364326708854913,0.21476979109760014,-0.0884018424031095,241.5991743907231,10.464385172948289,19.300557799510855,-0.5029350776260869,0.18990171844031653,0.005235834623363159,-0.84314011488355
24.0,-0.01555584322909996,-0.023222769106910887,0.00030363383528808977,1.7573815344079922,-3.196812471410535,9.094039375697587,0.002403573454339211,0.24351751047517975,-0.06832773361023184,241.7084422401332,10.316555644246428,19.350990281869244,-0.5037376895292025,0.1896683576927708,0.006770183870821364,-0.8427295990894277
25.0,-0.0285698269079465,-0.025644374508261222,0.0033247442958300576,1.7361766325727772,-3.072719905586152,9.139043273013375,1.3224232887490164,0.7925059008654602,-0.19653201219512195,241.87849872147916,10.1949535306845,18.56852994689221,-0.5056137926658142,0.18335992371400472,0.004663800363493312,-0.8429748597842249
26.0,0.0021616332788637962,-0.0077742137222861106,0.007289233190098651,1.7748709879158344,-2.910068389517642,9.183419072404122,0.13316160301801527,-1.44001669390143,0.02904284936149608,242.02168189796043,10.424724878452256,17.571579515422947,-0.5072546876473198,0.17701485454538118,-0.0012249178736710442,-0.8432955996298089
27.0,-0.0010002219128891097,-0.013701426294659973,0.007296858923924227,1.8422726300712138,-2.9169334866549663,9.16991095240977,0.10535440497084869,-0.02738934616393296,-0.05139124251044,241.78540821884644,10.822241471484194,17.633036020496682,-0.505319285353951,0.17910953064326496,-0.004369011893562509,-0.8440514957228511
28.0,-0.009415925275878069,-0.017984466097762712,0.004686195000907825,1.8424376525651112,-2.9228145009986086,9.16938348564627,0.11097283584498376,-0.1341165849623756,-0.2106434969436543,241.90909868062698,10.822376636607558,17.669335673505618,-0.5062148085267002,0.1793809252162037,-0.004018278702092033,-0.8434965420856584
29.0,0.012057051786398753,-0.023060270964283553,-0.0031181066507581065,1.7822186014876806,-2.8860069282933174,9.192837372436113,0.502828218529438,0.8895118060538989,0.008804970272318816,241.8924614642504,10.466652941210377,17.417762325531797,-0.5063859567810527,0.17602425398515778,-0.0023552210484346497,-0.8441056319320802
30.0,-0.01254425144747725,-0.02061432116270826,0.0017053054472409292,1.7456749970459646,-2.786034148647053,9.230645279451734,0.6251945970695971,0.47383241758241756,0.0007636181023277788,241.99317211686161,10.25331073496396,16.78094056481153,-0.5076470222315963,0.17044664159210682,-0.003247355390464373,-0.8444830439432234
31.0,-0.03723655913978495,-0.030576804915514597,0.001324116743471581,1.6742039170506917,-2.716788786482335,9.264902457757302,0.41772033410138254,0.16209197388632876,0.32964669738863284,241.8129632296467,9.827606566820277,16.330942780337942,-0.506768116548387,0.16533084784485408,-0.0021668302791858674,-0.846035464514209
32.0,-0.04395698924731182,-0.0332642089093702,0.0071298003072196615,1.6336140552995393,-2.6843621351766513,9.281838325652844,0.4591373847926267,0.4130016321044547,0.24652697772657448,241.61542818740398,9.582553283410139,16.120209293394776,-0.505542660048387,0.16272098043855604,-0.0014909478855606759,-0.8472916844385562
33.0,-0.051123655913978494,-0.029712749615975427,0.0018632872503840244,1.6251497695852533,-2.6704592933947775,9.28674577572965,-0.4814948156682028,-0.6958429339477726,-0.05912058371735793,241.59037538402458,9.538479262672809,16.034399001536098,-0.5054317483387096,0.16191973495314899,-0.001547864934715822,-0.8475045344047618
34.0,-0.05351553894571204,-0.028628245476003143,0.0019779701022816683,1.741273603461841,-2.7832273800157354,9.23146203776554,-0.5986120672698663,-0.7831161487018096,-0.06689614476789929,241.5242144472856,10.227707022029897,16.765177517702597,-0.5042062495411093,0.17024626658320222,-0.0038392001150668762,-0.8465671323750983
35.0,-0.030802124311565697,-0.019177025963808023,-0.003890047206923683,1.895326317859953,-2.8946056254917387,9.164993115656964,-0.37997639653815896,-0.8955399291896143,-0.10093799173878837,241.45013645751376,11.139004720692368,17.514897226593234,-0.5028123385407159,0.1795484575859559,-0.007840945529307631,-0.8454053159899688
36.0,-0.029668638665294848,-0.023252284694062826,-0.00871456454638988,1.8774726088886196,-2.8702148268070773,9.177892236074968,0.7782900792329883,0.6150893199378642,-0.3503727127841998,241.68855496883134,11.030137440991346,17.35201281925195,-0.5047403060717435,0.1778835940211624,-0.0073169511164941775,-0.8446494178625401
37.0,-0.025243741047832318,-0.02704097318888822,-0.017529095805846398,1.738817834735419,-2.7818380388952773,9.231485752183826,-0.171850854364623,0.08250163282495104,0.0929969146543202,241.75289397733462,10.209322138080251,16.76308167024753,-0.5059137644820756,0.1700916813481107,-0.0033871181207962625,-0.8455510380421078
38.0,-0.030585285158062504,-0.07944259517036859,0.009289445016038246,1.8249975286973712,-2.856790282232847,9.192045885533297,0.19825041860840445,-1.1570410059714742,-0.12229518449030646,241.56930018005204,10.717968135326515,17.25243297222054,-0.5040373141277412,0.1758803335916399,-0.005533773055579091,-0.8454840612162742
39.0,0.0005452803163267309,-0.019764570598559555,-0.009481949403861285,1.8803744527829895,-2.799799547095968,9.065090606023926,0.035125405999717585,0.8983431870221307,0.43400878068954385,241.49105744643828,11.209274193548389,17.152180294135448,-0.5033080305335795,0.17713999805073732,-0.009849509855877668,-0.8456075673705289
40.0,0.001191994996873043,-0.035140349815408804,-0.01749500695999516,1.8408525489721401,-2.8141538058060482,9.136162238495835,-0.39161068409691535,-0.4657729629405476,0.07799229357057838,241.32861844096107,10.9,17.108348211583852,-0.5022763282829187,0.1755363843963364,-0.007849348444067867,-0.8466126379715548
41.0,0.013408339889850513,-0.021781274586939407,-0.01634146341463415,1.940692368214005,-2.8635877261998424,9.132928402832418,-0.36541109362706525,-0.7750196695515342,0.28879819040125887,240.94257474429583,11.453196302124312,17.394807238394964,-0.49900638104012585,0.1798686265491739,-0.01157584848780488,-0.8475775043776554
42.0,0.022906822524446438,-0.025506238057772277,-0.019562773968753513,1.920511221010828,-2.941547150724963,9.12969562773969,-0.5479094076655052,-0.19265014424337798,-0.13518016372560043,240.82466491513992,11.313262429283279,17.846004739425275,-0.4978991969829155,0.1826439417130119,-0.008771336776966019,-0.8476907967909407
43.0,0.01806500318459406,-0.018667659510696485,-0.013784796373309358,1.9769483159117311,-3.0271854745045137,9.097710014611668,-0.42039100258514106,-0.1785777509272789,-0.11896741879285154,240.99126707036078,11.63923536960024,18.391944382001427,-0.49862060692894616,0.18802626367543368,-0.00874861039402795,-0.8460952020925968
44.0,0.01753518039788693,-0.020757717957363905,-0.017388820201566076,2.064513646922184,-3.1041773912554795,9.060546401408715,-0.5496416160878198,-1.1050912526694392,-0.014248424094264002,241.05346201669101,12.156651937919147,18.901520175340004,-0.4984629010228261,0.19387804125531077,-0.010558383583174104,-0.8448374615249241
45.0,0.010832490352553294,-0.019907084785133568,-0.018736652804316065,2.0561095500355924,-3.089793188715297,9.067535873515416,0.24801665355363228,0.7653235172904723,-0.36139288524221647,241.2443637368401,12.101888276947285,18.804753943276758,-0.49997321973549147,0.19293407968641113,-0.010217775970926527,-0.8441535350391516
46.0,0.013264208909370197,-0.014846390168970817,-0.019938556067588327,2.0576036866359444,-3.0733717357910906,9.073794162826417,0.5745967741935484,0.6405049923195084,-0.5384504608294931,241.6647465437788,12.107478878648234,18.698876728110598,-0.5031580767127497,0.19222764658986174,-0.009997530576036863,-0.8424374162135175
47.0,-0.019921509122925327,0.0008540331947098296,-0.034399985013675013,2.079152335993406,-2.925127758420441,9.114840208309916,0.24260284365516466,-0.9680826402158031,-0.7517046944662995,242.55842208047656,12.246571878161177,17.782382170019858,-0.5102610290734704,0.18624407023004008,-0.013505064582630849,-0.8393509172876624
48.0,-0.04898149188865161,-0.029430894308943075,-0.022376643812521073,2.1952942939567643,-3.0592727885804196,9.042304896781687,0.27231908695815066,0.3599726967891798,0.5898254561462665,242.3111090817129,12.940682252444642,18.691594310816377,-0.507494056625829,0.19569728728091867,-0.015441228792851522,-0.8388301984018958
49.0,-0.01850380277996329,-0.023471207523135133,-0.019694466299501702,2.1853814019707016,-3.122416732231838,9.024624030572104,-0.7963241354763778,-0.43870124761155455,0.06797820426360945,241.88625730583342,12.876255104716945,19.082284290584845,-0.5041314746800422,0.1982578279914578,-0.014018017445580906,-0.8403377027838972
50.0,-0.0233817016972013,-0.027154958600277244,-0.010036941291071895,2.1245578284815103,-3.1548235734891907,9.028593121276835,-0.014905539320370198,0.41376189539545155,0.005681690457457561,241.70317569592746,12.515498904124986,19.25150120827245,-0.5028515252547676,0.19797855137821738,-0.010753164315724402,-0.8412532723143755
51.0,-0.017109437638155183,-0.02077486793301113,-0.010874077404368514,2.05643482821925,-3.113857255254579,9.058527743434116,0.0027958862537933935,0.32754627027837097,-0.13460155108463528,241.94209284028324,12.10519088831441,18.95778305421303,-0.5050096413531899,0.1941674979471732,-0.008393214407478176,-0.8408951226894459
52.0,-0.00825652841781874,-0.025857142857142863,-0.01317818740399386,2.0624408602150535,-3.1197649769585256,9.056181259600615,-0.06296082949308755,0.023204685099846384,-0.0922811059907834,242.02479838709675,12.14459485407066,18.998915130568356,-0.5055576400983102,0.19461668947004607,-0.008366513840245775,-0.8404930394470045
53.0,-0.005882488479262673,-0.02708448540706606,-0.015069124423963137,2.0091781874039936,-3.0806774193548385,9.082205837173579,0.36958045314900145,0.7579253072196621,-0.3141657066052227,242.1803715437788,11.820977342549924,18.729637096774194,-0.5070501607642086,0.19132239441705068,-0.0067559261328725044,-0.8403648426490016
54.0,0.0024112903225806453,-0.03841935483870968,-0.01964516129032258,1.9634516129032256,-3.0443225806451615,9.10459677419355,0.45781249999999996,0.29682459677419354,-0.054889112903225776,242.35871975806452,11.544254032258063,18.47741935483871,-0.5086423818790322,0.18835931589516128,-0.0054107664919354845,-0.8400860693951613
55.0,0.0017775020678246507,-0.04386248966087676,-0.019996691480562448,1.8998494623655913,-2.9922040942928034,9.135654052936314,0.028672973531844476,0.3424227150537634,-0.2718672456575682,242.58251525020677,11.16921138337469,18.12436802109181,-0.5106843376614971,0.18417627110401158,-0.0036553371147642674,-0.8397829101770057
56.0,-0.00776191773083984,-0.03580054066049346,-0.016476709233593578,2.00609683975872,-3.0646770864855046,9.0876782263108,-0.8023125592608283,-0.9885785470757933,-0.06678039702233249,242.67078592467067,11.811190934606305,18.629808543394056,-0.5106938898745134,0.19058989101768242,-0.0063146208053168305,-0.8383021318420435
57.0,-0.018488485747140352,-0.03143368046849558,-0.015837048933233042,2.1050344029822785,-3.1301457629048115,9.042551094722217,-0.25316040789462313,-0.44025701547338053,-0.17882750649887746,242.71858468660565,12.39563362974555,19.084917952572603,-0.5104439441394457,0.19637378420814994,-0.008817224405154573,-0.8370935749058529
58.0,-0.02362829086727592,-0.03488314629246968,-0.01620855200398867,2.1633288655351994,0.991943739318641,8.903909693702573,-0.24232506527697323,-0.3733039109624967,-0.06073616178602409,242.72459955711088,12.74539254264618,19.331480293162777,-0.5101526388973192,0.19963331876398843,-0.010440974227065879,-0.8365023903573323
59.0,-0.030181080917508936,-0.03691334733978323,-0.015588146969736271,2.2125394327676,-1.1343910335664869,8.931386298464188,-0.2578056777997769,-0.2528061893522161,-0.04785800024785076,242.7122493753296,13.049863610032768,19.656642364323325,-0.5096704934405951,0.20324112426909097,-0.011383291210307133,-0.8359241456907631
60.0,-0.03238499868869657,-0.045799932561537623,-0.01870143494061669,2.237699823910682,-2.1999101569817556,8.944748566932674,0.005996871604660739,-0.0758654602675059,-0.13641349143906187,242.75828556442247,13.19450376531415,19.83038383724851,-0.5098043006615713,0.20514211911138586,-0.011719136689520813,-0.8353832429950921
61.0,-0.034239706268030426,-0.05020130381027314,-0.02010996215952944,2.2595509347720215,-2.697001498632498,8.961903001011576,-0.01747264995691432,-0.17762096774193548,-0.09280351991307932,242.88654836836386,13.321769978644486,19.69792696976509,-0.5107820642473868,0.2047176096186355,-0.013020778504477165,-0.8348724381269716
62.0,-0.03330802517702597,-0.05356608969315501,-0.020260818253343832,2.281779307631785,-2.9615153422501965,8.962382376081823,-0.011683713611329662,-0.06451612903225808,-0.09020456333595595,242.94735444531864,13.454346970889063,19.742958300550747,-0.5111563974531866,0.20560559358811964,-0.01382036143273013,-0.8344169493276945
63.0,-0.038395161290322596,-0.049911290322580654,-0.01644354838709678,2.2837661290322577,-3.2232580645161275,8.968290322580646,0.14254032258064514,0.20806451612903226,-0.14657258064516127,242.98951612903227,13.469959677419354,19.755443548387095,-0.5114595963064518,0.2057544823306452,-0.013810780112903221,-0.8341973591209679
64.0,-0.04043548387096775,-0.04483870967741936,-0.01778225806451613,2.241443548387097,-3.1139999999999994,9.015435483870966,0.028528225806451604,0.1957157258064516,-0.3171875,242.99647177419354,13.212550403225805,19.04178427419355,-0.5121304909193549,0.19948774741935485,-0.014843652395161288,-0.8352361376774196
65.0,-0.04096774193548389,-0.05495967741935484,-0.016411290322580645,2.3286935483870974,-3.267072580645161,8.937709677419356,-0.7365423387096773,-0.5265120967741935,-0.3475806451612903,243.3046370967742,13.73835685483871,20.067086693548386,-0.5132877960645161,0.2091517290483871,-0.013999840862903228,-0.832129792306452
66.0,-0.04166244239631338,-0.05266513056835638,-0.01265552995391705,2.369173195084486,-3.342171274961597,8.89985253456221,-0.18634312596006145,-0.04347638248847924,-0.4011952764976958,243.5585157450077,13.97996111751152,20.57073012672811,-0.5146048334792628,0.2138397966382488,-0.013268569508448541,-0.8301582654919356
67.0,-0.02805299539170508,-0.05492242703533026,-0.019027265745007682,2.354236559139785,-3.326719278033794,8.910445468509984,-0.005664362519201216,0.46900681643625186,-0.2781946044546851,243.8837125576037,13.88789842549923,20.460193452380953,-0.5171153103498464,0.21268389274500768,-0.012424571644009216,-0.8289317046059907
68.0,-0.031151689708141334,-0.052894393241167445,-0.021228110599078344,2.0805026881720434,-3.2118471582181267,9.014602150537632,0.9265793010752689,1.8085325460829493,-0.43318212365591396,244.5682315668203,12.252006528417818,19.604920314900156,-0.5235213836002304,0.19946909016129033,-0.0023611819074500777,-0.8280983893536866
69.0,-0.03760407066052228,-0.05058026113671276,-0.019081797235023047,1.9710779569892476,-3.1528187403993853,9.062212365591398,0.008299731182795755,-0.030789170506912322,-0.04524529569892474,244.93179723502305,11.596718990015361,19.17700652841782,-0.5267935529493089,0.19363302282258066,0.0014385804051459288,-0.8274915723341014
70.0,-0.022560675883256536,-0.05337019969278034,-0.025639016897081424,2.050434715821813,-3.160038402457757,9.043880184331798,0.2901593701996928,-0.2179051459293394,-0.28464861751152076,244.83814324116742,12.067261904761903,19.248118279569894,-0.5258770879339478,0.1962646673517665,-0.0019839144807987713,-0.8275155197081411
71.0,-0.044715484620283984,-0.02725570416994493,-0.031426623206324236,2.1574028324154213,-3.1329461241617023,9.028386085197255,0.08043066951406842,0.018890730958000868,-0.26344132853770935,245.34618598029297,12.707095322393316,19.123627112135175,-0.5293315190560489,0.19816672046075456,-0.006503855833651794,-0.8248480066597355
72.0,-0.036592596755460643,-0.04782814431830955,-0.03192308268704808,1.7528706118167174,-3.022471713311603,9.139567700723088,0.21607868757259,0.41737313139260424,-1.1748818656101307,245.92210307313326,10.309748955640478,18.289742094713574,-0.5350616673551947,0.1813451130269192,0.008853315805308907,-0.8245838336434566
73.0,-0.029446779813420247,-0.004716870855344505,-0.012064253868345136,1.9247561818590537,-3.0473731313926047,9.10193335768611,0.14100925873890074,-0.6676405436289385,-0.9589548560376158,246.55329997705218,11.327604752069986,18.50441815593271,-0.5390303595628207,0.18753382758498183,0.003204519414025327,-0.8207928550138154
74.0,-0.0093817852747829,-0.043800949902444805,-0.060679356049143644,1.7398562753794855,-2.963323145514334,9.167798047742972,0.5951078655150253,2.744113454405547,0.3317838157777181,246.82350107930358,10.229070030087929,17.909461972920866,-0.5418949315333749,0.17819347366666377,0.009306119899216965,-0.8209758719232643
75.0,-0.0334558695959168,-0.013893562508826092,-0.042990215658980424,1.6350479533579456,-3.062451895337812,9.15660102079929,-0.73081588291069,0.6596383324255076,-0.3749251043999273,247.43822903427545,9.605006405212935,18.48741627831911,-0.5461188565093911,0.1795091822588311,0.017615867905061627,-0.8178176068633218
76.0,-0.008580074662192752,-0.02550815940382845,-0.036032736139006614,1.6834363694113024,-3.123468733975238,9.130739900735032,-0.09949790449488538,-0.2940401141561188,-0.42951639645371,248.03908665956357,9.88687700184896,18.87473308289549,-0.5500353206908839,0.183555798090973,0.018265700701565635,-0.8143665701251637
77.0,-0.0006905094003331908,-0.00410341093716205,-0.028952638722532415,1.879802370386218,-3.066478662817674,9.111593396472944,0.36009074090755344,-0.9273603403196015,-0.42047712033543094,248.28963085928612,11.059120050885141,18.586314220440663,-0.5515390922848598,0.18690676011157623,0.008541467239059766,-0.8127552474858706
78.0,-0.011057292465705542,-0.0179840422113033,-0.01949598891280043,1.9754912717391355,-3.0884556964757133,9.085324628999652,-0.1712282330080644,-0.06254425355869925,-0.1731614555257013,248.41704202287673,11.62630963205154,18.76146454531081,-0.5520586034949082,0.19073919286066615,0.005314214012920913,-0.811596989498246
79.0,-0.005544361700181142,-0.021608232850895654,-0.017709119353008982,1.8991509295006679,-3.0760036960459622,9.106569675955573,0.042792624604321816,0.7153883364133716,-0.001608643395605,248.49343623062776,11.1657499359596,18.648329460413883,-0.5529171210766517,0.18781907295556052,0.008375808565600242,-0.8116978889393629
80.0,-0.010303258741514644,-0.023488518471081184,-0.018891735128904175,1.8558857519257863,-3.08058170640221,9.114952225861341,0.2814431504217518,0.4863895852011783,-0.007245485151775751,248.49932002817775,10.907484035643058,18.6600911660842,-0.5530862723814611,0.18672820505340967,0.01036190095658061,-0.8118347783654328
81.0,-0.016324940991345398,-0.029919748229740365,-0.01514162077104642,1.7765295043273008,-3.060135326514556,9.137532651455547,0.33703284815106216,0.9297501966955154,-0.15643686073957513,248.66957120377657,10.436029701022818,18.504125688434303,-0.554628087764752,0.18341246425963806,0.013434169201416206,-0.8114910520582219
82.0,-0.006876081825334382,-0.04213532651455546,-0.015647128245476007,1.6548776553894566,-3.004780487804879,9.17785365853659,0.3168248426435877,0.6823957513768686,-0.17068990952006294,248.9880359952793,9.712040224232888,18.117031372934697,-0.5574630103379229,0.17724268175216365,0.017488397322974032,-0.8108228444122738
83.0,-0.00476927616050354,-0.03697482297403619,-0.011154012588512983,1.5968629032258064,-2.983853658536586,9.19648701809599,-0.11373549370574354,-0.1382720298977183,-0.1619381884343037,249.17466315892997,9.369783880802519,17.964485395357986,-0.5590526703373329,0.1745492751522423,0.019613157792092842,-0.8102877806050353
84.0,-0.008453186467348543,-0.03998741148701809,-0.0039842643587726205,1.5461935483870963,-2.972926829268293,9.208517702596382,0.2039437450826121,0.3376180173092054,-0.29893784421715186,249.32407553107788,9.06137883556255,17.871784028324154,-0.5602799820597955,0.17242471011644372,0.021681608319433512,-0.809848912996066
85.0,-0.00303663580060118,-0.04686644878855736,-0.008547338054025699,1.4578398595896627,-2.912528394762856,9.241482922794491,0.6680426526659807,1.0984922532227803,-0.23475281930238656,249.66244124351914,8.541680410135367,17.475720964715848,-0.5631629201127923,0.16703589222691603,0.024153700029211807,-0.8088922726161714
86.0,0.008391202162641975,-0.0436181181787004,-0.014781143456595857,1.3688373176783877,-2.851571042385362,9.274411799713532,0.3866373766870423,0.2648244114264965,-0.2870262916338841,249.92246275393893,8.021848269583812,17.078758397385464,-0.5654905230383,0.16163082063745488,0.026456007980774278,-0.8082937711428615
87.0,0.011076010207992901,-0.04324887026165546,-0.01480599265670076,1.3687892331900986,-2.8400892190683695,9.277886466339849,0.14736569857168796,0.31676507746777227,-0.16871475872016783,250.06252956737075,8.018595259890255,17.00923561096653,-0.5665279082028636,0.16110540525971878,0.026343743596996108,-0.8076894894502665
88.0,0.0069751608868446,-0.03785506062256652,-0.02101560451088382,1.2816819887429642,-2.7701360729488185,9.310910089975591,-0.054371463263329894,0.17614660246323308,-0.23777127589824282,250.38661121366175,7.501748824870383,16.562949089904983,-0.5692818930696655,0.15536117219811274,0.028369409072298207,-0.8067794115096534
89.0,-0.011806774395287375,-0.032467066109867056,-0.017094151586677157,1.278966289414755,-2.7597474227844017,9.315215961588898,0.08647415723536886,0.11230557404829632,-0.1593889325990034,250.5327258467994,7.487572878210171,16.493172396053986,-0.5703973524515321,0.15479659913534666,0.028357877909378847,-0.8061299984306725
90.0,-0.0041258851298190385,-0.02918804091266719,-0.014654602675059008,1.3059496459480724,-2.7520755310778906,9.313773406766325,0.24790519276160505,0.07941581431943351,-0.29958693941778125,250.77033831628637,7.647777340676632,16.44771833202203,-0.5720541773878836,0.1552391501400472,0.02727715427065303,-0.804915611317073
91.0,-0.007397324940991346,-0.027036978756884343,-0.016056648308418568,1.299941778127459,-2.740309992132179,9.178944138473643,0.188985051140834,0.22339693154996068,-0.2662863886703383,250.95332415420927,7.611949252557041,16.37408536585366,-0.5733946745790716,0.15449577971990555,0.027419796832415418,-0.804104357735641
92.0,0.023653815892997646,-0.06594571203776552,-0.043791502753737215,1.3321306058221873,-2.757798583792289,9.237792289535797,-0.0033634933123524863,-0.9493263178599529,0.5325727773406765,250.19533831628638,7.804401062155782,16.489339103068453,-0.5678555923839497,0.156363162700236,0.0254923249779701,-0.8075988579944924
93.0,-0.013162601626016259,-0.039454254243003244,-0.019254973586602227,1.4276913191712564,-2.792171743284253,9.248592859016146,-0.3937169832527818,-0.8879719521561575,0.43628517103143377,250.117622044884,8.369874559776704,16.728858978681952,-0.5669574895948074,0.1608152820042711,0.022408744121557828,-0.8074917334521188
94.0,0.008354183057959605,-0.04276646622457007,-0.021551955715409687,1.4183067138735903,-2.8291810722715516,9.256097373646547,-0.13212108013937282,-0.14839195562174523,-0.016672520699861387,249.85251676595107,8.318562378236109,16.95529298265333,-0.5649657826801733,0.16222527784084523,0.023547376068646736,-0.8085894509015119
95.0,0.011925517964857062,-0.03857569967404742,-0.02467753175227605,1.5117991083136637,-2.8524394739799925,9.242497545989286,0.07489884230639539,-0.5195791652616987,-0.3625135813570117,250.04428552695663,8.866399722752988,17.125394327675995,-0.5660063775074745,0.1660509316749466,0.02059432028481511,-0.8071869497012475
96.0,0.003926567007605558,-0.04158840058446667,-0.019410363043722605,1.5381269341725674,-2.829530515904237,9.254213367801878,0.09906920872204111,0.23472752987898543,0.07819934622157276,250.27205916788432,9.023905998276573,16.99150322205987,-0.5676562614232887,0.16580259309317746,0.019149226808025176,-0.8061377904824097
97.0,0.009488853920797272,-0.05397279982016411,-0.018515567045071374,1.5149242066614215,-2.7836511745532198,9.272266400659397,0.47440675227604806,0.4696896894084148,-0.05345048424562589,250.34231400565733,8.883751779626092,16.698721713311603,-0.5684209263906372,0.16305952559300885,0.018859669406372934,-0.8061744512427784
98.0,0.00867112509834776,-0.05521754523996854,-0.02669905586152636,1.4172391817466563,-2.7268778520849724,9.303868017309203,0.14966684697088906,0.7182533438237608,0.10344094217151847,250.33463439221083,8.305000983477576,16.323128933910304,-0.5688493114840676,0.1576205799697089,0.021270946536388672,-0.8068826009268291
99.0,0.0033923981866546796,-0.053664456183732355,-0.025627945749503583,1.3795374096137278,-2.7293699936308116,9.309744876550146,0.14565595612753363,0.14094310816380054,0.0644808877524259,250.40616008205012,8.080980714473043,16.326428618260838,-0.5694153565713348,0.15655363515036902,0.023042615305252707,-0.8066537786569629
100.0,0.0027757044293236274,-0.05301431770432558,-0.023357659453056782,1.328893460198338,-2.6960346306591383,9.326755369139123,0.3155174614102132,0.68152634639161,-0.06979094166717102,250.59757685354901,7.781098776813272,16.10884565129992,-0.5710118978339738,0.1535421057753701,0.02442614990574827,-0.806065877338427
101.0,0.012940271569500518,-0.05857167498119505,-0.02706189424265742,1.215995117195943,-2.6482068314586016,9.35558332973085,0.2896387710276872,0.30739623771193403,0.17969626303738223,250.53719568483902,7.119077614213088,15.791670809520928,-0.5710144554774708,0.14806636685139474,0.027645198940777355,-0.8069729300643749
102.0,0.009229282126213677,-0.052744728127890994,-0.021906537207874735,1.19064203145399,-2.624882723361087,9.365458659357948,0.06476246674909146,0.1271958568575406,0.3273389114164095,250.34188843545647,6.970422830513311,15.645279739929622,-0.5697929921292744,0.1463525541709767,0.027752520891415423,-0.8081336221749884
103.0,-0.006939253508096941,-0.052800373505330234,-0.024635408651144296,1.1958127545153507,-2.621304461601866,9.36593153266875,-0.001474982203739074,-0.06990915260978203,-0.05692456474812885,250.2499912279564,7.001242099757048,15.625501789713041,-0.5691989020717181,0.1463970474277385,0.02732493236152203,-0.8085728427161332
104.0,-0.005594312977869232,-0.0485999919304404,-0.025140097641671206,1.2164838003590952,-2.6291046117533137,9.361566886562166,-0.21387522947810123,-0.39585338114547397,-0.470801811616131,250.46469403760415,7.125077795598056,15.677982269664508,-0.5706103883522766,0.14731113521840267,0.026936425070649,-0.8074311455142429
105.0,-0.007602780971978456,-0.03563994633742864,-0.023475756016865384,1.317853149145635,-2.679473728540014,9.332383939559001,-0.36445932689785954,-0.46720915541971797,-0.4154825848816801,250.8038420560229,7.729593281587283,16.01292103557667,-0.5725627904333757,0.15255067528910207,0.024638958432760396,-0.8051296599242015
106.0,-0.014869938873085999,-0.04466674736226271,-0.015508039298755272,1.3574225423147528,-2.7294344449151686,9.312571002037568,-0.11383248602957494,-0.08305014222598803,-0.24211629244084004,251.03614481833404,7.9552704311162215,16.324731687143174,-0.573903120829591,0.15581893766874458,0.02482351511154149,-0.8035496122645202
107.0,-0.005892876596259758,-0.0545481651838851,-0.008615546006576689,1.3509890052250397,-2.7099414553450742,9.319338215416899,0.27719567673344225,0.630903135023906,-0.008818767778248499,251.2221194193952,7.917003822953862,16.20145907724586,-0.575322768860901,0.15469947463689,0.024778339979059497,-0.8027549175720714
108.0,-0.012407492586092111,-0.05424103774536505,-0.01229754483649054,1.3119225120539049,-2.6860014121729305,9.331777683632914,-0.006588038895277287,-0.08209465593415238,-0.1943434908914846,251.37318107083055,7.6889307077003775,16.04553185963001,-0.5765429157011035,0.15242125063079748,0.0258302063860679,-0.8022891399740767
109.0,-0.006265902075894209,-0.06291674231878797,-0.016187324739252353,1.3422759688514998,-2.6975813512477553,9.322858944098126,-0.5217047196836732,-1.3981136143557464,-1.900289369363917,251.55397350158364,7.865138052512659,16.12437883304081,-0.5776666447286005,0.15382650727920677,0.025210662105701144,-0.80117689295242
110.0,-0.016378844929002285,-0.05000262260687123,-0.005284374882919336,1.453474626278521,-2.770352178636994,9.284446723614698,-0.1754733571241242,0.3771314534861938,0.05789767618298303,252.34399165449028,8.51744215044397,16.604406272245328,-0.582546134383088,0.16020485467942375,0.023974861486502935,-0.796388175300504
111.0,0.004733767936757704,-0.05119564647259377,-0.021140122138548573,1.5436223446105428,-2.8326764827095277,9.251005619871869,-0.5982660353677268,-0.791731529354464,0.03216603911430819,252.30929175564796,9.052066005395076,17.013979665430295,-0.5818033257977595,0.16574088898782363,0.022000809335993403,-0.7958664999874864
112.0,-0.00964334419841895,-0.03891804353527407,-0.01833953392529317,1.6694232887490168,-2.8750479187741185,9.215766381926494,0.11771395320520034,-0.27209511164812106,0.06742054906148137,252.31510024446442,9.792063687197931,17.317178660409873,-0.5813044393858978,0.17147224203521785,0.018052198322599376,-0.7951325671416583
113.0,-0.0060254486531040475,-0.02450622869131918,-0.014948681203401898,1.7156793863099928,-2.8585271065153046,9.213099556030125,-0.04829290538009065,-0.27063646219699516,-0.2764293792851523,252.58133061003707,10.067009420310216,17.23092410597205,-0.5831342973129332,0.17219570931815964,0.01606007722974973,-0.7937021677093028
114.0,-0.0004909894721067051,-0.014888539207972729,-0.011679592371960586,1.760771046420142,-2.871046794799745,9.201417893672026,-0.1863397306208085,-0.6755566014761529,-0.1601136619085085,252.70381870293357,10.34164606046982,17.321303295118206,-0.5837979203325091,0.1741712040764677,0.014678911398411449,-0.7928290867504028
115.0,-0.0074398111723052735,-0.01214319433516916,-0.009658536585365854,1.847998426435878,-2.905724626278521,9.173485444531863,-0.12059402045633358,-0.5372934697088907,-0.12024980330448465,252.6830153422502,10.857228560188826,17.56531274586939,-0.5832609714665618,0.17840847950904798,0.01210452488276947,-0.7923285773391029
116.0,-0.005790715971675846,-0.010258064516129033,-0.012247049567269866,1.822933123524784,-2.9000361919748237,9.180226593233675,-0.0073170731707317,-0.11396538158929977,-0.107779307631786,252.71985641227377,10.709402045633357,17.52140047206924,-0.5836177026483085,0.17736449539732496,0.013024095763965383,-0.7922800752997637
117.0,0.0030267505900865464,-0.00855153422501967,-0.009879622344610543,1.8191282454760032,-2.8780464201416205,9.187901652242331,0.3757326907946499,0.5570416994492525,-0.40480428796223444,252.8584579071597,10.683762785208497,17.38454464988198,-0.5846995276317859,0.17627924074822973,0.012734718844217154,-0.7917358445114082
118.0,0.0020767112509834746,-0.011832808811959085,-0.009525177025963807,1.7896514555468137,-2.867082218725413,9.197456726986628,0.10829317466561764,0.2774734461054288,-0.22155045239968527,253.09285995279305,10.513630999213218,17.306704858379227,-0.5864744209268292,0.17485936472265934,0.013959099966561764,-0.7907244452202989
119.0,-0.02084677419354839,-0.02128225806451613,-0.006556451612903226,1.7225645161290324,-2.838217741935484,9.219475806451612,0.1645665322580645,0.4238911290322581,-0.17444556451612903,253.30866935483868,10.116733870967742,17.103780241935482,-0.5883110779354839,0.1714321999435484,0.016165850217741938,-0.7900631316612903
120.0,-0.010185483870967744,-0.01626652242328875,-0.00857435090479937,1.717874114870181,-2.8151327694728563,9.227810778914243,-0.10654996066089692,-0.31630114083398886,-0.3151123623131392,253.60882916994493,10.091636752557044,16.955028029110935,-0.5904824338629031,0.1702664527492132,0.01606467879996066,-0.7887067776361134
121.0,-0.01304032258064516,-0.017008261211644376,-0.00519846577498033,1.8049935090479938,-2.846046223446106,9.2010666797797,-0.2028213512981904,-0.8894509736428009,-0.23268218922108574,253.67230773013375,10.613887932730133,17.17711078874902,-0.5904892854032258,0.17438902093509046,0.013499859234657748,-0.787829296729347
122.0,-0.028370967741935482,-0.016641227380015736,-0.006216168371361132,1.8692346577498031,-2.8264787568843435,9.194416404405978,0.06696130015735641,0.3230416502753737,-0.10784815106215577,253.95591192958298,10.98837037765539,17.07310680566483,-0.5923271380241935,0.17551294707238396,0.010702522177812744,-0.7862448429695121
123.0,-0.023104838709677417,-0.031046420141620776,-0.007345987411487017,1.8329439417781273,-2.8171184107002363,9.204962234461055,-0.00989132572777341,0.68185852675059,-0.10785552714398111,254.17374729543667,10.770142850118017,17.002279209284026,-0.5939898553709678,0.17391507844748227,0.012263984766325727,-0.7853310626500787
124.0,-0.012885129819040126,-0.03278914240755311,-0.013053894571203775,1.749119590873328,-2.7766506687647516,9.23267781274587,0.30885129819040125,0.6685434697088906,-0.20134982297403617,254.41277291502752,10.275882671125098,16.723979642014164,-0.596090796357986,0.1694661836058222,0.014790758371361134,-0.7846558992734066
125.0,-0.008079071597167588,-0.048817859952793065,-0.008371951219512197,1.724996459480724,-2.7771766325727762,9.237200432730134,0.0509883949645948,-0.31860985444531864,0.7475253245476003,253.78282725216366,10.132310926435878,16.719852724232886,-0.5918258529390243,0.16879943955664828,0.014861236451612903,-0.7879610021976788
126.0,-0.0194057475438278,-0.038154794327099596,-0.011825450382295384,1.7926921916923884,-2.825055437874477,9.209875960781943,-0.2502657280760152,-1.0968708391333293,0.059366079354031764,253.3163586994896,10.539451446468558,17.045343674978312,-0.5881830613605378,0.17311339897828276,0.01280021772828784,-0.7898015456837236
127.0,-0.02853764953902641,-0.04147865601484799,-0.010705309770219293,1.8446074058383264,-2.862492903831023,9.187885265992861,-0.2645309757610603,-0.4676033975367669,-0.046559215437067494,253.2466136534427,10.843696759819647,17.298398381548953,-0.5873759870567441,0.17638351437643487,0.011751637097228106,-0.7897201923227823
128.0,-0.02637769573725514,-0.036021586071940115,-0.011280074239948357,1.855795638403034,-2.8821940325606725,9.179890213641592,-0.04776447981601403,-0.018605126187738297,-0.16108202707337246,253.35382597994712,10.90902075894208,17.423543948838994,-0.5879647415243396,0.1775907376640239,0.012073052427646312,-0.789033552096875
129.0,-0.026416227884363208,-0.03629482136012427,-0.008441768040509187,1.8228474651495892,-2.8832496520002415,9.1861425891182,-0.04185529262240512,0.19310203958118985,-0.008127559563436818,253.50085083419071,10.709663801973008,17.416443492908876,-0.5890864055080391,0.17654768738118587,0.013707075158748411,-0.7884136924929693
130.0,-0.0017014262946599742,-0.036011297383445294,-0.01183693437430652,1.8160342754544168,-2.8977420565272647,9.182961145070506,-0.12293885795557706,-0.2586073200992556,0.12307528394762855,253.55601648711894,10.669667660231191,17.501494759829733,-0.589396527655672,0.176932546404991,0.014512369015251471,-0.7880790273401117
131.0,-0.015459480723839502,-0.04221243115656963,-0.011097954366640442,1.7665125885129815,-2.854789142407553,9.205830448465774,0.36664781667977964,0.5289314516129033,-0.007594905586152639,253.44693400865458,10.374318941778128,17.214911978756884,-0.5890152496475216,0.17348835657553102,0.015069370577104642,-0.7891150113532652
132.0,-0.01757159716758458,-0.03704327301337529,-0.00991168371361133,1.7153601494885913,-2.8112482297403623,9.228615460267505,0.15847142997639654,0.026493656569630264,-0.1756060680566483,253.47251794846574,10.073385867427223,16.930302173485444,-0.5895558055483872,0.17002420961664041,0.015870512682730133,-0.7894528012596382
133.0,-0.020106018882769472,-0.037911487018095984,-0.012193548387096777,1.7086734854445316,-2.8020131785995277,9.233244295830055,0.11991296223446105,0.14134047993705745,-0.09839201416207712,253.59343774586938,10.036929583005508,16.870061713217936,-0.5904716404118805,0.16942283449921322,0.016025779858182536,-0.7889038207360347
134.0,-0.013791896144767902,-0.047446498819826904,-0.01569315499606609,1.6717301337529504,-2.796069630212431,9.241887883556252,-0.050727773406766326,0.03333251376868608,-0.1299911487018096,253.69333448072382,9.816266719118804,16.82111772226593,-0.591318108882376,0.16797172247639652,0.01753083596459481,-0.788548294210071
135.0,-0.014350708103855234,-0.04442348544453187,-0.018703383162863886,1.701060975609756,-2.811775963808024,9.231690597954369,-0.07045633359559401,-0.07077473446105428,-0.23914486624704956,253.78057754720692,9.991040519276162,16.932180615656964,-0.5917300325379622,0.1695984102972069,0.016950054984657747,-0.7879027197258064
136.0,-0.013800354051927618,-0.042989968528717545,-0.01976298190401259,1.6899901652242326,-2.817408143194335,9.23192191188041,0.11779602675059009,0.0965934795436664,-0.146941384736428,253.90765268489378,9.923645259638079,16.959764702989773,-0.592599266047207,0.16943311214457119,0.017767408637490163,-0.7872688709596773
137.0,-0.015218725413060581,-0.034523210070810384,-0.013869394177812747,1.731454760031471,-2.8043855232100707,9.227819826907947,0.008192368214004729,-0.48469217151848937,-0.20109166011014948,254.0507769472856,10.170441581431943,16.892407553107788,-0.5935022050558616,0.1701969078182533,0.01583733154051927,-0.7864498342258064
138.0,-0.024533831628638862,-0.0679948859166011,0.002200629425649096,1.7969036191974823,-2.8480621557828485,9.201331628638869,0.006776160503540522,-1.3377040715971678,-0.05491738788355625,254.0252704563336,10.564567761605035,17.185198662470498,-0.5929315311597168,0.17414069788867031,0.01442777476003147,-0.7860184949311566
139.0,0.003475806451612908,-0.02315322580645163,-0.021822580645161287,1.859491935483871,-2.846725806451613,9.189685483870967,-0.19072580645161288,0.25952620967741924,-0.11774193548387096,253.98538306451613,10.931098790322581,17.200806451612902,-0.5924804196774194,0.1761250643951613,0.011788349903225805,-0.7859694456370967
140.0,0.005701612903225809,-0.025879032258064524,-0.01843548387096774,1.846443548387097,-2.8468790322580646,9.192838709677417,0.0400201612903226,-0.19052419354838712,-0.2511592741935484,254.1764112903226,10.854586693548388,17.196219758064515,-0.593831511266129,0.17569767111290324,0.012610749209677419,-0.7850403819354839
141.0,0.002443154996066091,-0.025987608182533446,-0.014174272226593234,1.8163412667191188,-2.8306256884343033,9.203833988985048,0.243772128245476,0.9094413847364281,0.3143772128245476,254.21546272619983,10.671814761998426,17.082601052321007,-0.5942741664874116,0.17399537732041698,0.013435517772029896,-0.7850742081846971
142.0,0.0124594807238395,-0.03657041699449253,-0.020248426435877265,1.750723052714398,-2.798816876475216,9.225650865460267,-0.21843651652242327,-0.08242648505114086,-0.13784667584579072,254.3106043469709,10.287545485837922,16.865166453579857,-0.595266183606609,0.17056488277714396,0.015266249269079466,-0.7850346038141227
143.0,-0.006004130605822186,-0.04184166011014949,-0.016595987411487018,1.7616599134539737,-2.8259769866247044,9.216039142407555,0.11968799173878833,0.478368410700236,-0.19614107985837922,254.43448564122738,10.349745525177026,17.03487657356412,-0.595947832561369,0.1720189606748623,0.015834231545830052,-0.7842026641772226
144.0,-0.005941581431943354,-0.032328088119590884,-0.009894767899291897,1.7703581825334385,-2.8169280094413844,9.216209087332807,-0.11301386703383162,-0.9236686172305271,-0.24275299960660895,254.63674886900077,10.40720643194335,16.982710464201414,-0.5973432360790716,0.171921434131786,0.015481045164044057,-0.7831554728103853
145.0,-0.003843036978756885,-0.0396144767899292,-0.01124744295830055,1.862739968528718,-2.8693977183320216,9.181595200629424,-0.5571498819826908,-1.0732862903225806,-0.02786929583005507,254.60853412667188,10.954533831628638,17.342382966168373,-0.5966046038446104,0.17714542411683715,0.013301094586546026,-0.7825852622568843
146.0,-0.018518686073957513,-0.039520062942564924,-0.008983280881195908,1.9893794256490955,-2.9271142800944143,9.136419158143195,-0.08982100708103855,-0.21885695318646725,-0.02372024980330448,254.58981977773405,11.702581628638866,17.754688729346974,-0.5957763208168765,0.18367744300255703,0.00989592765519276,-0.7817462429577104
147.0,-0.022634343036978755,-0.03888099921321794,-0.00885051140833989,2.0007582612116446,-2.911819236821401,9.139455546813533,0.11738788355625492,0.3764334185680567,-0.11541355232100707,254.77316089693156,11.771149685287174,17.662777832415422,-0.5970816351140834,0.18336839537627847,0.009249441363886703,-0.7808561204264357
148.0,-0.034014752163650665,-0.04600904799370573,-0.011199449252557041,1.9268428402832412,-2.8860023603461844,9.163574547600314,0.007181845003933908,-0.035019177812745855,-0.1755495180959874,254.88431230330448,11.330282503933908,17.47796149685287,-0.5982240496780095,0.1798729104824941,0.011661631286782062,-0.7807601652616049
149.0,-0.03422108575924469,-0.049625491738788344,-0.0075916601101494886,1.958401258851298,-2.8873721479150274,9.156250983477577,0.19386309992132178,0.559052911093627,-0.04284028324154209,254.97343135326514,11.516930566483083,17.49238296616837,-0.5987183482462628,0.18092865089850513,0.010552033038552323,-0.7801552661549959
150.0,-0.02934500393391031,-0.04767820613690008,-0.010817073170731708,1.9499228953579857,-2.892210070810385,9.15663296616837,-0.07626376868607394,-0.36234018489378444,-0.14995574350904797,255.09521292289537,11.470099822974035,17.523030586152636,-0.5995483160145555,0.18090243601494888,0.01122651243823761,-0.7795259744606609
151.0,-0.02189516129032258,-0.05262903225806452,-0.012653225806451611,1.9692580645161288,-2.902693548387097,9.150072580645158,0.0017137096774193575,0.2788810483870967,-0.009778225806451601,255.22888104838708,11.581199596774194,17.593296370967742,-0.6003385485564516,0.1819181382096774,0.011015074822580646,-0.778691839185484
152.0,-0.018411290322580643,-0.053564516129032264,-0.01430645161290322,1.897758064516129,-2.8658548387096774,9.176427419354841,0.4211189516129032,0.7965725806451612,-0.23200604838709676,255.43639112903224,11.152217741935484,17.337096774193547,-0.6021573960564516,0.17796532401612902,0.013089629975806455,-0.778151726983871
153.0,-0.009365066876475217,-0.04355133752950434,-0.011341463414634143,1.8092918961447682,-2.813328678206137,9.210181353265149,0.24656397521636508,0.558997590479937,-0.14366886309992133,255.6409999508261,10.629659225019669,16.97739353855232,-0.604100419333202,0.17282051532297402,0.015339334766915815,-0.7777565546416207
154.0,-0.004268095987411487,-0.03452852084972463,-0.010138080251770258,1.897610739575138,-2.809049763965381,9.191152439024393,-0.1295387490165224,-1.0615656963021243,-0.5593258261211644,255.8994762981904,11.16522669158143,16.986316138867032,-0.605522020923682,0.17557965527399683,0.011946389714791502,-0.7760210913280882
155.0,-0.018217957363905433,-0.05720224045558428,-0.0044745700798021785,1.9380705387583825,-2.826296963395901,9.178209284028323,-0.562712442864636,-1.2328517805627364,-0.9001554245813195,256.1047808718294,11.404483545483497,17.11165725338129,-0.6067033481411804,0.17764151733918737,0.01120069549641265,-0.7746711398072852
156.0,-0.0026986718369487843,-0.023653441234873177,-0.04795551871417333,1.865430922408302,-2.8251369750103024,9.193942564909518,0.616499182776966,1.7000916156194972,0.2591319405417556,256.8002907112884,10.960984273725225,17.074788845022667,-0.6116551177156531,0.17504519552020342,0.01522527233268705,-0.7712599550713255
157.0,-0.0004739425274437074,-0.03839871117605187,-0.03555692930201192,1.74924506387921,-2.76763103667903,9.2339653815893,0.007006106927428757,0.16422202240455586,-0.33293525907609306,256.88382085721776,10.274746169120677,16.676297722078605,-0.6128739004398487,0.16880050323030232,0.018151063445356108,-0.7716362664917013
158.0,0.005934959349593498,-0.050476565134314935,-0.0257513768686074,1.730242778464651,-2.7493746955902743,9.24395189389682,-0.09358491626390918,0.32998014311940355,-0.14781902139297892,257.1030544003596,10.159068131579932,16.552117286725863,-0.6145140590667266,0.16733119327750923,0.018656705078116217,-0.7706680215027537
159.0,-0.021450301599790184,-0.06547431718556818,-0.03488985051140834,1.6481977070922782,-2.7512805814694095,9.258691131842193,0.09389400921658986,1.1906342493724476,-0.8203198175414934,257.7037449421153,9.670530328575175,16.533557659885354,-0.6187836364885168,0.16454289292120938,0.02287249079633584,-0.7677129260188827
160.0,-0.012404106253044094,-0.056627327563598215,-0.02313386534787007,1.6638185156045107,-2.7740074182308643,9.249393953017872,-0.17117895545314898,-0.04096839758720172,-0.31887246637443334,258.2304967030085,9.766121539095575,16.681342962047133,-0.6221536128533213,0.16594623464493646,0.023762961458843802,-0.7646817764487658
161.0,0.011540669139410285,-0.05837503278258589,-0.01632460379903338,1.634505638604773,-2.7419258176913566,9.264575025289425,0.6242108763253531,0.688116312614739,-0.11311443932411674,258.42608135701175,9.588627252631973,16.47441459668053,-0.6236964511977071,0.16357449234843208,0.024170614303772806,-0.7639350381386236
162.0,0.010395826308493502,-0.05916863362182009,-0.014244127233899066,1.5450065565171776,-2.6754483533775435,9.299130943014498,0.34045909669926194,0.2874147652766851,-0.2975239781199655,258.6118260836986,9.06245878760631,16.038766110299353,-0.6254799114816232,0.1578396922206362,0.025769983983515047,-0.7636290520819002
163.0,0.010418961447678992,-0.057417387883556256,-0.013414634146341463,1.5285306845003928,-2.6465448465774983,9.311014555468136,0.009579071597167615,-0.045148996852871714,-0.3759072580645161,258.96354986231313,8.966362608182532,15.855804976396538,-0.6280101834189615,0.156042821640834,0.025955137556648314,-0.7619288906247049
164.0,-0.002543469708890647,-0.057502557041699445,-0.014531077891424077,1.506793273013375,-2.621419551534225,9.321729150275374,0.2490214398111723,0.3708607887490165,0.0019755605822187328,259.1481252458694,8.835428550354052,15.695152684893785,-0.6294248056040519,0.1542283994553501,0.02626123930625492,-0.7611288501298189
165.0,0.0011193941778127395,-0.060739181746656185,-0.015088119590873325,1.5034490558615263,-2.5894476789929186,9.331094413847365,0.2971417682926829,0.1536007572777341,-0.019803550354051923,259.16471282454756,8.816630605822187,15.500121705350118,-0.6296945400883163,0.15279680848977184,0.02536140052812746,-0.7612314898068449
166.0,-0.015613690007867827,-0.06633733280881196,-0.011737608182533436,1.4871559795436666,-2.573538355625491,9.338232690794651,0.10051140833988984,0.09592840283241544,-0.04268907356412273,259.20922133162867,8.71804312549174,15.39696105428796,-0.6301060099352873,0.15158832715617626,0.025564409590676636,-0.7611307384034223
167.0,-0.01608103855232101,-0.06536624704956727,-0.012505900865460266,1.4552352478363493,-2.561668371361132,9.34699134539733,0.14077989771833202,-0.006874508261211637,-0.19964594807238398,259.3572064319433,8.529661683713611,15.319045043273013,-0.6312421128426435,0.1499947751184107,0.02661523197678993,-0.7604690271734853
168.0,-0.03426789929189615,-0.06375708103855232,-0.003908339889850511,1.4936876475216367,-2.5486429976396536,9.343932336742725,0.10146784028324154,-0.12445416994492525,-0.2674075531077892,259.58288626081827,8.756889260424863,15.245847265932337,-0.6326914178808025,0.15069166605251771,0.024947131023800157,-0.7591806454514161
169.0,-0.01686782061369001,-0.058939024390243906,-0.017171911880409133,1.4974244689221086,-2.483978756884343,9.360312942564908,0.4123266620771046,0.02935557631785994,0.025620820220298934,259.6325973642801,8.781317614083399,14.844445810385523,-0.6333061735210465,0.14816609004642015,0.022692770540125886,-0.7592254012378048
170.0,-0.035603265145554674,-0.06625177025963808,-0.017884343036978757,1.48558320220299,-2.4540377655389447,9.36981372934697,-0.04174493509047994,-0.6191679779701023,0.17951907946498818,259.3628208595594,8.714323121557829,14.664914437450825,-0.6316571279822973,0.14666334570062944,0.021835916891030684,-0.7609102981955153
171.0,-0.03770082612116443,-0.0629404012588513,-0.008030881195908732,1.5796424075531077,-2.4956237214791495,9.342983477576713,-0.35638154012588513,-0.8254610051140834,0.004426878442171517,259.27846184107,9.271753294649882,14.945763670338316,-0.6306609437976005,0.15154571564870184,0.019370072114870178,-0.7608409111945318
172.0,-0.05132651455546813,-0.06089811172305272,0.002366640440597956,1.6631475216365066,-2.545694728560189,9.314184500393392,-0.2841070023603462,-0.4793912273800157,0.07412470495672699,259.1251745672699,9.768730330448467,15.276430959874114,-0.6291733405255706,0.1563881382230527,0.017511797721085756,-0.761122809707317
173.0,-0.045229417579535594,-0.060152903024067464,-0.004441868910004237,1.728622319393169,-2.577548185357784,9.294400144243376,-0.09654559805523616,-0.3531895564768303,-0.09561003348867236,259.0638878696867,10.151409588149852,15.49000540912667,-0.6284194566279531,0.15989904098315982,0.015895157432735174,-0.7610692163461235
174.0,-0.04099393774334765,-0.05928799753878433,-0.0036253404345457842,1.7570528001371821,-2.5631466339849505,9.29321688958825,-0.08420538163973451,-0.23809286045714056,-0.09700594121325828,259.13364227768363,10.3208156811717,15.410776455546813,-0.6288748566422614,0.16026281054439262,0.014398528357103228,-0.7606599164102765
175.0,0.15260786983800362,-0.03194641812423089,-2.6751917024753373,1.8053207549073007,-2.614145897637636,9.269801993181222,-0.3038718440456737,-0.0919294947446993,0.25840227132885474,259.03141287271274,10.602292921231012,15.739057582612116,-0.6278136273009693,0.16397544908671247,0.0140392377471,-0.7607458197293319
176.0,0.04757083200041501,-0.046464760521408854,-1.3417982321900497,1.5029848782216995,-5.880453901199769,10.07282956801918,0.04751324272370691,-0.3970136144998458,-0.20834806748457416,259.0571030857419,11.203115786652372,15.938788823948148,-0.6275515614083571,0.16848401006121339,0.010951793504886405,-0.760012067318007
177.0,0.00723526801024834,-0.03997622650101015,-0.675638728698524,1.7645889885095232,-4.279272883685944,9.639549361207898,-0.06442033903678279,-0.5519745023531412,-0.12544056553202892,259.0233718943003,11.565980591988655,16.073452193623318,-0.6270237347592909,0.17129215178138407,0.00908912131952574,-0.7598504036383973
178.0,-0.005690401258851303,-0.04017734442321382,-0.34104456558390467,1.9328287999700269,-3.510771627140235,9.405446067962984,-0.33420839421527854,-0.35964967123749575,0.11862226499569144,259.010459752351,11.963986104866809,16.355692461878537,-0.6264919880512345,0.17528200341444683,0.007736488938424936,-0.7593982997411863
179.0,-0.008046579371323671,-0.042005610505413814,-0.17795943389157393,2.0167152504589563,-3.0995314057172827,9.295543835000561,0.09325861245363604,-0.3569608552508336,-0.32717682224345285,259.1176893662658,12.163108643831254,16.326538674084894,-0.6271087314861845,0.17614802204085644,0.006358677269219961,-0.7587098099453373
180.0,-0.0204842456258664,-0.03965081862800196,-0.012476864860814507,2.0353317597692104,-2.8750183582480986,9.251615151174557,0.2493818140946386,0.05575381214641642,-0.29765300101157693,259.28256247424224,12.125859372072984,16.193651418081,-0.6283402460370537,0.17502689906035743,0.006165092974598179,-0.7579541939494586
181.0,-0.018227529878985425,-0.040519725750252894,-0.007011089880484059,2.0458072009291524,-2.6507311453298863,9.20949881982691,0.21556072271552207,0.4256399629088457,-0.015613174852946707,259.44472785770483,12.034847888801469,16.04666249859503,-0.6295758515108463,0.17358233485736768,0.006254780627852084,-0.7572611958664345
182.0,-0.010629125922595633,-0.04925525458019557,-0.006847326814281967,1.9943690382525943,-2.6326643437862947,9.226284740174595,0.47837847963733093,-0.1986479524933498,-0.24994848450788656,259.5039835525083,11.730730396013637,15.916250796148514,-0.6302258914359147,0.17110073470210935,0.007770290201790864,-0.7572694790983476
183.0,-0.0064595325995798055,-0.03786251199626495,-0.0072876711539182045,2.0993360654556565,-2.5696390774187785,9.219639172524303,-0.10873864857932519,-0.7219049996685716,-0.32322756086033033,259.6688898123251,12.359231702273599,15.565354084349954,-0.6311966135570302,0.17211987048093425,0.0017409267219690868,-0.7562341648848674
184.0,-0.012339597328975771,-0.04389438963868547,-0.002377322520123466,2.134273255462084,-2.5002419657447192,9.230125269825901,0.7850988016703988,0.8575430838830721,-0.34062203695858295,259.91388519034075,12.565066119954002,15.14370334785854,-0.6330142477224475,0.17042669430805543,-0.001564037812594565,-0.7550925077166273
185.0,0.0031142296596663203,-0.04767103431580222,-0.002604868970525933,2.0863891847727407,-2.4989486776009198,9.241856498012872,-0.6898414331537858,-0.7201761370513828,0.44647694375516955,259.79380825213343,12.279385931731525,15.120066662127538,-0.6323846105724749,0.16880118525394905,0.00011881378843127768,-0.7559933954004066
186.0,-0.004333030724848197,-0.026808766567814564,-0.0045472220541063965,2.146817723778975,-2.5768110815227256,9.206770400855376,-0.23936898565635784,-0.3981234491315136,0.1580388259295124,259.6328539195364,12.63716051110573,15.625274774808853,-0.6307532033287235,0.17401173956127822,8.524569368456093e-05,-0.7561794089483347
187.0,-0.009456837943069257,-0.03519067360648792,-0.002422804575440296,2.1560983780185197,-2.635623282696847,9.18786907139543,-0.5924667508926951,-0.2866625310173697,0.08337929199701427,259.55198643557463,12.699376626520607,15.99814645998507,-0.6299056761885553,0.17677829711934875,0.001546819608939055,-0.7562512270548125
188.0,-0.01177970102281668,-0.03096754523996853,-0.0010873328088119578,2.1811335562549177,-2.720362509834776,9.15709913453973,-0.236680025570417,0.28588709677419355,-0.13212652439024392,259.53715947088904,12.85103756884343,16.53442786191975,-0.629296610109166,0.18111258643312353,0.0033217913007474427,-0.7557293261188041
189.0,-0.020954366640440602,-0.028874901652242324,-0.019285601888276944,2.1661998426435884,-2.692201416207711,9.168888276947282,0.2293666404405979,-0.21915322580645163,-0.3665420928402833,259.90358477576706,12.76009539732494,16.354789535798584,-0.631933583913454,0.17941590046656175,0.00354412569472856,-0.7539282007206924
190.0,-0.02218506238057772,-0.03069667678243602,-0.009100108650856092,2.2068369487842348,-2.737013749953168,9.14599859503203,-0.3954605484994942,-0.7298149423026488,-0.02193272076729985,260.07468844835336,13.006081520924656,16.650776478962946,-0.6326657595358736,0.18266865719611475,0.003693902337829231,-0.7525374840381776
191.0,-0.01643871529729122,-0.022032052002547674,-0.010742029148402082,2.28332799445506,-2.76759027387509,9.117539030010112,-0.3930980948634371,-0.4388403979805927,-0.07120436195721405,260.08907514471167,13.466283286032745,16.874144140346935,-0.6322761562982278,0.18658674878688508,0.0016977003073882582,-0.7519073777232589
192.0,-0.014441131842193995,-0.028886993743209327,-0.007685530703233299,2.2831075456146266,-2.7979241691956087,9.108652579521188,0.23238240418118467,0.8498590348806712,0.07336959321494137,260.1522240642913,13.462652731726049,17.062021666947658,-0.6325528434716946,0.1877961251394103,0.0028227713795005802,-0.7513788432245327
193.0,-0.01798307626022024,-0.04114190464662533,-0.011915552779242784,2.157288264122449,-2.756545211148673,9.151368886948351,0.3255972194603194,0.5064199020557202,0.24495157183493138,259.88350709004476,12.707727963257566,16.74873273690642,-0.6314898888839036,0.18175198894212036,0.006031577160904137,-0.7537119582363359
194.0,-0.019608473613981083,-0.027224178129764277,-0.01246987316381494,2.0529707449644503,-2.6751597023485294,9.198547346699982,1.7470728032785467,0.71414745102786,0.8207620762400464,259.57053378695787,12.08173696549975,16.203701045872563,-0.630193319837113,0.17482091834606017,0.007004879064323037,-0.756386116819781
195.0,-0.026036955700999752,-0.05498305680681762,-0.006250297565010389,2.000602115953807,-2.595095212157368,9.233014072735552,-0.3867362558108035,-0.07250576757362759,0.5207160995639556,258.8315178535404,11.76861905878674,15.688112043673609,-0.6258667210475888,0.16979903678439723,0.005353276805587018,-0.7611086660558197
196.0,-0.014607777614465259,-0.04578421133023808,-0.008845054368657831,1.9970949210768247,-2.662905591916607,9.215358334558177,-0.2621132105175181,0.06521741519036954,-0.17987110049339589,258.66381655855616,11.750654926718312,16.103792449846246,-0.6244784798038888,0.17251159539849284,0.007439518025138118,-0.7616533105849514
197.0,-0.012755117685880859,-0.03324848047310675,-0.011600330563745197,1.9711903176812697,-2.6804358988768904,9.216633084329779,-0.19777367515123223,-0.2457155051544312,0.2108096974491546,258.69516792789557,11.593334615816914,16.206535721850926,-0.6247003365588184,0.17236971603545997,0.009104808036762608,-0.7615045303122531
198.0,-0.01713107414484283,-0.023002238582293656,-0.007354342287662508,1.9607415608257461,-2.7081261380240527,9.210896360196323,0.05742519716383798,0.42661495213742456,-0.38802463845490986,258.9215810689933,11.529158002697539,16.37337228607021,-0.626133011941113,0.17312767599374324,0.01078002958165674,-0.7601442219849106
199.0,-0.012498857292720392,-0.021098385223483576,-0.00622486980630175,1.974172904724439,-2.7345722153534897,9.200210670263388,-0.3767868850923532,-0.39558746393915545,-0.42639208909370196,259.2590393297366,11.611454001348768,16.543644861563823,-0.628196137478326,0.1746675914362894,0.01161470198201641,-0.7580750330025852
200.0,0.014284740174590686,-0.03680851223258776,-0.011169083211569442,1.9746818028548945,-2.7425469633959008,9.198206474092395,-0.021806976134277456,0.2293317504027575,-0.026419017646397647,259.64111357761044,11.611420516278894,16.59508214379379,-0.6306778764752912,0.17494513386358698,0.012442167998426434,-0.7559408421235998
201.0,-0.006934659623093925,-0.0342929451875164,-0.005891199280656399,1.9478152186130155,-2.7202547862575397,9.210622288411825,0.6158562343111911,0.5555003325090855,-0.4371796673035855,259.7380219455996,11.452556339215466,16.444032398561312,-0.631501582488142,0.1730920113014312,0.012885072030384772,-0.7556802893177661
202.0,0.014644805365104353,-0.03538533588100858,-0.02052547675246337,1.821718669214342,-2.635516026001273,9.259532342362593,0.3394469343598966,1.215245365947323,-0.3732557322693042,260.0912315949196,10.695657009853509,15.873825915102469,-0.6346564167609681,0.16521853592183694,0.015579545966805287,-0.7547011642886834
203.0,0.005604660747068307,-0.029982990521149444,-0.017948222247199427,1.7487786894458803,-2.596479787194185,9.284657300213556,0.26624564459930317,-0.4378662283166609,0.3318197145105091,260.2825109587501,10.270711569442883,15.60727586077704,-0.6363464920095162,0.16116227685204748,0.017391636854370382,-0.754120896495148
204.0,0.006838522348357121,-0.04892540556741973,-0.010272301524858564,1.7937874564459926,-2.562240680379154,9.285271215016298,0.07735964370012365,-0.388386300625679,0.4392182758233112,259.67899643138134,10.543228522723016,15.414205396950283,-0.6323500559772206,0.16135485268251468,0.01363294329343224,-0.7574880630941514
205.0,0.0011163500805514996,-0.0499237570716721,-0.004755348244726686,1.8758835000561986,-2.543968491251732,9.274663144880297,0.19359229234573452,-0.014359358023303709,0.018497808249971853,259.1408701669102,11.029546008017684,15.325616663856731,-0.6285939821514742,0.163415670847945,0.008986455842624853,-0.7602268578956201
206.0,-0.01745180959874115,-0.0510279307631786,-0.0023623131392604252,1.8457551140833988,-2.553354445318646,9.278651848937841,-0.27997516719118803,0.04588291699449254,-0.09319925255704173,259.379392456727,10.84929681353265,15.37328260228167,-0.6302446612616049,0.16279652846007084,0.010836689025767114,-0.7590085585177024
207.0,-0.01909284028324154,-0.05267525570416995,-0.0068182533438237635,1.8857202989771826,-2.598169158143195,9.25852753737215,-0.23930714004720688,-0.5440192269866247,0.021646341463414626,259.40675772029897,11.088559697088906,15.665093922108575,-0.6300902918485445,0.16601009570180963,0.010782891266915817,-0.7584562804604642
208.0,-0.011933516915814318,-0.042462627852084975,0.003671518489378441,1.9536262785208496,-2.6309071597167577,9.235287962234462,-0.2905709087332809,-0.9898775570416994,0.5660651062155783,259.3036560778914,11.495136703383164,15.89741591266719,-0.6290112941742723,0.16971725110896935,0.009013463774586939,-0.758555877306845
209.0,-0.025830645161290317,-0.03383870967741935,-0.007411290322580644,2.002048387096774,-2.633274193548387,9.223661290322582,0.4906754032258064,1.2359375000000001,-0.4325604838709678,258.9664818548387,11.778326612903225,15.924243951612901,-0.6266033050564517,0.17138701386290323,0.006695507443548386,-0.7601780548548387
210.0,-0.02466013824884792,-0.03993701996927803,4.019516129032258,1.776685867895545,-2.522979262672811,9.29697503840246,0.5161026305683564,1.0412850422427036,-0.46210157450076805,259.4889616935484,10.439936155913978,15.175736847158216,-0.6312973513993856,0.15921564981221198,0.012715758219278034,-0.7587583358344854
211.0,-0.03381797235023041,-0.043653993855606754,2.010532258064516,1.7071332565284179,-2.4624089861751153,9.328088325652843,0.7732478878648233,0.7564540130568357,0.09435243855606759,259.6707157258064,10.02498319892473,14.776603302611367,-0.6330076150625961,0.15435637469239633,0.013709539129800306,-0.7583750755422426
212.0,-0.01944124423963134,-0.050121351766513056,0.991266129032258,1.5202964669738868,-2.3302972350230418,9.392552227342549,1.4348598310291858,1.103907450076805,0.10163690476190476,259.52303427419355,8.91675067204301,13.924793586789553,-0.6331062559627497,0.14270914919700456,0.01654761950844854,-0.7604719190695084
213.0,-0.023063364055299528,-0.048028417818740406,0.4635483870967742,1.5722288786482337,-2.1760437788018434,9.420937403993854,0.4412202380952381,-1.4391249039938558,-0.5484759024577572,259.7286290322581,9.227906586021506,12.996166954685098,-0.6349350960579877,0.13830374163479264,0.009596992915514592,-0.7598808581274963
214.0,-0.036334101382488465,-0.05649001536098311,0.2332258064516129,1.7181789554531492,-2.190723502304147,9.392948540706607,-0.35968221966205827,-0.3500816052227343,0.020444508448540677,259.7007056451613,10.089381720430108,13.120185291858679,-0.6342933900975423,0.1437863485391705,0.004358871151305683,-0.7594846189347157
215.0,-0.06321774193548386,-0.05911290322580645,-0.011951612903225807,1.7236693548387099,-2.194967741935484,9.39236290322581,0.4188004032258064,0.306703629032258,-0.5246471774193548,259.8331149193548,10.120060483870969,13.145514112903225,-0.6351492110080647,0.1440962265483871,0.004462014266129031,-0.7587535240725806
216.0,-0.04086428009441384,-0.03672108575924468,-0.012294256490952008,1.7977224626278518,-2.1339720692368216,9.392724822974039,0.27468774586939415,-0.8650976101494886,-0.6209234854445318,260.2793986034618,10.565382818646736,12.788788355625492,-0.6381197981669946,0.1441633350824154,4.0203349331234886e-05,-0.7562541379732495
217.0,-0.02021754523996852,-0.05710306845003934,-0.0011717151848937854,1.811252360346184,-2.085848347757671,9.401216758457908,0.42568966365066874,0.8088709677419356,-0.17296543076317858,260.4408389063729,10.639652586546026,12.496808615263571,-0.6393291831526358,0.14261233618882768,-0.001831153515538946,-0.755548343350118
218.0,-0.02839909520062942,-0.04859185680566482,0.011893981117230527,1.7175576317859953,-1.9992830448465775,9.437221282454761,0.2635756785995279,-0.004385080645161243,-0.4086349331235248,260.76376622738,10.089811172305271,11.951730920535013,-0.6420519173505115,0.13600562386860737,-0.0007095340763178602,-0.7544447631428011
219.0,-0.04101809598741149,-0.05294512195121952,0.006813926042486231,1.7406215578284816,-2.0664358772619984,9.418864673485444,-1.140213168764752,-0.3299395161290322,-0.13219045043273014,260.73526012981904,10.224996311959085,12.368153766719118,-0.6415422621188042,0.1395352026923682,0.0006371771795830053,-0.754229970329465
220.0,-0.05986388670338316,-0.040452399685287174,-0.0002462627852084982,1.9137301337529504,-2.231830841856805,9.342480723839497,-0.7261801730920535,0.4405241935483871,0.3887686860739575,261.1028619197482,11.261364083398899,13.433094020456334,-0.6426625463335957,0.152126078313926,-0.00012108665617623901,-0.750698993830055
221.0,-0.03931431943351692,-0.05296026750590087,-0.01389968528717545,1.9164992132179388,-2.3945385523210065,9.30125216365067,-0.7432779307631785,-1.1053427419354838,0.9668813926042485,260.91625196695514,11.279900177025963,14.438714594807237,-0.6407321114201416,0.15886616068725412,0.004875668725413062,-0.7509037834059794
222.0,-0.0209199449252557,-0.034934107002360354,-0.016155192761605035,1.994925452399685,-2.5534573170731707,9.243446695515345,-1.256572088906373,-0.7660368312352479,0.1462799960660897,260.46161732887487,11.743928255310779,15.440590578284816,-0.6368035677242327,0.16798265460798584,0.006479120239968529,-0.7522977372458695
223.0,-0.021582612116443745,-0.0375889063729347,-0.011205940204563336,1.9744437450826118,-2.6958841463414633,9.209149685287176,-0.6838844905586153,0.20764899685287175,-0.08695662863886702,260.3153680664831,11.61420264555468,16.310113837529503,-0.6352869564464987,0.17302286774213216,0.011903983788355627,-0.7524465807840284
224.0,-0.03070259638080252,-0.04883477576711251,-0.01466345397324941,1.7762702596380802,-2.672454169944925,9.254909520062943,0.43948416601101503,1.053975708103855,-0.4645468627065303,260.6976285896931,10.434848298583791,16.098580104248622,-0.6385770111426042,0.1651377836331629,0.019441228813532652,-0.7512244471339496
225.0,-0.010513356562137048,-0.02874227267618298,-0.004142594882170019,1.9011723802030647,-2.5707768161552584,9.258030796897831,0.03892651080888693,-1.0730625491738788,-0.33197941253606084,261.0048110786407,11.180693398523847,15.513488160803266,-0.6406295670818629,0.16536707207560597,0.011569454838409949,-0.7495618677925893
226.0,-0.0069679292645461015,-0.020893559626840506,0.0025195758870031094,1.972686898205388,-2.599157094151586,9.237673935034284,0.11387710276872356,-0.19750196695515343,-0.2535192105953318,261.01071592484357,11.601828799970027,15.70582452886741,-0.6403198745598142,0.16891492714716572,0.009749923748866657,-0.7491431376335094
227.0,-0.006339983515042524,-0.02285826683151624,-0.005632422914090893,1.9606196096062343,-2.60288696564385,9.240858997414861,0.21803217844966472,0.08842938630999211,-0.03217364935746131,261.07223443763814,11.530064675358734,15.717290706605223,-0.6407742519179872,0.1686109942030085,0.01043744482879997,-0.7488636136515303
228.0,0.0032383481323292563,-0.03268405080364168,-0.014688752763103668,1.922178412198869,-2.5434301075268824,9.26537442396313,0.5772743504364767,0.6768858182533438,-0.4914752983215316,261.2434097050504,11.296749489528306,15.332681545277435,-0.642324548708797,0.16479307638553256,0.010193952072149787,-0.7483906316998798
229.0,-0.004781199655314526,-0.03539001910756435,-0.008572739874864187,1.913290622307145,-2.4894833464463684,9.28174553220186,0.21354927690981979,-0.43681156569630214,-0.30268161552583267,261.4266794050429,11.249116040987598,15.001739818665467,-0.6437879682975536,0.1623733316501817,0.008959522569218087,-0.7476864558296803
230.0,-0.03127616050354052,-0.022964594807238396,-0.0025759244689221097,1.975554681353265,-2.4797954366640442,9.271623918174665,0.20368804091266718,-0.3109461054287962,-0.25349134539732493,261.78325137686863,11.620751376868608,14.966778127458692,-0.6459318507002361,0.1641358476538159,0.006714107340676632,-0.7454727275845792
231.0,-0.03634933123524784,-0.01279464988198269,0.003098347757671125,2.0748701809598744,-2.494980330448466,9.245702596380799,-0.29509244689221087,-0.7453874901652242,0.11476199842643588,261.8584382376082,12.215214398111723,15.096597167584578,-0.6459768278316287,0.1682273357356412,0.0034685833847364275,-0.7445424867301338
232.0,-0.020019669551534218,-0.03103225806451612,-0.0004201416207710467,1.949819040125885,-2.46411487018096,9.279973249409911,0.5482739968528717,0.9796911880409128,-0.1783143194335169,262.01633064516125,11.47002360346184,14.863670338316286,-0.6475976588780488,0.16258453703383163,0.007508083066876475,-0.7443224196018883
233.0,-0.020779307631785995,-0.039992918961447674,-0.0031911880409126667,1.7490125885129815,-2.3002163650668765,9.358461054287961,0.9764924272226593,1.2856412273800157,0.247639653815893,261.93031815499603,10.274936073957514,13.805025570416994,-0.6483607112832416,0.14909583949960659,0.009688886911093628,-0.7463489572321007
234.0,-0.032362903225806455,-0.0619516129032258,-0.013032258064516127,1.7816290322580643,-2.1991129032258065,9.378548387096775,0.3939012096774194,-0.8080645161290323,-0.5102822580645162,262.3047883064516,10.475504032258065,13.188709677419354,-0.6511550903064516,0.14618914212903228,0.005418543612903226,-0.7445964692580646
235.0,-0.004345238095238105,-0.04395545314900153,0.0360695084485407,1.9496874039938559,-2.1330203533026113,9.359188556067592,0.5742871543778802,0.868452380952381,0.08914890552995386,262.5476358486943,11.469086021505376,12.82741455453149,-0.6523925008982334,0.1493502685295699,-0.0029839561332565276,-0.7428548360691246
236.0,0.007121735791090627,-0.06038095238095237,0.0140226574500768,1.794295314900154,-2.080804531490015,9.402630568356376,0.12688652073732723,-0.31617703533026115,-0.2830717165898618,262.4406778033794,10.53963373655914,12.468596390168969,-0.6524369128805684,0.14191537549462363,0.001134871203533027,-0.7442982750990783
237.0,-0.0011528417818740416,-0.0673437019969278,0.005144393241167431,1.7521678187403995,-2.081454685099846,9.41137980030722,0.30124567972350236,1.106730030721966,0.12945708525345623,262.66968365975424,10.288390456989246,12.45823972734255,-0.654048346702381,0.14041995344892472,0.0030921992953149005,-0.7431915492108294
238.0,-0.01314900153609831,-0.06785330261136713,0.0026770353302611348,1.6904266513056836,-2.0897031490015356,9.422201996927805,-0.07742655529953912,0.19237711213517655,-0.20177851382488482,262.8319436443933,9.923353494623655,12.494971678187405,-0.6552921136858678,0.13863252813978494,0.005941418127496158,-0.7424528408029953
239.0,-0.027429339477726578,-0.056854070660522275,0.00505222734254992,1.6253302611367126,-2.0944523809523807,9.43362519201229,-0.1865207373271889,0.061611943164362484,-0.043101958525345624,262.9466925883256,9.53521505376344,12.508146121351768,-0.6562260642542244,0.13652106584408602,0.00874495504761905,-0.7420192024055299
240.0,-0.003859756097560986,-0.08139142407553107,-0.013912667191188043,1.490302911093627,-2.0518601494885917,9.464777734067665,0.15607051534225022,0.39873254327301333,-0.22890317663257276,262.7803710169158,8.740713512981902,12.2224958202203,-0.6556807952751769,0.13018942897895358,0.012311478849724628,-0.743567079880409
241.0,-0.017812942564909524,-0.09007474429583004,-0.00799665617623918,1.5101917781274583,-2.0696115263571992,9.458469512195126,0.1261703383162864,0.6120930861526357,-0.30686590283241544,263.32534175845785,8.85488296616837,12.33289609559402,-0.6591135810045239,0.13147861755802515,0.012790433231313925,-0.7403047322627851
242.0,-0.023983084185680563,-0.10294866247049567,-0.008583005507474432,1.4669386309992132,-2.0545920535011803,9.468706530291112,-0.019223298583792278,0.04664634146341462,-0.16086742722265934,263.5114612018096,8.599870918568056,12.232299862313138,-0.6604834021191976,0.1293773676540126,0.014104104430173094,-0.7394463420507474
243.0,-0.029910896931549955,-0.08896223446105428,-0.01358182533438238,1.5752354445318644,-2.071497639653816,9.44491778127459,-0.8596368509047994,-1.72345102281668,-0.30064540715971677,263.67092717348544,9.252430418961449,12.368720495672697,-0.6611002886079859,0.13396294638749018,0.010678746275570417,-0.7380608388237608
244.0,-0.019065696302124305,-0.05366797797010229,-0.010924075531077895,1.9411117230527142,-2.188605035405193,9.342575531077891,-0.3267579661683714,-1.673524783634933,-0.8792805861526357,264.27803402832416,11.43777783241542,13.183760326514555,-0.6632115759339102,0.1514877929874115,0.0014932456951219511,-0.7325872920369787
245.0,-0.02250894496272151,-0.06313836124536362,-0.017893194335169157,2.1001414896407025,-2.232858023303736,9.301617652017534,-0.2329857793825634,-0.3310652467123749,-0.05484532473492937,264.38018679049117,12.374937537465811,13.49505094179686,-0.6631510804945862,0.15876147926261663,-0.0028936986939698778,-0.7312345191024878
246.0,-0.033476246674909144,-0.046891761267843106,-0.010329661683713612,2.1302320351429316,-2.2791709471357384,9.287264471170054,-0.20976405904612042,-0.10913141367876811,0.027290039245438533,264.50022444363265,12.550498002603874,13.78081680154359,-0.6636931249327769,0.16157033659905026,-0.002253719367146229,-0.7302372219141471
247.0,-0.011478681952718145,-0.06364473979993257,-0.014209284028324153,2.0716216233936535,-2.305214407478176,9.295435146678654,-0.009723197894421345,0.4723268728222996,0.11983539629463114,264.3954517674497,12.194078294181558,13.920347916900827,-0.663161393234976,0.16046852068750705,0.0007563608366865236,-0.7310208465428326
248.0,-0.017166760331197788,-0.07113285377093403,-0.010943351691581431,1.9435245213742456,-2.2812402682552166,9.328919186242551,0.3807734816979506,1.1499487186692143,0.03721104492150911,264.5388045127571,11.426978663219813,13.735073151998801,-0.6646298556537784,0.1549299705171406,0.005010084063504553,-0.7308483861464163
249.0,-0.02998227867071298,-0.061578228616387544,-0.006765145554681351,1.9612477052189876,-2.2822448390843357,9.324998538833313,-0.34575114270727947,-0.7237717067550857,0.0026387640028473977,264.5544386450489,11.539541652616986,13.74571812596006,-0.6646796910165036,0.15564320730105655,0.004339582802011914,-0.7306565359795809
250.0,-0.009056648308418576,-0.07026337529504326,-0.01481254917387883,1.897327891424076,-2.2327112509834777,9.350279701022814,0.31448908339889853,1.02159839693155,0.08940794649881982,264.5937463119591,11.149353363493312,13.42294207317073,-0.6653773582519669,0.15136395319138474,0.005160325575727773,-0.730924846768686
251.0,-0.012220747259985731,-0.06929213400911202,-0.016484200318372274,1.9180667026512725,-2.2541823321684076,9.34061040565019,-0.20897474749785008,-0.9414554667630323,-0.25463257963881214,264.63910930095324,11.27827640980367,13.560431323532104,-0.6655057076418311,0.15300236669856182,0.005142422389795622,-0.7304751851394067
252.0,-0.014442395659890587,-0.04680184985270708,-0.009717316524253013,2.05491454723437,-2.3221777121109546,9.293975541141382,-0.35286463574735144,-0.5719521629645217,0.058192168087753626,264.65900193607854,12.092742650220481,14.022544536667702,-0.6648030964054947,0.16055192378201105,0.0023403242515461194,-0.7294865206853604
253.0,-0.010622751724516497,-0.03522684939527565,-0.008254409638995113,2.1072915576455094,-2.350006243939033,9.275809859477063,0.02635768507675701,-0.36553019733591935,-0.16351984337547804,264.67220663778744,12.411409311931642,14.20710047938814,-0.6645912681256427,0.16353050678744532,0.0012921897633615727,-0.729052250110186
254.0,-0.017001079538177227,-0.0213519843375478,-0.0030025799132710005,2.1415731981775936,-2.3653552412493366,9.264196658920824,-0.17721465427332445,-0.26141405778273835,-0.08880230728413811,264.72737887215703,12.613993056190877,14.317433397983642,-0.6647533216619399,0.16536185102153586,0.0006289750928585807,-0.7285078058833001
255.0,-0.009428942601504035,-0.028665764001976103,-0.004278630633268074,2.1557275904341937,-2.398342451466525,9.25286150805994,-0.09040217371416026,-0.13904200135399705,-0.1946519404241304,264.7147171701462,12.692445977347996,14.524594944467825,-0.6644907953038259,0.16713230838252244,0.0012293427824639084,-0.728354469652901
256.0,-0.0036965948804274233,-0.029488042742392917,-0.002609554827731323,2.1807159716758457,-2.419031160229082,9.24222092108393,-0.14539000603809488,-0.19493669148994566,0.08271275135857138,264.7539167566282,12.845343576747846,14.658827054324558,-0.6645447748895761,0.1688398359288603,0.0010415210597771393,-0.7279176871606315
257.0,8.482608456991886e-05,-0.0468392220006221,0.002750297330430166,2.088912667191188,-2.410353503009899,9.265090004208371,0.18416967046639707,0.5705096243573088,-0.041963844619691486,264.6460525954659,12.296535871772821,14.569421394982893,-0.6642549536336158,0.1651946360021957,0.004095865016119882,-0.7289688533670977
258.0,-0.008044697853637896,-0.04789055049878792,-0.006587489273819396,2.097375093304282,-2.406391724572795,9.26451437812549,-0.1701859388393065,-0.2730647776859787,0.0421384250846952,264.66351695217423,12.34763901458479,14.548478753131059,-0.6643523333064485,0.16537334047542657,0.003656584471686401,-0.72885657653406
259.0,-0.002407123691938804,-0.060177547603196685,-0.010700774965920519,2.046928714086857,-2.397780222662205,9.277950219463204,0.1272145717513538,0.6076179344521201,0.10658054573278805,264.71248088883317,12.04446350757818,14.4788887531954,-0.6648972935788842,0.16321461161609357,0.005348623046760216,-0.7288408024062791
260.0,-0.012887275457299063,-0.0647347218739823,-0.008021512581308017,1.982996221716914,-2.3514274834790174,9.303573850880305,0.10488875715813166,0.2169433102630388,0.22153869930227127,264.7084483515763,11.663803350956675,14.172592488320753,-0.6653007738744144,0.15911174978916404,0.006167289871137778,-0.7293617741063654
261.0,-0.007851977618500046,-0.057036912471216165,-0.0005882543236988545,1.9496649086554667,-2.3334871485058346,9.315429726384291,0.13304036599055286,-0.06400572488421621,-0.24704437969583526,264.6357446321217,11.465679212850485,14.052022050611988,-0.6650474393644299,0.1572176602328983,0.006690554105513814,-0.7300128896220262
262.0,-0.023720343647959705,-0.05085716591302744,0.0015163567091183152,2.0405905188438624,-2.3656911548980784,9.287283411579242,-0.31142840571440095,-0.6519877414743661,-0.04287702855759505,264.7897725176738,12.006503920941373,14.282790259176961,-0.665530695166086,0.1617233312495137,0.004584365286627874,-0.7285949131416583
263.0,-0.025828781237121137,-0.04894691094376382,0.001010452961672474,2.0463871717058186,-2.367462777715334,9.285916413772433,0.13787465812446142,0.16672146041736918,-0.27184514443070695,264.893735716159,12.043106758832565,14.297406194972087,-0.6661703048909371,0.16198893168015438,0.00458201775073995,-0.7279653640177215
264.0,-0.0334720692368214,-0.05115735641227381,0.0030015735641227377,1.9735641227380016,-2.3385932336742723,9.308473642800948,0.2505458300550747,0.601529307631786,-0.07171026750590086,265.048269079465,11.608993902439025,14.099616443745083,-0.6675469637741935,0.15826530258851298,0.006554364244689221,-0.7274944500833991
265.0,-0.03840007867820615,-0.04701062155782848,0.004230920535011802,1.9387450826121162,-2.3056852871754523,9.32420141620771,0.10351347364280095,-0.11984411880409118,-0.2762170535011802,265.30506490952007,11.403065991345397,13.883969315499606,-0.6694339700342249,0.15572432919354837,0.007060233971282455,-0.7263034237041699
266.0,-0.03722128245476004,-0.038073367427222664,0.004976986624704957,1.9375479937057434,-2.302402832415421,9.32538473642801,-0.04097536388670338,-0.04388154012588509,-0.16419035208497246,265.42640145554685,11.397176190007867,13.857995672698662,-0.6702434794915422,0.1555213622812746,0.007142807249213217,-0.7256123245948073
267.0,-0.025090479937057437,-0.0438552321007081,0.0024280094413847366,1.9207820613690008,-2.3034917387883556,9.328692368214003,0.18140243902439027,0.40000983477576707,-0.024055861526357192,265.51511605035404,11.293371361132966,13.857828481510623,-0.6708791614917388,0.1549173877938631,0.007944991047993705,-0.7251515068780487
268.0,-0.015276886763904858,-0.04671014141903206,0.00041996005567996133,1.8627805281526766,-2.2603813068651775,9.351396558332828,0.2364494442090823,0.27283017107466356,-0.24247185741088179,265.71846605237147,10.951273099114365,13.579689548911617,-0.6725665749830942,0.1511742485753596,0.008896871629123039,-0.7243624192954063
269.0,-0.011771409550323792,-0.038614708789767804,-0.01573179809961871,1.7644240957049773,-2.1873487966269245,9.387024793721881,0.6817032822933689,0.929176690572737,-0.10639033468498457,265.8448939231173,10.366062395347898,13.10891440466824,-0.6739688999109017,0.14481729505636587,0.01018374327640259,-0.7243043043432185
270.0,0.003992344005325908,-0.04365432528394763,-0.00832616655571022,1.652121567915431,-2.113426561964131,9.423693356735054,-0.23994104178014486,-0.14059458154289978,-0.08124886521818073,266.0109845304021,9.697881709082289,12.637585644505638,-0.6756736461906987,0.1379635028546975,0.012045869344731586,-0.7240068554131512
271.0,-0.00665590173005594,-0.03892028860203526,-0.006467806780159257,1.6473080957856725,-2.1473624745304525,9.417087461777664,-0.08719402319421989,0.06378369041134582,0.2831154867457483,265.8036021442333,9.672158740485845,12.837568023865723,-0.6742550184231144,0.13911553019309372,0.013151964363226007,-0.7251095415806155
272.0,-0.025010189259992564,-0.038425722585832725,-0.0017232818322511464,1.7956324113861486,-2.234512275817547,9.367253506655945,-0.3674045450353476,-0.953958371159394,-0.21202395902681112,265.72206255421736,10.557369201084779,13.41445548124836,-0.6728531086755618,0.14786634330022508,0.010510200571365164,-0.724646323588203
273.0,-0.016018742272676183,-0.0342856487205425,-0.0008368270203439355,1.8879361395226852,-2.2745778914240757,9.340477042823421,0.003399671237495766,-0.0700416338840808,-0.0630839398111723,265.7764727576711,11.101983814769024,13.680883654602674,-0.6727508124080871,0.15268274432587758,0.008526347370049828,-0.7238125630347962
274.0,-0.002321231875913229,-0.03262620358922483,-0.006594357648645611,1.937778651980068,-2.2938347757671123,9.262162301899515,-0.10263852984151962,-0.16575203252032517,-0.2563040912667191,265.9166306058222,11.397244857817242,13.808261211644375,-0.6733961977810499,0.15518765556891834,0.00752799266456858,-0.7227217429073469
275.0,-0.018609081712936945,-0.04985283428871154,-0.003285377093402271,1.9069664306320477,-2.2972588512981904,9.300620096661797,0.17733435427672248,0.26628802779963284,0.09795436664044058,266.00336349331235,11.21156499381814,13.818430369787567,-0.6740282086686524,0.15418523213064322,0.008932089574613167,-0.7223530588730285
276.0,-0.0059443258027050295,-0.0462513019369825,-0.014722565658836314,1.9203918174665615,-2.278978888014687,9.318846914690345,0.0815867239893597,0.0582832228091866,-0.24604969840020985,266.10654445786975,11.289562258813831,13.70697824172942,-0.6747282100601326,0.1539497073633247,0.007901358105278934,-0.7217735687721517
277.0,-0.018275073994979584,-0.03811778314787756,-0.013954516503690386,1.856883556254917,-2.2202880277996333,9.353699617848712,0.5566273509797309,0.5969278033794163,-0.23477248885392082,266.2754644004533,10.911156031059157,13.329688963508298,-0.676254318417163,0.1493661504165168,0.008431168265857403,-0.7212948685088137
278.0,-0.009654059420778538,-0.03669038252594507,-0.0029489340976359083,1.8724484657749803,-2.178255048518227,9.364617118129708,-0.11006039020643665,-0.7465965821812596,-0.2939475150799895,266.48976000805516,11.008591144955226,13.079064338166422,-0.6776980429042935,0.14834099480454085,0.006633248450395262,-0.7201605522682739
279.0,-0.022032379828406584,-0.05178106852497096,0.006088868907122251,1.8929693154996068,-2.2164327956989247,9.355224373384285,0.24848081984564083,0.5670931329849014,-0.42141809270915287,266.88030978372865,11.129551276647558,13.31862343580233,-0.6799204906905418,0.15048368971619644,0.007748304925433668,-0.7175937184512102
280.0,-0.026866996365816194,-0.04288246974635645,0.015818628001948224,1.852387883556255,-2.163623655913978,9.375954928627625,0.09750149863249784,0.28614233262148286,0.028227445580907423,267.0451196096062,10.887104267356037,12.983051637256004,-0.6813139997605935,0.14696524135809824,0.0075907257893297365,-0.717013076834476
281.0,-0.04197954366640441,-0.06708339889850512,0.005173092053501182,1.7734461054287964,-2.109997639653816,9.403181746656177,0.019045043273013366,0.26487018095987414,-0.12174960660896932,267.17645062942563,10.419974429583005,12.640725806451613,-0.6826399300393391,0.1420707644862313,0.008798859369787568,-0.71672243656727
282.0,-0.03609992132179387,-0.061881589299763964,0.0041758457907159745,1.8220023603461843,-2.1298571990558615,9.39035562549174,-0.11722315106215578,-0.2258212037765539,-0.023994394177812746,267.1975142604249,10.709200432730132,12.773401848937844,-0.68252228675059,0.14460488341542088,0.007723732702202989,-0.7163489050774983
283.0,-0.03253105915851785,-0.04880749128919861,0.0030680285489490854,1.8958050466449363,-2.166606131280207,9.366969802555168,0.20141755413809898,-0.15208110880071934,0.046481082106327974,267.00949951528605,11.15370853002885,13.015641859615599,-0.6809429359207222,0.14871619130026975,0.006026360923241917,-0.7170172100654434
284.0,-0.009690785283428873,-0.04096717994829718,0.0033183376419017637,1.8309334045183765,-2.0648190963246034,9.401934547225654,0.9874533433554381,0.013479262672811063,-0.05687046897830729,266.93254467798135,10.767348954235509,12.376302932168146,-0.6810918173350661,0.1424471121259413,0.004696903303379416,-0.7181339060747163
285.0,0.006618710426735603,-0.014128357873440486,0.00654715072496347,1.8567910531639873,-2.050294481285827,9.400544378254839,-0.4434875051515492,-0.7206502191750027,-0.09749072721141958,266.93827273238173,10.913634277471806,12.296729234573451,-0.681101781812596,0.14284977992469367,0.0032696856483458844,-0.7180685167685736
286.0,0.013765688808961824,-0.011155445655839046,0.015960436102056868,1.8623333707991456,-2.017590198943464,9.405996028623877,-0.09335075493612083,-0.11779953917050692,-0.4989813982241205,267.4840114645386,10.947056123787043,12.095699393053838,-0.6845942768543705,0.1417833460481061,0.0025359879933310858,-0.7149305421096999
287.0,0.012531939605110334,-0.0028335393953017904,0.010886253793413507,1.9911711812970663,-2.1146360196320857,9.356535723652165,-0.9687078509609981,-0.23332888426810533,-0.6184188958825072,267.97544233074814,11.716477464313813,12.729816464351279,-0.6867700430959874,0.15021319373346823,0.0019336594222771723,-0.7110659076737477
288.0,0.004015585777977594,-0.019273912554793753,0.002705031658611514,2.0016454984826346,-2.2633471956839384,9.319562024652502,-0.9828898317785021,-0.2964599490464951,-0.1741528043160616,268.3501203589225,11.778169607732941,13.644358116968267,-0.6884185409373946,0.15619210671312428,0.0074071404945487244,-0.7081417004574577
289.0,-0.0025482804633080013,-0.019011767147093663,-0.0025483092831637315,2.055339483490546,-2.3571013853704645,9.285520385724947,-0.5996810362467325,-0.3926373914572184,-0.011510650377684215,268.5398956865322,12.100857786980917,14.235754705561943,-0.6889815349654593,0.16173668962620646,0.009030134293553286,-0.7063736552226766
290.0,-0.009229293654155965,-0.032654585383145585,-0.009955507906727423,1.9889521965053043,-2.3523846816702836,9.301227541406927,0.22220904914649997,0.5143028620998723,-0.2393214148819971,268.67637978661776,11.706118311271734,14.181075621860437,-0.6901151132860341,0.1590586201624345,0.011458605943000088,-0.705868585558624
291.0,-0.016784591752333686,-0.03150903934774903,-0.005242112725983697,1.9992715349166965,-2.3769130332033557,9.293388751033913,0.1369601500649888,0.2954234609476545,0.03648602741344678,268.67357541651893,11.766773750443104,14.334754962779156,-0.6899556419514357,0.1603792826303911,0.011970558662294694,-0.7057367283583835
292.0,-0.012166489424553941,-0.03168309110244595,-3.5448422545216254e-06,1.9738270116979795,-2.3637829374926147,9.302609122060733,0.03933740990192603,0.025270294221907103,0.025707491433297886,268.7516734609476,11.612596744653196,14.248833894600022,-0.6905972076723383,0.15894656611627084,0.01253398602162354,-0.7054348362030014
293.0,-0.01761166253101737,-0.026620347394540944,0.0015020678246484684,1.9779665012406946,-2.35793217535153,9.30387675765095,0.31242504135649296,-0.005870037220843678,-0.19545078577336641,268.80381772125725,11.635623449131513,14.207999896608767,-0.6909381628300248,0.1588322336095947,0.012230062613730355,-0.7051384559478908
294.0,-0.02054032258064516,-0.024483870967741937,0.004225806451612904,2.0206854838709676,-2.362516129032258,9.293209677419355,-0.20740927419354838,-0.4768649193548387,-0.006451612903225823,268.7225302419355,11.890221774193549,14.251058467741935,-0.6902574108790323,0.1606319791290323,0.010723286548387095,-0.7054094373709676
295.0,-0.012483870967741935,-0.0315241935483871,-0.001749999999999999,2.0029677419354837,-2.3685806451612903,9.295516129032258,0.23976814516129036,0.47958669354838707,-0.08457661290322582,268.76360887096774,11.781350806451613,14.280897177419355,-0.6905386157096776,0.16016314072580645,0.011662193806451613,-0.70521550325
296.0,-0.019290322580645163,-0.03670161290322581,0.0028629032258064495,2.0229516129032254,-2.314927419354839,9.303604838709674,0.03427419354838712,-0.278578629032258,0.05650201612903225,268.65035282258066,11.901965725806452,13.954032258064515,-0.6899999315887098,0.15888927816935483,0.008830113838709677,-0.7060557701209678
297.0,-0.0219948859166011,-0.03711526357199056,0.0038644767899291884,2.037780487804878,-2.360470692368214,9.289276160503539,0.06773210070810387,0.09760523210070812,0.3344352380015736,268.5692737018096,11.986761162470495,14.241517505900866,-0.6892318370479937,0.16115853743568057,0.00981317103206137,-0.7062863531608967
298.0,-0.03811841070023603,-0.029557631785995284,0.008726593233674272,2.007680566483084,-2.3968522816679783,9.28630743509048,-0.38609362706530287,-0.34318327104642016,-0.007857985837922882,268.6297981412274,11.810089250590085,14.458208349724627,-0.6895689755723842,0.1614571022702596,0.012320831181353267,-0.7058604957417387
299.0,-0.02333339889850511,-0.0271941384736428,0.0038713611329661683,2.0064128638867036,-2.411954366640441,9.283770653029109,0.0014592348544453237,0.020873082218725414,0.020566974822974034,268.69405733674273,11.803406520456335,14.550752360346184,-0.6898919538910309,0.16195170034480721,0.012982546050354052,-0.7054252562216757
300.0,-0.023590086546026748,-0.03323013375295043,1.9669551534155089e-07,1.9903153029110934,-2.4140175059008664,9.286748229740361,0.18467619000786784,0.2010363394964595,-0.25871852871754525,268.7897202006294,11.701526848937842,14.562422551140834,-0.690539583582612,0.1614027373054681,0.013839389234854449,-0.7049127981148702
301.0,-0.014447885054887415,-0.02725139560151362,-0.0023288187029335736,2.029384417968603,-2.434374152335993,9.272674422089844,0.018947397999325613,-0.27887291128095615,-0.16561118448166048,268.8930527846465,11.943445356112546,14.702345828181784,-0.6909313936649618,0.1636531795757371,0.013264259900453334,-0.7040133805190327
302.0,-0.015092549923195087,-0.03134639016897082,-0.0011140552995391707,2.0273129800307217,-2.3637008448540704,9.291367895545314,0.4466589861751152,0.17264064900153608,-0.25124087941628265,269.0949380760369,11.929733102918586,14.267837941628265,-0.6925143802715051,0.16088229211674346,0.011064189460061442,-0.7031260918920891
303.0,-0.01042933947772658,-0.029769969278033798,-0.0010288018433179725,1.9765960061443932,-2.31193509984639,9.314909754224265,0.19827908986175113,0.17843221966205836,-0.03769201228878649,269.1709317396313,11.626408890168971,13.93296130952381,-0.6934108846236559,0.15704075942933948,0.011160052915514591,-0.7031043315387866
304.0,-0.016166282642089098,-0.020163210445468514,0.006723502304147464,1.9479270353302613,-2.277237711213518,9.329434715821808,0.1119671658986175,-0.06874759984639016,0.042393913210445465,269.24668058755765,11.455820372503839,13.709499807987712,-0.6941496939569891,0.1546434508517665,0.011045921820660522,-0.7029157109105222
305.0,-0.003679817166835267,-0.022918249597242514,-0.000853827132741374,1.9583873965006926,-2.259450975984415,9.332124911018692,0.10495953692255816,-0.005647034580944878,0.07374969559027388,269.18895976171746,11.521905440972612,13.603298045221235,-0.6938297067255441,0.15437580599059608,0.009926214717076918,-0.703311407374321
306.0,-0.006905192761605035,-0.012490558615263572,0.0003975216365066886,1.9224618410700232,-2.2366644374508264,9.345153815892996,0.19883703776553893,0.2290494689221086,-0.08247074154209284,269.1860346184107,11.306435631392604,13.453495033438237,-0.6940524413951612,0.15217324165814317,0.010426704537175452,-0.7035676250346186
307.0,-0.012355822187254128,-0.010704956726986625,-0.0008375295043273015,1.9814567269866248,-2.2516144767899293,9.32823819826908,-0.11671051337529505,-1.638197039732494,-0.3136900078678206,269.1466967446893,11.663374065696303,13.560542879622345,-0.6934873136370968,0.15498388808713612,0.008698410224232888,-0.7034978665979544
308.0,-0.02644807238394964,-0.008513768686073958,0.0030731707317073155,2.163768686073958,-2.31300885129819,9.270300550747443,-0.31684820023603466,1.2388903914240756,-0.13764137490165224,269.20996631589304,12.739222315106215,13.998315794649882,-0.6928251016129032,0.16400913008792292,0.004406105208890636,-0.7020681863634934
309.0,-0.03545790715971676,-0.0171117230527144,0.002601101494885916,1.9359166011014954,-2.350048780487805,9.310150275373722,-0.3896488985051141,1.12985346184107,-0.19414830841856806,269.61297206923683,11.382489181746656,14.155256687647523,-0.696023254967742,0.15685923740283242,0.014632541951219512,-0.7003400147623918
310.0,-0.04026239181746656,-0.02815066876475217,0.0024413847364280084,1.8146262785208502,-2.3822745869394177,9.327321400472066,-0.3405266522423289,0.08152291502753739,-0.1393636900078678,269.9284126671912,10.663264653815894,14.314941483084185,-0.6982905162722266,0.15352547892958301,0.02064109550747443,-0.698723920968922
311.0,-0.015840873328088114,-0.017386900078678207,-0.0018996852871754515,1.9378261211644374,-2.4478273013375302,9.286061959087332,-0.47073047797010226,-0.9023886211644374,0.055854150275373715,269.66216070023603,11.398164584972463,14.756654455153422,-0.6959180110865459,0.16066408061900078,0.018156842390243903,-0.6995691390808416
312.0,-0.01531313926042486,-0.023138867033831632,-0.0043164830841856796,1.9780869394177807,-2.4357439024390253,9.281519866247049,0.16120426829268295,0.40106338512981904,-0.7462517210857592,270.2143956530291,11.6327153815893,14.691226150668765,-0.6991784568056647,0.16156672233988983,0.017051043465184892,-0.6961479542570809
313.0,0.00020633359559401546,-0.0181662077104642,-0.014654209284028323,2.0078015342250195,-2.4584687254130606,9.269530094413845,-0.01612165617623916,-0.9348261703383163,-0.4665482395751377,270.4794256490952,11.813333497246262,14.84059795436664,-0.7005699010560582,0.16354528558929976,0.01714956753501181,-0.6943034320519276
314.0,0.014873328088119583,-0.027901652242328878,-0.019883556254917386,2.074308025177026,-2.4607383949645945,9.254543273013374,-0.6710144571203775,-0.17111772226593236,-0.11490214398111726,270.70271685680564,12.215285700236034,14.88179091266719,-0.7016228512175451,0.1661627046011015,0.015189222912667194,-0.6926798079775767
315.0,0.009120002997264984,-0.030283859727998207,-0.021401820838484888,2.0553560282492223,-2.4207573432992393,9.268080336068337,0.44088158227492413,0.33197069002660073,0.08514849340601702,270.48777496393916,12.100804168539955,14.631104702896106,-0.700573053613156,0.16395940706713874,0.014134875627027841,-0.6942256263731127
316.0,0.005186280019482216,-0.04738956951781499,-0.013751264471170059,2.0072666254542724,-2.4011441122475747,9.285000730583347,0.2139541418455659,0.08588171106365443,0.057651572627477436,270.5841897783897,11.81036901483646,14.489916779064103,-0.7014753634553781,0.16137236184120113,0.015280306240736582,-0.6939474582082912
317.0,-0.007224790551698503,-0.040575093016084356,-0.008225165209822959,2.0591742758290756,-2.4050334130202344,9.273532663703985,0.3338224783346735,-0.5725610206407806,0.5958869787929092,270.3963617949222,12.117340794613856,14.528975996302412,-0.7001205804980899,0.16346759881696726,0.013261379139553667,-0.694887628685739
318.0,-0.013783126983166326,-0.04147834115792416,-0.0044807966096321716,2.084474333036489,-2.399122627045129,9.270099829098253,0.1717610129674941,0.0752753512059669,-0.349040307810469,270.3230290731102,12.27032030387656,14.499009290440743,-0.6995865411323063,0.16417826142628456,0.011994436366688715,-0.6953009748659813
319.0,-0.01689834948686247,-0.03335630275834839,-0.0043669718689388235,2.0726590783986536,-2.381968669934838,9.277157310300506,0.3286955881123859,0.6714723776092778,0.03433237363213762,270.51998350783754,12.198087964684149,14.38914739699063,-0.7009553011574198,0.1630504024005931,0.012116257260153956,-0.6941951814940645
320.0,-0.015963767677379007,-0.027632068429865438,-0.004148923722487844,1.932943210474288,-2.337602614537311,9.317101696624905,0.16683915350319756,0.3788045451794469,-0.13563719260021384,270.69433315176826,11.36317128648954,14.077114981137402,-0.7027420499542858,0.15614446262502774,0.01579444069152091,-0.693859666729367
321.0,-0.027876455042466056,-0.03061147087897678,-0.0021051463616373134,1.9629523290766406,-2.344779277370937,9.309708204724727,0.28471776715285757,0.3234650184591176,-0.18776352155581108,270.7763561903609,11.54468064717868,14.12608207750812,-0.7031035929645544,0.15754918218898906,0.015028628242692004,-0.6932167436731023
322.0,-0.009365853658536583,-0.009473642800944135,-0.006684500393391031,1.9208922108575925,-2.2562407553107784,9.339909520062943,0.20746951219512194,-0.22142505900865453,-0.168095987411487,271.19181746656176,11.298033044846576,13.57241345397325,-0.7061645699181747,0.15266284247993706,0.013840645907946498,-0.6912043725098347
323.0,-0.014952793076317859,-0.017229346970889063,-0.00047993705743508983,1.9932879622344606,-2.337090479937058,9.304755704169944,-0.13583054681353265,-0.029836250983477544,0.07980920535011803,270.9698809992132,11.728668371361135,14.096936467348545,-0.7041657475460266,0.15844814409992128,0.01392831145515342,-0.6919319562202989
324.0,-0.014101101494885918,-0.014747639653815894,-0.000538945712037765,1.940994885916601,-2.3112832415420934,9.322417191188043,0.5105170633359559,0.7722081530291108,-0.28144669551534224,271.2018464791503,11.414417781274587,13.91540371754524,-0.7059024981396538,0.1554080971050354,0.015164068001376867,-0.6908391739126672
325.0,-0.016365066876475223,-0.011660110149488591,0.0072869787568843394,1.877973249409913,-2.270351298190401,9.34400295043273,-0.34637957317073176,-0.9906348347757672,0.4034298780487805,271.24608452989776,11.043146390637293,13.648276455546814,-0.7065475486746656,0.15153832658477573,0.015947418657946494,-0.6909865887789143
326.0,-0.0074292249188000585,-0.003817854909318322,0.0052356109665315,1.9278666908753455,-2.2623522413201798,9.336125648086506,0.27049365530876146,0.803329449857774,-0.45791336949504735,271.25529580609856,11.33998006566604,13.615259505689039,-0.7064776577562741,0.15311060985163102,0.013919406168613448,-0.6907649779645192
327.0,-0.01184767697552906,-0.012525862938530124,0.007569418386491559,1.8995785067279953,-2.2648656367891222,9.341760404688415,-0.23637615621658697,-0.9890106782969194,0.2833165007363473,271.1596791530493,11.174123097349149,13.624288018973552,-0.7059776826644274,0.15218787998226713,0.01487197593914543,-0.6914566735750015
328.0,-0.012390990336702375,-0.017810728479493228,0.005458391333292987,2.1016590409328413,-2.4528784320845682,9.2448339788981,-1.683480539752668,-1.1724121300611268,-0.2625129239040529,271.07077375728784,12.37980164013799,14.864345155238151,-0.7036539962877605,0.16691960329561822,0.01446617050006052,-0.6902549368721782
329.0,-0.011631971883348753,-0.01668851211730834,0.0005290158307467521,2.232198895911327,-2.631255633561298,9.165378474593854,-0.7379131371349605,-0.5131219730145281,-0.23893320692224113,271.3682261315756,13.158575888444101,16.020665655810227,-0.7039869051780865,0.17851782931462562,0.016872031959220626,-0.6869817110669385
330.0,-0.05222727626425502,-0.05026361089736384,0.009579024044405637,2.255478480213728,-2.659248784522585,9.154991656651763,0.5901412136905841,0.1815690538153166,0.09189932395823425,271.19497496094914,13.295114557125277,16.18946589242124,-0.7027522572987206,0.18037258954844185,0.016764927346545798,-0.6878685331866949
331.0,-0.002117773781424446,-0.003757942752238584,-0.012679470608070138,2.2906714154583936,-2.66818187778652,9.144859765464012,-0.9649583426997864,-0.392667706342962,-0.09541717011352142,271.3442358262148,13.508211745063878,16.26084646978382,-0.7034290200248772,0.18209843451367502,0.016056279134811356,-0.6867638928886328
332.0,-0.004459555655464388,-0.010238432430407254,-0.012027874564459931,2.38129882732007,-2.7758358248098602,9.089728073133266,-0.13262054625154546,-0.2571250608819452,-0.037697397999325616,271.5264581225881,14.050939689408414,16.968251470533136,-0.7035239288967816,0.18956414132430405,0.017079143583042973,-0.6846442293402644
333.0,-0.007682177513019369,-0.025264770896556897,-0.011482072608744523,2.3896777378142433,-2.7869462365591384,9.084840433104793,-0.2870272282791952,-0.3301262597879435,-0.17866380521524108,271.6916564806489,14.10368089899217,17.04495382338616,-0.704424874133678,0.19029709605947692,0.01746074119750103,-0.6835342576481023
334.0,-0.012309598741148701,-0.03031825334382377,-0.009026750590086547,2.450127655389457,-2.8331935483870962,9.054713611329662,-0.16991050354051926,-0.2794256490952006,-0.34372418371361135,271.9561873033045,14.467974282061368,17.36409077498033,-0.7054362838556254,0.19430459874095196,0.0174187159781668,-0.6813641550859557
335.0,-0.011017702596380801,-0.03461880409126673,-0.010747246262785209,2.4613178599527936,-2.832451612903226,9.05201003147128,0.07033708693941779,0.16084161093627064,-0.049961890243902435,272.1566470790716,14.532449842643587,17.360019177812745,-0.706570322322974,0.19467156511644373,0.01735410254956727,-0.6800932414744296
336.0,-0.06806530291109363,0.04989221085759245,-0.13089378442171518,2.0804169944925257,-2.795451612903226,9.130831628638866,1.3628147128245476,5.6240952006294265,1.194600708103855,271.96322777340674,12.24838217938631,17.0107051534225,-0.7068807222501967,0.17880144873564122,0.02946117107317073,-0.6827117942856018
337.0,-0.021707710464201432,-0.07259520062942566,0.007110149488591677,2.0114988198269077,-2.620200236034618,9.203425255704168,0.11772718332022047,-2.4395997246262784,-0.8464693154996068,272.2100757277734,11.864651357199055,15.89421961054288,-0.7096731068961447,0.16981924831746656,0.02560920241306058,-0.6824629456400471
338.0,-0.0563911149825784,-0.06109416095313028,-0.0013141695702671256,2.03858163800532,-2.5899069817541496,9.21602438087745,0.19402502247948752,-0.8833486709003033,-0.22506978007568104,272.1139359943427,12.015366310273125,15.692995590742196,-0.7093672504626092,0.1695238575278465,0.023347173635813567,-0.68329057628711
339.0,-0.06611894458806339,-0.049599499831403854,-0.00016514930126259756,2.133073077067176,-2.5877801037803008,9.200354932374209,-0.042604424244127206,-1.3615836096437,-0.38914779326364696,272.3988530778165,12.571367630943014,15.700303238919485,-0.7107668616667884,0.17294439042118132,0.020313778059842268,-0.6812607223814582
340.0,-0.06346096998988424,-0.04958834438574801,-0.0008801936982503445,2.3145042804690714,-2.5271913191712563,9.174169401670976,0.33390972144168446,-1.533888002978532,-0.9535984742047882,272.90247713414635,13.657639220617435,15.385666692424412,-0.7132850106676873,0.1775784450817504,0.012336249741326664,-0.6776433383696845
341.0,-0.04591232999887603,-0.05045565921096999,0.007150088044659249,2.4441487767412235,-2.45345580907422,9.163800869206849,0.5066984189427147,0.16725089917949887,-0.6414247780150613,273.388217938631,14.430209387059307,14.97820473193211,-0.7159411497428722,0.17982054806841255,0.00572146429837773,-0.6744412505112585
342.0,-0.050305496234685845,-0.04242924581319547,-0.0012675995653965752,2.417065733767936,-2.4011464725937577,9.185952362219476,0.22305318272076727,0.9212287147353041,-0.019168329212093937,273.68148111723053,14.266319288336891,14.642903506800042,-0.7180892822034581,0.17679426069195608,0.005173609474129856,-0.673006022007006
343.0,-0.033669101944475664,-0.040687197931887166,-0.004882329249559775,2.3629018489378444,-2.422051168933349,9.195609559402047,0.2491871089505826,0.09469220664268863,-0.038425229946423875,273.52190181147205,13.940659714416846,14.744265154921134,-0.7173369819743078,0.17544062576156755,0.007611441648758008,-0.674181545971376
344.0,-0.03551197032707655,-0.04463392154658874,-0.00038874526994117815,2.3618985051140835,-2.4143360683376422,9.198389457120378,0.5789786351204526,0.13265356299876363,-0.1409616069086958,273.54451945412313,13.935980058821325,14.696830158105726,-0.7175138883540892,0.17510469091304182,0.007364660743733843,-0.6741113764373008
345.0,-0.042102675059008665,-0.03839063729346971,-0.003814319433516916,2.2933115656963023,-2.3505228166797796,9.2319307631786,0.41825580251770256,0.561602576711251,-0.04767407553107789,273.59749459087334,13.522568351691582,14.273357592446892,-0.7184871450586153,0.17008906125098344,0.007462597081431942,-0.6743512291062155
346.0,-0.03654779701022817,-0.0492983870967742,-0.0051180173092053504,2.1992513768686077,-2.2941087726199845,9.268947285601888,0.25128466758457907,0.11636875491738788,-0.21342692761605034,273.7478129917388,12.958176386703382,13.894167977970103,-0.7200562359407946,0.16440299315184892,0.00886899935660897,-0.6740581697726199
347.0,-0.034205350118017314,-0.06582258064516126,-0.0009299763965381594,2.189682140047207,-2.297372934697089,9.270699449252554,-0.05754819040125886,-0.20882671125098348,-0.0461791896144768,273.8428329071597,12.903710169158144,13.903938827694727,-0.7206479894099133,0.1641428184630212,0.009432590271046423,-0.6735032264508262
348.0,-0.030598347757671125,-0.0500843823760818,0.0025114083398898486,2.1855916601101497,-2.2825118017309203,9.275384343036976,0.3643809008654602,0.21960316679779696,-0.03608625098347758,273.95093061565694,12.876505950039338,13.809753638867033,-0.7213774522250195,0.1634154251386703,0.009175559418764752,-0.6729120762081038
349.0,-0.03996852871754524,-0.06568332022029896,0.006610542879622344,2.060070023603462,-2.213699449252557,9.319619590873325,0.5947408536585366,1.074166502753737,-0.13089594807238394,274.0506417191188,12.126836644374508,13.351096577498033,-0.7228117604189612,0.15608576922659323,0.011143128108575926,-0.6730419381766326
350.0,-0.034677419354838715,-0.05050806451612902,-0.007677419354838711,1.9906612903225804,-2.0934838709677415,9.361008064516124,0.19218749999999998,-0.39128024193548394,-0.15413306451612901,274.3125504032258,11.718094758064517,12.600705645161291,-0.7250958357499999,0.14912173349999996,0.009366730677419353,-0.6721140211693548
351.0,-0.012193548387096777,-0.039258064516129024,0.001161290322580643,1.972508064516129,-2.0974112903225803,9.364935483870966,0.39763104838709673,0.7189012096774194,-0.08069556451612903,274.2482862903226,11.607006048387097,12.613256048387097,-0.7248252625564517,0.14849602433064513,0.010073262338709674,-0.6725722774516129
352.0,-0.010482100708103854,-0.0277639653815893,0.007959480723839497,1.9597094807238393,-2.091666994492525,9.369576121164437,-0.023580104248623113,-0.02310680566483081,-0.0015772521636506706,274.3407294944925,11.531149193548387,12.572958054681354,-0.7254553550499606,0.14780947109402043,0.010442173139653814,-0.6720862242612118
353.0,-0.0004036191974822953,-0.022515145554681357,0.003261605035405195,2.0575592053501177,-2.128035208497246,9.339552911093627,-0.2932939122738002,-1.008743115656963,-0.2954034716758458,274.4947261014949,12.1244467938631,12.82471110346184,-0.7257579188387095,0.15293212329661682,0.008554012510424864,-0.6705994932494099
354.0,-0.015776553894571207,-0.028594217151848934,0.003097954366640442,2.1820692368214,-2.2336308025177027,9.285972856018882,-0.7241013473642801,-0.7045080153422502,-0.07087677025963808,274.65751991542095,12.864856658143193,13.517435828088118,-0.7256900175448464,0.1615408681833202,0.008464087734264358,-0.6686426338392997
355.0,-0.022623595392281468,-0.024845185499001395,0.00666001936694305,2.241957281768847,-2.294157522846941,9.258320588472632,-0.011505931126308766,0.2478461525852852,-0.15177290746232525,274.63013829207773,13.216001400825112,13.908160247584174,-0.725016172726931,0.16598803513797936,0.008675854975176017,-0.6683191321900177
356.0,-0.02731848534366237,-0.031215275676329965,0.009722810627609999,2.208618491395832,-2.277426617442353,9.270782343803587,0.264078859771228,0.37477808711089594,-0.147181201960903,274.74340313502387,13.016108858359054,13.794818838386895,-0.7259131459587644,0.16409735973834455,0.009366912296596665,-0.6678237760190842
357.0,-0.009099840626197822,-0.04023785026932156,-0.00015433032742238374,2.2068859569488994,-2.179138171034316,9.294820754907303,0.594716455849422,0.70155112066009,-0.30854339405676934,275.12184908914844,13.004710605418708,13.183158829106901,-0.728579896807077,0.1604375333978898,0.0062083743662369635,-0.6658178258891645
358.0,-0.012429542657709451,-0.053767233553228835,0.0032973430975004525,2.1629858580967944,-2.1213141681292744,9.318563013173556,0.24447663862494706,0.5138902338154895,-0.1232774011983296,275.33383465472366,12.741507545038228,12.815005850430712,-0.7302755888622323,0.15664647533151765,0.005831483991930439,-0.664878302101152
359.0,-0.01731626621477133,-0.056494946438298124,0.002500756521212854,2.0995676733442274,-2.0925697512558257,9.339469547499446,0.7930929613266355,0.7025784764671468,0.1473650366156267,275.3120982872359,12.359655228065929,12.620878220258628,-0.7305480092210455,0.15307555762484615,0.006933492486917226,-0.6653864037240615
360.0,-0.01811801730920535,-0.0764162077104642,0.0008434303697875667,1.999037765538946,-2.0057836349331235,9.379994492525572,0.22440007867820613,-0.7238296616837135,-0.640337332808812,275.4713562155782,11.762111526357199,12.06165912667191,-0.7322438932722266,0.14614236159323368,0.0072429034138473646,-0.665064153512982
361.0,-0.018885916601101498,-0.07102557041699449,-0.008040912667191192,1.9726715184893782,-1.9826361132966168,9.391193154996067,-0.024754130605822197,0.5172600314712824,0.08610100314712826,275.54478511014946,11.599992623918174,11.913097462627853,-0.732885297976003,0.14427987447403617,0.007427342208103855,-0.6647889217785208
362.0,-0.020154996066089694,-0.07124055861526356,0.0005350118017309184,1.939093430369787,-1.9639498426435877,9.402921518489375,0.04577104642014162,-0.20552222659323366,-0.14004843627065303,275.56778004523994,11.39527070220299,11.78839865263572,-0.7332399510729739,0.14227026786644373,0.007896452319630213,-0.6648476264872147
363.0,-0.026671200029972652,-0.07167193061331534,0.007413051215765614,1.9285288580420366,-1.9428030703233303,9.408921396725486,0.19146751245738267,0.09126250421490392,0.019157089468360117,275.6227065068749,11.33342284150088,11.657017346671163,-0.7336887786956651,0.14110291076828332,0.007530337115844291,-0.6646081584937993
364.0,0.005555012061109617,-0.06916867829259646,-0.0033357614061783965,1.8787202809647734,-1.9131973374776283,9.425410450223783,0.13818231909056064,0.26015901265335767,-0.2683228717257041,275.753567893636,11.0351829106181,11.464253607165194,-0.734753409328395,0.1381242572241954,0.00826692536375341,-0.6640573020417713
365.0,0.014958957643458037,-0.07861659721081435,0.0016950225227172519,1.8935738501598056,-1.8921430235775238,9.42666087027318,0.004776643416248075,0.2687639821331304,-0.6109255487660779,276.126002696818,11.130696294018726,11.34442519067937,-0.7369315810190361,0.13799292034596866,0.0073762010649412214,-0.6616688485450792
366.0,0.010949187712366313,-0.07502240167385722,0.0007279203880305375,1.8260618070625934,-1.891941397705363,9.43991235881873,-0.20760934253263127,0.15069481069677765,-0.07339956136179585,276.29457343731536,10.735817388748151,11.324942360288546,-0.738139845818625,0.1353509844667491,0.009859110585775096,-0.6608338438755096
367.0,-0.0004892141689938649,-0.06607925748523702,-0.005690327768219191,1.7372873944833032,-1.8837165682468595,9.457784660919987,0.010377075389860602,0.05553033217765713,0.40119361034978657,276.2247601647631,10.206200393823329,11.257524287933414,-0.7380784172877548,0.13160691308703307,0.012524398491156627,-0.661599802539643
368.0,0.009866760042999228,-0.07697972090851712,-0.002703074790407598,1.775487015214002,-1.8984404653830302,9.448105080075969,-0.22275405063072257,-0.12896486463313767,-0.21311767255168118,276.2935436768515,10.430673161581403,11.354832612476692,-0.7382921062974873,0.13356506607500654,0.011881605889203506,-0.6609842279364883
369.0,0.0057391255479375064,-0.06234398299052115,-0.002391199280656401,1.785280375407441,-1.947477913903563,9.436134183807276,-0.015780483121651492,-0.006313516260162605,-0.46000050344685467,276.5494151235435,10.486828718013562,11.651577954647633,-0.7395391469923758,0.13560075700157354,0.013731499712440524,-0.6591358104087612
