time,linaccel_x,linaccel_y,linaccel_z,gravity_x,gravity_y,gravity_z,gyro_x,gyro_y,gyro_z,euler_x,euler_y,euler_z,quaternion_w,quaternion_y,quaternion_x,quaternion_z
0.0,0.06921875000000001,0.06171874999999998,-0.0012499999999999996,-0.08999999999999993,-1.2999999999999985,-9.71,0.0078125,-0.001953125,0.0087890625,203.0625,-0.5,172.3125,0.06616211000000002,0.19995117000000018,-0.9775390599999993,-0.008666989999999994
1.0,0.07004727564102563,0.06200881410256409,-0.0012371794871794872,-0.08999999999999993,-1.2999999999999985,-9.71,0.007732371794871795,-0.03975360576923077,0.004211738782051282,203.0625,-0.5,172.3125,0.06616211000000002,0.19995117000000018,-0.9775390599999993,-0.008666989999999994
2.0,0.0732345467032967,0.06478949175824175,-0.0007087912087912087,-0.08999999999999993,-1.2999999999999985,-9.71,-0.002266483516483516,-0.02708190247252747,-0.013261933379120877,203.0625,-0.5,172.3125,0.06616211000000002,0.19995117000000018,-0.9775390599999993,-0.008666989999999992
3.0,0.07479150641025642,0.06609150641025642,-0.002628205128205129,-0.08999999999999993,-1.2999999999999985,-9.71,0.006634615384615385,0.03402844551282051,-0.011829927884615385,203.0625,-0.5,172.3125,0.06616211000000002,0.19995117000000018,-0.9775390599999993,-0.008699043825641023
4.0,0.07223782568238213,0.06617330955334988,-0.0018362282878411915,-0.08999999999999991,-1.2999999999999985,-9.71,-0.0008219602977667492,-0.0011757521712158804,0.006876647797766748,203.0625,-0.5,172.3125,0.06616211000000002,0.19995117000000018,-0.9775390599999992,-0.008714004431761783
5.0,0.07121215880893297,0.065962158808933,-0.0017850496277915635,-0.08999999999999991,-1.2999999999999985,-9.71,0.00551139888337469,-5.234181141439099e-05,0.004304629342431762,203.0625,-0.5,172.3125,0.06616211000000002,0.19995117000000018,-0.9775390599999992,-0.008722001732009925
6.0,0.07155148883374687,0.06612251861042182,-0.003334212158808933,-0.08999999999999991,-1.2999999999999985,-9.71,-0.012256707506203474,-0.014961034429280397,0.003113853132754342,203.0625,-0.5,172.3125,0.06616211000000002,0.19995117000000018,-0.9775390599999992,-0.008726000382133996
7.0,0.07187608560794044,0.06684119106699751,-0.003170750620347394,-0.08999999999999991,-1.2999999999999985,-9.71,-0.0089485111662531,-0.007196999069478908,0.01141148418114144,203.0625,-0.5,172.3125,0.06616211000000002,0.19995117000000018,-0.9775390599999992,-0.008727999707196028
8.0,0.07188717431761785,0.06620719602977666,-0.003612670595533498,-0.08999999999999991,-1.2999999999999985,-9.71,-0.008235111662531018,-0.021138822115384613,0.010412627946650124,203.0625,-0.5,172.3125,0.06616211000000002,0.19995117000000018,-0.9775390599999992,-0.008728029999999998
9.0,0.07293121898263026,0.06554373449131512,-0.0024239299007444166,-0.08999999999999991,-1.2999999999999985,-9.71,-0.009946882754342433,-0.01746229450992556,0.014241819168734493,203.0625,-0.5,172.3125,0.06616211000000002,0.19995117000000018,-0.9775390599999992,-0.008728029999999998
10.0,0.07138368486352356,0.06458684863523573,-0.0022959057071960296,-0.08999999999999991,-1.2999999999999985,-9.71,-0.01856195719602978,-0.015198511166253103,0.01800752171215881,203.0625,-0.5,172.3125,0.06616211000000002,0.19995117000000018,-0.9775390599999992,-0.008728029999999998
11.0,0.07177372828784118,0.06362344913151363,-0.0031355459057071963,-0.08999999999999991,-1.2999999999999985,-9.71,0.0030949519230769225,0.001830024813895782,0.00351368641439206,203.0625,-0.5,172.3125,0.06616211000000002,0.19995117000000018,-0.9775390599999992,-0.008728029999999998
12.0,0.072059320719603,0.06249658808933002,-0.0020851426799007445,-0.08999999999999991,-1.2999999999999985,-9.71,0.003656657102977667,-0.0021091811414392057,0.01204685561414392,203.0625,-0.5,172.3125,0.06616211000000002,0.19995117000000018,-0.9775390599999992,-0.008728029999999998
13.0,0.07185711331679073,0.06577144898112638,-0.0009770471464019851,-0.08999999999999991,-1.2999999999999985,-9.71,0.004871136927588541,-0.005438143845401909,0.012235529927062184,203.0625,-0.5,172.3125,0.06616211000000002,0.19995117000000018,-0.9775390599999992,-0.008728029999999998
14.0,0.07086652191894127,0.06570954583051357,-0.0014364143920595532,-0.08999999999999991,-1.2999999999999985,-9.71,-0.0024186498984886083,-0.00399853842394165,-0.003753512952101662,203.0625,-0.5,172.3125,0.06616211000000002,0.19995117000000018,-0.9775390599999992,-0.008728029999999998
15.0,0.07043574234904879,0.06549497142642302,-0.00036584987593052116,-0.08999999999999991,-1.2999999999999985,-9.71,0.003179632867132867,0.005150234510113543,-0.00221794754304835,203.0625,-0.5,172.3125,0.06616211000000002,0.19995117000000018,-0.9775390599999992,-0.008728029999999998
16.0,0.07034194065343259,0.06564078596135046,-0.000753644540942928,-0.08999999999999991,-1.2999999999999985,-9.71,-0.015159563219039024,0.010732685493270172,0.0035281230026693736,203.0625,-0.5,172.3125,0.06616211000000002,0.19995117000000018,-0.9775390599999992,-0.008728029999999998
17.0,0.0706976840363937,0.0660209978193849,-0.0012462779156327546,-0.08999999999999991,-1.2999999999999985,-9.71,-0.023267785641777575,-0.023773022172719753,0.005465548396495977,203.0625,-0.5,172.3125,0.06616211000000002,0.19995117000000018,-0.9775390599999992,-0.008728029999999998
18.0,0.07145099255583126,0.06689857320099254,-0.0016715260545905708,-0.08999999999999991,-1.2999999999999985,-9.71,-0.0011408576302729522,0.004395258219602977,0.008582603132754342,203.0625,-0.5,172.3125,0.06616211000000002,0.19995117000000018,-0.9775390599999992,-0.008728029999999998
19.0,0.0706460918114144,0.06709057071960295,-0.0038228908188585615,-0.08999999999999991,-1.2999999999999985,-9.71,0.00951263957816377,0.022592276674937965,0.009553349875930522,203.0625,-0.5,172.3125,0.06616211000000002,0.19995117000000018,-0.9775390599999992,-0.008728029999999998
20.0,0.070635851379803,0.06729278517181739,-0.003641801075268818,-0.08999999999999991,-1.2999999999999985,-9.71,-0.003676645095495902,0.02183170492142266,0.012596811790360178,203.0625,-0.5,172.3125,0.06616211000000002,0.19995117000000018,-0.9775390599999992,-0.008728029999999998
21.0,0.07154184155897866,0.0667496656569237,-0.002128750393871362,-0.08999999999999991,-1.2999999999999985,-9.71,-0.007470929188419107,0.011164237588128716,0.009231024351992094,203.0625,-0.5,172.3125,0.06616211000000002,0.19995117000000018,-0.9775390599999992,-0.008728029999999998
22.0,0.07075327965045708,0.06530726195847164,-0.0030698890043648107,-0.08999999999999991,-1.2999999999999985,-9.71,-0.008134768876956376,0.012360779901102481,0.0005794356852824589,203.0625,-0.5,172.3125,0.06616211000000002,0.19995117000000018,-0.9775390599999992,-0.008728029999999998
23.0,0.07121480669867764,0.06459213904375194,-0.0027726538694280638,-0.08999999999999991,-1.2999999999999985,-9.71,-0.015316269751753622,0.027512585980327915,0.011018819889787632,203.0625,-0.5,172.3125,0.06616211000000002,0.19995117000000018,-0.9775390599999992,-0.008728029999999998
24.0,0.070609884738917,0.06403428292137966,-0.0008081631630018732,-0.08999999999999991,-1.2999999999999985,-9.71,0.0011042720720140058,0.03832204981398529,0.009890613418839225,203.0625,-0.5,172.3125,0.06616211000000002,0.19995117000000018,-0.9775390599999992,-0.008728029999999998
25.0,0.07295401372820726,0.06510365172461943,-0.002618157827835247,-0.08999999999999991,-1.2999999999999985,-9.71,-0.02509241430612398,-0.014410578221062093,0.2471251698570247,203.16856060606062,-0.5195503421309873,172.3125,0.06616211000000002,0.2007172420234604,-0.9773743912218957,-0.008685072580645166
26.0,0.07264828182570116,0.06688746334310847,-0.00355690277464471,-0.08999999999999991,-1.2999999999999985,-9.71,-0.010842098090081959,-0.021334193360403035,0.022156094913151375,203.2233932062561,-0.5178396871945259,172.3125,0.06616211000000002,0.20118771439882688,-0.9772829748851417,-0.008643547419354847
27.0,0.07296636965185352,0.06963630254154446,-0.00320073877735168,-0.08999999999999991,-1.2999999999999985,-9.71,0.024057201199338296,-0.0025414857320099245,0.05812105820926386,203.2920179618768,-0.5362903225806451,172.3125,0.06616211000000002,0.2016629439002931,-0.9771776172470671,-0.008622784838709686
28.0,0.0723293386720806,0.06626232000526353,-0.002116498420933904,-0.08999999999999991,-1.2999999999999985,-9.71,-0.0020222678866832107,0.0059873216501240695,0.03467467302522746,203.33854930351907,-0.5504032258064515,172.3125,0.06616211000000002,0.2019726311436948,-0.9771063231396623,-0.008612403548387108
29.0,0.07202488438980373,0.06612304966538834,-0.0013861756523046844,-0.08999999999999991,-1.2999999999999985,-9.71,-0.005204720514700354,-0.009524094856756147,0.011330474800736899,203.36181497434018,-0.5574596774193548,172.3125,0.06616211000000002,0.20212747476539566,-0.9770706760859599,-0.008607212903225817
30.0,0.07277817365490391,0.06719820944482413,-0.00131552549119954,-0.08999999999999991,-1.2999999999999985,-9.71,-0.010940663243883784,-0.014797099441042027,0.004829970917533358,203.37013341581132,-0.560376955034213,172.3125,0.06616211000000002,0.202180956825513,-0.9770579984584244,-0.00860596000000001
31.0,0.07230413800611199,0.06544560751397532,-0.0011430294949794225,-0.08999999999999991,-1.2999999999999985,-9.71,-0.015939420874423283,-0.0010021865071215101,0.01004743932042921,203.3742363147605,-0.5621945259042033,172.3125,0.06616211000000002,0.20220496546920802,-0.9770519434555224,-0.00860596000000001
32.0,0.07271846721726356,0.0647612916693321,-0.0010643219723624152,-0.08999999999999991,-1.2999999999999985,-9.71,-0.018996869363985397,-0.019537828565271996,0.01463110793876321,203.375,-0.5625,172.3125,0.06616211000000002,0.20220946999999978,-0.9770507799999995,-0.00860596000000001
33.0,0.07313056979932278,0.06491414459397125,-0.0019224158925651462,-0.08999999999999991,-1.2999999999999985,-9.71,0.0017040053510924951,-0.004151950601156187,0.015438345156688921,203.375,-0.5625,172.3125,0.06616211000000001,0.20220946999999978,-0.9770507799999995,-0.00860596000000001
34.0,0.07336470590875982,0.06434687604162809,-0.0013484551077232827,-0.08999999999999991,-1.2999999999999985,-9.71,-0.01341786723948496,-0.005679629710684116,0.010880124529618992,203.375,-0.5625,172.3125,0.06616211000000002,0.20220946999999978,-0.9770507799999995,-0.00860596000000001
35.0,0.07308822681090374,0.06404392429910001,-0.0013458693449064172,-0.08999999999999991,-1.2999999999999985,-9.71,0.017650117896868017,-0.0029752265067623756,-0.005362778370722522,203.375,-0.5625,172.3125,0.06616211000000002,0.20220946999999978,-0.9770507799999995,-0.00860596000000001
36.0,0.07307836410099289,0.063367552043527,-0.001124773156549757,-0.08999999999999991,-1.2999999999999985,-9.71,0.01697087818296292,0.02032041742561723,-0.020416275267021534,203.375,-0.5625,172.3125,0.06616211000000001,0.20220946999999978,-0.9770507799999995,-0.00860596000000001
37.0,0.07349151714919647,0.06353981839056463,-0.003010629235954224,-0.08999999999999991,-1.2999999999999985,-9.71,0.003986763116517571,-0.0022525260007205134,0.005334110801732369,203.375,-0.5625,172.3125,0.06616211000000001,0.20220946999999978,-0.9770507799999995,-0.00860596000000001
38.0,0.07319823620449521,0.06335675783051803,-0.0027317978122022414,-0.08999999999999991,-1.2999999999999985,-9.71,-0.00975703200667091,-0.003790937036002034,-0.024887882940362475,203.375,-0.5625,172.3125,0.06616211000000002,0.20220946999999978,-0.9770507799999995,-0.00860596000000001
39.0,0.07334067761800067,0.06294576744071204,-0.0029957206972132345,-0.08999999999999991,-1.2999999999999985,-9.71,-0.00833883256849073,-0.004215191805466241,-0.0017843054073193691,203.375,-0.5625,172.3125,0.06616211000000002,0.20220946999999978,-0.9770507799999995,-0.00860596000000001
40.0,0.07326682850130128,0.06375633450164021,-0.0018672013269991118,-0.08999999999999991,-1.2999999999999985,-9.71,-0.013719357195524744,-0.021154133741399028,-0.009847558956851205,203.375,-0.5625,172.3125,0.06616211000000001,0.20220946999999978,-0.9770507799999995,-0.00860596000000001
41.0,0.0733563246254628,0.06376003357900323,-0.0019974164817689135,-0.08999999999999991,-1.2999999999999985,-9.71,-0.010474303420860955,0.009920016991514343,-0.0043739261059915855,203.375,-0.5625,172.3125,0.06616211000000001,0.20220946999999978,-0.9770507799999995,-0.00860596000000001
42.0,0.07185378543780083,0.06451958569435698,-0.0010010785234665829,-0.08999999999999991,-1.2999999999999985,-9.71,-0.009056917645025492,-0.005551870693902471,0.013197420858711182,203.375,-0.5625,172.3125,0.06616211000000002,0.20220946999999978,-0.9770507799999995,-0.00860596000000001
43.0,0.08167153517322026,0.0673689739886177,0.0004775793938047189,-0.09578690127077226,-1.2999999999999985,-9.71,0.027597546892202646,-0.059883142655771444,-0.000857207308820212,203.375,-0.582539100684262,172.3125,0.06621079465298141,0.2022142434115345,-0.9770507799999995,-0.008348693607038125
44.0,0.0881353765797675,0.06849142736576536,-0.001821327605150427,-0.10321603128054749,-1.2999999999999985,-9.71,0.00023572359272888872,0.005814171585115251,-0.07896599368373562,203.3442082111437,-0.60477761485826,172.3125,0.06624945619745841,0.2019474337927662,-0.9771099655327471,-0.008128416617790808
45.0,0.09006475573856411,0.0671562708676334,-0.00017263838713044318,-0.10378543499511239,-1.2999999999999985,-9.71,0.022066175579355644,0.0745713086664579,-0.0008863448379577421,203.31474523460412,-0.5987597751710655,172.3125,0.0662687869696969,0.20177623149315732,-0.9771512530889537,-0.00807628661534702
46.0,0.09225462440785019,0.06711521542973153,-0.0007564290548161513,-0.10612047898338225,-1.2999999999999985,-9.71,-0.001569314422137003,0.04297750300774494,0.14276308369050306,203.42209646871947,-0.6114216764418376,172.3125,0.06627845235581617,0.20280665500855327,-0.9769482803567943,-0.008038036152248287
47.0,0.09394244868035187,0.06573130498533723,0.0009145894428152496,-0.10838282013685248,-1.2999999999999985,-9.71,-0.00015655547409579697,-0.014964412267839691,0.08348607038123168,203.49532242790812,-0.6192189027370478,172.3125,0.06628328504887579,0.20351612960105087,-0.9768105185654946,-0.008006978721285429
48.0,0.0941339809384164,0.06593016862170087,-0.00037848240469208196,-0.10933315004887595,-1.2999999999999985,-9.71,-0.006111391129032258,0.0003532044232649051,0.054099462365591405,203.53193540750243,-0.6224912939882699,172.3125,0.06628417999999993,0.20387071772818918,-0.9767416376698448,-0.007999489580584059
49.0,0.09369700024437924,0.06571679496578689,-0.001655516862170088,-0.10966657502443804,-1.2999999999999985,-9.71,-0.010188515701368524,0.012670492729716518,0.03654997556207234,203.55120414070137,-0.6237456469941349,172.3125,0.06628417999999993,0.2040564241769001,-0.9767053476741215,-0.007998608878757323
50.0,0.09389033479960895,0.06649716144070981,-5.6395217685540266e-05,-0.10993157380254166,-1.2999999999999985,-9.71,-0.010734330353785999,0.010069689215354538,0.032462526552748325,203.56127810361681,-0.6249083577712611,172.3125,0.06628417999999993,0.20415045857282507,-0.9766868372140777,-0.007996355762463334
51.0,0.09299573511166248,0.06551830024813893,-0.0004032258064516128,-0.11000000000000011,-1.2999999999999985,-9.71,0.0004890082196029781,0.009302787686104218,0.02664440524193548,203.5625,-0.625,172.3125,0.06628417999999993,0.20416260000000006,-0.9766845700000014,-0.007995609999999992
52.0,0.09246812965260541,0.06518858560794041,-0.0005645161290322581,-0.11000000000000011,-1.2999999999999985,-9.71,0.00980536600496278,-0.007303621277915631,0.016960685483870967,203.5625,-0.625,172.3125,0.06628417999999993,0.20416260000000006,-0.9766845700000014,-0.007995609999999992
53.0,0.0919600651364764,0.06535204714640196,0.00037817928039702247,-0.11000000000000011,-1.2999999999999985,-9.71,-0.0018876977357320099,-0.009299879807692306,0.019516710607940448,203.5625,-0.625,172.3125,0.06628417999999993,0.20416260000000006,-0.9766845700000014,-0.007995609999999992
54.0,0.09108839950372205,0.06500465260545904,-0.0004081885856079406,-0.11000000000000011,-1.2999999999999985,-9.71,-0.004739841811414392,-0.004067152605459056,0.01558622828784119,203.5625,-0.625,172.3125,0.06628417999999993,0.20416260000000006,-0.9766845700000014,-0.007995609999999992
55.0,0.0921471774193548,0.06452962158808931,-0.0013405707196029774,-0.11000000000000011,-1.2999999999999985,-9.71,0.0047330567617866,-0.004701070099255583,0.005327233250620347,203.5625,-0.625,172.3125,0.06628417999999993,0.20416260000000006,-0.9766845700000014,-0.007995609999999992
56.0,0.09184530086848632,0.06654520781637717,-0.0017869106699751859,-0.11000000000000011,-1.2999999999999985,-9.71,0.021349158653846154,-0.018619145471464017,-0.00737825682382134,203.5625,-0.625,172.3125,0.06628417999999993,0.20416260000000006,-0.9766845700000014,-0.007995609999999992
57.0,0.0924221464019851,0.06569447890818858,-0.0010446650124069478,-0.11000000000000011,-1.2999999999999985,-9.71,0.008863213399503722,-0.01142020781637717,-0.004319168734491315,203.5625,-0.625,172.3125,0.06628417999999993,0.20416260000000006,-0.9766845700000014,-0.007995609999999992
58.0,0.09190089950372207,0.0647430210918114,1.3647642679900603e-05,-0.11000000000000011,-1.2999999999999985,-9.71,0.017551954094292804,-0.007028342121588089,0.00046138337468982615,203.5625,-0.625,172.3125,0.06628417999999993,0.20416260000000006,-0.9766845700000014,-0.007995609999999992
59.0,0.0910248138957816,0.06499565756823819,-0.00037003722084367254,-0.11000000000000011,-1.2999999999999985,-9.71,0.009398263027295285,-0.006027062655086849,0.005500736662531017,203.5625,-0.625,172.3125,0.06628417999999993,0.20416260000000006,-0.9766845700000014,-0.007995609999999992
60.0,0.09110545905707193,0.06347921836228286,0.00025294665012406953,-0.11000000000000011,-1.2999999999999985,-9.71,0.002465880893300248,-0.019065020161290323,-0.0062601775744416865,203.5625,-0.625,172.3125,0.06628417999999993,0.20416260000000006,-0.9766845700000014,-0.007995609999999992
61.0,0.08907591501240691,0.06345835918114143,-0.0015317928039702236,-0.11000000000000011,-1.2999999999999985,-9.71,-0.011462372053349875,-0.0044921875,0.0037215997208436724,203.5625,-0.625,172.3125,0.06628417999999993,0.20416260000000006,-0.9766845700000014,-0.007995609999999992
62.0,0.09110297766749378,0.06495750620347393,-0.0017285980148883378,-0.11000000000000011,-1.2999999999999985,-9.71,-0.014252481389578162,0.020514112903225808,-0.002659739454094292,203.5625,-0.625,172.3125,0.06628417999999993,0.20416260000000006,-0.9766845700000014,-0.007995609999999992
63.0,0.09326620422588161,0.06538837036619294,0.0015425736897511093,-0.11000000000000011,-1.2999999999999985,-9.71,-0.013394569140536883,0.018612477911873072,-0.012175610008271297,203.5625,-0.625,172.3125,0.06628417999999994,0.20416260000000006,-0.9766845700000014,-0.007995609999999992
64.0,0.09088140116040738,0.06677214884274588,0.0007836937927663736,-0.11000000000000011,-1.2999999999999985,-9.71,-0.011395415523602306,0.031236019633115755,-0.001575778269164065,203.5625,-0.625,172.3125,0.06628417999999991,0.20416260000000006,-0.9766845700000014,-0.00799560999999999
65.0,0.09026173035687862,0.06597365971913968,0.0011732907549439808,-0.11000000000000011,-1.2999999999999985,-9.71,-0.013078872464034403,0.013640652496458624,-0.003482038483217268,203.5625,-0.625,172.3125,0.06628417999999993,0.20416260000000006,-0.9766845700000014,-0.00799560999999999
66.0,0.09224074421069736,0.06737551627396189,0.0008777821640724868,-0.11000000000000011,-1.2999999999999985,-9.71,-0.01807208201365492,0.024544572138427822,-0.00492344984024387,203.5625,-0.625,172.3125,0.06628417999999993,0.20416260000000006,-0.9766845700000014,-0.00799560999999999
67.0,0.0913925495247035,0.06729410894343255,-0.0003373185953831113,-0.11000000000000011,-1.2999999999999985,-9.71,-0.021873112579408105,-0.0005332834872377006,-0.00231996584754129,203.5625,-0.625,172.3125,0.06628417999999993,0.20416260000000006,-0.9766845700000014,-0.00799560999999999
68.0,0.0910871688145361,0.06736560473865363,-0.00032382133995037196,-0.11000000000000011,-1.2999999999999985,-9.71,-0.02713044304810694,-0.016407188025294166,0.00612392940046426,203.5625,-0.625,172.3125,0.06628417999999993,0.20416260000000006,-0.9766845700000014,-0.00799560999999999
69.0,0.09199627791563272,0.06672890818858557,0.0006321339950372208,-0.11000000000000011,-1.2999999999999985,-9.71,-0.016396557071960298,-0.0024348635235732,-0.0010545905707196029,203.5625,-0.625,172.3125,0.06628417999999993,0.20416260000000006,-0.9766845700000014,-0.007995609999999992
70.0,0.09148697270471459,0.06626643920595532,0.0002912531017369727,-0.11000000000000011,-1.2999999999999985,-9.71,-0.02157451923076923,0.008436724565756825,-0.005474565756823821,203.5625,-0.625,172.3125,0.06628417999999993,0.20416260000000006,-0.9766845700000014,-0.007995609999999992
71.0,0.09305480227657643,0.06750015016345659,0.0003020328685651267,-0.11000000000000011,-1.2999999999999985,-9.71,-0.020143673810508488,0.008268344558667139,-0.001108132458938911,203.5625,-0.625,172.3125,0.06628417999999993,0.20416260000000006,-0.9766845700000014,-0.007995609999999992
72.0,0.09229933417836642,0.06668400103480746,-0.0011532052177213466,-0.11000000000000011,-1.2999999999999985,-9.71,-0.012106103461950235,0.008422264899079416,0.006288553516376097,203.5625,-0.625,172.3125,0.06628417999999994,0.20416260000000006,-0.9766845700000014,-0.007995609999999992
73.0,0.09161120555072164,0.06711371267621266,-0.0008123346187862317,-0.11000000000000011,-1.2999999999999985,-9.71,0.017783796904260612,-0.01166976085070843,-0.0030281798174943337,203.5625,-0.625,172.3125,0.06628417999999993,0.20416260000000006,-0.9766845700000014,-0.007995609999999992
74.0,0.09231751738404959,0.0674719376725425,-0.000267130718743622,-0.11000000000000011,-1.2999999999999985,-9.71,0.006424786710825016,-0.02395764028198504,-0.01777506907295214,203.5625,-0.625,172.3125,0.06628417999999993,0.20416260000000006,-0.9766845700000014,-0.007995609999999992
75.0,0.0910654363557589,0.06606696529277173,-0.00013356535937181097,-0.11000000000000011,-1.2999999999999985,-9.71,0.021721737044317686,-0.0025029182287246796,-0.003842438923084084,203.5625,-0.625,172.3125,0.06628417999999994,0.20416260000000006,-0.9766845700000014,-0.007995609999999992
76.0,0.09166815084557017,0.06692493169912522,-0.0005557739751288139,-0.11000000000000011,-1.2999999999999985,-9.71,0.026789887979404108,0.0112053381206607,-0.009025674146641889,203.5625,-0.625,172.3125,0.06628417999999993,0.20416260000000006,-0.9766845700000014,-0.007995609999999992
77.0,0.09218060523705682,0.06707683535102887,-0.0008815038008586397,-0.11000000000000011,-1.2999999999999985,-9.71,0.00036647380397380504,-0.010144520577988321,0.0043459117047826715,203.5625,-0.625,172.3125,0.06628417999999993,0.20416260000000006,-0.9766845700000014,-0.007995609999999992
78.0,0.09329873934309413,0.06651360377973281,-0.0014655657962109575,-0.11000000000000011,-1.2999999999999985,-9.71,0.01980172325434422,-0.002079084110334111,-0.02443994737341512,203.5625,-0.625,172.3125,0.06628417999999993,0.20416260000000006,-0.9766845700000014,-0.007995609999999992
79.0,0.09337492010677492,0.06595393450635384,-0.0008991935483870968,-0.11000000000000011,-1.2999999999999985,-9.71,-0.01169252034927438,0.02321000991615911,0.006437220373712306,203.5625,-0.625,172.3125,0.06628417999999993,0.20416260000000006,-0.9766845700000014,-0.007995609999999992
80.0,0.09292245078885968,0.07923245666827154,-0.0013740069812229175,-0.11000000000000013,-1.3038517091959538,-9.71,0.10143647023489871,0.06522345960566275,0.11620983077015666,203.61883124699085,-0.625,172.29179706307173,0.06658086298507455,0.2045937534713529,-0.9765642039335583,-0.008029461978815596
81.0,0.09440729394281692,0.08860312349542608,-0.0018009147809340393,-0.11000000000000013,-1.3122484352431374,-9.71,0.13137914741583645,0.0392744062141217,0.13342623594959446,203.71969788155994,-0.625,172.2376324025036,0.06715706858931147,0.20538623867116024,-0.9763408669667786,-0.00812722179585941
82.0,0.09557519628902632,0.09244866162364355,-0.004453497092700272,-0.11000000000000013,-1.3164467982667292,-9.71,0.07701721406151624,-0.010643746412169922,0.0842956047924151,203.77013119884447,-0.625,172.21055007221955,0.06744517139142991,0.20578248127106388,-0.9762291984833888,-0.008187423639865184
83.0,0.09505682891374392,0.09491787919891853,-0.005581587256027556,-0.11000000000000011,-1.3185459797785253,-9.71,0.04392113804812785,0.021818325305081293,0.04046511008851524,203.79534785748675,-0.625,172.19700890707753,0.06758922279248916,0.20598060257101572,-0.9761733642416939,-0.008217524561868073
84.0,0.09263177984148735,0.0965866148475982,-0.0064383587644902054,-0.11000000000000011,-1.3195955705344231,-9.71,-0.00019092174826858613,-0.03598498088033777,0.012221350019443723,203.8233408021925,-0.625,172.1902383245065,0.06766124849301877,0.2061538150026293,-0.9761304243516162,-0.008238874893837261
85.0,0.09135557419730805,0.09623847892698695,-0.0064747490412813,-0.1086705767350929,-1.3199999999999985,-9.71,-0.03034742685070306,0.031642034880442135,-0.1577378791403489,203.8201923076923,-0.6191348973607038,172.1875,0.06767844317693063,0.20603012930235343,-0.9761554244804873,-0.008316649401515153
86.0,0.08779908286158286,0.09538166425868035,-0.004840597126887449,-0.10417399804496574,-1.3199999999999985,-9.71,-0.028974346665878923,0.05605109216500345,-0.09913698672519237,203.71957196029774,-0.5898093841642228,172.1875,0.06765171207233633,0.2051278665866605,-0.9763658533692758,-0.00846756512414468
87.0,0.08597026103376909,0.09574914478442703,-0.005534442484039259,-0.10192570869990217,-1.3199999999999985,-9.71,-0.03196546117413053,0.04259595551178212,-0.05264696730800561,203.6692617866005,-0.5751466275659823,172.1875,0.06763834652003918,0.20467673522881405,-0.9764710678136702,-0.008542669174975571
88.0,0.08322718231589199,0.0955504021068537,-0.005122912929364543,-0.1008015640273704,-1.3199999999999985,-9.71,-0.0072387402024498785,0.019951145404774436,-0.020289393626087174,203.64410669975186,-0.5678152492668621,172.1875,0.0676316637438906,0.20445116954989082,-0.9765236750358673,-0.008580221200391017
89.0,0.0820924993465316,0.09483599509809185,-0.00535053835053835,-0.1002394916911045,-1.3199999999999985,-9.71,0.0026383842412068224,0.029059009426952973,-0.009408034282026217,203.63104838709677,-0.564149560117302,172.1875,0.06762832235581631,0.20433606946725302,-0.9765504481085043,-0.008598800342130997
90.0,0.08265670910630588,0.0947444882626334,-0.004750049233920202,-0.0999999999999999,-1.3199999999999985,-9.71,-0.006409302503052502,-0.008243589128165741,0.007866241901020128,203.625,-0.5625,172.1875,0.06762695000000009,0.20428466999999983,-0.9765625,-0.00860596000000001
91.0,0.0833508839950372,0.09471735421836226,-0.004178660049627791,-0.0999999999999999,-1.3199999999999985,-9.71,-0.006380854528535979,-0.019498778691066997,0.011549608405707196,203.625,-0.5625,172.1875,0.06762695000000009,0.20428466999999983,-0.9765625,-0.00860596000000001
92.0,0.08308818332205427,0.09327700860966989,-0.005429383788254756,-0.09999999999999988,-1.3199999999999985,-9.71,-0.013896339715392135,-0.017506044862395667,0.012207420435747048,203.625,-0.5625,172.1875,0.06762695000000009,0.20428466999999983,-0.9765625,-0.00860596000000001
93.0,0.08365925964716284,0.09310823529069495,-0.005259376600102407,-0.0999999999999999,-1.3199999999999985,-9.71,-0.013371719426406924,-0.005153284355653308,0.006941671539705814,203.625,-0.5625,172.1875,0.06762695000000009,0.20428466999999983,-0.9765625,-0.00860596000000001
94.0,0.08244470426526876,0.09378880281904473,-0.0061121634861554235,-0.0999999999999999,-1.3199999999999985,-9.71,-0.007851676633178649,-0.01354976368837256,0.009410419749381442,203.625,-0.5625,172.1875,0.06762695000000009,0.20428466999999983,-0.9765625,-0.00860596000000001
95.0,0.08283440238077334,0.09515378416386479,-0.0051319579837725005,-0.0999999999999999,-1.3199999999999985,-9.71,-0.012094795745249375,-0.013557508239967918,0.00446894475372298,203.625,-0.5625,172.1875,0.06762695000000009,0.20428466999999983,-0.9765625,-0.00860596000000001
96.0,0.0828839350613544,0.09564644853354529,-0.005572531411241088,-0.0999999999999999,-1.3199999999999985,-9.71,-0.016017785977463395,-0.006337725894177507,0.004030087296216328,203.625,-0.5625,172.1875,0.06762695000000009,0.20428466999999983,-0.9765625,-0.00860596000000001
97.0,0.0831697290165032,0.09521080979951946,-0.004775513017448501,-0.0999999999999999,-1.3199999999999985,-9.71,-0.017738242939855844,-0.0034437896333057625,0.007360840324550002,203.625,-0.5625,172.1875,0.06762695000000009,0.20428466999999983,-0.9765625,-0.00860596000000001
98.0,0.08382102977667494,0.09684460297766745,-0.005243796526054591,-0.0999999999999999,-1.3199999999999985,-9.71,-0.0017292183622828784,0.003625155086848635,0.009603753101736973,203.625,-0.5625,172.1875,0.06762695000000009,0.20428466999999983,-0.9765625,-0.00860596000000001
99.0,0.08347875310173695,0.09581187965260543,-0.005924627791563276,-0.0999999999999999,-1.3199999999999985,-9.71,-0.005300093052109181,-0.0281346929280397,0.011563663151364765,203.625,-0.5625,172.1875,0.06762695000000009,0.20428466999999983,-0.9765625,-0.00860596000000001
100.0,0.08275229553152938,0.0964883574087203,-0.005680774646500453,-0.0999999999999999,-1.3199999999999985,-9.71,-0.0059706282740556935,-0.013322683420969712,0.014486388667336248,203.625,-0.5625,172.1875,0.06762695000000009,0.20428466999999983,-0.9765625,-0.00860596000000001
101.0,0.08371039869628577,0.09592504874158098,-0.0036180703257316154,-0.0999999999999999,-1.3199999999999985,-9.71,-0.014580963950923629,0.009219551589763283,-0.003737923842510536,203.625,-0.5625,172.1875,0.06762695000000009,0.20428466999999983,-0.9765625,-0.00860596000000001
102.0,0.08283201386427191,0.09399858206309818,-0.0038874315648509193,-0.0999999999999999,-1.3199999999999985,-9.71,-0.012434518886131788,0.021995253850092558,0.0024242782307298434,203.625,-0.5625,172.1875,0.06762695000000009,0.20428466999999983,-0.9765625,-0.00860596000000001
103.0,0.08263436921501435,0.09460723147819922,-0.004593839851904369,-0.0999999999999999,-1.3199999999999985,-9.71,-0.005930348773090708,-0.0027818395761944163,0.005058292961518768,203.625,-0.5625,172.1875,0.06762695000000009,0.20428466999999983,-0.9765625,-0.00860596000000001
104.0,0.08231594391271808,0.09351701524282166,-0.004851510496671787,-0.0999999999999999,-1.3199999999999985,-9.71,-0.00937801557761235,-0.0009489222694867862,0.009872508763637796,203.625,-0.5625,172.1875,0.06762695000000009,0.20428466999999983,-0.9765625,-0.00860596000000001
105.0,0.08378598014888336,0.09325620347394539,-0.003951612903225807,-0.0999999999999999,-1.3199999999999985,-9.71,-0.010121355459057072,0.0020296991315136475,-0.0013841501240694784,203.625,-0.5625,172.1875,0.06762695000000009,0.20428466999999983,-0.9765625,-0.00860596000000001
106.0,0.08396246898263024,0.09360576923076921,-0.0040924317617866,-0.0999999999999999,-1.3199999999999985,-9.71,-0.00816241470223325,0.0034962391439205954,0.003619339330024814,203.625,-0.5625,172.1875,0.06762695000000009,0.20428466999999983,-0.9765625,-0.00860596000000001
107.0,0.08299736352357318,0.09378427419354837,-0.0052050248138957814,-0.0999999999999999,-1.3199999999999985,-9.71,-0.020543676333746895,0.015318218827543424,0.0006620269851116626,203.625,-0.5625,172.1875,0.06762695000000009,0.20428466999999983,-0.9765625,-0.00860596000000001
108.0,0.08304644851116626,0.09418858560794041,-0.004184320719602977,-0.0999999999999999,-1.3199999999999985,-9.71,-0.01872431374069479,-0.0018411716811414392,0.006160340415632754,203.625,-0.5625,172.1875,0.06762695000000009,0.20428466999999983,-0.9765625,-0.00860596000000001
109.0,0.08268152915632754,0.09340384615384612,-0.004946960297766749,-0.0999999999999999,-1.3199999999999985,-9.71,-0.011638783343672455,-0.00934155939826303,0.008302962158808934,203.625,-0.5625,172.1875,0.06762695000000009,0.20428466999999983,-0.9765625,-0.00860596000000001
110.0,0.08142144974201426,0.09427312763401469,-0.0061097128677773845,-0.0999999999999999,-1.3199999999999985,-9.71,0.010738918059986608,-0.003213436429162236,0.010996919187443381,203.625,-0.5625,172.1875,0.06762695000000009,0.20428466999999983,-0.9765625,-0.00860596000000001
111.0,0.08072313181889795,0.09453358614951352,-0.005528801843317973,-0.0999999999999999,-1.3199999999999985,-9.71,0.002996630245874198,-0.012121606552050102,0.012322280933672061,203.625,-0.5625,172.1875,0.06762695000000009,0.20428466999999983,-0.9765625,-0.00860596000000001
112.0,0.08167867974319588,0.0955387766355508,-0.004966323998582064,-0.0999999999999999,-1.3199999999999985,-9.71,0.013928768364252235,0.002927448895190831,0.0017261412422702746,203.625,-0.5625,172.1875,0.06762695000000009,0.20428466999999983,-0.9765625,-0.00860596000000001
113.0,0.08256390562842174,0.09616268856591434,-0.006221375398794754,-0.0999999999999999,-1.3199999999999985,-9.71,0.002187709244160857,0.002781962660994919,0.006725353499547048,203.625,-0.5625,172.1875,0.06762695000000009,0.20428466999999983,-0.9765625,-0.00860596000000001
114.0,0.08353863878057424,0.09451381503800854,-0.0069512879593524755,-0.0999999999999999,-1.3199999999999985,-9.71,0.0027074963566899053,0.004726825593761077,0.009848507227539485,203.625,-0.5625,172.1875,0.06762695000000009,0.20428466999999983,-0.9765625,-0.00860596000000001
115.0,0.08239943479459608,0.09519235200283581,-0.007807086730473829,-0.0999999999999999,-1.3199999999999985,-9.71,0.009278439974004491,0.011248412206073496,0.00471624030091772,203.625,-0.5625,172.1875,0.06762695000000009,0.20428466999999983,-0.9765625,-0.00860596000000001
116.0,0.08215008960573475,0.09394853332151713,-0.006920913092284061,-0.0999999999999999,-1.3199999999999985,-9.71,0.0007465400862578285,0.011905223472763796,0.008096333549962581,203.625,-0.5625,172.1875,0.06762695000000009,0.20428466999999983,-0.9765625,-0.00860596000000001
117.0,0.08304899021229664,0.09316037087912082,-0.0066949478612785066,-0.0999999999999999,-1.3199999999999985,-9.71,-0.007055390006498877,0.014226495111071723,0.005195809454882035,203.625,-0.5625,172.1875,0.06762695000000009,0.20428466999999983,-0.9765625,-0.00860596000000001
118.0,0.08250130962227734,0.0924246721020914,-0.0076756764740635725,-0.0999999999999999,-1.3199999999999985,-9.71,-0.0073404082476663125,0.003607800129977549,0.0019126147150340697,203.625,-0.5625,172.1875,0.06762695000000009,0.20428466999999983,-0.9765625,-0.00860596000000001
119.0,0.08214671215880892,0.09310173697270467,-0.007505272952853599,-0.0999999999999999,-1.3199999999999985,-9.71,0.0018261476426799012,-0.017949364143920597,0.0027644230769230766,203.625,-0.5625,172.1875,0.06762695000000009,0.20428466999999983,-0.9765625,-0.00860596000000001
120.0,0.08264159429280396,0.09431513647642678,-0.008060328784119108,-0.0999999999999999,-1.3199999999999985,-9.71,0.007597316997518611,-0.02017195254342432,0.01180404776674938,203.625,-0.5625,172.1875,0.06762695000000009,0.20428466999999983,-0.9765625,-0.00860596000000001
121.0,0.08342107679506869,0.09325985663082435,-0.005981521278900313,-0.0999999999999999,-1.3199999999999985,-9.71,0.0034106952075702076,-0.022048834202312025,0.007764050745401553,203.625,-0.5625,172.1875,0.06762695000000009,0.20428466999999983,-0.9765625,-0.00860596000000001
122.0,0.08360256857837502,0.0929972303681981,-0.006250092873076745,-0.09999999999999988,-1.3199999999999985,-9.71,-0.011270619221728093,0.011679467765657283,-0.0015258207294497612,203.625,-0.5625,172.1875,0.06762695000000009,0.20428466999999983,-0.9765625,-0.00860596000000001
123.0,0.08249483267628427,0.09429141915432238,-0.005405443458870879,-0.0999999999999999,-1.3199999999999985,-9.71,-0.01710398206743973,0.013004746289776532,0.0012687273523967076,203.625,-0.5625,172.1875,0.06762695000000009,0.20428466999999983,-0.9765625,-0.00860596000000001
124.0,0.08299136795104539,0.09369812893199989,-0.003310080600403181,-0.0999999999999999,-1.3199999999999985,-9.71,-0.013261542445010186,0.017701339878759232,0.0020834564181338375,203.625,-0.5625,172.1875,0.06762695000000009,0.20428466999999983,-0.9765625,-0.00860596000000001
125.0,0.08247831424847554,0.09271258803920093,-0.0049304745433777705,-0.0999999999999999,-1.3199999999999985,-9.71,-0.014788339460718492,0.01762858557213396,0.0066713808145259755,203.625,-0.5625,172.1875,0.06762695000000009,0.20428466999999983,-0.9765625,-0.00860596000000001
126.0,0.0825224687946462,0.09235270979020976,-0.006133243100985038,-0.0999999999999999,-1.3199999999999985,-9.71,-0.01780000493458155,-0.001735797804346191,0.007241909636062862,203.625,-0.5625,172.1875,0.06762695000000009,0.20428466999999983,-0.9765625,-0.00860596000000001
127.0,0.08224852667493796,0.09210010856079401,-0.006267990074441688,-0.0999999999999999,-1.3199999999999985,-9.71,-0.009495676954094291,0.005974720843672457,0.01185348169975186,203.625,-0.5625,172.1875,0.06762695000000009,0.20428466999999983,-0.9765625,-0.00860596000000001
128.0,0.08239190446650121,0.09346184863523571,-0.0054777450372208445,-0.0999999999999999,-1.3199999999999985,-9.71,-0.013962178194789083,0.004782975341191067,0.011912123914392059,203.625,-0.5625,172.1875,0.06762695000000009,0.20428466999999983,-0.9765625,-0.00860596000000001
129.0,0.08169633995037219,0.09342741935483867,-0.0058129652605459076,-0.0999999999999999,-1.3199999999999985,-9.71,-0.020735111662531017,0.007519773573200992,0.01583436724565757,203.625,-0.5625,172.1875,0.06762695000000009,0.20428466999999983,-0.9765625,-0.00860596000000001
130.0,0.08081591191066997,0.09247797766749377,-0.005023107940446652,-0.0999999999999999,-1.3199999999999985,-9.71,-0.019548697270471465,0.01292551954094293,0.016167803970223327,203.625,-0.5625,172.1875,0.06762695000000009,0.20428466999999983,-0.9765625,-0.00860596000000001
131.0,0.0821399658808933,0.09362608560794042,-0.005136864143920596,-0.0999999999999999,-1.3199999999999985,-9.71,-0.006928504962779157,0.011844273418114143,0.014512251861042184,203.625,-0.5625,172.1875,0.06762695000000009,0.20428466999999983,-0.9765625,-0.00860596000000001
132.0,0.08273076923076922,0.09396022022332504,-0.006336073200992558,-0.0999999999999999,-1.3199999999999985,-9.71,-0.007465008529776675,-0.007418967121588088,0.0029718517369727044,203.625,-0.5625,172.1875,0.06762695000000009,0.20428466999999983,-0.9765625,-0.00860596000000001
133.0,0.08261538461538462,0.09359553349875926,-0.005753722084367247,-0.0999999999999999,-1.3199999999999985,-9.71,-0.0024251705955334987,-0.013853132754342431,-0.00273534429280397,203.625,-0.5625,172.1875,0.06762695000000009,0.20428466999999983,-0.9765625,-0.00860596000000001
134.0,0.08258064516129031,0.09383995037220841,-0.0047962158808933005,-0.0999999999999999,-1.3199999999999985,-9.71,0.01484665787841191,-0.00508103287841191,0.0038665089950372213,203.625,-0.5625,172.1875,0.06762695000000009,0.20428466999999983,-0.9765625,-0.00860596000000001
135.0,0.08343424317617867,0.09419789081885852,-0.0062988523573201,-0.0999999999999999,-1.3199999999999985,-9.71,0.012184495192307692,-0.003827737282878412,0.007624941842431762,203.625,-0.5625,172.1875,0.06762695000000009,0.20428466999999983,-0.9765625,-0.00860596000000001
136.0,0.08396440756823821,0.09527892369727044,-0.006319323821339951,-0.10015880893300239,-1.3199999999999985,-9.71,-0.03815524193548387,-0.005545324131513648,-0.027657800868486352,203.62400744416874,-0.5644851116625309,172.1875,0.06762695000000009,0.20428224673449116,-0.9765625,-0.008599659573201003
137.0,0.08671106407823675,0.09826401711428986,-0.005163931360385345,-0.10478528681944241,-1.3195445920303588,-9.71,-0.018951612903225806,8.780652459494751e-06,0.36675251559991245,203.70846956648666,-0.6076102028900889,172.1941413662239,0.067596375426945,0.20511918739950363,-0.976373024857685,-0.008413333657568238
138.0,0.09825984113878136,0.09954851222830526,-0.005194996794781022,-0.11610472814732353,-1.3197722960151785,-9.71,-0.02972878174650939,-0.0025693714094467087,0.43386336360159317,204.12027354106712,-0.6726814856530368,172.19082068311195,0.0676925348174687,0.20873512588800414,-0.9755908775371718,-0.008094477642457694
139.0,0.10512930022199615,0.10002883117618735,-0.005869481958184556,-0.12353623504140367,-1.3198861480075885,-9.71,-0.029248453760971814,-0.01276208179653477,0.17655990954583384,204.42102386730772,-0.7143649363749055,172.18916034155598,0.06775425079583117,0.21132970697626025,-0.9750371223169724,-0.007877687208325627
140.0,0.10909318609114699,0.09891267861538895,-0.005431018894725033,-0.12725198848844374,-1.3199430740037936,-9.71,-0.003349412984704269,-0.01677185975682818,0.09504174137341319,204.57139903042804,-0.7352066617358398,172.188330170778,0.06778510878501243,0.21262699752038827,-0.9747602447068726,-0.007769291991259593
141.0,0.11043493051455613,0.09800720779404681,-0.004837097536692541,-0.12910490243280745,-1.319971537001896,-9.71,-0.0077386022739898514,-0.01671409365012625,0.05346069698943612,204.64661762935793,-0.7455654896768529,172.187915085389,0.06780053777960304,0.21327571851949945,-0.9746218059018228,-0.007715291271064045
142.0,0.11063010685350601,0.0989087991129397,-0.00446357205625381,-0.12988926336061624,-1.3199999999999985,-9.71,-0.007779369563192385,-0.005009859343032188,0.028037597934083253,204.6815719788156,-0.7494282619162254,172.1875,0.06780920773230632,0.21357388675974984,-0.9745585075974952,-0.007694015151661061
143.0,0.11057384013835628,0.09791251221896383,-0.003921723437852471,-0.12999999999999995,-1.3199999999999985,-9.71,-0.011826312128731482,0.016234538311151216,0.0072030791788856305,204.6875,-0.75,172.1875,0.06781006000000012,0.2136230500000002,-0.9745483399999988,-0.007690430000000011
144.0,0.11098419054064215,0.09752201293330326,-0.004794608617189264,-0.12999999999999995,-1.3199999999999985,-9.71,-0.017389582863373186,0.010955358485600423,0.01329446762914505,204.6875,-0.75,172.1875,0.06781006000000012,0.2136230500000002,-0.9745483399999988,-0.007690430000000011
145.0,0.11204544514625162,0.09657490224828934,-0.004697552447552447,-0.12999999999999995,-1.3199999999999985,-9.71,-0.016991937833671707,-0.0408467624445447,0.007918945973381459,204.6875,-0.75,172.1875,0.06781006000000012,0.2136230500000002,-0.9745483399999988,-0.007690430000000011
146.0,0.11053140743664938,0.09738174392811487,-0.005376071509136026,-0.12999999999999995,-1.3199999999999985,-9.71,-0.011737284053312279,0.0016764947082487415,0.014722500281976088,204.6875,-0.75,172.1875,0.06781006000000012,0.2136230500000002,-0.9745483399999988,-0.007690430000000011
147.0,0.11026325992555833,0.09527892369727045,-0.006512872208436727,-0.12999999999999995,-1.3199999999999985,-9.71,-0.01616828861662531,0.005197832661290323,0.011911639267990074,204.6875,-0.75,172.1875,0.06781006000000012,0.2136230500000002,-0.9745483399999988,-0.007690430000000011
148.0,0.11052109181141441,0.09594044665012405,-0.005662531017369728,-0.12999999999999995,-1.3199999999999985,-9.71,-0.009801488833746898,-0.003442928039702233,0.007909429280397022,204.6875,-0.75,172.1875,0.06781006000000012,0.2136230500000002,-0.9745483399999988,-0.007690430000000011
149.0,0.11039461613655166,0.09778028423189711,-0.005476501992631026,-0.12999999999999995,-1.3199999999999985,-9.71,-0.010882397172719754,-0.0052203173170915105,0.007601135423716069,204.6875,-0.75,172.1875,0.06781006000000012,0.2136230500000002,-0.9745483399999988,-0.007690430000000011
150.0,0.11145848416816162,0.09773074237590365,-0.004957716119006442,-0.12999999999999995,-1.3199999999999985,-9.71,-0.01850591165107294,0.0008957887990146056,0.0022179433469756054,204.6875,-0.75,172.1875,0.06781006000000012,0.2136230500000002,-0.9745483399999988,-0.007690430000000011
151.0,0.11285556737169644,0.0974875232294587,-0.004415319447577512,-0.12999999999999995,-1.3199999999999983,-9.71,-0.018919566096985453,0.004653097798259088,0.0022340562663143307,204.6875,-0.75,172.1875,0.06781006000000012,0.2136230500000002,-0.9745483399999988,-0.007690430000000011
152.0,0.11181879052846797,0.09658262167939585,-0.00497952226984485,-0.12999999999999995,-1.3199999999999983,-9.71,-0.014021686199105553,0.0026757292886325145,0.01171462945656494,204.6875,-0.75,172.1875,0.06781006000000012,0.2136230500000002,-0.9745483399999988,-0.007690430000000011
153.0,0.11024158637061865,0.09842782665363309,-0.0049525205976818885,-0.12999999999999995,-1.3199999999999983,-9.71,-0.017701496532141692,-0.014876588465298143,0.008867476609412093,204.6875,-0.75,172.1875,0.06781006000000012,0.2136230500000002,-0.9745483399999988,-0.007690430000000011
154.0,0.10988130149420475,0.098673835125448,-0.005831587767071638,-0.12999999999999995,-1.3199999999999983,-9.71,-0.018427361169296653,0.00879765395894428,0.01359796117860634,204.6875,-0.75,172.1875,0.06781006000000012,0.2136230500000002,-0.9745483399999988,-0.007690430000000011
155.0,0.11146371549597359,0.09992272960014892,-0.006832379090443608,-0.12999999999999995,-1.3199999999999983,-9.71,-0.009286412512218963,0.00873364986268212,0.007335742214774472,204.6875,-0.75,172.1875,0.06781006000000012,0.2136230500000002,-0.9745483399999988,-0.007690430000000011
156.0,0.10897232695619793,0.09855374016664335,-0.005449425126844482,-0.12999999999999995,-1.3199999999999983,-9.71,-0.016434506353861192,-0.013427041148815341,0.007654308057533863,204.6875,-0.75,172.1875,0.06781006000000012,0.2136230500000002,-0.9745483399999988,-0.007690430000000011
157.0,0.11249131424131426,0.09807726860952665,-0.004381190494093719,-0.12999999999999995,-1.3199999999999985,-9.71,-0.005086848635235732,-0.010202739688626785,0.006468800017187114,204.6875,-0.75,172.1875,0.06781006000000012,0.2136230500000002,-0.9745483399999988,-0.007690430000000011
158.0,0.11285422776148585,0.09681274907887807,-0.004175746296714038,-0.12999999999999995,-1.3199999999999985,-9.71,-0.011636683209263855,-0.02791439910895556,-0.006787164448454771,204.6875,-0.75,172.1875,0.06781006000000012,0.2136230500000002,-0.9745483399999988,-0.007690430000000011
159.0,0.11222848992405449,0.09572372922776146,-0.004521289194676292,-0.12999999999999995,-1.3199999999999985,-9.71,-0.00650542334010076,-0.0263719017877284,0.0017752744567260696,204.6875,-0.75,172.1875,0.06781006000000012,0.2136230500000002,-0.9745483399999988,-0.007690430000000011
160.0,0.11043013337468985,0.09578024193548385,-0.0030888647642679907,-0.12999999999999995,-1.3199999999999985,-9.71,-0.01068160669975186,7.608948511166405e-05,0.004842586848635236,204.6875,-0.75,172.1875,0.06781006000000012,0.2136230500000002,-0.9745483399999988,-0.007690430000000011
161.0,0.10972058049477407,0.09558944281524925,-0.006014587562974662,-0.12999999999999995,-1.3199999999999985,-9.71,-0.015715467328370553,-0.008697082487405068,0.0032728024663508538,204.6875,-0.75,172.1875,0.06781006000000012,0.2136230500000002,-0.9745483399999988,-0.007690430000000011
162.0,0.10976599744341684,0.09476990751184297,-0.0050494774043161154,-0.12999999999999995,-1.3199999999999985,-9.71,-0.0024064309346567402,-0.017848851417399805,0.008095768478832994,204.6875,-0.75,172.1875,0.06781006000000012,0.2136230500000002,-0.9745483399999988,-0.007690430000000011
163.0,0.1107068200616588,0.09435765847056166,-0.006112828032182872,-0.12999999999999995,-1.3199999999999985,-9.71,-0.009345275020678247,0.003218874539439056,0.013787338333709303,204.6875,-0.75,172.1875,0.06781006000000012,0.2136230500000002,-0.9745483399999988,-0.007690430000000011
164.0,0.11134521392585914,0.09374413489736066,-0.006652473870215806,-0.12999999999999995,-1.3199999999999985,-9.71,-0.0075741714602601705,-0.006816008252500187,0.013076934825926761,204.6875,-0.75,172.1875,0.06781006000000012,0.2136230500000002,-0.9745483399999988,-0.007690430000000011
165.0,0.11045052259568393,0.09540432551319644,-0.005231944131137679,-0.12999999999999995,-1.3199999999999985,-9.71,-0.0025463909410481994,0.010790196866305737,0.013470849546958418,204.6875,-0.75,172.1875,0.06781006000000012,0.2136230500000002,-0.9745483399999988,-0.007690430000000011
166.0,0.11111581697872025,0.09499632021204597,-0.005809219678171292,-0.12999999999999995,-1.3199999999999985,-9.71,-0.017810623096661406,0.025040137533837128,0.011667656520227086,204.6875,-0.75,172.1875,0.06781006000000012,0.2136230500000002,-0.9745483399999988,-0.007690430000000011
167.0,0.11173092901721937,0.09579529475900439,-0.006592751334686821,-0.12999999999999995,-1.3199999999999985,-9.71,-0.018853743702534027,0.006102726238814947,-0.002679830250394766,204.6875,-0.75,172.1875,0.06781006000000012,0.2136230500000002,-0.9745483399999988,-0.007690430000000011
168.0,0.11147340495525983,0.09402419824798855,-0.006517219339799986,-0.12999999999999995,-1.3199999999999985,-9.71,-0.014126003364914656,0.00368721919881194,0.002335643187457704,204.6875,-0.75,172.1875,0.06781006000000012,0.2136230500000002,-0.9745483399999988,-0.007690430000000011
169.0,0.11070493317166706,0.095105940766223,-0.006611493345364314,-0.12999999999999995,-1.3199999999999985,-9.71,-0.0014270046150086473,-0.005945979843409279,0.0014732956895255284,204.6875,-0.75,172.1875,0.06781006000000012,0.2136230500000002,-0.9745483399999988,-0.007690430000000011
170.0,0.11145484622903981,0.09525481239190917,-0.006842525753816078,-0.12999999999999995,-1.3199999999999985,-9.71,0.0012100298894653734,-0.012227423114519888,-0.008770278780359426,204.6875,-0.75,172.1875,0.06781006000000012,0.2136230500000002,-0.9745483399999988,-0.007690430000000011
171.0,0.11189119482667871,0.09461748063764192,-0.006334414241672307,-0.12999999999999995,-1.3199999999999985,-9.71,-0.014252305154522898,-0.016644108579592448,0.005881609989472894,204.6875,-0.75,172.1875,0.06781006000000012,0.2136230500000002,-0.9745483399999988,-0.007690430000000011
172.0,0.11139281148958569,0.09397785077825399,-0.004904743777727648,-0.12999999999999995,-1.3199999999999985,-9.71,0.01485270861530942,0.0009643582224227384,0.0037044902342281377,204.6875,-0.75,172.1875,0.06781006000000012,0.2136230500000002,-0.9745483399999988,-0.007690430000000011
173.0,0.11302259568388602,0.09320292644183772,-0.006101819215730508,-0.12999999999999995,-1.3199999999999985,-9.71,0.009047716816113993,-0.009324009324009324,-0.026131061898451012,204.6875,-0.75,172.1875,0.06781006000000012,0.2136230500000002,-0.9745483399999988,-0.007690430000000011
174.0,0.11330992931799384,0.09439662756598238,-0.006539805624483046,-0.12999999999999995,-1.3199999999999983,-9.71,0.0023955631062485896,-0.016140193811564778,-0.0057499036581697876,204.6875,-0.75,172.1875,0.06781006000000012,0.2136230500000002,-0.9745483399999988,-0.007690430000000011
175.0,0.11154010639897738,0.0947716275659824,-0.00735103673208512,-0.12999999999999995,-1.3199999999999983,-9.71,-0.006927829395067298,-0.0022508153808557035,-0.03585088047033611,204.6875,-0.75,172.1875,0.06781006000000012,0.2136230500000002,-0.9745483399999988,-0.007690430000000011
176.0,0.1124003261523423,0.09406819591698623,-0.008107280152643058,-0.12999999999999995,-1.3199999999999985,-9.71,-0.014397537526317769,-0.007763124812015941,-0.01477717720787277,204.6875,-0.75,172.1875,0.06781006000000012,0.2136230500000002,-0.9745483399999988,-0.007690430000000011
177.0,0.11306187495300402,0.09268246672682154,-0.006810925633506279,-0.12999999999999995,-1.3199999999999985,-9.71,-0.0010334423640875256,-0.017850320042860364,0.0038371071133167928,204.6875,-0.75,172.1875,0.06781006000000012,0.2136230500000002,-0.9745483399999988,-0.007690430000000011
178.0,0.11352213982254308,0.0944783113391984,-0.006781957290021809,-0.12999999999999995,-1.3199999999999985,-9.71,0.007377904353710805,-0.0026643509380404537,0.017181214283028802,204.6875,-0.75,172.1875,0.06781006000000012,0.2136230500000002,-0.9745483399999988,-0.007690430000000011
179.0,0.11170486267764496,0.09464873533724336,-0.006181789984209341,-0.12999999999999995,-1.3199999999999985,-9.71,-0.010362856229791714,0.023227941833032558,0.012897791892247538,204.6875,-0.75,172.1875,0.06781006000000012,0.2136230500000002,-0.9745483399999988,-0.007690430000000011
180.0,0.11116775697420861,0.09513465298142715,-0.005540491766298219,-0.12999999999999995,-1.3199999999999985,-9.71,-0.017637134371005336,0.020238363786750882,0.009443496691480563,204.6875,-0.75,172.1875,0.06781006000000012,0.2136230500000002,-0.9745483399999988,-0.007690430000000011
181.0,0.11124640950447404,0.0967211726445597,-0.005725580870742162,-0.12999999999999995,-1.3199999999999985,-9.71,-0.021861371155725996,0.01480280472215956,0.010072244623655913,204.6875,-0.75,172.1875,0.06781006000000012,0.2136230500000002,-0.9745483399999988,-0.007690430000000011
182.0,0.11223204752237012,0.09595893958192342,-0.005633374689826304,-0.12999999999999995,-1.3199999999999985,-9.71,-0.011640795360553426,0.03611690728626212,0.014114107498684112,204.6875,-0.75,172.1875,0.06781006000000012,0.2136230500000002,-0.9745483399999988,-0.007690430000000011
183.0,0.1116073388976615,0.09557996606887734,-0.004930831265508686,-0.12999999999999995,-1.3199999999999985,-9.71,-0.016490372866380932,0.019361183171667042,0.016036582285322204,204.6875,-0.75,172.1875,0.06781006000000012,0.2136230500000002,-0.9745483399999988,-0.007690430000000011
184.0,0.11167711858034442,0.096126250093992,-0.005868486352357321,-0.12999999999999995,-1.3199999999999985,-9.71,-0.023685051507632154,0.027286826077148656,0.016313256635837284,204.6875,-0.75,172.1875,0.06781006000000012,0.2136230500000002,-0.9745483399999988,-0.007690430000000011
185.0,0.11059057071960302,0.09511662531017367,-0.005315136476426799,-0.12999999999999995,-1.3199999999999985,-9.71,0.011383374689826304,0.037686104218362285,0.015043424317617867,204.6875,-0.75,172.1875,0.06781006000000012,0.2136230500000002,-0.9745483399999988,-0.007690430000000011
186.0,0.11003473945409434,0.09401488833746897,-0.006133995037220844,-0.12999999999999995,-1.3199999999999985,-9.71,0.0036290322580645167,0.011259305210918114,0.010825062034739454,204.6875,-0.75,172.1875,0.06781006000000012,0.2136230500000002,-0.9745483399999988,-0.007690430000000011
187.0,0.10973065644033389,0.09348958568313404,-0.005792916760658696,-0.12999999999999995,-1.3199999999999985,-9.71,0.006717610346642605,0.0003468305887660717,0.007072900218061508,204.6875,-0.75,172.1875,0.06781006000000012,0.2136230500000002,-0.9745483399999988,-0.007690430000000011
188.0,0.1096097450936161,0.09523362658846529,-0.004653282201669298,-0.12999999999999995,-1.3199999999999985,-9.71,-0.004255959094668772,0.02940728626212497,0.006219452590420333,204.6875,-0.75,172.1875,0.06781006000000012,0.2136230500000002,-0.9745483399999988,-0.007690430000000011
189.0,0.11042273855177084,0.09573591999398448,-0.004798105120685766,-0.12999999999999995,-1.3199999999999985,-9.71,0.0008884596586209493,0.023202402436273403,0.006878336717046394,204.6875,-0.75,172.1875,0.06781006000000012,0.2136230500000002,-0.9745483399999988,-0.007690430000000011
190.0,0.11045702684412363,0.09486547860741407,-0.005577712609970675,-0.12999999999999995,-1.3199999999999985,-9.71,-0.009698450071433943,-0.020424233025039477,0.006695992179863147,204.6875,-0.75,172.1875,0.06781006000000012,0.2136230500000002,-0.9745483399999988,-0.007690430000000011
191.0,0.11140897811865558,0.09527656214752986,-0.006118053989021731,-0.12999999999999995,-1.3199999999999985,-9.71,-0.0003728546319272134,-0.02561975994435672,0.008615779381908413,204.6875,-0.75,172.1875,0.06781006000000012,0.2136230500000002,-0.9745483399999988,-0.007690430000000011
192.0,0.10983837130611326,0.09497153921347468,-0.006623655913978495,-0.12999999999999995,-1.3199999999999985,-9.71,-0.008279611013986015,-0.012672416629069856,-0.010145264681555004,204.6875,-0.75,172.1875,0.06781006000000012,0.2136230500000002,-0.9745483399999988,-0.007690430000000011
193.0,0.1098459846605008,0.0957612038499135,-0.006722497932175352,-0.12999999999999995,-1.3199999999999985,-9.71,-0.00893198912982179,-0.008763317495676368,-0.003149555417700579,204.6875,-0.75,172.1875,0.06781006000000012,0.2136230500000002,-0.9745483399999988,-0.007690430000000011
194.0,0.11099765019926311,0.09708087074216104,-0.006877866756899016,-0.12999999999999995,-1.3199999999999985,-9.71,-0.00307847394540943,-0.008575245319196931,0.01736079780434619,204.6875,-0.75,172.1875,0.06781006000000012,0.2136230500000002,-0.9745483399999988,-0.007690430000000011
195.0,0.1108884032634033,0.09657269343559666,-0.006275161666290699,-0.12999999999999995,-1.3199999999999985,-9.71,0.0176139888337469,-0.005295687175727499,0.009068116023761185,204.6875,-0.75,172.1875,0.06781006000000012,0.2136230500000002,-0.9745483399999988,-0.007690430000000011
196.0,0.11196412436130182,0.09663678660049627,-0.006388988923263119,-0.12999999999999995,-1.3199999999999985,-9.71,0.002013105062500225,0.020882389619788815,-0.013555099694212596,204.6875,-0.75,172.1875,0.06781006000000012,0.2136230500000002,-0.9745483399999988,-0.007690430000000011
197.0,0.1094453300955317,0.09527718719452588,-0.0052699888597066025,-0.12999999999999995,-1.3199999999999985,-9.71,-0.00949799668297652,0.010441194809894408,-0.00974910785898689,204.6875,-0.75,172.1875,0.06781006000000012,0.2136230500000002,-0.9745483399999988,-0.007690430000000011
198.0,0.09979361140651463,0.09581720430107524,-0.004794467181563955,-0.12444770283479965,-1.3199999999999983,-9.71,-0.040270862649894906,-0.013304974595297177,-0.4008319861142442,204.48613147605084,-0.717741935483871,172.1875,0.06777235262952105,0.21185559514173996,-0.9749211146627564,-0.007876577878787884
199.0,0.09391440101117518,0.0984046920821114,-0.004787262916295174,-0.11713587487781044,-1.320547409579666,-9.71,0.026739568675052547,0.09610899852835336,-0.09446230293004489,204.27058895405668,-0.696236559139785,172.1875,0.06773631638318672,0.2100029419648094,-0.9753194229325519,-0.008071319149560116
200.0,0.09408375137407392,0.09767877284006313,-0.005319189770802674,-0.11324535679374399,-1.325434995112413,-9.71,0.0038474518313228005,0.06548626105077718,-0.05915733012507207,204.18872189638319,-0.6908602150537635,172.1875,0.06780468754643208,0.20941884372434033,-0.9754379124340188,-0.008164394574780055
201.0,0.09389397699075114,0.10111647492292652,-0.0048573576960673735,-0.11130009775171076,-1.3278787878787863,-9.71,-0.030126325287615607,-0.0007312579893225118,-0.04589207835175578,204.1477883675464,-0.6881720430107527,172.1875,0.06783887312805476,0.20912679460410577,-0.9754971571847522,-0.008210932287390024
202.0,0.09401932476126021,0.1000303782239266,-0.004940897811865554,-0.11032746823069416,-1.3291006842619733,-9.71,-0.024991070757199786,0.043133882246785465,0.010396458380329342,204.12732160312805,-0.6868279569892474,172.1875,0.06785596591886608,0.20898077004398852,-0.9755267795601189,-0.008234201143695007
203.0,0.09350612828032179,0.10015324460485749,-0.004940521843747651,-0.11001466275659835,-1.3297116324535665,-9.71,-0.01535077825400406,0.033065456049327015,0.0041704263478457015,204.1233809872923,-0.6871639784946237,172.1875,0.06786569066959924,0.2089629907282505,-0.9755299415395912,-0.00824001845063538
204.0,0.09447236634333406,0.09974434167982554,-0.004774193548387097,-0.11000000000000011,-1.3299999999999987,-9.71,-0.018074667268215654,0.029206143319046543,0.005703436348597638,204.125,-0.6875,172.1875,0.06787109000000002,0.20898438000000025,-0.9755249000000017,-0.008239749999999994
205.0,0.09398556282427245,0.09849251823445374,-0.0052307692307692315,-0.11000000000000011,-1.3299999999999987,-9.71,-0.02761673810060907,0.009593766448605157,0.01166065117678021,204.125,-0.6875,172.1875,0.06787109000000002,0.20898438000000025,-0.9755249000000017,-0.008239749999999994
206.0,0.09343198736747119,0.09615941048199111,-0.0037344913151364763,-0.11000000000000011,-1.3299999999999987,-9.71,-0.01577797202797203,0.0003613993533348363,0.0053650650424843975,204.125,-0.6875,172.1875,0.06787109000000002,0.20898438000000025,-0.9755249000000017,-0.008239749999999994
207.0,0.0938200992555831,0.097212158808933,-0.003318858560794045,-0.11000000000000011,-1.3299999999999987,-9.71,-0.016640818858560794,-0.02234801488833747,0.010212468982630273,204.125,-0.6875,172.1875,0.06787109000000002,0.20898438000000025,-0.9755249000000017,-0.008239749999999994
208.0,0.09389613880742911,0.09657036243326564,-0.003378656289946613,-0.11000000000000011,-1.3299999999999987,-9.71,-0.01699399390931649,-0.0012512688923979245,0.010412554515377096,204.125,-0.6875,172.1875,0.06787109000000002,0.20898438000000025,-0.9755249000000017,-0.008239749999999994
209.0,0.094913555530491,0.09798230130084967,-0.004117330250394768,-0.11000000000000011,-1.3299999999999987,-9.71,-0.026301907098278062,0.009142017256936611,0.012320533968719453,204.125,-0.6875,172.1875,0.06787109000000001,0.20898438000000025,-0.9755249000000017,-0.008239749999999994
210.0,0.09449647999849611,0.09992291243702531,-0.004224918226934357,-0.11000000000000011,-1.3299999999999987,-9.71,-0.011049526750131588,-0.006378122885179338,0.014969199986841115,204.125,-0.6875,172.1875,0.06787109000000002,0.20898438000000025,-0.9755249000000017,-0.008239749999999994
211.0,0.09394799186029021,0.10037336688848783,-0.004060349932325739,-0.11000000000000011,-1.3299999999999987,-9.71,-0.01783865915670351,-0.007981245065418453,0.015456064013271674,204.125,-0.6875,172.1875,0.06787109000000002,0.20898438000000025,-0.9755249000000017,-0.008239749999999994
212.0,0.09370458305135722,0.10013620384991351,-0.0051103466426047055,-0.11000000000000011,-1.3299999999999987,-9.71,0.006026945165050002,0.0015585053387472741,0.009415299082637791,204.125,-0.6875,172.1875,0.06787109000000001,0.20898438000000025,-0.9755249000000017,-0.008239749999999994
213.0,0.0951758496879464,0.09972841473043084,-0.005402191894127377,-0.11000000000000011,-1.3299999999999987,-9.71,0.001272270236483946,0.015075440352658093,0.013123460880517331,204.125,-0.6875,172.1875,0.06787109000000002,0.20898438000000025,-0.9755249000000017,-0.008239749999999994
214.0,0.09527177325362807,0.10011219593578463,-0.004687410707571997,-0.11000000000000011,-1.3299999999999987,-9.71,-0.006242906539025491,-0.0027085859369125505,0.004843791121512895,204.125,-0.6875,172.1875,0.06787109000000002,0.20898438000000025,-0.9755249000000017,-0.008239749999999994
215.0,0.09495249642830283,0.09939314046168882,-0.006084555229716519,-0.11000000000000011,-1.3299999999999987,-9.71,-0.01408682043762689,0.018843345834273252,-0.007787180897059929,204.125,-0.6875,172.1875,0.06787109000000002,0.20898438000000025,-0.9755249000000017,-0.008239749999999994
216.0,0.09453309459357842,0.09796621456500484,-0.0054826866681705385,-0.11000000000000011,-1.3299999999999987,-9.71,-0.006655693097225355,-0.017793719217610346,-0.00023166098014888378,204.125,-0.6875,172.1875,0.06787109000000002,0.20898438000000025,-0.9755249000000017,-0.008239749999999994
217.0,0.09422646909542068,0.09809845430107522,-0.004901656139559365,-0.11000000000000011,-1.3299999999999987,-9.71,-0.010842509305210917,0.00254314527878036,0.00788759081979848,204.125,-0.6875,172.1875,0.06787109000000002,0.20898438000000025,-0.9755249000000017,-0.008239749999999994
218.0,0.09286760282728021,0.0992182306940371,-0.003845928265283104,-0.11000000000000011,-1.3299999999999987,-9.71,-0.015133421685841041,0.012056240130836907,0.010518648018648019,204.125,-0.6875,172.1875,0.06787109000000001,0.20898438000000025,-0.9755249000000017,-0.008239749999999994
219.0,0.09301444657493041,0.09809298631476047,-0.004319986465147755,-0.11000000000000011,-1.3299999999999987,-9.71,-0.02172614012331754,0.007330849593954433,0.01423885254530416,204.125,-0.6875,172.1875,0.06787109000000002,0.20898438000000025,-0.9755249000000017,-0.008239749999999994
220.0,0.0932590843296488,0.09557254774795093,-0.0034701669298443484,-0.11000000000000011,-1.3299999999999987,-9.71,-0.025410216463643883,0.024385027774644706,0.016858880366944884,204.125,-0.6875,172.1875,0.06787109000000002,0.20898438000000025,-0.9755249000000017,-0.008239749999999994
221.0,0.09275462675765092,0.09736361051582823,-0.004118420557936687,-0.11000000000000011,-1.3299999999999987,-9.71,0.00913112005601925,0.020492010090044362,0.014758863448379577,204.125,-0.6875,172.1875,0.06787109000000002,0.20898438000000025,-0.9755249000000017,-0.008239749999999994
222.0,0.09272193397999845,0.09824031882096396,-0.006133318294608619,-0.11000000000000011,-1.3299999999999987,-9.71,0.00478607414091285,0.010861248966087676,0.010059966914805624,204.125,-0.6875,172.1875,0.06787109000000002,0.20898438000000025,-0.9755249000000017,-0.008239749999999994
223.0,0.09466907286262122,0.09736837356192193,-0.0068316414768027686,-0.11000000000000011,-1.3299999999999987,-9.71,-0.0007754342431761786,0.015004887585532747,0.00829009699977442,204.125,-0.6875,172.1875,0.06787109000000002,0.20898438000000025,-0.9755249000000017,-0.008239749999999994
224.0,0.09387051658019396,0.09690503045341753,-0.005165200391006842,-0.11000000000000011,-1.3299999999999987,-9.71,-0.010359801488833748,0.026329987217083992,-0.0006006090683510035,204.125,-0.6875,172.1875,0.06787109000000002,0.20898438000000025,-0.9755249000000017,-0.008239749999999994
225.0,0.09386329799233023,0.0976882472366343,-0.0060317317091510645,-0.11000000000000011,-1.3299999999999987,-9.71,-0.015632754342431762,-0.0023902173095721475,-0.0030763591247462215,204.125,-0.6875,172.1875,0.06787109000000002,0.20898438000000025,-0.9755249000000017,-0.008239749999999994
226.0,0.09356192194901868,0.0982237762237762,-0.005321076772689675,-0.11000000000000011,-1.3299999999999987,-9.71,-0.01792803970223325,-0.0039091285059026995,0.0027267087750958716,204.125,-0.6875,172.1875,0.06787109000000002,0.20898438000000025,-0.9755249000000017,-0.008239749999999994
227.0,0.09383374689826302,0.09823945409429276,-0.005353598014888338,-0.11000000000000011,-1.3299999999999987,-9.71,0.010189205955334988,-0.010553660049627791,0.008328163771712159,204.125,-0.6875,172.1875,0.06787109000000002,0.20898438000000025,-0.9755249000000017,-0.008239749999999994
228.0,0.09329848108880363,0.09854870666967441,-0.007406177156177159,-0.11000000000000011,-1.3299999999999987,-9.71,0.003736888111888112,-0.009008313595007143,0.00747683096473419,204.125,-0.6875,172.1875,0.06787109000000002,0.20898438000000025,-0.9755249000000017,-0.008239749999999994
229.0,0.09313187081735466,0.09675078013384464,-0.00912988758553275,-0.11000000000000011,-1.3299999999999987,-9.71,-0.009902647755470336,-0.004589454564252951,0.008918316226783969,204.125,-0.6875,172.1875,0.06787109000000002,0.20898438000000025,-0.9755249000000017,-0.008239749999999994
230.0,0.09267692119708247,0.09652585250770732,-0.0073492132867132905,-0.11000000000000011,-1.3299999999999987,-9.71,0.02129407051282051,-0.0174697404410106,0.012845596943379202,204.125,-0.6875,172.1875,0.06787109000000001,0.20898438000000025,-0.9755249000000017,-0.008239749999999994
231.0,0.09350967647943453,0.09629766570794793,-0.00661753468305888,-0.11000000000000011,-1.3299999999999987,-9.71,0.00597892111248966,-0.0280121655058651,0.01869016819873675,204.125,-0.6875,172.1875,0.06787109000000002,0.20898438000000025,-0.9755249000000017,-0.008239749999999994
232.0,0.09327740337619365,0.09690608316414764,-0.005046864425896686,-0.11000000000000011,-1.3299999999999987,-9.71,-0.014978804797353182,-0.02564898559102188,0.0026729570832393417,204.125,-0.6875,172.1875,0.06787109000000002,0.20898438000000025,-0.9755249000000017,-0.008239749999999994
233.0,0.09246571875704937,0.09934604105571845,-0.004595242123467931,-0.11000000000000011,-1.3299999999999987,-9.71,-0.0019845242123467917,-0.026613358499699223,0.0066886196800511315,204.125,-0.6875,172.1875,0.06787109000000002,0.20898438000000025,-0.9755249000000017,-0.008239749999999994
234.0,0.09407842694939467,0.09889345063538611,-0.004472291149710505,-0.11000000000000011,-1.3299999999999987,-9.71,-0.02163085570343635,-0.00501353485224453,-0.0021895443266411003,204.125,-0.6875,172.1875,0.06787109000000002,0.20898438000000025,-0.9755249000000017,-0.008239749999999994
235.0,0.09367005037972778,0.09934656741108353,-0.00484547710354162,-0.11000000000000011,-1.3299999999999987,-9.71,-0.017083991277539665,-0.017402624257462966,0.011548800661703888,204.125,-0.6875,172.1875,0.06787109000000002,0.20898438000000025,-0.9755249000000017,-0.008239749999999994
236.0,0.09321715918490112,0.09812241521918941,-0.003134897360703812,-0.11000000000000011,-1.3299999999999987,-9.71,-0.022499812015941048,-0.020193247612602452,0.010931038047973532,204.125,-0.6875,172.1875,0.06787109000000002,0.20898438000000025,-0.9755249000000017,-0.008239749999999994
237.0,0.09507801338446496,0.09863170163170161,-0.0037000150387247153,-0.11000000000000011,-1.3299999999999987,-9.71,-0.01315089480412061,-0.008746898263027297,0.0037120977141138437,204.125,-0.6875,172.1875,0.06787109000000002,0.20898438000000025,-0.9755249000000017,-0.008239749999999994
238.0,0.09473503646890741,0.09770046620046617,-0.003527426874201067,-0.11000000000000011,-1.3299999999999987,-9.71,-0.003768375441762538,-0.0024503722084367246,0.0001966195766598994,204.125,-0.6875,172.1875,0.06787109000000002,0.20898438000000025,-0.9755249000000017,-0.008239749999999994
239.0,0.09481804083013756,0.10070341755019174,-0.003278488984134145,-0.11000000000000011,-1.3299999999999987,-9.71,-0.02157481295586134,-0.0024773949169110457,0.007710489275509437,204.125,-0.6875,172.1875,0.06787109000000002,0.20898438000000025,-0.9755249000000017,-0.008239749999999994
240.0,0.09540676460636136,0.10051307429130008,-0.0034317100909842836,-0.11000000000000011,-1.3299999999999987,-9.71,-0.008661776731333183,0.010972277050906084,0.012249672790247386,204.125,-0.6875,172.1875,0.06787109000000002,0.20898438000000025,-0.9755249000000017,-0.008239749999999994
241.0,0.09664628919467627,0.0998377321603128,-0.0045059026994510865,-0.11000000000000011,-1.3299999999999987,-9.71,0.0014864839461613657,-0.007821076772689676,0.02403564177757726,204.125,-0.6875,172.1875,0.06787109000000001,0.20898438000000025,-0.9755249000000017,-0.008239749999999994
242.0,0.0965481615159034,0.09945710203774719,-0.007504624407850217,-0.11000000000000011,-1.3299999999999987,-9.71,0.005286111737724641,-0.03520659448078803,0.011086359876682456,204.125,-0.6875,172.1875,0.06787109000000002,0.20898438000000025,-0.9755249000000017,-0.008239749999999994
243.0,0.0963013760433115,0.09882532521242196,-0.007191518159260096,-0.11000000000000011,-1.3299999999999987,-9.71,0.0055276712534777055,-0.020131212873148358,-0.004832130235356043,204.125,-0.6875,172.1875,0.06787109000000002,0.20898438000000025,-0.9755249000000017,-0.008239749999999994
244.0,0.09651214377020825,0.0987299796977216,-0.006439581923452892,-0.11000000000000011,-1.3299999999999987,-9.71,0.007798518685615459,0.004139408978118656,-0.0016711782840815106,204.125,-0.6875,172.1875,0.06787109000000001,0.20898438000000025,-0.9755249000000017,-0.008239749999999994
245.0,0.09577992622046541,0.09897493134373248,-0.005857336372502478,-0.11000000000000013,-1.3299999999999987,-9.71,-0.0004950083218017744,0.004110453821575631,0.002741193367697941,204.125,-0.6875,172.1875,0.06787109000000001,0.20898438000000025,-0.9755249000000017,-0.008239749999999994
246.0,0.09689436193721217,0.10116962222499054,-0.005143421175197777,-0.11000000000000013,-1.3299999999999987,-9.71,-0.01182990697314241,0.005956836054332443,0.009242194172381944,204.125,-0.6875,172.1875,0.06787109000000002,0.20898438000000025,-0.9755249000000017,-0.008239749999999994
247.0,0.0960800105046614,0.10130351176667977,-0.00584631770091568,-0.11000000000000013,-1.3299999999999987,-9.71,0.01447332758719374,-0.016083635510693767,0.010517217095214207,204.125,-0.6875,172.1875,0.06787109000000001,0.20898438000000025,-0.9755249000000017,-0.008239749999999994
248.0,0.09528927211450078,0.10130714350646944,-0.004690810553593414,-0.11000000000000011,-1.3299999999999987,-9.71,0.0042110603647676345,0.0037659309475631085,0.009983117909213239,204.125,-0.6875,172.1875,0.06787109000000001,0.20898438000000025,-0.9755249000000017,-0.008239749999999994
249.0,0.09626911910108826,0.10210240249238803,-0.004240096606971908,-0.11000000000000011,-1.3299999999999987,-9.71,-0.012423992714074563,-0.01989992233733206,0.01389401402641653,204.125,-0.6875,172.1875,0.06787109000000002,0.20898438000000025,-0.9755249000000017,-0.008239749999999994
250.0,0.09686412512218961,0.10026919317241895,-0.0056883976238814955,-0.11000000000000011,-1.3299999999999987,-9.71,-0.011535641777577262,0.008833370930145128,0.011789420257162193,204.125,-0.6875,172.1875,0.06787109000000002,0.20898438000000025,-0.9755249000000017,-0.008239749999999994
251.0,0.09564907135874876,0.09961327919392433,-0.006760508308895406,-0.11000000000000011,-1.3299999999999987,-9.71,-0.020073877735168055,0.0057744003308519455,0.01491747499812016,204.125,-0.6875,172.1875,0.06787109000000001,0.20898438000000025,-0.9755249000000017,-0.008239749999999994
252.0,0.09489596008228648,0.09878320107111631,-0.004813410951109555,-0.11000000000000013,-1.3299999999999987,-9.71,-0.02608527125257987,0.009772449505237181,0.01401594413450456,204.125,-0.6875,172.1875,0.06787109000000001,0.20898438000000025,-0.9755249000000017,-0.008239749999999994
253.0,0.09455208561299072,0.0988075340643949,-0.004444828642710202,-0.11000000000000013,-1.3299999999999987,-9.71,-0.029584057913679962,0.0030075590634690307,0.007878573240272808,204.125,-0.6875,172.1875,0.06787109000000002,0.20898438000000025,-0.9755249000000017,-0.008239749999999994
254.0,0.09536567360580356,0.09959370612536234,-0.004819226111715279,-0.11000000000000013,-1.3299999999999987,-9.71,-0.007010898796677563,0.002659411534140711,0.010502750038438532,204.125,-0.6875,172.1875,0.06787109000000001,0.20898438000000025,-0.9755249000000017,-0.008239749999999994
255.0,0.09687764440262028,0.09935946185494812,-0.0050686997563502145,-0.11000000000000013,-1.3299999999999987,-9.71,-0.01055680860725697,0.0002589120927619965,0.01279970656249544,204.125,-0.6875,172.1875,0.06787109000000001,0.20898438000000025,-0.9755249000000017,-0.008239749999999994
256.0,0.09654168707836855,0.09874154008605737,-0.004871254908628525,-0.11000000000000013,-1.3299999999999987,-9.71,-0.014249473556955803,0.00951291532903383,0.011072432046568421,204.125,-0.6875,172.1875,0.06787109000000002,0.20898438000000025,-0.9755249000000017,-0.008239749999999994
257.0,0.09606199942229968,0.09932266071374458,-0.005881277615419408,-0.11000000000000013,-1.3299999999999987,-9.71,-0.004161883550819667,-0.010823752327705596,0.005325575676630383,204.125,-0.6875,172.1875,0.06787109000000002,0.20898438000000025,-0.9755249000000017,-0.008239749999999994
258.0,0.09585640599169723,0.09874055506361717,-0.006081370723643233,-0.11000000000000011,-1.3299999999999987,-9.71,-0.0044937098289288945,0.010764409118405266,0.004097561482010206,204.125,-0.6875,172.1875,0.06787109000000001,0.20898438000000025,-0.9755249000000017,-0.008239749999999994
259.0,0.09548685402224155,0.09717330783483887,-0.005381838832007345,-0.11000000000000011,-1.3299999999999987,-9.71,-0.009318580232157507,-0.003919481657806165,0.0067225344066942526,204.125,-0.6875,172.1875,0.06787109000000001,0.20898438000000025,-0.9755249000000017,-0.008239749999999994
260.0,0.09550206782464844,0.09828829235280845,-0.0034644710128581098,-0.11000000000000011,-1.3299999999999987,-9.71,-0.007366155350026318,-0.004388487856229792,0.009963155124445447,204.125,-0.6875,172.1875,0.06787109000000001,0.20898438000000025,-0.9755249000000017,-0.008239749999999994
261.0,0.09562343033310772,0.09893931874577033,-0.0036885480111286564,-0.11000000000000011,-1.3299999999999987,-9.71,-0.015118617941198585,0.00484246935859839,0.013624144672531768,204.125,-0.6875,172.1875,0.06787109000000001,0.20898438000000025,-0.9755249000000017,-0.008239749999999994
262.0,0.09526332806977963,0.09986916309496952,-0.003879013459658621,-0.11000000000000011,-1.3299999999999987,-9.71,-0.013592187382509963,-0.0020607752462591176,0.01872274231145199,204.125,-0.6875,172.1875,0.06787109000000002,0.20898438000000025,-0.9755249000000017,-0.008239749999999994
263.0,0.09436754643206252,0.09964628919467627,-0.0028715692909241294,-0.11000000000000011,-1.3299999999999987,-9.71,0.013642943078426948,0.0029320813595007144,0.00782671629445823,204.125,-0.6875,172.1875,0.06787109000000002,0.20898438000000025,-0.9755249000000017,-0.008239749999999994
264.0,0.09495094906698177,0.10019970753047307,-0.0032088474837632277,-0.11000000000000013,-1.3299999999999987,-9.71,0.010887012602226853,0.00031185012227381045,0.01483428503770343,204.125,-0.6875,172.1875,0.06787109000000001,0.20898438000000025,-0.9755249000000017,-0.008239749999999994
265.0,0.0951642105286785,0.09995082000329952,-0.002848013485471357,-0.11000000000000013,-1.3299999999999987,-9.71,0.003550036867321412,-0.0037379297399759604,0.01712886896444913,204.125,-0.6875,172.1875,0.06787109000000002,0.20898438000000025,-0.9755249000000017,-0.008239749999999994
266.0,0.09510958853375798,0.10045916817895631,-0.0034249842598422283,-0.11000000000000013,-1.3299999999999987,-9.71,0.0021415873486167174,-0.0011055146105699788,0.006304396133476537,204.125,-0.6875,172.1875,0.06787109000000002,0.20898438000000025,-0.9755249000000017,-0.008239749999999994
267.0,0.09536884043576385,0.10045178124715917,-0.0050863548263644556,-0.11000000000000011,-1.3299999999999987,-9.71,0.001745656445945324,0.005956190735921116,0.007667575162760527,204.125,-0.6875,172.1875,0.06787109000000002,0.20898438000000025,-0.9755249000000017,-0.008239749999999994
268.0,0.09552079889297027,0.0993756011281288,-0.00337113440242954,-0.11000000000000011,-1.3299999999999987,-9.71,0.0012144892501175601,0.008703619843485035,0.010722933381816386,204.125,-0.6875,172.1875,0.06787109000000001,0.20898438000000025,-0.9755249000000017,-0.008239749999999994
269.0,0.09481524926686216,0.09999578915707945,-0.004089330024813895,-0.11000000000000011,-1.3299999999999987,-9.71,-0.0044759004436423794,0.013826227535904956,0.008489360102263328,204.125,-0.6875,172.1875,0.06787109000000002,0.20898438000000025,-0.9755249000000017,-0.008239749999999994
270.0,0.09458861568538984,0.09914264230393259,-0.0029433792014437175,-0.11000000000000011,-1.3299999999999987,-9.71,-0.014394879314234152,-0.0017604707120836144,-0.0009530791788856302,204.125,-0.6875,172.1875,0.06787109000000001,0.20898438000000025,-0.9755249000000017,-0.008239749999999994
271.0,0.09460048168810803,0.09824685168787237,-0.0037181989892630246,-0.11000000000000013,-1.3299999999999987,-9.71,-0.0033457304611613707,0.015458511357042895,0.0019928133974835946,204.125,-0.6875,172.1875,0.06787109000000001,0.20898438000000025,-0.9755249000000017,-0.008239749999999994
272.0,0.09673587510226889,0.10006894806365195,-0.004371920007452025,-0.11000000000000013,-1.3299999999999987,-9.71,-0.004169528513534291,0.005049307938089836,-0.0016377199273203127,204.125,-0.6875,172.1875,0.06787109000000002,0.20898438000000025,-0.9755249000000017,-0.008239749999999994
273.0,0.09624916922268867,0.09904473796144474,-0.0041923138649185825,-0.11000000000000013,-1.3299999999999987,-9.71,-0.0030928287728961778,-0.01574269695959633,0.007276203574951769,204.125,-0.6875,172.1875,0.06787109000000001,0.20898438000000025,-0.9755249000000017,-0.008239749999999994
274.0,0.09469981583173684,0.09833942289455046,-0.0034268584889672995,-0.11000000000000011,-1.3299999999999987,-9.71,0.0015412237818352406,0.011384328638782179,0.019658573251495736,204.125,-0.6875,172.1875,0.06787109000000001,0.20898438000000025,-0.9755249000000017,-0.008239749999999994
275.0,0.09481998085368325,0.09824373956969043,-0.002478148396299576,-0.11000000000000011,-1.3299999999999987,-9.71,-0.0018252129831330603,0.013907537655732168,0.03578847528654943,204.125,-0.6875,172.1875,0.06787109000000002,0.20898438000000025,-0.9755249000000017,-0.008239749999999994
276.0,0.09280457177231367,0.09869358598390852,-0.0012450560192495675,-0.11000000000000011,-1.3299999999999987,-9.71,-0.00396552372358824,0.008397247913376945,0.01635273328821716,204.125,-0.6875,172.1875,0.06787109000000001,0.20898438000000025,-0.9755249000000017,-0.008239749999999994
277.0,0.09284893601022631,0.09931701631701631,-0.0026845627490788776,-0.11000000000000011,-1.3299999999999987,-9.71,-0.002897774268742011,0.00080222197157681,0.000313463418302129,204.125,-0.6875,172.1875,0.06787109000000002,0.20898438000000025,-0.9755249000000017,-0.008239749999999994
278.0,0.09464407378851286,0.09838069633784607,-0.004051973383701838,-0.11000000000000013,-1.3299999999999987,-9.71,0.00435922406914222,-0.007218643978393618,0.005674642521657447,204.125,-0.6875,172.1875,0.06787109000000001,0.20898438000000025,-0.9755249000000017,-0.008239749999999994
279.0,0.09385880657618738,0.09859176932840871,-0.0031730654195748077,-0.11000000000000013,-1.3299999999999987,-9.71,-0.011807811831885014,-0.009183049337117706,0.010273735652888277,204.125,-0.6875,172.1875,0.06787109000000002,0.20898438000000025,-0.9755249000000017,-0.008239749999999994
280.0,0.09388323440321508,0.09909105723357048,-0.003360350290056597,-0.11000000000000013,-1.3299999999999987,-9.71,-0.012164714999332235,-0.019502420224615697,0.008729243193013053,204.125,-0.6875,172.1875,0.06787109000000001,0.20898438000000025,-0.9755249000000017,-0.008239749999999994
281.0,0.09435119686925171,0.09846537221404819,-0.003789168302408553,-0.11000000000000011,-1.3299999999999987,-9.71,-0.012833335016772668,-0.005413477951995045,0.0053879598174253925,204.125,-0.6875,172.1875,0.06787109000000001,0.20898438000000025,-0.9755249000000017,-0.008239749999999994
282.0,0.09514334037010971,0.1000267307720365,-0.003098058096613706,-0.11000000000000011,-1.3299999999999987,-9.71,-0.0029117047292300064,0.018245494274622825,0.009890009685387634,204.125,-0.6875,172.1875,0.06787109000000002,0.20898438000000025,-0.9755249000000017,-0.008239749999999994
283.0,0.09543980750432363,0.09927227611098577,-0.004434017595307918,-0.11000000000000011,-1.3299999999999987,-9.71,-0.009945296638845025,0.008889766147830665,0.01453962703962704,204.125,-0.6875,172.1875,0.06787109000000001,0.20898438000000025,-0.9755249000000017,-0.008239749999999994
284.0,0.0956419279645086,0.09965598917211817,-0.0031182043762688918,-0.11000000000000011,-1.3299999999999987,-9.71,-0.001117095270321077,-0.0022426498232949836,0.017774362734040153,204.125,-0.6875,172.1875,0.06787109000000001,0.20898438000000025,-0.9755249000000017,-0.008239749999999994
285.0,0.09601300849687944,0.09880306789984206,-0.002535153019023987,-0.11000000000000011,-1.3299999999999987,-9.71,-0.01872227235130461,-0.012077505827505828,0.005772050530115045,204.125,-0.6875,172.1875,0.06787109000000002,0.20898438000000025,-0.9755249000000017,-0.008239749999999994
286.0,0.09736623054364986,0.10008090833897282,-0.002491916685465073,-0.11000000000000011,-1.3299999999999987,-9.71,-0.02225214301827205,0.003400396646364388,0.01394418753289721,204.125,-0.6875,172.1875,0.06787109000000002,0.20898438000000025,-0.9755249000000017,-0.008239749999999994
287.0,0.09648227310324081,0.0982952101661779,-0.0025356793743890518,-0.11000000000000011,-1.3299999999999987,-9.71,-0.007813322430257914,-0.016057715805699674,-0.003020198887134371,204.125,-0.6875,172.1875,0.06787109000000001,0.20898438000000025,-0.9755249000000017,-0.008239749999999994
288.0,0.09604172306188433,0.10003225806451613,-0.0030518084066471166,-0.11000000000000011,-1.3299999999999987,-9.71,0.01394829968418678,-0.005081032878411909,0.007959597526129784,204.125,-0.6875,172.1875,0.06787109000000001,0.20898438000000025,-0.9755249000000017,-0.008239749999999994
289.0,0.0948634812767877,0.09993548387096772,-0.0027062561094819155,-0.11000000000000011,-1.3299999999999987,-9.71,0.010899491973080683,-0.007367007152793443,0.010700228870591773,204.125,-0.6875,172.1875,0.06787109000000002,0.20898438000000025,-0.9755249000000017,-0.008239749999999994
290.0,0.09491064882697944,0.09992179863147603,-0.0033541055718475073,-0.11000000000000011,-1.3299999999999987,-9.71,-0.0047291208455522964,-0.0038155623778103613,0.012285786290322582,204.125,-0.6875,172.1875,0.06787109000000001,0.20898438000000025,-0.9755249000000017,-0.008239749999999994
291.0,0.0949370629370629,0.09851145762839308,-0.003224819535303406,-0.11000000000000011,-1.3299999999999987,-9.71,-0.004932701706895255,0.0032520067298293107,0.01671448511166253,204.125,-0.6875,172.1875,0.06787109000000002,0.20898438000000025,-0.9755249000000017,-0.008239749999999994
292.0,0.09531607639672152,0.09970651458756294,-0.00538227968268291,-0.11000000000000011,-1.3299999999999987,-9.71,0.003878346116249342,0.0016643051169260847,0.015114329554853749,204.125,-0.6875,172.1875,0.06787109000000002,0.20898438000000025,-0.9755249000000017,-0.008239749999999994
293.0,0.09637903225806446,0.0996675666403489,-0.007555565738025418,-0.11000000000000011,-1.3299999999999987,-9.71,-0.005062293217535153,-0.017125494633055117,0.01320702566922325,204.125,-0.6875,172.1875,0.06787109000000002,0.20898438000000025,-0.9755249000000017,-0.008239749999999994
294.0,0.09662282878411907,0.09975689901496351,-0.005169260846680203,-0.11000000000000011,-1.3299999999999987,-9.71,-0.011093879239040531,-0.02478240845176329,0.0014202195653808553,204.125,-0.6875,172.1875,0.06787109000000002,0.20898438000000025,-0.9755249000000017,-0.008239749999999994
295.0,0.0961687344913151,0.10003970223325058,-0.0029181141439205962,-0.11000000000000011,-1.3299999999999987,-9.71,-0.008188585607940446,-0.024286600496277913,-0.0024813895781637717,204.125,-0.6875,172.1875,0.06787109000000002,0.20898438000000025,-0.9755249000000017,-0.008239749999999994
296.0,0.09633746898263024,0.09966749379652604,-0.004982630272952855,-0.11000000000000011,-1.3299999999999987,-9.71,-0.008964019851116625,-0.010825062034739454,-0.0005893300248138958,204.125,-0.6875,172.1875,0.06787109000000002,0.20898438000000025,-0.9755249000000017,-0.008239749999999994
297.0,0.09479735318444993,0.09880472215956085,-0.0033888262275359056,-0.11000000000000011,-1.3299999999999987,-9.71,0.006557823896533574,0.00779945860591022,0.011233927362959622,204.125,-0.6875,172.1875,0.06787109000000002,0.20898438000000025,-0.9755249000000017,-0.008239749999999994
298.0,0.09458229942100907,0.10083660425595908,-0.003208060756447853,-0.1118263027295286,-1.3299999999999987,-9.71,0.003976802767125347,-0.003978682607714866,0.10816038799909766,204.14485111662532,-0.6875,172.1875,0.06787109000000002,0.20913849692307712,-0.9754909749975194,-0.00823247972704714
299.0,0.09416708023159631,0.10192946838108129,-0.003941499360854199,-0.11607444168734499,-1.3299999999999987,-9.71,0.0002669373637115575,-0.02132867132867133,-0.007799458605910227,204.19944168734492,-0.6875,172.1875,0.06787109000000002,0.2096284733002482,-0.9753819297568235,-0.008204610347394534
300.0,0.0934210090984284,0.10294488307391532,-0.004022858861568539,-0.11819851116625318,-1.3299999999999987,-9.71,-0.002751146702759606,-0.03907624633431085,0.009096548612677639,204.2267369727047,-0.6875,172.1875,0.06787109000000002,0.20987346148883376,-0.9753274071364755,-0.00819067565756823
301.0,0.09275323959194923,0.10271372713308198,-0.003046720304784821,-0.11926054590570728,-1.3299999999999987,-9.71,0.0069720378188120125,-0.009343993819800271,-0.028764873119711834,204.24038461538464,-0.6875,172.1875,0.06787109000000002,0.20999595558312656,-0.9753001458263015,-0.008183708312655079
302.0,0.09481665288116897,0.10107101500649886,-0.003159084642955611,-0.11979156327543433,-1.3299999999999987,-9.71,0.0016458899523415652,-0.0055806648548584045,-0.007801114655953368,204.24720843672458,-0.6875,172.1875,0.06787109000000002,0.21005720263027294,-0.9752865151712146,-0.008180224640198502
303.0,0.0946390956713537,0.10120548268935364,-0.0039095671353735865,-0.1200000000000001,-1.3299999999999987,-9.71,0.008251605025798574,-0.006000630194178581,-0.0051257434321950466,204.25,-0.6875,172.1875,0.06787109000000002,0.21008300999999996,-0.9752807599999986,-0.008178709999999992
304.0,0.0935478356768679,0.10120075623301428,-0.0045416322029225254,-0.1200000000000001,-1.3299999999999987,-9.71,0.02787735338138564,-0.013468677379967703,0.008448294537004214,204.25,-0.6875,172.1875,0.06787109000000002,0.21008300999999996,-0.9752807599999986,-0.008178709999999992
305.0,0.09342280121312377,0.10053834337705303,-0.004625654811138682,-0.1200000000000001,-1.3299999999999987,-9.71,0.027640599767615896,0.008782100515971482,0.012389469849147267,204.25,-0.6875,172.1875,0.06787109000000002,0.21008300999999996,-0.9752807599999986,-0.008178709999999992
306.0,0.09413709677419352,0.09872208436724564,-0.0020387717121588093,-0.1200000000000001,-1.3299999999999987,-9.71,0.0006610576923076917,-0.006847084367245658,0.01914547146401985,204.25,-0.6875,172.1875,0.06787109000000002,0.21008300999999996,-0.9752807599999986,-0.008178709999999992
307.0,0.09300775434243172,0.09953225806451611,-0.002902760545905707,-0.1200000000000001,-1.3299999999999987,-9.71,-0.005671332196029776,0.009696805210918112,0.01389190446650124,204.25,-0.6875,172.1875,0.06787109000000002,0.21008300999999996,-0.9752807599999986,-0.008178709999999992
308.0,0.09085844017094014,0.09957994603962345,-0.0028515929634881244,-0.1200000000000001,-1.3299999999999987,-9.71,-0.011772853462621607,0.02031794650242231,0.013028310734963959,204.25,-0.6875,172.1875,0.06787109000000002,0.21008300999999996,-0.9752807599999986,-0.008178709999999992
309.0,0.09300924489936582,0.09881695813147423,-0.0029307204891882307,-0.1200000000000001,-1.3299999999999987,-9.71,-0.018537394085529166,0.012490607091161525,0.010200860547382725,204.25,-0.6875,172.1875,0.06787109000000002,0.21008300999999996,-0.9752807599999986,-0.008178709999999992
310.0,0.09224574372759853,0.09948788353223834,-0.0030572492024104917,-0.1200000000000001,-1.3299999999999987,-9.71,-0.013167919669935798,0.009262469721139074,0.004832663136594588,204.25,-0.6875,172.1875,0.06787109000000002,0.21008300999999996,-0.9752807599999986,-0.008178709999999992
311.0,0.09169111007719877,0.09987173332939461,-0.0058102623183268354,-0.1200000000000001,-1.3299999999999987,-9.71,-0.014245250157548545,-0.00460418697565875,-0.005012328481330498,204.25,-0.6875,172.1875,0.06787109000000002,0.21008300999999996,-0.9752807599999986,-0.008178709999999992
312.0,0.09250634132892194,0.09847921343889085,-0.006473679546260191,-0.1200000000000001,-1.3299999999999987,-9.71,-0.011469903304580724,0.0023287028831383665,-0.000127762022923313,204.25,-0.6875,172.1875,0.06787109000000002,0.21008300999999996,-0.9752807599999986,-0.008178709999999992
313.0,0.09167431761786599,0.09868021091811413,-0.005368176178660051,-0.1200000000000001,-1.3299999999999987,-9.71,-0.0019347084367245652,0.0107649658808933,0.0022642679900744416,204.25,-0.6875,172.1875,0.06787109000000002,0.21008300999999996,-0.9752807599999986,-0.008178709999999992
314.0,0.09361383374689823,0.09786119727047143,-0.006207661290322582,-0.1200000000000001,-1.3299999999999987,-9.71,-0.011513259925558312,-0.004108832196029777,-0.0059398263027295286,204.25,-0.6875,172.1875,0.06787109000000002,0.21008300999999996,-0.9752807599999986,-0.008178709999999992
315.0,0.09374830881484103,0.09761731335420848,-0.006164880706211352,-0.1200000000000001,-1.3299999999999987,-9.71,-0.00974433132951278,0.005005481889302452,-0.009114306392532199,204.25,-0.6875,172.1875,0.06787109000000002,0.21008300999999996,-0.9752807599999986,-0.008178709999999992
316.0,0.09318341638200504,0.0997445529381013,-0.004982107386341257,-0.1200000000000001,-1.3299999999999987,-9.71,-0.011462769281569685,-0.00843943662744066,0.003972256322306725,204.25,-0.6875,172.1875,0.06787109000000002,0.21008300999999996,-0.9752807599999986,-0.008178709999999992
317.0,0.0936355589974541,0.09967570388840549,-0.005280872241557725,-0.1200000000000001,-1.3299999999999987,-9.71,-0.012646077181107423,0.005199384508860315,0.017532373120830783,204.25,-0.6875,172.1875,0.06787109000000002,0.21008300999999996,-0.9752807599999986,-0.008178709999999992
318.0,0.093313863555799,0.09969668414023253,-0.0051927391604810955,-0.1200000000000001,-1.3299999999999987,-9.71,-0.007922129393903587,0.008736284996365641,-0.0002455709612967684,204.25,-0.6875,172.1875,0.06787109000000002,0.21008300999999996,-0.9752807599999986,-0.008178709999999992
319.0,0.09230492894202569,0.09964971274245467,-0.005024389588905718,-0.1200000000000001,-1.3299999999999987,-9.71,-0.01898085673287286,-0.006601913431550527,0.008286860428997525,204.25,-0.6875,172.1875,0.06787109000000002,0.21008300999999996,-0.9752807599999986,-0.008178709999999992
320.0,0.09204387413661605,0.09899236986132146,-0.004400020230665392,-0.1200000000000001,-1.3299999999999987,-9.71,-0.01879170057093444,0.008881976838126034,0.006816832081449017,204.25,-0.6875,172.1875,0.06787109000000002,0.21008300999999996,-0.9752807599999986,-0.008178709999999992
321.0,0.09185384172279332,0.09835519688644688,-0.004439201031942968,-0.1200000000000001,-1.3299999999999987,-9.71,-0.016129909237268106,0.009755062785556738,0.013570599287585175,204.25,-0.6875,172.1875,0.06787109000000002,0.21008300999999996,-0.9752807599999986,-0.008178709999999992
322.0,0.09176257434321947,0.09836590649493873,-0.005733585411004768,-0.1200000000000001,-1.3299999999999987,-9.71,0.003420280436409467,0.006114360549844421,0.006297018393792588,204.25,-0.6875,172.1875,0.06787109000000002,0.21008300999999996,-0.9752807599999986,-0.008178709999999992
323.0,0.09226342116664693,0.09894970262712197,-0.004293591712946553,-0.1200000000000001,-1.3299999999999987,-9.71,-0.0101540037023908,-0.0001221001221001221,0.011368112174563787,204.25,-0.6875,172.1875,0.06787109000000002,0.21008300999999996,-0.9752807599999986,-0.008178709999999992
324.0,0.09282909921619595,0.09838771264577716,-0.005195485518066164,-0.1200000000000001,-1.3299999999999987,-9.71,-0.0036194540226798296,0.005667316554413328,-0.005324648469809759,204.25,-0.6875,172.1875,0.06787109000000002,0.21008300999999996,-0.9752807599999986,-0.008178709999999992
325.0,0.09461057938477291,0.09841469999534516,-0.0056808693099015695,-0.1200000000000001,-1.3299999999999987,-9.71,0.01158977671074445,0.0009338443814250262,0.004820616211745244,204.25,-0.6875,172.1875,0.06787109000000002,0.21008300999999996,-0.9752807599999986,-0.008178709999999992
326.0,0.09332638150380082,0.09924208945176688,-0.004542667905571132,-0.1200000000000001,-1.3299999999999987,-9.71,0.020628945427332523,-0.021865584012761435,0.007628980562448305,204.25,-0.6875,172.1875,0.06787109000000002,0.21008300999999996,-0.9752807599999986,-0.008178709999999992
327.0,0.09362014061207607,0.09750272576885477,-0.0039849894728926985,-0.1200000000000001,-1.3299999999999987,-9.71,-0.005422165200391009,-0.01147707299421009,0.013740048593879239,204.25,-0.6875,172.1875,0.06787109000000002,0.21008300999999996,-0.9752807599999986,-0.008178709999999992
328.0,0.09486217948717944,0.09907642491916685,-0.003930459996992255,-0.1200000000000001,-1.3299999999999987,-9.71,-0.012264432476126026,-0.009119429797353185,0.018036277398676595,204.25,-0.6875,172.1875,0.06787109000000002,0.21008300999999996,-0.9752807599999986,-0.008178709999999992
329.0,0.09463539081885852,0.09892726426799003,-0.003480381513647642,-0.1200000000000001,-1.3299999999999987,-9.71,-0.022291795905707196,0.0018246937034739445,0.017922708591811415,204.25,-0.6875,172.1875,0.06787109000000002,0.21008300999999996,-0.9752807599999986,-0.008178709999999992
330.0,0.09706056141439202,0.10107692307692306,-0.005532723325062036,-0.1200000000000001,-1.3299999999999987,-9.71,-0.014036813740694789,0.000959599875930521,-0.00665952620967742,204.25,-0.6875,172.1875,0.06787109000000002,0.21008300999999996,-0.9752807599999986,-0.008178709999999992
331.0,0.08956877523054702,0.09622454723899115,-0.00455973852820266,-0.11260471834376502,-1.3217573423206541,-9.71,-0.04647374171326987,-0.03541839306877523,0.01142234894077997,204.25,-0.6494643716899373,172.21686928261914,0.06745968462686569,0.21005714816080873,-0.975316964679826,-0.008437309056331242
332.0,0.07693823376911967,0.0818219510388504,-0.0035726732343246553,-0.09843635420910335,-1.305868745602015,-9.71,0.013968464130958112,-0.026130412415280913,0.2197930603264694,204.26736972704714,-0.5717079922965815,172.2964774452798,0.06661079912484721,0.21014762222680639,-0.9753545983200617,-0.008951620446279767
333.0,0.07218954699208671,0.07252372835798448,-0.0007858854554208431,-0.09686236087776764,-1.2972892115106855,-9.71,0.05959157096314053,-0.003670232901376828,0.20924657527940885,204.5240807579517,-0.5650878671160326,172.3387629161883,0.06619994632195435,0.21222404182210308,-0.9749320196487892,-0.009077312007108602
334.0,0.0682773859105106,0.06618427375865989,-0.0026103791890984955,-0.09302551083966579,-1.2929994444650208,-9.71,0.04887264276407271,-0.029899117092184013,-0.03689570139377554,204.5556620798556,-0.5617778045257582,172.35990565164252,0.06596827045814235,0.21255106905865676,-0.9748768099221471,-0.009192659527503477
335.0,0.06584216690066472,0.06271992844260536,0.00010672107542593844,-0.09102888445209092,-1.2908545609421882,-9.71,0.01443321964506365,0.002691570486166056,0.000178079824204036,204.56412136250844,-0.5601227732306211,172.37047701936967,0.06584861442261955,0.2126716253357801,-0.9748582739933325,-0.00925271960246142
336.0,0.06613318670576734,0.061087826152342276,0.0005081585081585082,-0.09026167381006084,-1.2900397022332515,-9.71,0.025805041732461086,0.0039780951575306405,0.004585401157981799,204.5683510038349,-0.5604838709677419,172.37484491315138,0.06580164282276858,0.2127327116568165,-0.9748478746326806,-0.009274668419430043
337.0,0.06599959583427323,0.0602511091059478,-0.00176825325212422,-0.09020527859237529,-1.290000000000001,-9.71,0.006295821114369501,-0.01759842140386495,-0.01284377584780811,204.56992302052785,-0.5625,172.375,0.06579825648582596,0.2127600234115349,-0.9748420645992196,-0.009273611207233638
338.0,0.06477109651101585,0.059578257763741635,-0.00305737273479209,-0.09000488758553268,-1.290000000000001,-9.71,-0.00990076791488082,-0.011074522755470335,-0.005071222460335366,204.56295821114367,-0.5625,172.375,0.06579613863147601,0.2127102048338223,-0.974852953191595,-0.00927719085532748
339.0,0.0649613058312655,0.05969137717121588,-0.002586848635235732,-0.08999999999999991,-1.290000000000001,-9.71,-0.022163849255583127,-0.012227144075682383,0.0038946184863523567,204.5625,-0.5625,172.375,0.06579589999999996,0.2127075200000002,-0.9748535200000017,-0.009277340000000012
340.0,0.06584842845326716,0.058506184675539516,-0.002115760583502519,-0.08999999999999991,-1.290000000000001,-9.71,-0.013699455786149336,-0.013018718512670125,0.007245375592149786,204.5625,-0.5625,172.375,0.06579589999999996,0.2127075200000002,-0.9748535200000017,-0.009277340000000012
341.0,0.06563513234077749,0.059165003007744923,-0.0026831904654485298,-0.08999999999999991,-1.290000000000001,-9.71,-0.0008401125084592839,-0.01764459498834499,0.004475665463568689,204.5625,-0.5625,172.375,0.06579589999999996,0.2127075200000002,-0.9748535200000017,-0.009277340000000012
342.0,0.06629647435897434,0.05847580175201142,-0.0016741014361982103,-0.08999999999999991,-1.290000000000001,-9.71,-0.0037234061301601624,-0.030038178387472744,-0.011394301263252877,204.5625,-0.5625,172.375,0.06579589999999996,0.2127075200000002,-0.9748535200000017,-0.009277340000000012
343.0,0.06586784015715468,0.05829993561545979,-0.0021993335965110163,-0.08999999999999991,-1.290000000000001,-9.71,0.01090194457759982,-0.023890056935671852,-0.019236232517482518,204.5625,-0.5625,172.375,0.06579589999999996,0.2127075200000002,-0.9748535200000017,-0.009277340000000012
344.0,0.06559269023986766,0.05963635893676215,-0.0034837393789006695,-0.08999999999999991,-1.290000000000001,-9.71,0.002946562006541846,0.012484785040228588,-0.013209346097450936,204.5625,-0.5625,172.375,0.06579589999999996,0.2127075200000002,-0.9748535200000017,-0.009277340000000012
345.0,0.06472205381983608,0.05970332120836151,-0.0017174317617866005,-0.08999999999999991,-1.290000000000001,-9.71,-0.010654040599857131,-0.015553184214978567,-0.00385540618655538,204.5625,-0.5625,172.375,0.06579589999999996,0.2127075200000002,-0.9748535200000017,-0.009277340000000012
346.0,0.06587008421685839,0.05883756297465974,-0.002137735919993985,-0.08999999999999991,-1.290000000000001,-9.71,-0.009441851830964734,-0.028935446274155948,-0.0009816880028573577,204.5625,-0.5625,172.375,0.06579589999999996,0.2127075200000002,-0.9748535200000017,-0.009277340000000012
347.0,0.06790402473870213,0.05751803707045641,0.00023386156853898773,-0.08999999999999991,-1.290000000000001,-9.71,-0.009148655444018347,0.0018396589969170637,0.004983721755395142,204.5625,-0.5625,172.375,0.06579589999999996,0.2127075200000002,-0.9748535200000017,-0.009277340000000012
348.0,0.06815300492518232,0.05870939074366492,-0.0013470890668471317,-0.08999999999999991,-1.290000000000001,-9.71,-0.012406213578088578,0.0026878195729002187,0.004399429115910971,204.5625,-0.5625,172.375,0.06579589999999996,0.2127075200000002,-0.9748535200000017,-0.009277340000000012
349.0,0.0675098785622979,0.056993533348372045,-0.0008325438002857359,-0.08999999999999991,-1.290000000000001,-9.71,0.011486707177231369,0.004009171272276111,0.008175074253703285,204.5625,-0.5625,172.375,0.06579589999999996,0.2127075200000002,-0.9748535200000017,-0.009277340000000012
350.0,0.067132260884277,0.05771964057447927,-0.000807278742762614,-0.08999999999999991,-1.290000000000001,-9.71,-0.007071284730054892,-0.011482095693285208,0.014259824516880968,204.5625,-0.5625,172.375,0.06579589999999996,0.2127075200000002,-0.9748535200000017,-0.009277340000000012
351.0,0.06655049016843373,0.05857397172719753,0.00178182570118054,-0.08999999999999991,-1.290000000000001,-9.71,-0.011353899376832845,0.00039005223607038123,0.014543533583352131,204.5625,-0.5625,172.375,0.06579589999999996,0.2127075200000002,-0.9748535200000017,-0.009277340000000012
352.0,0.06796014737950222,0.059744492067072705,0.0025180840664711635,-0.08999999999999991,-1.290000000000001,-9.71,-0.015460748928490864,0.0006993006993006993,0.014062147529889466,204.5625,-0.5625,172.375,0.06579589999999996,0.2127075200000002,-0.9748535200000017,-0.009277340000000012
353.0,0.06705233476201217,0.058545304158207384,0.0002113692758854051,-0.08999999999999991,-1.290000000000001,-9.71,-0.0030989172118204384,0.005190709827806602,0.014804684562749078,204.5625,-0.5625,172.375,0.06579589999999996,0.2127075200000002,-0.9748535200000017,-0.009277340000000012
354.0,0.0661953530340627,0.059187156929092405,0.0006688472817505078,-0.08999999999999991,-1.290000000000001,-9.71,0.00038207759981953495,-0.007933397247913377,-0.0007213888262275359,204.5625,-0.5625,172.375,0.06579589999999996,0.2127075200000002,-0.9748535200000017,-0.009277340000000012
355.0,0.06751620422588162,0.05969742085871118,-0.0003679975938040456,-0.08999999999999991,-1.290000000000001,-9.71,0.011521542973155876,-0.007493984510113543,-0.003659109707496804,204.5625,-0.5625,172.375,0.06579589999999996,0.2127075200000002,-0.9748535200000017,-0.009277340000000012
356.0,0.06842559590946685,0.05747650199263102,0.0007812617490036843,-0.08999999999999991,-1.290000000000001,-9.71,0.006008910444394316,0.028836754643206255,-0.0005733513798029926,204.5625,-0.5625,172.375,0.06579589999999996,0.2127075200000002,-0.9748535200000017,-0.009277340000000012
357.0,0.06656387698323181,0.05911685089104443,-0.0007562974659748855,-0.08999999999999991,-1.290000000000001,-9.71,0.006735938792390405,0.010966050078953304,0.012203925107150912,204.5625,-0.5625,172.375,0.06579589999999996,0.2127075200000002,-0.9748535200000017,-0.009277340000000012
358.0,0.06675494398075044,0.060632227987066675,0.000847131363260395,-0.08999999999999991,-1.290000000000001,-9.71,0.014148620197007293,-0.007572937814873299,-0.008038198360779007,204.5625,-0.5625,172.375,0.06579589999999996,0.2127075200000002,-0.9748535200000017,-0.009277340000000012
359.0,0.0676578690127077,0.05881239190916608,0.001597262952101661,-0.08999999999999991,-1.290000000000001,-9.71,0.0020339875178584854,-0.0004831190315061286,-0.016674186029024738,204.5625,-0.5625,172.375,0.06579589999999996,0.21265226894292827,-0.9748714504019862,-0.009277340000000012
360.0,0.06670486502744566,0.05725979396947138,0.0012973907812617487,-0.08999999999999991,-1.290000000000001,-9.71,0.0021646364388299873,0.003852733288217159,-0.0037775396646364387,204.5625,-0.5625,172.375,0.06579589999999996,0.21258538608436744,-0.9748939845558322,-0.009277340000000012
361.0,0.06677675013158882,0.05830731633957439,0.0018869087901345963,-0.08999999999999991,-1.290000000000001,-9.71,-0.005865572599443567,0.0018953492743815324,4.98157756222274e-05,204.5625,-0.5625,172.375,0.06579589999999996,0.21255194465508703,-0.9749052516327552,-0.009277340000000012
362.0,0.06664516129032255,0.05787096774193547,0.0011364764267990074,-0.08999999999999991,-1.290000000000001,-9.71,-0.013957816377171216,-0.02078163771712159,0.004094292803970223,204.5625,-0.5625,172.375,0.06579589999999996,0.21253522394044683,-0.9749108851712167,-0.009277340000000012
363.0,0.06591066997518608,0.05882382133995036,0.0010868486352357317,-0.08999999999999991,-1.290000000000001,-9.71,-0.0038461538461538464,-0.006017369727047146,0.012903225806451615,204.5625,-0.5625,172.375,0.06579589999999996,0.21252686358312672,-0.9749137019404475,-0.009277340000000012
364.0,0.06641612151289567,0.059302654334912386,0.0016010226332806975,-0.08999999999999991,-1.290000000000001,-9.71,-0.013986953906308745,0.009605985412437025,0.006366080156402738,204.5625,-0.5625,172.375,0.06579589999999996,0.2125244100000002,-0.9749145500000007,-0.009277340000000012
365.0,0.06658150988796148,0.05842800210542144,0.0013501391082036242,-0.08999999999999991,-1.290000000000001,-9.71,-0.004015809459357846,0.023832149033761935,0.0075797522370103015,204.5625,-0.5625,172.375,0.06579589999999996,0.2125244100000002,-0.9749145500000008,-0.009277340000000012
366.0,0.06595824874050679,0.059147003534100295,-0.00039689074366493714,-0.08999999999999991,-1.290000000000001,-9.71,-0.0012945052259568388,-0.008462337393789005,0.013653399691706144,204.5625,-0.5625,172.375,0.06579589999999996,0.2125244100000002,-0.9749145500000008,-0.009277340000000012
367.0,0.06741058538235956,0.05851838484096547,0.0005786055342506956,-0.08999999999999991,-1.290000000000001,-9.71,-0.013502542484397324,-0.0030600280096247834,-0.00015549806376419315,204.5625,-0.5625,172.375,0.06579589999999996,0.2125244100000002,-0.9749145500000007,-0.009277340000000012
368.0,0.06757253834874802,0.058939093164899606,0.0005945136852394915,-0.08999999999999991,-1.290000000000001,-9.71,-0.013412251391082035,0.027075755225956837,0.00010060084404842464,204.5625,-0.5625,172.375,0.06579589999999996,0.2125244100000002,-0.9749145500000008,-0.009277340000000012
369.0,0.06708824676667417,0.058998007368975106,2.4830344386795846e-05,-0.08999999999999991,-1.290000000000001,-9.71,-0.003346615581998646,-0.003236409927438153,0.008006020776938115,204.5625,-0.5625,172.375,0.06579589999999996,0.2125244100000002,-0.9749145500000008,-0.009277340000000012
370.0,0.06664201255733512,0.05891371531694111,-5.225956838860401e-06,-0.08999999999999991,-1.290000000000001,-9.71,-0.015453053331077524,0.003648359369125498,0.006305044082261824,204.5625,-0.5625,172.375,0.06579589999999996,0.2125244100000002,-0.9749145500000007,-0.009277340000000012
371.0,0.06645996409504473,0.05881417775772614,0.0008360966989999245,-0.08999999999999991,-1.290000000000001,-9.71,0.0023386098108880366,0.0009479389897736673,0.007882670924505602,204.5625,-0.5625,172.375,0.06579589999999996,0.2125244100000002,-0.9749145500000008,-0.009277340000000012
372.0,0.06737608325813971,0.057138572449056305,0.0003142059553349875,-0.08999999999999991,-1.290000000000001,-9.71,9.286118787126853e-05,-0.03130309081039928,0.014080725641965561,204.5625,-0.5625,172.375,0.06579589999999996,0.2125244100000002,-0.9749145500000008,-0.009277340000000012
373.0,0.0677729904504098,0.05508557034363486,0.0008616625310173696,-0.08999999999999991,-1.290000000000001,-9.71,-0.00818553086698248,-0.029452578671328673,-0.0024046685841040694,204.5625,-0.5625,172.375,0.06579589999999996,0.2125244100000002,-0.9749145500000009,-0.009277340000000012
374.0,0.06632073840138354,0.05509613504774795,4.125310173697257e-05,-0.08999999999999991,-1.290000000000001,-9.71,0.017154132829536053,-0.029102840204150687,-0.0014504732498684114,204.5625,-0.5625,172.375,0.06579589999999996,0.2125244100000002,-0.9749145500000009,-0.009277340000000012
375.0,0.06701178660049628,0.05579342431761786,0.002601271712158809,-0.08999999999999991,-1.290000000000001,-9.71,-0.0030920440446650134,-0.01473470455955335,0.019863717431761786,204.5625,-0.5625,172.375,0.06579589999999996,0.2125244100000002,-0.9749145500000009,-0.009277340000000012
376.0,0.06531079404466501,0.056090570719602974,0.0008784119106699751,-0.08999999999999991,-1.290000000000001,-9.71,-0.006327543424317618,0.0006203473945409436,0.004811569478908187,204.5625,-0.5625,172.375,0.06579589999999996,0.2125244100000002,-0.9749145500000009,-0.009277340000000012
377.0,0.06510204714640197,0.05577853598014887,-0.001413151364764268,-0.08999999999999991,-1.290000000000001,-9.71,0.003939205955334988,0.0002946650124069478,0.009656094913151364,204.5625,-0.5625,172.375,0.06579589999999996,0.2125244100000002,-0.9749145500000009,-0.009277340000000012
378.0,0.06604854218362283,0.056385545905707185,-0.0011321339950372206,-0.08999999999999991,-1.290000000000001,-9.71,0.001729218362282878,-0.010538151364764268,0.010163035049627792,204.5625,-0.5625,172.375,0.06579589999999996,0.2125244100000002,-0.9749145500000009,-0.009277340000000012
379.0,0.0647711693548387,0.05596696650124069,0.0002403846153846155,-0.08999999999999991,-1.290000000000001,-9.71,0.0006940136476426798,0.024476581885856077,0.008555462934243176,204.5625,-0.5625,172.375,0.06579589999999996,0.2125244100000002,-0.9749145500000009,-0.009277340000000012
380.0,0.06559196149843911,0.05587451472824781,-0.00029343932602257243,-0.08999999999999991,-1.2900000000000007,-9.709999999999999,-0.01540400124069479,-0.005451615404626591,0.012476893310253742,204.5625,-0.5625,172.375,0.06579589999999996,0.2125244100000002,-0.9749145500000009,-0.009277340000000012
381.0,0.06630962839189944,0.05394470153285838,0.0014537766149043472,-0.08999999999999991,-1.2900000000000007,-9.709999999999999,-0.012028923697270471,0.012906946640118466,0.01135631266008965,204.5625,-0.5625,172.375,0.06579589999999996,0.2125244100000002,-0.9749145500000009,-0.009277340000000012
382.0,0.06490047176418792,0.05275759425278155,-0.0008826417793964622,-0.08999999999999991,-1.2900000000000007,-9.71,-0.014671700527295287,-0.0049294167233650855,0.010900948281037381,204.5625,-0.5625,172.375,0.06579589999999996,0.2125244100000002,-0.9749145500000009,-0.009277340000000012
383.0,0.06499811894661009,0.05513887777155206,-0.0014771071800208115,-0.08999999999999991,-1.290000000000001,-9.71,-0.02395316377171216,-0.007662541022972865,0.017389738253421917,204.5625,-0.5625,172.375,0.06579589999999996,0.2125244100000002,-0.9749145500000009,-0.009277340000000012
384.0,0.06703876170655565,0.055383334667413735,-0.0010859481309533337,-0.08999999999999991,-1.290000000000001,-9.71,-0.024592897022332506,0.0033182332105979344,-0.019135465860882092,204.5625,-0.5625,172.375,0.06579589999999996,0.2125244100000002,-0.9749145500000009,-0.009277340000000012
385.0,0.06579745657568237,0.0568064516129032,-0.0005325682382133993,-0.08999999999999991,-1.290000000000001,-9.71,0.008058700372208436,-0.01019502171215881,-0.006866470223325061,204.5625,-0.5625,172.375,0.06579589999999996,0.2125244100000002,-0.9749145500000009,-0.009277340000000012
386.0,0.06580443548387094,0.0572593052109181,-0.0001571029776674937,-0.08999999999999991,-1.290000000000001,-9.71,-0.007741741625310173,-0.017504458746898263,0.004352124689826303,204.5625,-0.5625,172.375,0.06579589999999996,0.2125244100000002,-0.9749145500000009,-0.009277340000000012
387.0,0.06710525842884711,0.054995086454763864,0.0005470343948166527,-0.08999999999999991,-1.290000000000001,-9.71,0.012777825473137973,-0.0191482177936311,0.00354156512170625,204.5625,-0.5625,172.375,0.06579589999999996,0.2125244100000002,-0.9749145500000009,-0.009277340000000012
388.0,0.06743968721690494,0.05634679881050847,0.0011003239591949267,-0.08999999999999991,-1.290000000000001,-9.71,0.009886363496494546,-0.01932640612076096,0.00734809335489779,204.5625,-0.5625,172.375,0.06579589999999996,0.2125244100000002,-0.9749145500000009,-0.009277340000000012
389.0,0.06746701327346488,0.055782425459844805,0.00024262475875379107,-0.08999999999999991,-1.290000000000001,-9.71,-0.0030997676158966495,0.019365177832919765,0.004044074205364528,204.5625,-0.5625,172.375,0.06579589999999996,0.2125244100000002,-0.9749145500000009,-0.009277340000000012
390.0,0.06693607467801013,0.05603670881090234,0.0013501910276103824,-0.08999999999999991,-1.290000000000001,-9.71,-0.010362755524045846,0.028503485761550276,0.0065372799243766985,204.5625,-0.5625,172.375,0.06579589999999996,0.2125244100000002,-0.9749145500000009,-0.009277340000000012
391.0,0.06742337232659812,0.056946394107684414,0.0005907282681476234,-0.08999999999999991,-1.290000000000001,-9.71,-0.0008389460002363232,-0.012671334042301783,0.003020501004371972,204.5625,-0.5625,172.375,0.06579589999999996,0.2125244100000002,-0.9749145500000009,-0.009277340000000012
392.0,0.06615920280436408,0.05544580330064199,0.0006806687935720195,-0.08999999999999991,-1.290000000000001,-9.71,0.00461284906849423,-0.002471419709322934,0.010030795817086139,204.5625,-0.5625,172.375,0.06579589999999996,0.2125244100000002,-0.9749145500000009,-0.009277340000000012
393.0,0.0660200480523061,0.05534076765528378,0.0007187463074559849,-0.08999999999999991,-1.290000000000001,-9.71,0.008765791779904683,-0.006973923254165189,-0.0037392546969159867,204.5625,-0.5625,172.375,0.06579589999999996,0.2125244100000002,-0.9749145500000009,-0.009277340000000012
394.0,0.06538843593682303,0.05621504884004884,-0.000679088384733546,-0.08999999999999991,-1.290000000000001,-9.71,-0.002409908080270984,-0.002889877259836937,0.002178139400921659,204.5625,-0.5625,172.375,0.06579589999999996,0.2125244100000002,-0.9749145500000009,-0.009277340000000012
395.0,0.0658473945409429,0.0560224875930521,-0.0005367555831265509,-0.08999999999999991,-1.290000000000001,-9.71,-0.013355885545905707,-0.010953977977667492,0.0014413383995037221,204.5625,-0.5625,172.375,0.06579589999999996,0.2125244100000002,-0.9749145500000009,-0.009277340000000012
396.0,0.06605272952853597,0.0562196805210918,0.0005281482630272948,-0.08999999999999991,-1.290000000000001,-9.71,-0.009283401830024815,-0.021497460452853598,0.0056834483560794045,204.5625,-0.5625,172.375,0.06579589999999996,0.2125244100000002,-0.9749145500000009,-0.009277340000000012
397.0,0.06738120347394541,0.056030707196029775,9.018300248138925e-05,-0.08999999999999991,-1.290000000000001,-9.71,-0.018927865229528537,0.009806335297766748,0.014166698976426799,204.5625,-0.5625,172.375,0.06579589999999996,0.2125244100000002,-0.9749145500000009,-0.009277340000000012
398.0,0.06756505893300246,0.054438352977667484,-0.0006821495037220842,-0.08999999999999991,-1.290000000000001,-9.71,-0.009668695719602978,0.009558680986352357,0.02670595533498759,204.5625,-0.5625,172.375,0.06579589999999996,0.2125244100000002,-0.9749145500000009,-0.009277340000000012
399.0,0.06709150124069478,0.05412189826302729,-0.00030831265508684847,-0.08999999999999991,-1.290000000000001,-9.71,-0.007133995037220843,-0.0008122673697270478,0.03389229218362283,204.5625,-0.5625,172.375,0.06579589999999996,0.2125244100000002,-0.9749145500000009,-0.009277340000000012
400.0,0.06779885235732008,0.05454730148883374,-0.0005524193548387096,-0.08999999999999991,-1.290000000000001,-9.71,-0.00872363523573201,-0.004663267679900744,0.02852337934243176,204.5625,-0.5625,172.375,0.06579589999999996,0.2125244100000002,-0.9749145500000009,-0.009277340000000012
401.0,0.06737089019851117,0.05637786910669974,-0.0010156637717121586,-0.08999999999999991,-1.290000000000001,-9.71,-0.011728442928039703,-0.005278283964019851,0.01807682614764268,204.5625,-0.5625,172.375,0.06579589999999996,0.2125244100000002,-0.9749145500000009,-0.009277340000000012
402.0,0.06780694887549726,0.05694617501673953,0.00015261038244909243,-0.08999999999999991,-1.290000000000001,-9.71,-0.016687914180353695,0.011051984250068925,0.015332565899602189,204.5625,-0.5625,172.375,0.06579589999999996,0.2125244100000002,-0.9749145500000009,-0.009277340000000012
403.0,0.06729846654241815,0.05553737805653128,0.0015062623308591055,-0.08999999999999991,-1.290000000000001,-9.71,-0.014209059729473035,-0.006832549870604306,0.01634785675234264,204.5625,-0.5625,172.375,0.06579589999999996,0.2125244100000002,-0.9749145500000007,-0.009277340000000012
404.0,0.0685458678865937,0.05762876191908449,-0.0005967447650915395,-0.08999999999999991,-1.290000000000001,-9.71,0.004388617235139414,-0.028056909628230195,-0.00835275625472198,204.5625,-0.5625,172.375,0.06579589999999996,0.2125244100000002,-0.9749145500000008,-0.009277340000000012
405.0,0.06757770544867318,0.05684689504044341,-0.0013507997378965114,-0.08999999999999991,-1.290000000000001,-9.71,0.012608225108225108,0.0030103856716759934,-0.006586782393234006,204.5625,-0.5625,172.375,0.06579589999999996,0.2125244100000002,-0.9749145500000008,-0.009277340000000012
406.0,0.06738686761267407,0.056033869356449995,-0.0004917770401641367,-0.08999999999999991,-1.290000000000001,-9.71,-0.0020318055600313653,0.0066540762105278236,0.003638990937378034,204.5625,-0.5625,172.375,0.06579589999999996,0.2125244100000002,-0.9749145500000009,-0.009277340000000012
407.0,0.06745112414467253,0.05686683030231417,5.124803511900286e-05,-0.08999999999999991,-1.290000000000001,-9.71,-0.0041378256600030795,-0.021934886350208932,0.01153704046849208,204.5625,-0.5625,172.375,0.06579589999999996,0.2125244100000002,-0.9749145500000009,-0.009277340000000012
408.0,0.06766521918941273,0.056940633739020835,0.0006168714797747055,-0.08999999999999991,-1.290000000000001,-9.71,-0.0018856283725235336,-0.017037213458584426,0.01590015607152704,204.5625,-0.5625,172.375,0.06579589999999996,0.2125244100000002,-0.9749145500000009,-0.009277340000000012
409.0,0.06801831994170704,0.05544652703926897,0.00035061936271613695,-0.08999999999999991,-1.290000000000001,-9.71,-0.008467972719484816,-0.003134877555240458,0.018687011353341998,204.5625,-0.5625,172.375,0.06579589999999996,0.2125244100000002,-0.9749145500000009,-0.009277340000000012
410.0,0.06731602514868643,0.054293471089842046,-0.000585452853598015,-0.08999999999999991,-1.290000000000001,-9.71,0.010830608543562173,-0.012517308800070898,0.02330329141065028,204.5625,-0.5625,172.375,0.06579589999999996,0.2125244100000002,-0.9749145500000009,-0.009277340000000012
411.0,0.0684651620780653,0.05468139745559099,-0.0007741935483870969,-0.08999999999999991,-1.290000000000001,-9.71,-0.005731320650675489,0.006983339241403758,0.016393910748749456,204.5625,-0.5625,172.375,0.06579589999999996,0.2125244100000002,-0.9749145500000009,-0.009277340000000012
412.0,0.06853495608334317,0.055165938004647676,9.452912678719141e-05,-0.08999999999999991,-1.290000000000001,-9.71,-0.005829296151876797,0.011435562645240063,0.016079305998660837,204.5625,-0.5625,172.375,0.06579589999999996,0.2125244100000002,-0.9749145500000009,-0.009277340000000012
413.0,0.06787293709874355,0.054694631533341205,0.00042443577927448877,-0.08999999999999991,-1.290000000000001,-9.71,-0.0202843751230848,0.002941726732049312,0.014165583520422229,204.5625,-0.5625,172.375,0.06579589999999996,0.2125244100000002,-0.9749145500000009,-0.009277340000000012
414.0,0.06856504785537043,0.05402764976958524,-0.0006612312418764032,-0.08999999999999991,-1.290000000000001,-9.71,-0.01736234195911615,0.017207747449682932,0.014703217929024381,204.5625,-0.5625,172.375,0.06579589999999996,0.2125244100000002,-0.9749145500000009,-0.009277340000000012
415.0,0.06901453385324352,0.052848812477844724,-0.0009509630154791445,-0.08999999999999991,-1.290000000000001,-9.71,-8.935956516601708e-05,0.005905362558588365,0.005405269014139982,204.5625,-0.5625,172.375,0.06579589999999996,0.2125244100000002,-0.9749145500000009,-0.009277340000000012
416.0,0.06765987238567882,0.05335864941510102,-0.002315431879948009,-0.08999999999999991,-1.290000000000001,-9.71,-0.012792818740399385,-0.002002343534601599,0.032789483142305724,204.5625,-0.5625,172.375,0.06579589999999996,0.2125244100000002,-0.9749145500000009,-0.009277340000000012
417.0,0.06710607940446647,0.05579559553349876,-0.0014906947890818859,-0.08999999999999991,-1.290000000000001,-9.71,-0.01424084987593052,-0.018594913151364762,0.08859530086848635,204.5942617866005,-0.5625,172.375,0.0658118919801488,0.21277400491811407,-0.9748505769975195,-0.00926231723076924
