time,linaccel_x,linaccel_y,linaccel_z,gravity_x,gravity_y,gravity_z,gyro_x,gyro_y,gyro_z,euler_x,euler_y,euler_z,quaternion_w,quaternion_y,quaternion_x,quaternion_z
0.0,0.027846153846153864,-0.059999999999999984,-0.05538461538461538,-0.22000000000000022,-0.02000000000000001,-9.799999999999999,0.01730769230769231,-0.020192307692307693,-0.03461538461538462,141.8125,-1.25,179.8125,-0.0022583000000000004,-0.3268432600000003,-0.9450073200000005,0.01110840000000001
1.0,0.028256410256410274,-0.05671794871794869,-0.051794871794871786,-0.2200000000000002,-0.02000000000000001,-9.799999999999999,-0.003205128205128204,0.001602564102564102,-0.023717948717948717,141.8125,-1.25,179.8125,-0.0022583000000000004,-0.3268432600000003,-0.9450073200000004,0.01110840000000001
2.0,0.029162044304901463,-0.05151857666143377,-0.05267399267399266,-0.2200000000000002,-0.02217687074829933,-9.799999999999997,0.06495290423861853,-0.026524071166928304,-0.007897261468690039,141.82610544217687,-1.2499999999999998,179.79889455782313,-0.0021819025396825403,-0.32676077292517036,-0.9450355539229021,0.011134419319727893
3.0,0.0292807488807489,-0.04447277167277166,-0.052478632478632464,-0.22000000000000022,-0.033487667887667896,-9.799999999999997,0.19236263736263734,-0.08314713064713064,-0.044711029711029714,141.77064407814407,-1.2535897435897434,179.74615079365077,-0.0017744305800569808,-0.32718136984713075,-0.9448932942717134,0.011298325159462762
4.0,0.033295239021994244,-0.024706938854946438,-0.05408358877049579,-0.22000000000000025,-0.0509665186173725,-9.799999999999999,0.19791740517546969,-0.08956834594880136,-0.1838734583990751,141.7229871725365,-1.2839950372208437,179.63049042197522,-0.0009595873205209299,-0.32759335763001607,-0.9447473856532953,0.011696919156855796
5.0,0.03345655251347852,-0.014530888782311931,-0.0549388167177541,-0.22000000000000025,-0.06128971092158947,-9.799999999999999,0.11027228819567528,-0.027321393818073136,-0.06819293267348295,141.67096939271985,-1.2992555831265507,179.560204888407,-0.0004118649505830456,-0.3280373642988791,-0.9445938379879373,0.011938195062298863
6.0,0.03175309015252091,-0.009956711500737332,-0.05496680690206124,-0.22000000000000025,-0.06645130707369794,-9.8,0.029858988890921773,-0.010220270270118771,-0.03900471495596824,141.64496050281156,-1.3068858560794046,179.52506212162285,-0.00013800376561410343,-0.3282593676333106,-0.9445170641552583,0.012058833015020394
7.0,0.03326123923514817,-0.008339338853287255,-0.05759093033275105,-0.22000000000000022,-0.06897066121734051,-9.8,0.05027821830224926,0.04727081724589299,-0.044380257355884,141.6315720332798,-1.310700992555831,179.50787476280834,-3.2295530579477314e-06,-0.3283726975647353,-0.9444778803136755,0.012118417575098519
8.0,0.0332534484016932,-0.007745351808777624,-0.057548566903348225,-0.22000000000000022,-0.06991461100569257,-9.8,0.0333432034439286,-0.02563568318846789,-0.0017962080824085007,141.6267196394687,-1.3125,179.50071157495256,5.275897533206834e-05,-0.3283575623766604,-0.9444747443975328,0.012143567775142307
9.0,0.031270936724565775,-0.006998861862643082,-0.05739382804370448,-0.22000000000000022,-0.06999999999999998,-9.8,-0.03297557569739054,-0.004723676508844952,0.04399041588289442,141.625,-1.3125,179.5,6.104000000000004e-05,-0.32824362641129035,-0.9444954154838714,0.012145999999999992
10.0,0.031612282878411925,-0.0064185143680461085,-0.0582885315776835,-0.22000000000000022,-0.06999999999999998,-9.8,-0.06598157468182182,-0.03317032538221404,0.08082401144641,141.625,-1.3125,179.5,6.104000000000004e-05,-0.32817939094758064,-0.944508212096775,0.012145999999999992
11.0,0.03249968982630275,-0.006323200992555832,-0.05874364143920595,-0.22000000000000022,-0.06999999999999998,-9.8,-0.023121510545905707,-0.006618331265508684,0.046118951612903226,141.625,-1.3125,179.5,6.104000000000004e-05,-0.3281472732157258,-0.9445146104032269,0.012145999999999992
12.0,0.03175812955254945,-0.006195939726246699,-0.056208449231569674,-0.22000000000000022,-0.06999999999999998,-9.8,-0.02625148207996478,-0.011165565216521251,0.039963942307692304,141.625,-1.3125,179.5,6.104000000000004e-05,-0.32813121434979836,-0.9445178095564527,0.012145999999999992
13.0,0.03203833896982312,-0.0069185343792523835,-0.057018035099655806,-0.22000000000000022,-0.06999999999999998,-9.8,0.006626023072920834,-0.004984244301809013,0.02643988446029777,141.625,-1.3125,179.5,6.104000000000004e-05,-0.328125,-0.9445190400000012,0.012145999999999992
14.0,0.03212154912811782,-0.00515709221406412,-0.05863258182157767,-0.22000000000000022,-0.06999999999999998,-9.799999999999999,-0.04411375104907233,-0.034466191218597564,0.04032360868298368,141.625,-1.3125,179.5,6.104000000000004e-05,-0.328125,-0.9445190400000012,0.012145999999999992
15.0,0.030946591256327222,-0.005023935842744377,-0.056463795735713,-0.22000000000000022,-0.06999999999999998,-9.799999999999999,0.007640286632303411,9.798281048931448e-05,-0.002692581416119725,141.625,-1.3125,179.5,6.104000000000004e-05,-0.328125,-0.9445190400000012,0.012145999999999992
16.0,0.03081739457357305,-0.005507935663307673,-0.056579525039072376,-0.22000000000000022,-0.06999999999999998,-9.799999999999999,-0.024254938104443825,-0.006221363743638717,0.0004655598657614772,141.625,-1.3125,179.5,6.104000000000004e-05,-0.328125,-0.9445190400000012,0.012145999999999992
17.0,0.03143887418585001,-0.006284144730717313,-0.05564668239466626,-0.22000000000000022,-0.06999999999999998,-9.8,0.022065428970670903,0.03035055642162497,-0.06881963942195797,141.625,-1.3125,179.5,6.104000000000004e-05,-0.328125,-0.9445190400000012,0.012145999999999992
18.0,0.03367851292539119,-0.007347408603652102,-0.05694291065623011,-0.22000000000000022,-0.06999999999999998,-9.8,0.04057957322623035,0.02613289885337232,-0.05752315380307056,141.625,-1.3125,179.5,6.104000000000004e-05,-0.328125,-0.9445190400000012,0.012145999999999992
19.0,0.03344354822827769,-0.006894506796822094,-0.055847403752450564,-0.22000000000000022,-0.06999999999999998,-9.8,0.023865288172487703,0.03249241996152766,-0.026575255158761926,141.625,-1.3125,179.5,6.104000000000004e-05,-0.328125,-0.9445190400000012,0.012145999999999992
20.0,0.03283599680900671,-0.0065440669790955966,-0.056742836146972446,-0.22000000000000022,-0.06999999999999998,-9.8,-0.012272474272100311,0.018215566788830313,-0.010646473930162798,141.625,-1.3125,179.5,6.104000000000004e-05,-0.328125,-0.9445190400000012,0.012145999999999992
21.0,0.03301849468241899,-0.006320420586321993,-0.05826223693204702,-0.22000000000000022,-0.06999999999999998,-9.8,-0.007787912074015416,0.016350339225680667,-0.018994142672277427,141.625,-1.3125,179.5,6.104000000000004e-05,-0.328125,-0.9445190400000012,0.012145999999999992
22.0,0.03289167775223968,-0.006043681286917501,-0.05488797980837523,-0.22000000000000022,-0.06999999999999998,-9.8,0.015342089586041198,0.014939973528032842,-0.02972746285538949,141.625,-1.3125,179.5,6.104000000000004e-05,-0.328125,-0.9445190400000012,0.012145999999999992
23.0,0.03349610702628394,-0.007333215013105754,-0.05779022379516656,-0.22000000000000022,-0.06999999999999998,-9.8,-0.0031975416153680984,0.007624823472573212,0.00917673123139434,141.625,-1.3125,179.5,6.104000000000004e-05,-0.328125,-0.9445190400000012,0.012145999999999992
24.0,0.033417280343659136,-0.00847971554546737,-0.05799393422221205,-0.22000000000000022,-0.06999999999999998,-9.8,-0.0011507421338489239,0.0037484076400244454,-0.006772361470836366,141.625,-1.3125,179.5,6.104000000000004e-05,-0.328125,-0.9445190400000012,0.012145999999999992
25.0,0.03183775120416641,-0.008564565323247689,-0.05813549166898542,-0.22000000000000022,-0.06999999999999998,-9.8,0.026779241166720025,0.005380889786375608,-0.009080575945942426,141.625,-1.3125,179.5,6.104000000000004e-05,-0.328125,-0.9445190400000012,0.012145999999999992
26.0,0.03158311257478793,-0.008233624162864541,-0.05819933702555971,-0.22000000000000022,-0.06999999999999998,-9.8,0.01297209770804984,-0.007455627532370508,-0.012055457405353347,141.625,-1.3125,179.5,6.104000000000004e-05,-0.328125,-0.9445190400000012,0.012145999999999992
27.0,0.030021525069912184,-0.009426385442514479,-0.05617042813817006,-0.22000000000000022,-0.06999999999999998,-9.8,0.010388234077750205,-0.007499926149119698,-0.0012963291189097637,141.625,-1.3125,179.5,6.104000000000004e-05,-0.328125,-0.9445190400000012,0.012145999999999992
28.0,0.030609737961194795,-0.00873656581018704,-0.054495683932208376,-0.22000000000000022,-0.06999999999999998,-9.8,0.023714488446863576,-0.0037654717594233725,0.011630211331043798,141.625,-1.3125,179.5,6.104000000000004e-05,-0.328125,-0.9445190400000012,0.012145999999999992
29.0,0.031000325102692447,-0.008377003979371307,-0.05378220597185217,-0.22000000000000022,-0.06999999999999998,-9.8,0.010280369109876134,-0.01022339871439117,0.006687419558127155,141.625,-1.3125,179.5,6.104000000000004e-05,-0.328125,-0.9445190400000012,0.012145999999999992
30.0,0.03136849135515891,-0.00889392559833507,-0.05525177099175538,-0.22000000000000022,-0.06999999999999998,-9.8,-0.00015836993716481212,-0.02507482315096454,0.018904336428399907,141.625,-1.3125,179.5,6.104000000000004e-05,-0.328125,-0.9445190400000012,0.012145999999999992
31.0,0.032597397042343726,-0.008513960317777958,-0.057975761426398785,-0.22000000000000022,-0.06999999999999998,-9.8,-0.016696740799847915,-0.015251431426598894,0.01877288781717762,141.625,-1.3125,179.5,6.104000000000004e-05,-0.328125,-0.9445190400000012,0.012145999999999992
32.0,0.03132137997278478,-0.007037438108197735,-0.058100543923644846,-0.22000000000000022,-0.06999999999999998,-9.8,-0.03409176797736891,0.007845524446070751,0.017964992935726544,141.625,-1.3125,179.5,6.104000000000004e-05,-0.328125,-0.9445190400000012,0.012145999999999992
33.0,0.029766429200352214,-0.007438274004871302,-0.0569388095428678,-0.22000000000000022,-0.06999999999999998,-9.8,-0.012155895595184093,0.022285045101447284,0.024456912140640028,141.625,-1.3125,179.5,6.104000000000004e-05,-0.328125,-0.9445190400000012,0.012145999999999992
34.0,0.02913399503722086,-0.007540677064870616,-0.057127053054472396,-0.22000000000000022,-0.06999999999999998,-9.8,0.004051474678994841,-0.005734428541888218,-0.021053932067036905,141.625,-1.3125,179.5,6.104000000000004e-05,-0.328125,-0.9445190400000012,0.012145999999999992
35.0,0.03062190826863045,-0.010028963362340059,-0.05811615599974081,-0.22000000000000022,-0.06999999999999998,-9.8,-0.03165362310235001,-0.009530945960690367,0.05975189012593084,141.625,-1.3125,179.5,6.104000000000004e-05,-0.328125,-0.9445190400000012,0.012145999999999992
36.0,0.03131549842514984,-0.008406218752342586,-0.05798296919290674,-0.22000000000000022,-0.06999999999999998,-9.8,0.06405805108003339,0.0106900161709605,-0.08561494635408527,141.63012032770098,-1.2991871479774706,179.5,6.104000000000004e-05,-0.32824550908346145,-0.9444995412186379,0.012145999999999992
37.0,0.03049894027957245,-0.007922357869613338,-0.05846637529715053,-0.22000000000000022,-0.06999999999999998,-9.8,0.016948183443045564,0.008835200688576078,-0.06739710845216179,141.6275601638505,-1.273585509472606,179.5,6.104000000000004e-05,-0.32834276679979535,-0.9444777912544795,0.012145999999999992
38.0,0.028986442844500873,-0.006657208711481606,-0.05849621494386062,-0.22000000000000022,-0.06999999999999998,-9.8,-0.0042973102635888785,-0.0037167048666300754,-0.04528354181913301,141.62628008192524,-1.260784690220174,179.5,6.104000000000004e-05,-0.3283913956579623,-0.9444669162724003,0.012145999999999992
39.0,0.0279342171298467,-0.006285241322442158,-0.05662957859575965,-0.22000000000000022,-0.06999999999999998,-9.8,0.017307396507123353,0.002839512746185482,-0.0366906539090462,141.62564004096262,-1.2543842805939578,179.5,6.104000000000004e-05,-0.3284157100870458,-0.9444614787813608,0.012145999999999992
40.0,0.02833113908868333,-0.006555211712209633,-0.05660996793124784,-0.2200000000000002,-0.06999999999999998,-9.8,0.014549249762406628,-0.004804229058749091,-0.018943662022160978,141.6253200204813,-1.25118407578085,179.5,6.104000000000004e-05,-0.32842786730158746,-0.944458760035841,0.012145999999999992
41.0,0.02788358814269326,-0.006913616625310176,-0.057755539768937256,-0.22000000000000022,-0.06999999999999998,-9.8,0.009477088419514928,0.009604847464580164,0.02690675528295846,141.625,-1.25,179.5,6.104000000000004e-05,-0.3284301800000002,-0.9444580099999986,0.012145999999999992
42.0,0.028045579175131743,-0.006942412314388123,-0.05873128912508464,-0.22000000000000022,-0.06999999999999998,-9.8,0.016499543067530514,0.011334780264646613,-0.032381678879061154,141.625,-1.25,179.5,6.104000000000004e-05,-0.32843018000000024,-0.9444580099999986,0.012145999999999992
43.0,0.028337305716598135,-0.007415258576548902,-0.058503749401252,-0.22000000000000022,-0.06999999999999998,-9.8,0.021748385445055578,0.00035930041458137087,-0.02189270435888542,141.625,-1.25,179.5,6.104000000000004e-05,-0.32843018000000024,-0.9444580099999986,0.012145999999999992
44.0,0.028279664115512207,-0.006113819178855602,-0.05878771173906448,-0.22000000000000022,-0.06999999999999998,-9.799999999999999,0.011722622388595333,-0.015101937785015309,-0.034424007242035336,141.625,-1.25,179.5,6.104000000000004e-05,-0.32843543020527877,-0.9444561006353849,0.012145999999999992
45.0,0.030111502860072078,-0.0065966118226784215,-0.05897119251138501,-0.22000000000000022,-0.06999999999999998,-9.799999999999999,-0.003719178880144022,-0.020748859711366217,-0.021728908087518907,141.625,-1.25,179.5,6.104000000000004e-05,-0.32852730832844584,-0.9444255508015633,0.012145999999999992
46.0,0.030011526664167162,-0.006677598315085308,-0.05908757336287253,-0.22000000000000022,-0.06999999999999998,-9.8,-0.0035667954754518235,-0.012845813830709122,-0.0181322740229478,141.625,-1.25,179.5,6.104000000000004e-05,-0.3285732473900294,-0.9444102758846524,0.012145999999999992
47.0,0.030541593035020645,-0.008048997003647432,-0.059802740959428086,-0.2200000000000002,-0.06999999999999998,-9.8,0.00791217359851174,-0.014563231174795688,-0.02453230717423317,141.625,-1.25,179.5,6.104000000000004e-05,-0.3285962169208212,-0.9444026384261972,0.012145999999999992
48.0,0.030212832807832914,-0.007850103340533394,-0.055574253544230165,-0.22000000000000022,-0.06999999999999998,-9.8,-0.006534084571711872,-0.007108354498688167,-0.018125528587116586,141.625,-1.25,179.5,6.104000000000004e-05,-0.328607701686217,-0.9443988196969695,0.012145999999999992
49.0,0.03614440826280384,-0.014246465130823156,-0.05587837872350185,-0.2203851709195958,-0.0604477611940298,-9.799999999999999,-0.11453096643344643,-0.009339719844287256,0.05475738532491824,141.67651661049592,-1.2596292729898892,179.56355320173327,-0.00046462224362060675,-0.3281059569764084,-0.944569526340876,0.011979555320173318
50.0,0.043526298424205884,-0.041444572515783776,-0.05803472286051022,-0.22761194029850768,-0.03506259027443426,-9.799999999999999,-0.21322081820431626,0.009357745536913445,0.2608852063101018,141.79894378911894,-1.3087460881078479,147.79689756860856,-0.0019481867669715947,-0.3270478549398171,-0.9449326447026966,0.011814204756860854
51.0,0.05185259930415448,-0.06134751638676405,-0.05791870618331682,-0.23412855079441525,-0.014655364616125316,-9.799999999999999,-0.15867081292830076,0.017150857079671004,0.15048882904154734,141.91197189455946,-1.3438891730861822,-21.856762133809852,-0.00327472518497463,-0.3261255811076256,-0.9452507479171056,0.011622915440465162
52.0,0.047818623615792005,-0.0841210591737343,-0.0557752421206622,-0.23254318358579334,-0.0003227195289063284,-9.8,-0.13721763198585238,0.0708580527110107,0.15765909132995073,141.99975145596457,-1.3560016585033887,-106.65877808923744,-0.004001483029211883,-0.3253528187423983,-0.9455091520602893,0.011368790345542754
53.0,0.04540506818146521,-0.10112538715710649,-0.05627553078977958,-0.23143288211547747,0.0164515434613533,-9.8,-0.1312490507744038,0.0765320440454117,0.12636507180961637,142.07044024411132,-1.3352588937678234,-148.9987438833284,-0.004836905385573682,-0.32465291717556966,-0.9457406119978871,0.01103284807599718
54.0,0.04525669875130073,-0.11002265185170365,-0.05673558275967874,-0.2308656947890822,0.024540167493796547,-9.8,-0.03365433601149978,0.05727882093138824,0.09024380215420635,142.1041747441067,-1.3245865966191066,-170.170712817928,-0.005238189618641437,-0.3243178040451754,-0.9458509495810334,0.010870078337468978
55.0,0.04344512164907586,-0.11398642033189385,-0.05820142073211792,-0.2303622828784122,0.027940446650124094,-9.8,-0.017576715976820034,0.0015884292028933086,0.04448561035449693,142.11802109181144,-1.317866004962779,-179.76299627791562,-0.005400683816377169,-0.3241748861746936,-0.9458979671883107,0.0107912599751861
56.0,0.0440327345218084,-0.11781455011631915,-0.057626764956629675,-0.2300198511166256,0.029399503722084393,-9.8,0.013187448463202883,-0.021429730807982626,0.06082841311769511,142.15508684863522,-1.3141749379652605,-179.75381513647642,-0.005463657285359799,-0.32399166167791776,-0.9459787435792664,0.010755244982630266
57.0,0.04327258058163365,-0.11949552193672905,-0.05661873125140554,-0.23000000000000032,0.030000000000000027,-9.8,0.010952895526256608,-0.008557188851153471,0.03246356848724174,142.17313895781638,-1.3125,-179.75,-0.005493159999999997,-0.3239083338290335,-0.9460169962189131,0.010742189999999995
58.0,0.042413919413919414,-0.11950590807042422,-0.05787244475954152,-0.23000000000000032,0.030000000000000027,-9.8,0.012564127181062664,-0.001466801567608019,0.00451155027767931,142.18132754342435,-1.3125,-179.75,-0.005493159999999997,-0.32387646741659815,-0.9460329269804237,0.010742189999999995
59.0,0.04247619047619047,-0.1180732600732601,-0.058029067706487046,-0.23000000000000032,0.030000000000000027,-9.8,0.03417572570798377,0.07808302808302808,-0.00609565166016779,142.18542183622827,-1.3125,-179.75,-0.005493159999999997,-0.3238605659663638,-0.9460408923611789,0.010742189999999995
60.0,0.04178084997439836,-0.11794856040017332,-0.05754499980306431,-0.23000000000000032,0.030000000000000027,-9.8,0.04542567647406357,0.02912087912087912,0.00903294733939895,142.17774035999844,-1.3125,-179.75,-0.005493159999999997,-0.3238916332648001,-0.9460253582671231,0.010742189999999995
61.0,0.04297295120187941,-0.11855308433039963,-0.05840341321298657,-0.23000000000000032,0.030000000000000027,-9.8,0.04184805395783543,-0.028981944174451973,0.2556325986997163,142.2377865731794,-1.3125,-179.75,-0.005493159999999997,-0.3232816323740153,-0.9462236743953888,0.010742189999999995
62.0,0.040946033270695084,-0.12159720681676979,-0.05569378661574291,-0.23000000000000032,0.030000000000000027,-9.8,0.02604693549022373,-0.017220437095567167,0.17814055236011528,142.3416755446542,-1.3125,-179.75,-0.005493159999999997,-0.32233850812249143,-0.9465438249396303,0.010742189999999995
63.0,0.03972160854522977,-0.12338948922507717,-0.055039673645813074,-0.23000000000000032,0.030000000000000027,-9.8,0.005302973633488722,0.0008383861629179014,0.09846287730652975,142.39362003039162,-1.3125,-179.75,-0.005493159999999997,-0.32186694599672955,-0.946703900211751,0.010742189999999995
64.0,0.03898615446872472,-0.1250791999075037,-0.05530195480897874,-0.23000000000000032,0.030000000000000027,-9.8,-0.006572678715953949,-0.004663653312521679,0.0645525184579555,142.41959227326032,-1.3125,-179.75,-0.005493159999999997,-0.3216311649338486,-0.9467839378478115,0.010742189999999995
65.0,0.04067945716267777,-0.12438189386056189,-0.05786910336455081,-0.23000000000000032,0.030000000000000027,-9.8,0.009274464533472079,0.013057958289975719,0.02974169701699618,142.43288241415195,-1.3125,-179.75,-0.005493159999999997,-0.32151205557752327,-0.9468245660770038,0.010742189999999995
66.0,0.039001619240107796,-0.12538013287440966,-0.05839172770084581,-0.23000000000000032,0.030000000000000027,-9.8,-0.019305675761759917,-0.021865671859574696,0.046687415786173594,142.4375,-1.3125,-179.75,-0.005493159999999997,-0.32147216999999995,-0.9468383800000009,0.010742189999999995
67.0,0.04040351513514234,-0.12511722564636196,-0.05713030713866433,-0.23000000000000032,0.030000000000000027,-9.8,-0.017375912802836256,0.0012452337892553157,0.029831090827530084,142.4375,-1.3125,-179.75,-0.005493159999999997,-0.32147216999999995,-0.9468383800000009,0.010742189999999995
68.0,0.04071599047847747,-0.12428032301263309,-0.05799795726876893,-0.23000000000000032,0.030000000000000027,-9.8,-0.012547953441228676,0.00032334774140185124,0.00797560125733903,142.4375,-1.3125,-179.75,-0.005493159999999997,-0.32147216999999995,-0.9468383800000009,0.010742189999999995
69.0,0.04095748650990587,-0.12301920615227066,-0.058413816022686985,-0.23000000000000032,0.030000000000000027,-9.8,-0.006525863809129937,0.010995657568238212,0.017341171373429436,142.4375,-1.3125,-179.75,-0.005493159999999997,-0.32147216999999995,-0.9468383800000009,0.010742189999999995
70.0,0.041155749044861946,-0.1235970720587656,-0.05785165573673638,-0.23000000000000032,0.030000000000000027,-9.8,-0.04735541536196778,0.00800506617038875,0.03057401827563118,142.4375,-1.3125,-179.75,-0.005493159999999997,-0.32147216999999995,-0.9468383800000009,0.010742189999999995
71.0,0.04061757675568159,-0.1264443376783062,-0.05786099156003552,-0.23000000000000032,0.030000000000000027,-9.8,0.004626642755260403,-0.011716269444222096,-0.0790858396575098,142.4302159209157,-1.3125,-179.75,-0.005493159999999997,-0.32154787647242444,-0.9468129750468267,0.010742189999999995
72.0,0.044427021125064484,-0.12695155309351588,-0.05840626091751114,-0.23000000000000032,0.03406134320465365,-9.8,-0.1211944642681921,0.010686104437063991,-0.010709795820293768,142.40900338615853,-1.3125,-179.72514542570067,-0.005766351496562661,-0.3217429306925845,-0.9467435641865547,0.010646134579587518
73.0,0.046962417569503756,-0.1285807432646279,-0.05938242070256193,-0.23000000000000032,0.035127445795875206,-9.8,0.027371967125425792,0.002861662640368224,-0.12177219477099213,142.38354945982866,-1.3125,-179.71970670788755,-0.0058701418127974575,-0.3219981740286745,-0.9466523621478677,0.010610803163242885
74.0,0.045721352153927516,-0.12184029482739844,-0.0580987884362784,-0.23000000000000032,0.027402432575356968,-9.8,-0.02158027347773769,0.03990529368577551,-0.10869715729333017,142.30467795572076,-1.3125,-179.76711141845988,-0.005555643164463242,-0.32268712193369214,-0.9464313342997401,0.010739500452589184
75.0,0.04455877367828716,-0.11905079454434639,-0.058436175895243456,-0.23000000000000032,0.023539925965097845,-9.8,-0.04373156806739695,-0.01188643701232513,-0.1231313192035992,142.2492251785772,-1.3125,-179.79081377374607,-0.005398393840296134,-0.3232062171906045,-0.9462528320397829,0.010803849097262333
76.0,0.044027565819372505,-0.11796192172586725,-0.05800320761463526,-0.23000000000000032,0.021608672659968284,-9.8,-0.06331024293068077,-0.011146132137796281,-0.019113136188688255,142.21455795869548,-1.3125,-179.80266495138915,-0.00531976917821258,-0.32356540583255533,-0.9461368721827421,0.010836023419598908
77.0,0.04498099602444035,-0.11703567346920626,-0.05806725893484479,-0.23000000000000032,0.020516129032258072,-9.8,-0.0615350181419055,-0.013546055533162061,0.024273975370652002,142.19777342673007,-1.3125,-179.80936724565754,-0.005271919612903221,-0.3237400876227824,-0.9460806643912119,0.010855112312655084
78.0,0.046028250582230805,-0.11745536873665127,-0.05812748901289484,-0.23000000000000032,0.02000000000000001,-9.8,-0.018663595958975127,-0.0031112549515824105,-0.011356208186902129,142.1898451500896,-1.3125,-179.8125,-0.005249019999999995,-0.3238224998858331,-0.9460543260144638,0.010864259999999997
79.0,0.04657259303305088,-0.11694845049735787,-0.05903350257096354,-0.23000000000000032,0.02000000000000001,-9.8,-0.0031889048343262697,-0.007304745419339592,-0.015286219012805904,142.18794802867382,-1.3125,-179.8125,-0.005249019999999995,-0.3238461645724531,-0.9460466389144895,0.010864259999999997
80.0,0.04482062240569004,-0.11781590865487848,-0.05636105393623604,-0.23000000000000032,0.02000000000000001,-9.8,-0.01392188752685631,-0.00911192212083211,0.00044036168190694606,142.1875,-1.3125,-179.8125,-0.005249019999999995,-0.3238525400000004,-0.946044919999999,0.010864259999999997
81.0,0.04530498936547324,-0.11747752471542794,-0.05379558568671472,-0.23000000000000032,0.02000000000000001,-9.8,-0.013373225117176729,-0.012569635225885226,0.009737177025483476,142.1875,-1.3125,-179.8125,-0.005249019999999995,-0.3238525400000004,-0.946044919999999,0.010864259999999997
82.0,0.04374027892387887,-0.11879583431801172,-0.05388156211480511,-0.23000000000000032,0.02000000000000001,-9.8,-0.04317829380172386,-0.01821506412475972,0.08733665587636702,142.1875,-1.3125,-179.8125,-0.005249019999999995,-0.3238525400000004,-0.946044919999999,0.010864259999999997
83.0,0.043932351443506254,-0.11611962734845799,-0.054791523504919205,-0.23000000000000032,0.02000000000000001,-9.8,-0.03566204756650453,-0.0011550231018063843,0.06417364027817327,142.1875,-1.3125,-179.8125,-0.005249019999999995,-0.3238525400000004,-0.946044919999999,0.010864259999999997
84.0,0.04482442046759868,-0.1150679240114724,-0.05771108738784572,-0.23000000000000032,0.02000000000000001,-9.799999999999999,-0.030696256249039166,0.02400217518541157,-0.00422354917909519,142.1875,-1.3125,-179.8125,-0.005249019999999995,-0.32382724091886617,-0.946044919999999,0.010864259999999997
85.0,0.04445935663578446,-0.11537887515710099,-0.05919673476092038,-0.23000000000000032,0.02000000000000001,-9.799999999999999,-0.006360845246107673,0.02026721662496385,0.0027424437727352835,142.1875,-1.3125,-179.8125,-0.005249019999999995,-0.323808385943304,-0.946044919999999,0.010864259999999997
86.0,0.04584718983862955,-0.11555810117302055,-0.05949468074451547,-0.23000000000000032,0.02000000000000001,-9.799999999999999,0.02276523789921959,0.0113976892136596,-0.01710996090933128,142.1875,-1.3125,-179.8125,-0.005249019999999995,-0.323798958455523,-0.946044919999999,0.010864259999999997
87.0,0.046618587393789004,-0.11523810765847056,-0.0594455057711106,-0.23000000000000032,0.02000000000000001,-9.8,0.03042194490657192,0.01848588239717272,-0.01017347697665238,142.1875,-1.3125,-179.8125,-0.005249019999999995,-0.32379424471163243,-0.946044919999999,0.010864259999999997
88.0,0.047918668696894484,-0.11570625140988046,-0.05906499078878111,-0.23000000000000032,0.02000000000000001,-9.8,0.01664431418715693,0.011511086359876683,0.005891714132641552,142.1875,-1.3125,-179.8125,-0.005249019999999995,-0.32379188783968715,-0.946044919999999,0.010864259999999997
89.0,0.047504756844160584,-0.11532548280315666,-0.059522720223325054,-0.23000000000000032,0.02000000000000001,-9.8,0.005546349039478501,-0.00029634935727942003,0.004091384925558313,142.1875,-1.3125,-179.8125,-0.005249019999999995,-0.32379149999999995,-0.946044919999999,0.010864259999999997
90.0,0.04957395100272544,-0.1149888502725461,-0.059592509305210914,-0.23000000000000032,0.02000000000000001,-9.8,0.005025568672965056,-0.0054405133883171294,-0.01625697890818858,142.1875,-1.3125,-179.8125,-0.005249019999999995,-0.3237914999999999,-0.946044919999999,0.010864259999999997
91.0,0.049514720538583565,-0.1154979533620795,-0.0599626240694789,-0.23000000000000032,0.02000000000000001,-9.8,0.008657373744050767,-0.0007666470477565796,-0.016990733560794044,142.1875,-1.3125,-179.8125,-0.005249019999999995,-0.3237914999999999,-0.946044919999999,0.010864259999999997
92.0,0.049640734959118075,-0.11508644566367005,-0.058945331885856066,-0.23000000000000032,0.02000000000000001,-9.8,0.000242148410486922,-0.0027871696777244433,-0.008526384150124069,142.1875,-1.3125,-179.8125,-0.005249019999999995,-0.3237914999999999,-0.946044919999999,0.010864259999999997
93.0,0.050418214774043936,-0.1144428553760598,-0.05808015488673657,-0.23000000000000032,0.02000000000000001,-9.8,-0.007194506895172772,-0.006675253510818518,5.7157007924437536e-05,142.1875,-1.3125,-179.8125,-0.005249019999999995,-0.32379149999999995,-0.946044919999999,0.010864259999999997
94.0,0.05178895931721764,-0.11246468522372532,-0.058314270991755374,-0.23000000000000032,0.02000000000000001,-9.8,0.01716722301989114,0.006908274883935003,-0.02114077633474746,142.1875,-1.3125,-179.8125,-0.005249019999999995,-0.3237914999999999,-0.946044919999999,0.010864259999999997
95.0,0.054178249819899126,-0.11865673777315297,-0.057468627431361566,-0.23000000000000032,0.0203225806451613,-9.8,-0.05601127256263508,-0.022093997638677657,0.003605519090690788,142.18951612903226,-1.3125,-179.8125,-0.005254434516129028,-0.3237747650806453,-0.9460523033870958,0.010861306451612903
96.0,0.05351424297606659,-0.11872691207075964,-0.05914558402705515,-0.23000000000000032,0.025322580645161307,-9.8,-0.19315511999219565,-0.04232651534859521,0.25756048387096775,142.32482440166496,-1.3125,-179.78024193548384,-0.005418384157127994,-0.32265261882544227,-0.9464373059703433,0.010797238584807491
97.0,0.053010861082206026,-0.11811719562955256,-0.059022827783558794,-0.23000000000000032,0.027822580645161313,-9.8,-0.09750788566597296,0.006995479968782522,0.17404559053069718,142.44971058792925,-1.3125,-179.7641129032258,-0.005522713691467226,-0.32155245425143075,-0.9468081478238812,0.01073624090530698
98.0,0.05310012356919874,-0.11851229188345475,-0.058749187044745056,-0.23000000000000032,0.029072580645161314,-9.8,-0.03995776697450573,-0.00037192702913631595,0.038489366545265344,142.5121536810614,-1.3125,-179.75604838709677,-0.005574878458636843,-0.32100237196442494,-0.9469935687506503,0.010705742065556724
99.0,0.05270647979535205,-0.11570843088796393,-0.05673060830731876,-0.23000000000000032,0.029697580645161314,-9.8,-0.02331284686090878,-0.00964076862209504,0.04786321485865418,142.54337522762745,-1.3125,-179.75201612903226,-0.00560096084222165,-0.3207273308209221,-0.9470862792140348,0.010690492645681598
100.0,0.05374453694068678,-0.1160607006590357,-0.05652575442247658,-0.23000000000000032,0.030000000000000027,-9.8,-0.02415642343045439,0.009423777315296566,0.04554934096427333,142.55892299687827,-1.3125,-179.75,-0.005613832830385022,-0.3205903332154004,-0.9471324037148803,0.01068296023413113
101.0,0.05382596253902184,-0.11555376344086023,-0.05558597814776274,-0.23000000000000032,0.030000000000000027,-9.8,-0.0012008704040929585,-0.007319849115504682,0.008027662157474852,142.5625,-1.3125,-179.75,-0.0056152300000000075,-0.32055663999999984,-0.9471435499999998,0.010681150000000018
102.0,0.05413202393340269,-0.11588302115851545,-0.05652087669094692,-0.23000000000000032,0.030000000000000027,-9.8,0.0004401475242802634,-0.010586303329864724,-0.024114420742282344,142.5625,-1.3125,-179.75,-0.0056152300000000075,-0.32055663999999984,-0.9471435499999998,0.010681150000000018
103.0,0.05512876798308639,-0.11452081165452656,-0.05697483606692763,-0.23000000000000032,0.030000000000000027,-9.8,0.01838548634854566,-0.03332894595576698,-0.05714009567580067,142.5625,-1.3125,-179.75,-0.0056152300000000075,-0.32055663999999984,-0.9471435499999998,0.010681150000000018
104.0,0.056786862230150455,-0.11459053895578347,-0.05660454552962356,-0.23000000000000032,0.030000000000000027,-9.8,0.027709928274119222,-0.007674297606659731,-0.06528599765868887,142.5625,-1.3125,-179.75,-0.0056152300000000075,-0.32055663999999984,-0.9471435499999998,0.010681150000000018
105.0,0.058394839205192985,-0.11472742513585386,-0.05500247757791982,-0.23000000000000032,0.030000000000000027,-9.8,0.008676232698247528,0.002911283096311711,-0.037428105076144226,142.5625,-1.3125,-179.75,-0.0056152300000000075,-0.32055663999999984,-0.9471435499999998,0.010681150000000018
106.0,0.05863030201674841,-0.11336267198520061,-0.0568352658441108,-0.23000000000000032,0.030000000000000027,-9.8,0.014044802093140412,-0.007503125361313447,-0.02838822007189105,142.5625,-1.3125,-179.75,-0.0056152300000000075,-0.32055663999999984,-0.9471435499999998,0.010681150000000018
107.0,0.058287597244933334,-0.11398913169152505,-0.058629998513453255,-0.23000000000000032,0.030000000000000027,-9.8,-0.0005359826899889331,-0.014852873164527691,0.025350370810828665,142.5625,-1.3125,-179.75,-0.0056152300000000075,-0.32055663999999984,-0.9471435499999998,0.010681150000000018
108.0,0.05762611697471218,-0.1140219678575558,-0.05852349569727301,-0.23000000000000032,0.030000000000000027,-9.8,-0.006046941842987629,-0.027358034785193996,0.029740019490279632,142.5625,-1.3125,-179.75,-0.0056152300000000075,-0.32055663999999984,-0.9471435499999998,0.010681150000000018
109.0,0.05843799448325983,-0.11338835208033962,-0.05706512726491915,-0.23000000000000032,0.030000000000000027,-9.8,-0.02577692714269197,-0.025543776737195052,0.010949758849082468,142.5625,-1.3125,-179.75,-0.0056152300000000075,-0.32055663999999984,-0.9471435499999998,0.010681150000000018
110.0,0.05780636489767603,-0.11294675685050296,-0.05813805064169268,-0.23000000000000032,0.030000000000000027,-9.8,-0.02415886229621922,-0.018719107700312175,0.013407258064516127,142.5625,-1.3125,-179.75,-0.0056152300000000075,-0.32055663999999984,-0.9471435499999998,0.010681150000000018
111.0,0.05663008729332869,-0.11643699932279539,-0.05851896172967973,-0.23000000000000032,0.030000000000000027,-9.8,0.00041246510744429553,-0.007018758877987547,0.08586559862411841,142.60909498207883,-1.3125,-179.75,-0.0056152300000000075,-0.3201946167741935,-0.9472680591653863,0.010681150000000018
112.0,0.051795970425978215,-0.11601061435673819,-0.058107151115735924,-0.23000000000000032,0.030000000000000027,-9.8,-0.0077510767140709915,0.01988491779602927,0.03250653203095321,142.71482974910393,-1.3125,-179.75,-0.0056152300000000075,-0.31939856581669224,-0.9475523284536611,0.010681150000000018
113.0,0.05045842159704672,-0.1155618785408718,-0.06006269304461291,-0.23000000000000032,0.030000000000000027,-9.8,0.007551773636093353,0.03363429775634673,0.003476706380176076,142.7676971326165,-1.3125,-179.75,-0.0056152300000000075,-0.31900104032770094,-0.9476944630977986,0.010681150000000018
114.0,0.05151891366737582,-0.11747381010597265,-0.05942502050432655,-0.23000000000000032,0.030000000000000027,-9.8,-0.009280407801202397,0.017179422063657235,0.021462230272319662,142.79413082437276,-1.3125,-179.75,-0.0056152300000000075,-0.3188022775832053,-0.9477655304198673,0.010681150000000018
115.0,0.050642391276976145,-0.11689036622934032,-0.05923656753376477,-0.23000000000000032,0.030000000000000027,-9.8,0.005958151813519344,0.039490527393753194,-0.01511440994518731,142.80734767025086,-1.3125,-179.75,-0.0056152300000000075,-0.31869539636456723,-0.9478010640809016,0.010681150000000018
116.0,0.0457961060327533,-0.12095030344237112,-0.05995878555899708,-0.23000000000000032,0.030000000000000027,-9.8,0.0030830825631856834,0.03429819508448541,0.05701492764389379,142.8603830645161,-1.3125,-179.75,-0.0056152300000000075,-0.3181429561661547,-0.9479768815322587,0.010681150000000018
117.0,0.04498017971510833,-0.12240828527779876,-0.05959217848958727,-0.23000000000000032,0.030000000000000027,-9.8,-0.0003177252524489435,0.014842589269975573,0.06739939552852693,142.9009576612903,-1.3125,-179.75,-0.0056152300000000075,-0.31771072612711226,-0.9481164268951618,0.010681150000000018
118.0,0.04792338709677419,-0.12306034537030042,-0.06069609176298757,-0.23000000000000032,0.030000000000000027,-9.8,-0.007385554642710247,-0.009163373341139733,0.03567018453115425,142.93129255354307,-1.3125,-179.75,-0.0056152300000000075,-0.3174749712417688,-0.9481954944682047,0.010681150000000018
119.0,0.04883349716825029,-0.12195962629392523,-0.05703933398643911,-0.23000000000000032,0.030000000000000027,-9.8,-0.01002689819953871,-0.007183143486386724,0.01306131239147058,142.96867047031992,-1.3125,-179.75,-0.0056152300000000075,-0.3173137141692717,-0.9482572327179732,0.010681150000000018
120.0,0.0485296518099316,-0.12225093449872915,-0.05563180216987086,-0.23000000000000032,0.030000000000000027,-9.8,0.020372175580210164,0.020145947458035517,-0.03198380873001996,142.98735942870832,-1.3125,-179.75,-0.0056152300000000075,-0.3172333200032228,-0.9482881018428575,0.010681150000000018
121.0,0.04890395506729671,-0.12371123402876105,-0.056640367786288184,-0.23000000000000032,0.030000000000000027,-9.8,0.014852959050510907,0.022103187211067705,-0.014965040258610394,142.99520756213644,-1.3125,-179.75,-0.0056152300000000075,-0.31720907019566397,-0.9482984757324165,0.010681150000000018
122.0,0.04864334348598734,-0.12278054965269233,-0.057022600519939355,-0.23000000000000032,0.030000000000000027,-9.8,-0.004284171595760552,0.004444744537685315,0.01588868054557078,142.99861184558432,-1.3125,-179.75,-0.0056152300000000075,-0.3172024212268644,-0.9483018322210468,0.010681150000000018
123.0,0.048179418966684824,-0.12359281316584907,-0.059530602216606374,-0.23000000000000032,0.030000000000000027,-9.8,-0.003439349150603703,0.011790722348165765,0.008398795587433722,143.0,-1.3125,-179.75,-0.0056152300000000075,-0.3171997100000003,-0.9483032199999998,0.010681150000000018
124.0,0.047760365050459996,-0.12436404446013578,-0.05870390672744989,-0.23000000000000032,0.030000000000000027,-9.8,0.0010931506068001258,0.017943358052334702,0.01369471517144839,143.0,-1.3125,-179.75,-0.0056152300000000075,-0.3171997100000003,-0.9483032199999998,0.010681150000000018
125.0,0.04804768924566011,-0.12558508002576682,-0.05849644261103677,-0.23000000000000032,0.030000000000000027,-9.8,0.002969080343722644,0.0017482667277802537,0.02581787169862742,143.0,-1.3125,-179.75,-0.0056152300000000075,-0.3171997100000003,-0.9483032199999998,0.010681150000000018
126.0,0.04836256282961601,-0.12507841026415856,-0.05928464170093982,-0.23000000000000032,0.030000000000000027,-9.8,-0.0034211783419818404,-0.005333113185981079,0.017570767786674043,143.0,-1.3125,-179.75,-0.0056152300000000075,-0.3171997100000003,-0.9483032199999998,0.010681150000000018
127.0,0.04992408341567452,-0.12528763949341684,-0.05920685667307025,-0.23000000000000032,0.030000000000000027,-9.8,0.00014626812941476728,0.000519124213658009,0.013476391810151391,143.0,-1.3125,-179.75,-0.0056152300000000075,-0.3171997100000003,-0.9483032199999998,0.010681150000000018
128.0,0.0501611744523329,-0.1233105824195195,-0.059570666239760914,-0.23000000000000032,0.030000000000000027,-9.8,0.0026805509393873633,0.006120437202835148,0.01952326414944333,143.0,-1.3125,-179.75,-0.0056152300000000075,-0.3171997100000003,-0.9483032199999998,0.010681150000000018
129.0,0.051240490105112,-0.1219187320699748,-0.057757237386269644,-0.23000000000000032,0.030000000000000027,-9.8,-0.010031342636445756,0.001073355958337449,0.0385012262474584,143.0,-1.3125,-179.75,-0.0056152300000000075,-0.3171997100000003,-0.9483032199999998,0.010681150000000018
130.0,0.052367556880512985,-0.12117954012612926,-0.05784316042380558,-0.23000000000000032,0.030000000000000027,-9.8,-0.01586916594187879,0.005346585813270107,0.060170832017738415,143.0,-1.3125,-179.75,-0.0056152300000000075,-0.3171997100000003,-0.9483032199999998,0.010681150000000018
131.0,0.052843436133758706,-0.12125306234983657,-0.05687344913151364,-0.23000000000000032,0.030000000000000027,-9.8,-0.035435621725944305,0.0038791405726889597,0.060658651384457835,143.0,-1.3125,-179.75,-0.0056152300000000075,-0.3171997100000003,-0.9483032199999998,0.010681150000000018
132.0,0.05251766513056835,-0.12062570404505892,-0.05759139784946236,-0.23000000000000032,0.030000000000000027,-9.8,0.001052867383512547,0.015287378392217102,0.018868407578084993,143.0,-1.3125,-179.75,-0.0056152300000000075,-0.3171997100000003,-0.9483032199999998,0.010681150000000018
133.0,0.05308513783591826,-0.11920760451249529,-0.05979465834200484,-0.23000000000000032,0.030000000000000027,-9.8,-0.011520272781328972,-0.016481725798193018,0.03817049452455279,143.0,-1.3125,-179.75,-0.0056152300000000075,-0.3171997100000003,-0.9483032199999998,0.010681150000000018
134.0,0.053685042036238695,-0.11838337214872079,-0.05859087755809919,-0.23000000000000032,0.030000000000000027,-9.8,-0.023552475100341905,-0.02079126612490296,0.027250569842921558,143.0,-1.3125,-179.75,-0.0056152300000000075,-0.3171997100000003,-0.9483032199999998,0.010681150000000018
135.0,0.054036416266124904,-0.11809923938357864,-0.057996775019407684,-0.23000000000000032,0.030000000000000027,-9.8,-0.014561964223774836,-0.007938185463224485,0.0019233747088845937,143.0,-1.3125,-179.75,-0.0056152300000000075,-0.3171997100000003,-0.9483032199999998,0.010681150000000018
136.0,0.05389155378989635,-0.11797682425322026,-0.055213293738278754,-0.23000000000000032,0.030000000000000027,-9.8,-0.0020429519627036333,0.006933842344368214,0.004922347616360077,143.0,-1.3125,-179.75,-0.005615230000000007,-0.3171997100000003,-0.9483032199999998,0.010681150000000018
137.0,0.05499095552831619,-0.11831975100971803,-0.053471197684262506,-0.23000000000000032,0.030000000000000027,-9.8,-0.022421168142295278,-0.0011154366148432952,0.0246662336416868,143.0,-1.3125,-179.75,-0.005615230000000007,-0.3171997100000003,-0.9483032199999998,0.010681150000000018
138.0,0.055387554469970485,-0.12001294687562031,-0.05580320368497023,-0.23000000000000032,0.030000000000000027,-9.8,-0.02773370606708441,-0.01619484811598746,0.01807903294657222,143.0,-1.3125,-179.75,-0.0056152300000000075,-0.3171997100000003,-0.9483032199999998,0.010681150000000018
139.0,0.05565696687912247,-0.11963464964108718,-0.057452893125127205,-0.23000000000000032,0.030000000000000027,-9.8,-0.03224502923681922,0.0061212359362459,0.048694554395713144,143.0,-1.3125,-179.75,-0.0056152300000000075,-0.3171997100000003,-0.9483032199999998,0.010681150000000018
140.0,0.05617135544788589,-0.11926841743240622,-0.05793560369055527,-0.23000000000000032,0.030000000000000027,-9.8,-0.02486991316159379,-0.008467087546965499,0.04288265701055168,143.0,-1.3125,-179.75,-0.0056152300000000075,-0.3171997100000003,-0.9483032199999998,0.010681150000000018
141.0,0.05437541150028141,-0.12363723685263744,-0.05877046828763789,-0.23000000000000032,0.030000000000000027,-9.8,-0.016541866619910323,-0.05122538462809014,0.1964736601703303,143.11116625310171,-1.3353287841191066,-179.75,-0.005660302277915636,-0.3162435005310176,-0.9486187256277921,0.010770324947890821
142.0,0.05405765768512906,-0.12659109418734807,-0.058859905038885246,-0.23000000000000032,0.030000000000000027,-9.8,-0.0014761758648335144,-0.033675143794810805,0.03252578586865787,143.19741620386782,-1.3561724565756825,-179.75,-0.0057007700099255595,-0.31541652147646615,-0.9488935018871159,0.010851745215880887
143.0,0.05511945864287175,-0.12507639706807241,-0.05902800679491625,-0.23000000000000032,0.030000000000000027,-9.8,0.014306074894004135,-0.005572850955265106,-0.0006117870451897468,143.22774035999842,-1.3665942928039703,-179.75,-0.005721003875930521,-0.3150795376737168,-0.9490078886854927,0.01089245534987592
144.0,0.05500334276187637,-0.1251739501729608,-0.05876786252968848,-0.23000000000000032,0.030000000000000027,-9.8,-0.015523036772567656,0.0020697541703239303,0.008493620465972527,143.24290243806374,-1.3718052109181142,-179.75,-0.005731120808933003,-0.3149110457723422,-0.9490650820846811,0.010912810416873437
145.0,0.05497565681278002,-0.12325034657451371,-0.06061962325235724,-0.23000000000000032,0.030000000000000027,-9.8,0.0020914993036225188,0.017017577397336784,-0.02303596812289303,143.2504834770964,-1.3744106699751861,-179.75,-0.005736179275434244,-0.31482679982165485,-0.9490936787842752,0.010922987950372196
146.0,0.05580457975539942,-0.12215650575407322,-0.06130284010307807,-0.23000000000000032,0.030000000000000027,-9.8,-0.0029264430300588416,-0.0028342141765925477,-0.03440166400157807,143.25080005120327,-1.375,-179.75,-0.005737300000000001,-0.3148145583922169,-0.9490981175832038,0.010925289999999987
147.0,0.05500525801604765,-0.12034703704696544,-0.059672941945069245,-0.23000000000000032,0.030000000000000027,-9.8,-0.005297273345959503,-0.01833070568763889,-0.019851324212935773,143.25,-1.375,-179.75,-0.005737300000000001,-0.3148193399999998,-0.9490966799999985,0.010925289999999987
148.0,0.05570300799621349,-0.12070934612792482,-0.05968068919922244,-0.23000000000000032,0.030000000000000027,-9.8,0.0005994794031704337,-0.006857270700332754,-0.005174262934953697,143.25,-1.375,-179.75,-0.005737300000000001,-0.3148193399999998,-0.9490966799999985,0.010925289999999987
149.0,0.05585230575856801,-0.12093867879569677,-0.058865182115177314,-0.23000000000000032,0.030000000000000027,-9.8,0.007790655926146381,0.013055431793007569,-0.014867820128536876,143.25,-1.375,-179.75,-0.005737300000000001,-0.3148193399999998,-0.9490966799999986,0.010925289999999987
150.0,0.05742407171383135,-0.1182847660367662,-0.05864556907527857,-0.23000000000000032,0.030000000000000027,-9.8,0.005156932899337498,0.0003162296517066976,-0.012842602994809542,143.25,-1.375,-179.75,-0.005737300000000001,-0.3148193399999998,-0.9490966799999987,0.010925289999999987
151.0,0.05997266053689519,-0.11593910600865448,-0.06127055719508935,-0.23000000000000032,0.030000000000000027,-9.8,0.025824754212085542,0.015074269459749918,-0.010178341947993608,143.25,-1.375,-179.75,-0.005737300000000001,-0.3148193399999998,-0.9490966799999987,0.010925289999999987
152.0,0.05761844425227854,-0.11854359446754666,-0.0603488782133295,-0.23000000000000032,0.030000000000000027,-9.8,0.07506093029582905,-0.0028444289457834095,-0.029260456894112066,143.27183622828784,-1.375,-179.75,-0.005737300000000001,-0.3146201477816376,-0.9491543540049617,0.010925289999999987
153.0,0.05548029563222072,-0.12191457883081191,-0.057679727313962474,-0.23000000000000032,0.030000000000000027,-9.8,-0.008956182128658716,0.01764838309453294,0.05076175991888791,143.2725108560794,-1.375,-179.75,-0.005737300000000001,-0.3145937344553349,-0.9491471745024807,0.010925289999999987
154.0,0.055568625096720815,-0.1223988433522773,-0.05603237146135168,-0.23000000000000032,0.030000000000000027,-9.8,-0.030495911043517704,0.015830781904533207,0.03274408668854559,143.29351349255583,-1.375,-179.75,-0.005737300000000001,-0.3144545165825061,-0.9491849311222081,0.010925289999999987
155.0,0.05680356332879745,-0.12068433322660695,-0.055791940153152426,-0.23000000000000032,0.030000000000000027,-9.8,-0.013735858747565301,-0.002311586154913418,0.03893968122148403,143.30401481079406,-1.375,-179.75,-0.005737300000000001,-0.3143849076460917,-0.9492038094320718,0.010925289999999987
156.0,0.05852295618879906,-0.12091805577790232,-0.05457855899303608,-0.23000000000000032,0.030000000000000027,-9.8,-0.006597819779076282,0.015264027021798875,0.05235859164465434,143.33010914236974,-1.375,-179.75,-0.005737300000000001,-0.3141896856691999,-0.9492738308599571,0.010925289999999987
157.0,0.05812872375196776,-0.11939327106512981,-0.05302501150644359,-0.23000000000000032,0.030000000000000027,-9.8,-0.002213301949091492,0.018557881997251793,0.03298760847741402,143.35388831808314,-1.375,-179.75,-0.005737300000000001,-0.3140067014623918,-0.9493409653753887,0.010925289999999987
158.0,0.060235236811979787,-0.11838459156175077,-0.05388709772710812,-0.23000000000000032,0.030000000000000027,-9.8,0.016727490410502897,0.004584140531395994,-0.02190815348658741,143.36609801488834,-1.375,-179.75,-0.005737300000000001,-0.3139129223970228,-0.9493756581488846,0.010925289999999987
159.0,0.06058453321161437,-0.11636744052860079,-0.05457072007943495,-0.23000000000000032,0.030000000000000027,-9.8,0.01810319929954425,-0.004891035606924004,-0.008691101143624556,143.3715570719603,-1.375,-179.75,-0.005737300000000001,-0.3138699707146407,-0.9493917124615397,0.010925289999999987
160.0,0.062258967958564726,-0.11449225304265628,-0.054936244535034845,-0.23000000000000032,0.030000000000000027,-9.8,0.00497056426995943,-0.04496307763696876,-0.03125436951041789,143.37428660049628,-1.375,-179.75,-0.005737300000000001,-0.3138484948734496,-0.9493997396178673,0.010925289999999987
161.0,0.05917846091456284,-0.1159620684324049,-0.058669806358149154,-0.23000000000000032,0.03338445267054471,-9.8,0.024135914685929558,-0.04839222913292932,0.0732487661051417,143.39562400846114,-1.375,-179.75,-0.005737300000000001,-0.3137224430618723,-0.9494416246113171,0.010905667451084074
162.0,0.05596418167996612,-0.11818028954918894,-0.05863600554640027,-0.23000000000000032,0.03360689855171356,-9.8,0.028622774915805567,0.03634720375429496,-0.011951725818396888,143.38843375240953,-1.375,-179.75,-0.005737300000000001,-0.31384764386704445,-0.9494034488613304,0.010905317643335993
163.0,0.05364773344110953,-0.11826833217858834,-0.05948068954879012,-0.23000000000000032,0.03180344927585679,-9.799999999999999,0.02699583562622192,0.04371705483995528,-0.018036271138961515,143.38171687620476,-1.375,-179.75,-0.005737300000000001,-0.3139712146754578,-0.949371149914537,0.010915303821667992
164.0,0.05443562771941253,-0.12044989337276338,-0.05932571639202473,-0.23000000000000032,0.03090172463792841,-9.799999999999999,0.02089925303702683,0.0031304365144673788,-0.06234708708391613,143.3783584381024,-1.375,-179.75,-0.005737300000000001,-0.3140330000796645,-0.9493550004411402,0.01092029691083399
165.0,0.05478149793548712,-0.11935777118714974,-0.05769033195433289,-0.23000000000000032,0.03045086231896422,-9.8,-0.00785754514047276,0.01365674211476057,-0.006800983698128066,143.3766792190512,-1.375,-179.75,-0.005737300000000001,-0.31406389278176783,-0.9493469257044418,0.010922793455416989
166.0,0.054790273029086754,-0.12036370843863041,-0.055101115210376375,-0.23000000000000032,0.0301196670135276,-9.8,0.02966786941812956,0.03534337634558758,-0.001673561653400362,143.35251365764827,-1.375,-179.75,-0.005737300000000001,-0.3142130483818941,-0.9492973461758591,0.01092465493236211
167.0,0.05488799283154121,-0.11845622119815669,-0.057412721686915205,-0.23000000000000032,0.030000000000000027,-9.8,0.042475445701252154,0.003992619163990133,-0.008029241144160499,143.3314012096774,-1.375,-179.75,-0.005737300000000001,-0.3143409012903228,-0.9492556663709681,0.010925289999999987
168.0,0.0562464591282229,-0.11850577275655319,-0.05703898468856843,-0.23000000000000032,0.030000000000000027,-9.8,0.026548537816097652,0.01941227464364171,0.004202139904695836,143.32094254032256,-1.375,-179.75,-0.005737300000000001,-0.3144029224193551,-0.9492352393145163,0.010925289999999987
169.0,0.05456844205771104,-0.12034351617858381,-0.05797033719835487,-0.23000000000000032,0.030000000000000027,-9.8,0.015050382579323786,0.008282046179987778,-0.032021113867416545,143.31571320564515,-1.375,-179.75,-0.005737300000000001,-0.31447429475806477,-0.9492048447379028,0.010925289999999987
170.0,0.053568143199874456,-0.12125086715227193,-0.05590401140511701,-0.23000000000000032,0.030000000000000027,-9.8,-0.02667699765043027,0.004309033842682062,0.04071307337863171,143.31309853830646,-1.375,-179.75,-0.005737300000000001,-0.31456166375000016,-0.9491645430141131,0.010925289999999987
171.0,0.05153945336372494,-0.12243669788414846,-0.05515430148819846,-0.23000000000000032,0.030000000000000027,-9.8,-0.05343141961085509,0.01689695237269379,0.04258730623276019,143.3125,-1.375,-179.75,-0.005737300000000001,-0.3145722466129034,-0.9491595574798393,0.010925289999999987
172.0,0.05252178720083245,-0.12285379812695107,-0.05741577783558791,-0.23000000000000032,0.030000000000000027,-9.8,-0.04216392429760666,0.02962815426638918,0.024687418704474502,143.3125,-1.375,-179.75,-0.005737300000000001,-0.3145756921774195,-0.9491576492237912,0.010925289999999987
173.0,0.05323800078043703,-0.12419224765868885,-0.05980830515088448,-0.23000000000000032,0.030000000000000027,-9.8,-0.01974871553069719,0.008196621357960458,0.059982887291883454,143.3125,-1.375,-179.75,-0.005737300000000001,-0.3145774149596775,-0.9491566950957671,0.010925289999999987
174.0,0.053946949378953786,-0.1259113280024115,-0.05836521408337875,-0.23000000000000032,0.030000000000000027,-9.8,-0.013009558418190377,-0.00607934069070743,-0.00114829929760666,143.3125,-1.375,-179.75,-0.005737300000000001,-0.31457701504536306,-0.949156848689517,0.010925289999999987
175.0,0.05356913681185273,-0.12792034174058106,-0.06010014576416761,-0.23000000000000032,0.030000000000000027,-9.8,-0.035115860318286174,-0.0010072902730290868,0.01811154623573328,143.3125,-1.375,-179.75,-0.005737300000000001,-0.31457520000000017,-0.949157710000001,0.010925289999999987
176.0,0.05332202938407411,-0.1261610033364716,-0.05949596258031481,-0.23000000000000032,0.030000000000000027,-9.8,-0.00524978759930958,0.007073097839552053,-0.00726836840138414,143.3125,-1.375,-179.75,-0.005737300000000001,-0.31457520000000017,-0.949157710000001,0.010925289999999987
177.0,0.056519297235023025,-0.1263080837173579,-0.05975318420378903,-0.23000000000000032,0.030000000000000027,-9.8,-0.012922327028929849,-0.011962765616999486,0.028014292914746542,143.3125,-1.375,-179.75,-0.005737300000000001,-0.31457520000000017,-0.949157710000001,0.010925289999999987
178.0,0.05644074253010256,-0.12506627520935532,-0.061009282658606265,-0.23000000000000032,0.030000000000000027,-9.8,0.0049379934509357,-0.04377364022265167,-0.08686484967295971,143.29168834547346,-1.375,-179.75,-0.005737300000000001,-0.31464277552549436,-0.949127733309054,0.010925289999999987
179.0,0.05602291128335015,-0.12258203253723204,-0.06131478629333492,-0.23000000000000032,0.030000000000000027,-9.8,0.02213136987144755,-0.03372967641478499,-0.08208591505329635,143.23757804370447,-1.375,-179.75,-0.005737300000000001,-0.31495550647242465,-0.9490167139125917,0.010925289999999987
180.0,0.05594412333240728,-0.12379613659631697,-0.06038985602429162,-0.23000000000000032,0.030000000000000027,-9.8,0.03165100239604124,-0.013904648755267559,-0.05831606300539882,143.21052289282,-1.375,-179.75,-0.005737300000000001,-0.3151118719458898,-0.9489612042143606,0.010925289999999987
181.0,0.05608755008972081,-0.12382542261657682,-0.05979885621193769,-0.23000000000000032,0.030000000000000027,-9.8,0.01443839629427452,-0.0066840491435026655,-0.009939261178818038,143.19699531737774,-1.375,-179.75,-0.005737300000000001,-0.3151900546826224,-0.948933449365245,0.010925289999999987
182.0,0.053651667064703756,-0.12451786689070471,-0.05795336782040563,-0.23000000000000032,0.030000000000000027,-9.8,-0.006194119321574178,-0.00605091925248631,0.013075852190341344,143.19023152965661,-1.375,-179.75,-0.005737300000000001,-0.3152291460509887,-0.9489195719406872,0.010925289999999987
183.0,0.054063086393954365,-0.12421262751403081,-0.05805316674058782,-0.23000000000000032,0.030000000000000027,-9.8,-0.032688630940703844,0.015298551820166833,0.0519821248464714,143.1875,-1.375,-179.75,-0.005737300000000001,-0.3152465800000001,-0.9489135700000004,0.010925289999999987
184.0,0.05668670090496578,-0.12018635333327649,-0.05800382702018046,-0.23000000000000032,0.030000000000000027,-9.8,-0.01123255944435441,0.01583373625705805,0.01422320192955596,143.1875,-1.375,-179.75,-0.005737300000000001,-0.3152465800000001,-0.9489135700000004,0.010925289999999987
185.0,0.05746515824818181,-0.11871968876341242,-0.05763312990793969,-0.23000000000000032,0.030000000000000027,-9.8,-0.017520891617338497,0.004596555628529026,0.028599126166390883,143.1875,-1.375,-179.75,-0.005737300000000001,-0.3152465800000001,-0.9489135700000004,0.010925289999999987
186.0,0.058956304410251154,-0.11832966748264276,-0.05761989481869409,-0.23000000000000032,0.030000000000000027,-9.8,-0.007719863082342504,0.007826373547875335,0.015730364331894713,143.1875,-1.375,-179.75,-0.005737300000000001,-0.3152465800000001,-0.9489135700000004,0.010925289999999987
187.0,0.05919941250433576,-0.1179147697710718,-0.055457650450919174,-0.23000000000000032,0.030000000000000027,-9.8,-0.007592595603537981,0.00713408883975026,0.010912298387096774,143.1875,-1.375,-179.75,-0.005737300000000001,-0.3152465800000001,-0.9489135700000004,0.010925289999999987
188.0,0.06104169296554704,-0.11754059978505997,-0.05784115831641675,-0.23000000000000032,0.030000000000000027,-9.8,0.013510703288923766,-0.009131366639088381,0.03216056319407721,143.1875,-1.375,-179.75,-0.005737300000000001,-0.3152465800000001,-0.9489135700000004,0.010925289999999987
189.0,0.062310691418888564,-0.11764557496460314,-0.05979790980763433,-0.23000000000000032,0.030000000000000027,-9.8,0.00551886002882926,-0.006924852815117449,0.008554448277920882,143.1875,-1.375,-179.75,-0.005737300000000001,-0.3152465800000001,-0.9489135700000004,0.010925289999999987
190.0,0.062072012376110944,-0.11700827135326931,-0.05889357855973114,-0.23000000000000032,0.030000000000000027,-9.8,-0.0069683925662305315,0.0016787026246993398,0.005134078977670119,143.1875,-1.375,-179.75,-0.005737300000000001,-0.3152465800000001,-0.9489135700000004,0.010925289999999987
191.0,0.06307909694586396,-0.1167320222613761,-0.05882918975349588,-0.23000000000000032,0.030000000000000027,-9.8,0.006212924332604139,-0.010598630718500302,0.00455216653696614,143.1875,-1.375,-179.75,-0.005737300000000001,-0.3152465800000001,-0.9489135700000004,0.010925289999999987
192.0,0.06396670768208909,-0.11598827960103143,-0.05918826813377186,-0.23000000000000032,0.030000000000000027,-9.8,-0.009770749071991373,-0.00071424772137294,-0.005121809551496118,143.1875,-1.375,-179.75,-0.005737300000000001,-0.3152465800000001,-0.9489135700000004,0.010925289999999987
193.0,0.0658120159245982,-0.11360096158792979,-0.05773665125355964,-0.23000000000000032,0.030000000000000027,-9.8,-0.020518637359898385,-0.0024971952514849893,0.007651945567985416,143.1875,-1.375,-179.75,-0.005737300000000001,-0.3152465800000001,-0.9489135700000004,0.010925289999999987
194.0,0.06437348548741809,-0.11319921162421347,-0.05901110722381841,-0.23000000000000032,0.030000000000000027,-9.8,-0.021331502709563153,-0.001711315764293526,0.023640224502660078,143.1875,-1.375,-179.75,-0.005737300000000001,-0.3152465800000001,-0.9489135700000004,0.010925289999999987
195.0,0.06577192419532193,-0.11278660177984869,-0.059022186676425316,-0.23000000000000032,0.030000000000000027,-9.8,-0.023253956999942864,-0.0004755335541897737,0.004245977506706383,143.1875,-1.375,-179.75,-0.005737300000000001,-0.3152465800000001,-0.9489135700000004,0.010925289999999987
196.0,0.06585319200037472,-0.1155484468192638,-0.058466546487214194,-0.23000000000000032,0.030000000000000027,-9.8,0.003429985145701888,-0.023951284442225454,-0.022518588307578705,143.1875,-1.375,-179.75,-0.005737300000000001,-0.3152465800000001,-0.9489135700000004,0.010925289999999987
197.0,0.06672212149446416,-0.11438192372180672,-0.06069529197409615,-0.23000000000000032,0.030000000000000027,-9.8,-0.02812046528354864,-0.0045614902960346825,0.013161881704691396,143.1875,-1.375,-179.75,-0.005737300000000001,-0.3152465800000001,-0.9489135700000004,0.010925289999999987
198.0,0.0658207381665869,-0.11543709761359155,-0.056706684965542695,-0.23000000000000032,0.030000000000000027,-9.8,-0.007136089496613029,0.021453923870799863,0.019675278889980108,143.1875,-1.375,-179.75,-0.005737300000000001,-0.3152465800000001,-0.9489135700000004,0.010925289999999987
199.0,0.06644237979617791,-0.11799873849990916,-0.05676636853145696,-0.23000000000000032,0.030000000000000027,-9.8,0.004063072939893959,0.013865235762185553,-0.00013905406075020998,143.1875,-1.375,-179.75,-0.005737300000000001,-0.3152465800000001,-0.9489135700000004,0.010925289999999987
200.0,0.06673731893034703,-0.11783001441124491,-0.05767350684637365,-0.23000000000000032,0.030000000000000027,-9.8,-0.014702334497794955,-0.0046769251296599115,0.013270526733065755,143.1875,-1.375,-179.75,-0.005737300000000001,-0.3152465800000001,-0.9489135700000004,0.010925289999999987
201.0,0.06735301768990636,-0.11786096297259799,-0.05911977540756155,-0.23000000000000032,0.030000000000000027,-9.8,-0.019277607960457854,-0.03176331349722511,-0.04566640652098509,143.1875,-1.375,-179.75,-0.005737300000000001,-0.3152465800000001,-0.9489135700000004,0.010925289999999987
202.0,0.06871683142559834,-0.11570898369753732,-0.06009725112729794,-0.23000000000000032,0.030000000000000027,-9.8,-0.00869374349635796,-0.02496287504335761,-0.060009647069025326,143.1875,-1.375,-179.75,-0.005737300000000001,-0.3152465800000001,-0.9489135700000004,0.010925289999999987
203.0,0.06808918494356839,-0.11656375570319379,-0.05968779016249097,-0.23000000000000032,0.030000000000000027,-9.8,0.0068659074081485645,-0.0400196922776755,-0.08303030947330506,143.19295905707196,-1.375,-179.75,-0.005737300000000001,-0.31525772759305204,-0.9489150246898264,0.010925289999999987
204.0,0.06786514150305123,-0.11737549726259405,-0.05997524800396156,-0.23000000000000032,0.030000000000000027,-9.8,-0.006523296399158131,-0.03598041664244675,-0.03968639253458127,143.19022952853598,-1.375,-179.75,-0.005737300000000001,-0.31534666218362273,-0.9488827979900739,0.010925289999999987
205.0,0.06610366904607876,-0.11686662224314259,-0.05840269043508495,-0.23000000000000032,0.030000000000000027,-9.8,0.00044681045325012554,-0.011810907108240828,0.06541623574619429,143.2480926860025,-1.375,-179.75,-0.005737300000000001,-0.31482460662327616,-0.9490649938522548,0.010925289999999987
206.0,0.06415324178729784,-0.11740210189837458,-0.05706348452349032,-0.23000000000000032,0.030000000000000027,-9.8,-0.04089354883908031,0.005790262713656206,-0.02042095980722923,143.28128840649333,-1.375,-179.75,-0.005737300000000001,-0.31464107009607234,-0.9491192910607923,0.010925289999999987
207.0,0.0637416333005968,-0.11801106455680756,-0.05589318466949349,-0.23000000000000032,0.030000000000000027,-9.8,-0.033846278141624525,-0.004768910506615425,-0.018501622943717076,143.29891033227892,-1.375,-179.75,-0.005737300000000001,-0.31453430246739117,-0.9491424382723321,0.010925289999999987
208.0,0.06248903713948663,-0.11937541687409482,-0.05378329326822187,-0.23000000000000032,0.030000000000000027,-9.8,-0.03008065807510546,0.012277898521949288,-0.0055587597959358935,143.30755069963823,-1.375,-179.75,-0.005737300000000001,-0.3144805702907677,-0.9491539664190449,0.010925289999999987
209.0,0.0612010351714212,-0.12106574616992385,-0.054506952475223226,-0.23000000000000032,0.03071464019851119,-9.8,0.009085030370064744,-0.01619380311210031,0.1629294408511754,143.3249447046578,-1.375,-179.75,-0.005737300000000001,-0.3143362375200738,-0.9492029253484807,0.010921413156327529
210.0,0.059162902878272874,-0.12059104336523692,-0.05495077303046943,-0.23000000000000032,0.032254853306086705,-9.799999999999999,-0.13597409600730284,0.0647763447810886,-0.35479877227979695,143.1870090509322,-1.3693074003795065,-179.75,-0.005713674421252377,-0.31547696809263404,-0.94883761930643,0.01086915165406509
211.0,0.05905149752208573,-0.12008302808302808,-0.058852754666796396,-0.23000000000000032,0.031127426653043362,-9.799999999999999,-0.037505097158797344,0.082231362354702,-0.4086621869591509,142.81763086955212,-1.3685694707990723,-179.75,-0.005662483339658451,-0.31852680614309126,-0.9478214662046736,0.010827717089193323
212.0,0.05507772831735557,-0.12854008816839824,-0.058044613695014416,-0.2269186326432358,0.03179626026922751,-9.799999999999997,-0.04529577845977347,0.035104792691739356,0.089656397724454,142.9562546499903,-1.3457856983268353,-179.75,-0.005619962310175881,-0.3173560361312471,-0.948217826908307,0.010655050371751212
213.0,0.04688963672576914,-0.1330643575084936,-0.05801435527978334,-0.22329802599903736,0.03476909787654925,-9.799999999999997,-0.12044520708175865,0.0688281485822481,-0.2635849513440921,142.8563887101944,-1.2958767201311594,-179.74620493358634,-0.005595245424537652,-0.3182093238625875,-0.9479386708450454,0.010321811400296848
214.0,0.043119756328145104,-0.12942796039196391,-0.05749352999721177,-0.22148772267693817,0.03752350675465181,-9.799999999999997,-0.11158736780886941,0.08326643161122331,-0.27195996946857215,142.57287487618902,-1.2709222310333215,-179.74810246679317,-0.005634773357430116,-0.32048241822409773,-0.9471719342438625,0.010148721975582666
215.0,0.04184450814509723,-0.13923010922824003,-0.05906222989424156,-0.22058257101588855,0.04773471352912856,-9.799999999999999,-0.22781692868621836,0.06455185906936878,-0.013055411679257584,142.46747396560875,-1.2586228802225432,-179.68100687855787,-0.0061317435264380184,-0.3213830840764701,-0.9468720979710776,0.00989635675154845
216.0,0.04238922795887733,-0.15083241252502638,-0.05973208780938396,-0.21690418873375084,0.0674963890226288,-9.799999999999999,-0.28115116787613526,0.03826831304722919,0.06930114720696617,142.49774587937375,-1.242326673086182,-179.5496768263757,-0.0070685964406383625,-0.3211504291746919,-0.9469535170858974,0.009415760690162344
217.0,0.03228059772296016,-0.13401288133119257,-0.057407039118376864,-0.20806451612903223,0.05144212523719165,-9.799999999999999,-0.280624863158663,0.0221760509414684,-0.05991632152240549,142.40140752718582,-1.1913543643263758,-179.63703006404177,-0.006175668175996201,-0.32191166904017665,-0.9467081315072072,0.009247209855404323
218.0,0.027875336962742095,-0.12329043813555202,-0.05718251868572075,-0.2037096774193547,0.04060009487666035,-9.799999999999999,-0.2099524179502239,-0.0038406946732373673,0.04521794462718917,142.41402800457962,-1.1561610531309297,-179.69363362784628,-0.005581066666271343,-0.3217331066927638,-0.9467907558603399,0.009187327430074079
219.0,0.026437668481371055,-0.11727921410499688,-0.057673145198939756,-0.20153225806451597,0.03513875711574954,-9.799999999999999,-0.07819271021580673,-0.05080372202644499,0.18710959266098912,142.53397585092506,-1.1385643975332067,-179.7218168139231,-0.005282144462167926,-0.3208267411912952,-0.9470923229041155,0.00915463912446632
220.0,0.021925758868477096,-0.11389813682917338,-0.05819377638358898,-0.20044354838709655,0.03213087049335865,-9.8,-0.03457605811658823,-0.032641024319674104,0.10452888713384444,142.6156364889706,-1.1297660697343452,-179.73803479305025,-0.005117793738140412,-0.32011762142101996,-0.9473287667783996,0.009146479070801709
221.0,0.02042356491810952,-0.11249594341458671,-0.05925061803050416,-0.1999999999999998,0.030170777988614825,-9.8,-0.012090196397003799,-0.030165648248546728,-0.01792204836856165,142.64711070920305,-1.1256819259962048,-179.74919947817835,-0.005014145336812139,-0.31984329763339303,-0.9474260187873856,0.009153489409392791
222.0,0.02444981340344245,-0.11858627998345743,-0.0576390661310016,-0.19865012406947868,0.03571712158808936,-9.8,-0.12074892793138761,0.019071405185316477,0.31728058288038125,142.77530532723324,-1.125,-179.72071960297765,-0.005256896754342429,-0.3188315091282569,-0.9477579964948826,0.009025500886786594
223.0,0.031213011786600516,-0.13607560483870967,-0.05696246898263026,-0.1941637717121587,0.05866501240694792,-9.8,-0.08192365849875931,-0.013373332816377167,-0.006683273883374696,142.97662598867865,-1.125,-179.6063275434243,-0.006264963215880895,-0.31722069673534437,-0.9482907284583595,0.008529166823045905
224.0,0.02927866891173344,-0.1437289746543779,-0.05976493264799715,-0.19420630981921289,0.05930024813895783,-9.799999999999997,-0.11363878057426445,-0.03331667072846508,0.41330852866891177,143.2078869970755,-1.1342165898617511,-179.59659695143563,-0.0063090661978021986,-0.315310907270538,-0.9489200844327366,0.008597946971286775
225.0,0.030117139804639818,-0.12626371533932018,-0.0571066185158927,-0.19523935562645223,0.046944030879514764,-9.799999999999995,-0.1029353263224231,-0.07290833536423254,0.2308460895343456,143.62108059531192,-1.1488735279057858,-179.67329847571784,-0.005660474747646615,-0.3118745446901352,-0.950048618957201,0.008872672141557368
226.0,0.030144255386190887,-0.12018578912127299,-0.05693536570955923,-0.19761967781322598,0.04355266060104772,-9.799999999999997,-0.10388701799992123,-0.05971840659340659,0.3277308824687857,143.78404710209145,-1.169194828469022,-179.71164923785892,-0.00542718576092008,-0.31050386733246677,-0.9505010033798094,0.009076974941746432
227.0,0.02872845523651977,-0.11816609555319232,-0.05740316672574735,-0.19885202252944167,0.04175896057347672,-9.799999999999997,-0.03864481172948915,-0.013792205778092877,0.14720135934853676,143.8777400522864,-1.1793554787506402,-179.73173963133638,-0.005302665743983611,-0.30971267891933507,-0.950760922965338,0.009183170091220615
228.0,0.029726510496671806,-0.11565873015873017,-0.057793394777265736,-0.19958730158730137,0.04023431899641579,-9.799999999999997,-0.01857798899129544,-0.01675187211981567,0.07920706925243215,143.9202440956221,-1.184435803891449,-179.7449020737327,-0.0052128414203789,-0.3093521155762928,-0.9508792360980527,0.009249761998463911
229.0,0.02865833477858714,-0.11592799745635335,-0.0571093479014915,-0.19988351254480266,0.03981070788530468,-9.8,0.012208329720198868,0.00915184378251821,-0.006351664571048677,143.9373109879032,-1.1866879480286738,-179.75,-0.005182302078853044,-0.3092070875761648,-0.9509268141711453,0.009273156236559152
230.0,0.02940345343392302,-0.11140023413111344,-0.056727367325702396,-0.1999999999999998,0.03999495967741938,-9.8,0.007546257154006244,0.0042588693418314245,-0.16107387324401665,143.88449430118368,-1.1875,-179.75,-0.0051879899999999965,-0.30967931779526536,-0.9507863760093642,0.009277340000000012
231.0,0.030188117845993772,-0.11184427029136317,-0.059059248178980214,-0.1999999999999998,0.04000000000000002,-9.8,0.007427362447970864,-0.027372203433923,0.005132796240894896,143.8918281737773,-1.1875,-179.75,-0.0051879899999999965,-0.30968318859521315,-0.9507884833272624,0.009277340000000012
232.0,0.030295710597934858,-0.11288332466181067,-0.059247288481549656,-0.1999999999999998,0.04000000000000002,-9.8,-0.005518590410629952,-0.002807243931601696,0.018652054525534298,143.91466408688865,-1.1875,-179.75,-0.0051879899999999965,-0.3095696520395419,-0.9508266073087921,0.009277340000000012
233.0,0.029559257628716543,-0.11227227549014754,-0.057933456068731806,-0.1999999999999998,0.04000000000000002,-9.8,0.003897130805949744,-4.878525625143758e-05,-0.02909218150259383,143.92608204344432,-1.1875,-179.75,-0.0051879899999999965,-0.30951288376170627,-0.9508456692995568,0.009277340000000012
234.0,0.030064426396242228,-0.11085522170193088,-0.05803825570891126,-0.1999999999999998,0.04000000000000002,-9.8,0.028484715329473394,0.015328331881726782,0.08478852472860991,143.941519644354,-1.1875,-179.75,-0.005186989856630821,-0.30939049392898427,-0.9508852020563322,0.0092738400716846
235.0,0.024494314873610114,-0.11863038121396291,-0.05818134565294451,-0.19999999999999976,0.03820476858345023,-9.799999999999997,-0.017080690488605988,0.0152093332635496,0.09452283842486989,144.2506261487692,-1.1800198690977093,-179.73877980364654,-0.005185662158329436,-0.3067374343661646,-0.951732594773359,0.009257328792270543
236.0,0.024691093541023428,-0.12102676784023207,-0.056767782007613676,-0.1999999999999998,0.03910238429172512,-9.799999999999997,0.03209143980532479,0.057184962847655695,0.0682003246870007,144.34083120985292,-1.1554720933577876,-179.71213183730714,-0.005344333175938911,-0.30596150346999285,-0.9519841987555919,0.009176708014001275
237.0,0.02659136442840014,-0.11919496560586006,-0.05481421198355548,-0.1999999999999998,0.03955119214586257,-9.799999999999999,0.01892633304602268,0.06569675981972956,0.03308359306470422,144.33271399202323,-1.1392279821627647,-179.69880785413744,-0.005423668684743648,-0.30610538320221814,-0.9519294803455373,0.00913252078119418
238.0,0.02466099790209641,-0.12100108278717518,-0.05587278010261314,-0.1999999999999998,0.039775596072931296,-9.8,-0.013077352993314627,0.02586848704287513,-0.11972710929300531,144.27803503571386,-1.1569123781781565,-179.6921458625526,-0.005478362463959916,-0.30649492209242435,-0.95180519401396,0.009183121953872532
239.0,0.026355076524012883,-0.11865082301161115,-0.056676789436867235,-0.1999999999999998,0.03988779803646565,-9.8,0.005214075679481959,0.019998695646373563,-0.12039542868644121,144.2042376919481,-1.1722061890890783,-179.68881486676014,-0.005522219099363472,-0.30709246453059535,-0.9516185294519375,0.009230340349696128
240.0,0.026186104218362302,-0.12064710237733131,-0.0552030737212839,-0.1999999999999998,0.04000000000000002,-9.8,0.02908015988953814,-0.010525769430881292,-0.09237047746738172,144.15797146401985,-1.1800868486352356,-179.6875,-0.005544173280397026,-0.3074717755214923,-0.9514994693052121,0.009254410838709686
241.0,0.027339990394621004,-0.12177236252301288,-0.05509285199711836,-0.1999999999999998,0.04000000000000002,-9.8,-0.008063578103738093,-0.001579822200432241,-0.030800623349075483,144.13681761786603,-1.1846774193548386,-179.6875,-0.005550171156327548,-0.30764444093940635,-0.9514452499156342,0.009268707493796536
242.0,0.02699985992155609,-0.12068847054350437,-0.05620667573841349,-0.1999999999999998,0.04000000000000002,-9.8,-0.002096955545105259,0.004087820429440487,-0.04108969773072921,144.12788461538463,-1.1870967741935483,-179.6875,-0.0055531700942928084,-0.3077142702928043,-0.9514237439900761,0.009275976972704728
243.0,0.029097944849115525,-0.12232066207075964,-0.05694328824141517,-0.1999999999999998,0.04000000000000002,-9.8,0.011746187239854319,-0.009331710132674299,-0.019777168964620187,144.125,-1.1875,-179.6875,-0.005554200000000004,-0.3077392600000003,-0.9514160200000017,0.009277340000000012
244.0,0.027724375650364223,-0.1205781737773153,-0.05714099895941725,-0.1999999999999998,0.04000000000000002,-9.8,0.018584157127991673,-0.01649486212278876,-0.03430264698231009,144.125,-1.1875,-179.6875,-0.005554200000000004,-0.3077392600000003,-0.9514160200000017,0.009277340000000012
245.0,0.027800793444328842,-0.12048679760665973,-0.058024193548387074,-0.1999999999999998,0.04000000000000002,-9.8,-0.0010812304890738828,-0.0035810678980228933,-0.012663810483870965,144.125,-1.1875,-179.6875,-0.005554200000000004,-0.3077392600000003,-0.9514160200000017,0.009277340000000012
246.0,0.026910282258064532,-0.1228578629032258,-0.05764112903225804,-0.1999999999999998,0.04000000000000002,-9.8,-0.0018901209677419364,-0.005985383064516129,-0.0012915826612903206,144.125,-1.1875,-179.6875,-0.005554200000000004,-0.3077392600000003,-0.9514160200000017,0.009277340000000012
247.0,0.02800039661554735,-0.1226210503701745,-0.057089089767318864,-0.1999999999999998,0.04000000000000002,-9.8,0.005337784241142252,0.001577682938921206,-0.024168243488894764,144.125,-1.1875,-179.6875,-0.005554200000000004,-0.3077392600000003,-0.9514160200000016,0.009277340000000012
248.0,0.029234817194350168,-0.12316219336927037,-0.05774988112195287,-0.1999999999999998,0.04000000000000002,-9.8,-0.006033793883591204,0.011556941918211903,-0.0072912424195254255,144.125,-1.1875,-179.6875,-0.005554200000000004,-0.30775602578564,-0.951399251467222,0.009277340000000012
249.0,0.029433436822981544,-0.12418190313624808,-0.058272622012589335,-0.1999999999999998,0.04000000000000002,-9.8,-0.018547390893408504,-0.014524578436055337,0.033463753790237284,144.125,-1.1875,-179.6875,-0.005554200000000004,-0.30777914224765857,-0.9513761312174815,0.009277340000000012
250.0,0.029178523967046337,-0.12421344740785778,-0.056616789756934696,-0.1999999999999998,0.04000000000000002,-9.8,-0.013070688454256737,-0.0027800023516682216,-0.0023235926549325624,144.125,-1.1875,-179.6875,-0.005554200000000004,-0.3077907004786678,-0.9513645710926113,0.009277340000000012
251.0,0.028903046452825987,-0.12060836587354387,-0.05643908556525194,-0.1999999999999998,0.04000000000000002,-9.8,-0.0049114661053801896,0.0065403773361325905,-0.015903215584750358,144.125,-1.1875,-179.6875,-0.005554200000000004,-0.30779647959417245,-0.9513587910301762,0.009277340000000012
252.0,0.030368565523677407,-0.11944791305353222,-0.056308863122078515,-0.1999999999999998,0.04000000000000002,-9.8,-0.026207548250829986,-0.009679361414614406,0.01892224328163454,144.0871095750128,-1.1875,-179.6875,-0.005547198996415776,-0.30812538991997424,-0.9512628970870278,0.009277340000000012
253.0,0.03159167089919563,-0.12016360272863916,-0.05618252729465006,-0.1999999999999998,0.04000000000000002,-9.8,-0.008681297538526336,0.004720673090819748,0.01868003423186826,144.07379672299027,-1.1875,-179.6875,-0.00555069949820789,-0.30827831973886344,-0.9512139748182271,0.009277340000000012
254.0,0.0323018350593793,-0.11933518325818016,-0.05769519184711689,-0.1999999999999998,0.04000000000000002,-9.8,0.007058000099103116,0.001445253786564921,0.0009218654510017672,144.067140296979,-1.1875,-179.6875,-0.005552449749103947,-0.30835432422427056,-0.9511899741833065,0.009277340000000012
255.0,0.032233866838445424,-0.12123953223328875,-0.05859926003006126,-0.1999999999999998,0.04000000000000002,-9.8,-0.013240073171134566,0.01645163354970847,0.009757527707579736,144.0638120839734,-1.1875,-179.6875,-0.005553324874551976,-0.3083923264669742,-0.9511779738658461,0.009277340000000012
256.0,0.032490222461086155,-0.11947292388499467,-0.05880363225628573,-0.1999999999999998,0.04000000000000002,-9.8,0.018641359796406617,-0.01782452141453182,-0.011043152419323073,144.06214797747054,-1.1875,-179.6875,-0.00555376243727599,-0.308411327588326,-0.9511719737071158,0.009277340000000012
257.0,0.03279863517220439,-0.11884635078183467,-0.05821456078896243,-0.1999999999999998,0.04000000000000002,-9.8,0.002252356557767587,-0.007471652379300663,-0.02038549524241512,144.0625,-1.1875,-179.6875,-0.005554200000000004,-0.3084106400000003,-0.9511718799999987,0.009277340000000012
258.0,0.03238735088474945,-0.11914950213389341,-0.05727724223978124,-0.1999999999999998,0.04000000000000002,-9.8,0.004759546298308005,0.0029444981252993744,0.0034930831106689594,144.0625,-1.1875,-179.6875,-0.005554200000000004,-0.3084106400000003,-0.9511718799999987,0.009277340000000012
259.0,0.033932307489019264,-0.11787513261394636,-0.05775045072859847,-0.1999999999999998,0.04000000000000002,-9.8,-0.013834683930937832,-0.0025752357828320365,0.01221482442866418,144.0625,-1.1875,-179.6875,-0.005554200000000004,-0.3084106400000003,-0.9511718799999986,0.009277340000000012
260.0,0.033817152208411326,-0.1171659329224366,-0.05790236310111438,-0.1999999999999998,0.04000000000000002,-9.8,-0.0207262257340301,0.010505136844887103,0.014539951896871772,144.0625,-1.1875,-179.6875,-0.005554200000000004,-0.3084106400000003,-0.9511718799999986,0.009277340000000012
261.0,0.03284949539996368,-0.11968521546669313,-0.05790352311580197,-0.1999999999999998,0.04000000000000002,-9.8,-0.028563169978362484,0.017323740977487075,0.04874438415671506,144.05789170506912,-1.1875,-179.6875,-0.005543198422939071,-0.3083856403481824,-0.9511878793445969,0.009277340000000012
262.0,0.032768049155145945,-0.11913389656938045,-0.0564511008704557,-0.1999999999999998,0.04000000000000002,-9.8,-0.02223022273425499,0.025014400921658984,0.07396633384536609,144.0924539170507,-1.1875,-179.6875,-0.005548699211469538,-0.30814612469021996,-0.9512743828981045,0.009277340000000012
263.0,0.03484556303911143,-0.11909858600181182,-0.057252432155657944,-0.1999999999999998,0.04000000000000002,-9.8,-0.0013071605813541297,0.018740399385560675,0.026620780653038714,144.10973502304148,-1.1875,-179.6875,-0.005551449605734771,-0.30802636686123874,-0.9513176346748584,0.009277340000000012
264.0,0.03419718491743877,-0.11977227907529335,-0.05763904207902091,-0.1999999999999998,0.04000000000000002,-9.8,0.0014289136446725024,0.0047388213173511955,0.02250914298111548,144.1183755760369,-1.1875,-179.6875,-0.005552824802867388,-0.3079664879467481,-0.9513392605632354,0.009277340000000012
265.0,0.03412087414281169,-0.11710951796289815,-0.058350763297079444,-0.1999999999999998,0.04000000000000002,-9.8,0.0022030682224981196,0.005627425623246233,0.03335508269746853,144.12269585253455,-1.1875,-179.6875,-0.005553512401433696,-0.3079365484895028,-0.9513500735074237,0.009277340000000012
266.0,0.03536470269825212,-0.11621874732285675,-0.05738236104906751,-0.1999999999999998,0.04000000000000002,-9.8,0.009586015579601495,0.012883526510469074,0.0005091219545084198,144.125,-1.1875,-179.6875,-0.005554200000000004,-0.3079223599999995,-0.9513549799999993,0.009277340000000012
267.0,0.03616161402193713,-0.11633005978534033,-0.05770551744209647,-0.1999999999999998,0.04000000000000002,-9.8,0.022970171128254408,0.00746582879542911,-0.026371143067804675,144.125,-1.1875,-179.6875,-0.005554200000000004,-0.3079223599999995,-0.9513549799999993,0.009277340000000012
268.0,0.03563551764892582,-0.11618199939559178,-0.05746982427776,-0.1999999999999998,0.04000000000000002,-9.8,0.02834452685124799,0.003011010131325377,-0.008192775568161524,144.125,-1.1875,-179.6875,-0.005554200000000004,-0.3079223599999995,-0.9513549799999993,0.009277340000000012
269.0,0.04025958854418792,-0.11631151794211107,-0.05771825428589215,-0.1999999999999998,0.04000000000000002,-9.8,-0.00099828125972767,0.03290423589591123,0.06113034410380924,144.16280241935485,-1.1683467741935485,-179.6875,-0.005522697499999999,-0.30748231741935456,-0.9514952629838707,0.0091961245967742
270.0,0.04391268411897965,-0.11300099293699711,-0.05813740869490088,-0.1999999999999998,0.04000000000000002,-9.8,0.00817289825159232,0.023506762993625634,0.007848621418470533,144.14390120967744,-1.145665322580645,-179.6875,-0.005475444879032257,-0.30751382716845865,-0.9514881253629035,0.009110724556451616
271.0,0.04040579900127887,-0.11022660800899403,-0.058110440506584794,-0.1999999999999998,0.04000000000000002,-9.8,0.031865808845927955,0.02306175516967618,-0.039502549315985416,144.12070126586462,-1.1343245967741935,-179.6875,-0.005451818568548386,-0.3077289396550913,-0.9514225856164065,0.009068024536290326
272.0,0.036075915373655315,-0.11033603825948932,-0.058023474221546356,-0.1999999999999998,0.04000000000000002,-9.8,0.03431808107426966,0.020699464374392622,-0.0010460775253762211,144.1064655842892,-1.1286542338709675,-179.6875,-0.00544000541330645,-0.3077741486703516,-0.9514122847846502,0.00904667452620968
273.0,0.035616001391302166,-0.11039174441590494,-0.05760434897341624,-0.1999999999999998,0.04000000000000002,-9.8,0.021662812649517766,0.01238212032455323,0.0018507905817447723,144.11573279214463,-1.1258190524193548,-179.6875,-0.005434098835685483,-0.3077222465932402,-0.9514151369084551,0.009035999521169357
274.0,0.03200014899314213,-0.11164660505485467,-0.0564591045302309,-0.1999999999999998,0.04000000000000002,-9.8,-0.015833800248461802,0.04924931589064323,-0.17009304988961918,144.06798179345773,-1.125,-179.6875,-0.0054321299999999986,-0.30814857649106464,-0.9512771681286459,0.009033200000000002
275.0,0.03173891260188195,-0.11192580980920487,-0.05656036740449748,-0.1999999999999998,0.04000000000000002,-9.8,-0.037802878400611084,0.03021767163590273,-0.1245488563727095,143.99971670318047,-1.125,-179.6875,-0.0054321299999999986,-0.3087659063279695,-0.9510935890643222,0.009033200000000002
276.0,0.03406485556059195,-0.11212895461375104,-0.05710223552668024,-0.1999999999999998,0.04000000000000002,-9.8,-0.02078536305012045,0.03541059414687786,-0.0785439284507651,143.96601382488478,-1.125,-179.6875,-0.0054321299999999986,-0.30906834132104444,-0.9510037361239105,0.009033200000000002
277.0,0.03549550234014474,-0.11208649471598969,-0.05779035522838404,-0.1999999999999998,0.04000000000000002,-9.8,-0.01545122065618,0.03875722901246764,-0.021469717189264558,143.94924475166408,-1.125,-179.6875,-0.0054321299999999986,-0.30922150716845864,-0.9509581074961582,0.009033200000000002
278.0,0.03492265036362076,-0.11256542477734968,-0.055876024388385556,-0.1999999999999998,0.04000000000000002,-9.8,-0.004858926860348066,0.02133173950623382,-0.0183740975059226,143.94034818228366,-1.125,-179.6875,-0.0054321299999999986,-0.309300418422939,-0.9509350431029169,0.009033200000000002
279.0,0.03430554905829232,-0.1125839452060367,-0.056185954216328333,-0.1999999999999998,0.04000000000000002,-9.8,-0.01498091287678477,-0.018998059507586543,-0.04162383239942237,143.9375,-1.125,-179.6875,-0.0054321299999999986,-0.30932616999999984,-0.9509277299999983,0.009033200000000002
280.0,0.03497960607940447,-0.11419556451612904,-0.05774883684863521,-0.1999999999999998,0.04000000000000002,-9.8,-0.018475690136476427,-0.009184533964019852,-0.05032519773573201,143.9375,-1.125,-179.6875,-0.0054321299999999986,-0.30932616999999984,-0.9509277299999983,0.009033200000000002
281.0,0.03638231409589371,-0.1153923647242456,-0.05824624789882332,-0.1999999999999998,0.04000000000000002,-9.8,-0.008165760325782437,0.006728643040102457,-0.02044898268030097,143.9375,-1.125,-179.6875,-0.0054321299999999986,-0.3093261699999999,-0.9509277299999983,0.009033200000000002
282.0,0.034049717841991525,-0.11734134365244542,-0.05753503461938683,-0.1999999999999998,0.04000000000000002,-9.8,-0.027128785870087248,-0.03308884225166093,0.2533145905457056,144.1063508064516,-1.125,-179.6875,-0.005456738870967741,-0.3079139941935485,-0.9513717134677416,0.009033200000000002
283.0,0.029492755943328276,-0.11791062995277359,-0.05846626110621946,-0.1999999999999998,0.04000000000000002,-9.8,-0.00025939526134635335,0.0002660239734251224,0.1139903345873689,144.2412802419355,-1.125,-179.6875,-0.005475933790322579,-0.3067779415905707,-0.9517308143393306,0.009033200000000002
284.0,0.02945820345960904,-0.11545381503194033,-0.057210279547591406,-0.19999999999999976,0.04000000000000002,-9.799999999999999,0.036880274222221156,-0.009093729615450323,-0.10022771334036612,144.07061303863748,-1.125,-179.6875,-0.005460613849903704,-0.30817054207357136,-0.9512700319578216,0.009033200000000002
285.0,0.026892633307488027,-0.11438327508180701,-0.057535340686306696,-0.1999999999999998,0.04000000000000002,-9.8,0.0177717628215084,0.0048028710443520015,-0.11626990405671953,144.068572648351,-1.125,-179.6875,-0.005446371924951851,-0.30821282055291466,-0.951256393236976,0.009033200000000002
286.0,0.027273059629810623,-0.11668435346181921,-0.05677235296542182,-0.1999999999999998,0.040564516129032266,-9.8,-0.05566276583170157,-0.0206539755080009,0.04657368480826874,144.07360084030455,-1.125,-179.6875,-0.0054540174140888294,-0.3081753861635541,-0.9512687706507466,0.009029262580645162
287.0,0.027799836266518222,-0.11763149124703863,-0.057872063579485086,-0.1999999999999998,0.04544354838709675,-9.8,-0.06793344944810885,0.014480849947612454,0.08710992708155371,144.16106012277322,-1.125,-179.6875,-0.005568312421762155,-0.3074737960757287,-0.9514934114065228,0.008999731935483868
288.0,0.026396196048891873,-0.11759434163728699,-0.059614411682482465,-0.1999999999999998,0.047883064516129,-9.8,-0.06924498054731545,0.034288571936105114,0.023666826183856984,144.20371554525758,-1.125,-179.6875,-0.005625244597977851,-0.3071344686383607,-0.9516019393012765,0.008984966612903222
289.0,0.030428645041223095,-0.11549592271672136,-0.0583635185703994,-0.1999999999999998,0.04076535359801487,-9.8,0.009891601797006336,0.021926747728728085,0.060952195729608576,144.25928388647645,-1.1498138957816377,-179.7207506203474,-0.00531862934491315,-0.30664570164531646,-0.9517619964382757,0.009221844954094291
290.0,0.0349850341191067,-0.1081672761746578,-0.056436421896261885,-0.1999999999999998,0.0352213864764268,-9.8,0.05659122233450733,0.08610495314876332,0.1199184355739214,144.3306189903846,-1.169665012406948,-179.7363833746898,-0.005177643732009924,-0.3060083520608715,-0.9519675607724873,0.009348038606079401
291.0,0.0337098375910182,-0.1069093172914537,-0.05658898864511666,-0.1999999999999998,0.03243176178660051,-9.8,0.06944447420268465,0.06438528039841655,0.10850743962725684,144.3899188701923,-1.1795905707196028,-179.744199751861,-0.005115413801488834,-0.30545538353460855,-0.9521351709709204,0.009411258476426796
292.0,0.03281084489281212,-0.10603154422214145,-0.05898902598569951,-0.1999999999999998,0.03089330024813898,-9.8,0.01643170175298167,0.030923522090403412,0.061520098796309534,144.41674937965263,-1.1845533498759306,-179.74810794044663,-0.005080822545905707,-0.30519542153292933,-0.9522117158660038,0.009443729722084366
293.0,0.033502196639954455,-0.10692576170524346,-0.058022088435097416,-0.1999999999999998,0.030124069478908208,-9.8,-0.013376240694789081,0.02669680266851076,0.010728831916364968,144.43014888337467,-1.1870347394540943,-179.75006203473941,-0.005063526918114144,-0.3050655020567873,-0.9522499729330012,0.009459965344913149
294.0,0.03545018059970467,-0.10898176698441106,-0.05774738672808475,-0.1999999999999998,0.030000000000000027,-9.8,-0.015283378136200718,0.016281019791067382,0.0014239791548424545,144.43601116625308,-1.1875,-179.75,-0.005065374729528537,-0.3050085996214458,-0.9522664207543411,0.009460449999999999
295.0,0.03601954852979444,-0.10758419161777175,-0.05961594394500262,-0.1999999999999998,0.030000000000000027,-9.8,-0.004646297363031233,-0.01316202269732148,0.023072066776208103,144.4375,-1.1875,-179.75,-0.005065920000000001,-0.30499306728714976,-0.9522705099999986,0.009460449999999999
296.0,0.034585660039619597,-0.10579103816742633,-0.05994149920676888,-0.1999999999999998,0.030000000000000027,-9.8,0.005022501767982003,-0.021338414838877558,-0.007220576871018104,144.4375,-1.1875,-179.75,-0.005065920000000001,-0.3049926800000001,-0.9522705099999986,0.009460449999999999
297.0,0.03492763665906877,-0.10613548428389738,-0.058534404266389166,-0.1999999999999998,0.030000000000000027,-9.8,-0.015087497857927425,0.027328587739292733,-0.02732086143835786,144.4375,-1.1875,-179.75,-0.005065920000000001,-0.30499268000000007,-0.9522705099999986,0.009460449999999999
298.0,0.034379308920932244,-0.10637755396990567,-0.057764177939646194,-0.1999999999999998,0.030000000000000027,-9.8,-0.004146781523049734,0.004684119138463571,-0.013014639388533769,144.4375,-1.1875,-179.75,-0.005065920000000001,-0.30499268,-0.9522705099999986,0.009460449999999999
299.0,0.034319545612209526,-0.10592319714913366,-0.05684188613877739,-0.19999999999999982,0.030000000000000027,-9.8,-0.008092872782567762,-0.014923561559552715,-0.0012244009423054685,144.4375,-1.1875,-179.75,-0.005065920000000001,-0.30499268,-0.9522705099999986,0.009460449999999999
300.0,0.03543934269857788,-0.10609011879986124,-0.057674655306971884,-0.1999999999999998,0.030000000000000027,-9.8,-0.006206574640131807,-0.021486678373222337,0.008684394510926119,144.4375,-1.1875,-179.75,-0.005065920000000001,-0.30499268000000007,-0.9522705099999986,0.009460449999999999
301.0,0.03408446063128687,-0.10772459243843217,-0.05642065556711757,-0.1999999999999998,0.030000000000000027,-9.8,-0.01845950398890045,0.010509343565730142,0.040257544224765865,144.4375,-1.1875,-179.75,-0.005065920000000001,-0.30499268,-0.9522705099999986,0.009460449999999999
302.0,0.034497323200445816,-0.10866569431887321,-0.05706999411473702,-0.1999999999999998,0.030000000000000027,-9.8,-0.005487758937354646,-0.008095119674121331,0.024033356220467067,144.4375,-1.1875,-179.75,-0.005065920000000001,-0.30499268,-0.9522705099999986,0.009460449999999999
303.0,0.03472651618291621,-0.1077481057359855,-0.05768220647877146,-0.1999999999999998,0.030000000000000027,-9.8,0.013045131027994462,-0.02118785681606732,0.04683490647684899,144.4375,-1.1875,-179.75,-0.005065920000000001,-0.30499268000000007,-0.9522705099999986,0.009460449999999999
304.0,0.03303034594637115,-0.10910814268845093,-0.05751341052511652,-0.1999999999999998,0.030000000000000027,-9.8,0.008253773085475355,-0.022346164422106303,0.06319341825502427,144.4375,-1.1875,-179.75,-0.005065920000000001,-0.30499268000000007,-0.9522705099999986,0.009460449999999999
305.0,0.03416201437103505,-0.1068618670431502,-0.05611272004750449,-0.1999999999999998,0.030000000000000027,-9.8,0.012254406704028,-0.010178668568580032,0.015690291116759448,144.4380376344086,-1.1875,-179.75,-0.005065920000000001,-0.30499057978494626,-0.9522715599784934,0.009460449999999999
306.0,0.034214201774487356,-0.10610523112823482,-0.05716406033592705,-0.1999999999999998,0.030000000000000027,-9.8,-0.03977225034205468,-0.013300182359211973,0.06974355866972208,144.4700268817204,-1.1875,-179.75,-0.005065920000000001,-0.3048513466666667,-0.952334038860215,0.009460449999999999
307.0,0.03333858166922685,-0.10584856630824373,-0.057308243727598546,-0.1999999999999998,0.030000000000000027,-9.8,-0.04353878648233487,-0.009854230670762928,0.07163898489503329,144.48602150537636,-1.1875,-179.75,-0.005065920000000001,-0.30476450107526887,-0.9523652783010758,0.009460449999999999
308.0,0.03425659242191502,-0.10608301331285203,-0.056789810547875054,-0.1999999999999998,0.030000000000000027,-9.8,-0.01688908090117768,0.010133048515104968,0.04440884216589862,144.49401881720428,-1.1875,-179.75,-0.005065920000000001,-0.3047184529892474,-0.9523814230107535,0.009460449999999999
309.0,0.03809901123994517,-0.10820287956493732,-0.05627401598863616,-0.1999999999999998,0.03424557752341313,-9.8,-0.10526673707117255,0.018457832914209736,0.20305831831301718,144.6140424471037,-1.1875,-179.7239854318418,-0.005244259479708636,-0.30372199787859866,-0.9527039874002783,0.009409132289281993
310.0,0.03880219379201559,-0.10910681612655468,-0.05733324455345786,-0.1999999999999998,0.03728407908428723,-9.8,-0.033732158858166925,-0.04824756203751879,0.08135106775865913,144.68704474505722,-1.1875,-179.70473465140475,-0.005375600707596252,-0.30312882134521324,-0.9528967384689571,0.00937178727367325
311.0,0.04105092248484549,-0.11003611895677454,-0.05550177972680574,-0.1999999999999998,0.03880332986472426,-9.8,-0.02002528161802355,-0.016719057116429646,0.03870665787126505,144.72255463059312,-1.1875,-179.69510926118625,-0.00544127132154006,-0.30283655129760656,-0.9529911779441564,0.009353114765868878
312.0,0.04072771418661117,-0.11049681011842823,-0.053367889351370094,-0.1999999999999998,0.039562955254942786,-9.8,-0.019517249103942653,-0.015928012941215333,0.02383361567398378,144.74030957336106,-1.1875,-179.690296566077,-0.005474106628511964,-0.3026909546810612,-0.9530383976817562,0.009343778511966692
313.0,0.042244169433295356,-0.11014369435772922,-0.05420340192094873,-0.1999999999999998,0.039942767950052055,-9.8,-0.00839053699436764,-0.0038093405719901554,0.013150486792445038,144.74918704474504,-1.1875,-179.68789021852234,-0.0054905242819979164,-0.3026182384131112,-0.9530619911446421,0.0093391103850156
314.0,0.04284424912871844,-0.10956716455659615,-0.05608713280230578,-0.1999999999999998,0.04000000000000002,-9.8,0.013397083219777678,-0.02000105426102109,0.011290383874890574,144.75,-1.1875,-179.6875,-0.005493159999999997,-0.30261229999999983,-0.953063960000001,0.00933837999999999
315.0,0.04298059230629471,-0.10987212394496476,-0.059189567745238904,-0.1999999999999998,0.04000000000000002,-9.8,0.002336562443222172,-0.022183406834811622,-0.009838048989974067,144.75,-1.1875,-179.6875,-0.005493159999999997,-0.30261229999999983,-0.953063960000001,0.00933837999999999
316.0,0.04345778207224617,-0.11548777728226221,-0.05759785606924002,-0.1999999999999998,0.04185483870967741,-9.8,0.01693729043820095,-0.043069750012387886,-0.06187466965627735,144.7056451612903,-1.1875,-179.67641129032256,-0.005570931935483872,-0.30294454967741935,-0.9529556725806456,0.009279804758064513
317.0,0.043258588936788724,-0.12103753943478188,-0.05571137043093337,-0.1999999999999998,0.04608870967741932,-9.8,0.017357214087508052,-0.010206149967791487,-0.013976249318666072,144.69556451612902,-1.1875,-179.64969758064515,-0.005815565967741937,-0.30296448806451615,-0.9529468124193543,0.00915158012096774
318.0,0.045177681565168555,-0.12265138620484616,-0.05588691921444262,-0.1999999999999998,0.049270673323092665,-9.8,0.0383285046372,-0.0646428855317708,0.23771553637497314,144.75145609318994,-1.1875,-179.63634072580646,-0.005937882983870969,-0.30248937729902703,-0.9530993931323598,0.009084967853622632
319.0,0.043985823092677935,-0.12497033410138249,-0.05442889144905272,-0.1999999999999998,0.054312756016385064,-9.8,0.020221094150025598,0.005529753904249875,0.009661618343573972,144.89639336917563,-1.1875,-179.62966229838707,-0.0059990414919354855,-0.3012592585688683,-0.9534857920500511,0.009052192959069382
320.0,0.04053689981613369,-0.1261628307848066,-0.05498986116929663,-0.20367546432062567,0.052552272436345,-9.799999999999999,0.09331710865859051,-0.15026848081913607,0.38070141034480753,145.12671574617139,-1.1875,-179.64636218536168,-0.005899794822214076,-0.2993230231554018,-0.9540905901990233,0.009236333439456488
321.0,0.03709228663361728,-0.12216763691058051,-0.05764238002141227,-0.20699902248289365,0.046218172508495095,-9.799999999999999,0.04719433861948983,-0.14736261302541542,0.2914649264825676,145.48505886194897,-1.1875,-179.66830168039843,-0.0055980436791881975,-0.29643849094118013,-0.9549927534592472,0.009478198808941959
322.0,0.03579069811585677,-0.12174703401584022,-0.05892199646231902,-0.20866080156402764,0.04294779593166691,-9.8,-0.00892866234348089,-0.08460424328557922,0.17639735202367407,145.66692459226482,-1.1875,-179.67890890471534,-0.005442238613787649,-0.29498329196252543,-0.9554479204393014,0.009602223275438726
323.0,0.037218185719474724,-0.119199169849702,-0.05896048619838942,-0.20949169110459465,0.0412793255131965,-9.8,-0.08200529379334823,0.0018927068262324029,0.09718325102463786,145.79224365813957,-1.1875,-179.6842125168738,-0.005364336081087375,-0.29394697202836984,-0.9557621483904135,0.009664313632087007
324.0,0.03886733526960452,-0.11364681571232729,-0.05883211691323645,-0.20990713587487814,0.04033724340175955,-9.799999999999999,-0.05575578227380884,0.005947761738543148,0.22277183186905516,145.86619028109777,-1.1875,-179.6935056891769,-0.005321214492156593,-0.29326114703781514,-0.9559681170474364,0.009683296364786396
325.0,0.03956090252270314,-0.1129673393669006,-0.05815253876437844,-0.2100000000000003,0.04000000000000002,-9.8,-0.06325277683046857,0.025980021883997395,0.09549337975062823,146.00880788059237,-1.1875,-179.6908846872082,-0.005307881080389149,-0.2921468074445059,-0.9563207135327836,0.009667062561669841
326.0,0.04072385065530623,-0.11219665433086119,-0.056366147081902976,-0.2100000000000003,0.04000000000000002,-9.8,-0.0020444295960993716,0.012634053734507912,0.08694814958840788,146.07204026902122,-1.1875,-179.68916034155598,-0.005309017419354842,-0.29166139551948794,-0.9564753262364374,0.009654321764705893
327.0,0.039882020515384475,-0.11276807861968763,-0.05584436386353212,-0.2100000000000003,0.04000000000000002,-9.8,-0.00807866641095291,-0.010489556950831713,0.05157164221884698,146.10356045709125,-1.1875,-179.688330170778,-0.005309538709677423,-0.29141923646942136,-0.9565524606988633,0.009647951366223921
328.0,0.03858768364478902,-0.11393444253565024,-0.056649500480153145,-0.2100000000000003,0.04000000000000002,-9.8,0.007427400665491285,0.02468213684716479,-0.023625091188963603,146.10911389790047,-1.1875,-179.68791508538897,-0.005309799354838713,-0.29132156792725095,-0.9565758619598146,0.009644766166982933
329.0,0.03903857842671367,-0.11583905494753355,-0.05810269367551525,-0.2100000000000003,0.04000000000000002,-9.8,-0.009139592866254386,0.00958818635677718,0.0007717892147106921,146.0882381633715,-1.1875,-179.6875,-0.005310060000000004,-0.29139166047216425,-0.9565350341701355,0.009643550000000011
330.0,0.040726365175895854,-0.11827852851434953,-0.05796393788874618,-0.2100000000000003,0.04000000000000002,-9.8,-0.010097892166738015,0.013801637403154458,0.02521354809330748,146.0743447580645,-1.1875,-179.6875,-0.005310060000000004,-0.29145210405241917,-0.956506417943549,0.009643550000000011
331.0,0.039271713389656945,-0.11927411354326678,-0.058820804531489995,-0.2100000000000003,0.04000000000000002,-9.8,-0.011094710061443932,0.013127840181771632,-0.008684555811571942,146.06741431451616,-1.1875,-179.6875,-0.005310060000000004,-0.29148194476814493,-0.9564922051008072,0.009643550000000011
332.0,0.03887930427547363,-0.11810597478238609,-0.0601716589861751,-0.2100000000000003,0.04000000000000002,-9.8,-0.0031448012672811053,0.008174723182283666,-0.012690312179979518,146.06394909274195,-1.1875,-179.6875,-0.005310060000000004,-0.2914968651260078,-0.9564850986794363,0.009643550000000011
333.0,0.0394824948796723,-0.11800208013312855,-0.06181970046082949,-0.2100000000000003,0.04000000000000002,-9.8,-0.023529305875576036,0.014703541026625704,-0.01590601798515105,146.0625,-1.1875,-179.6875,-0.005310060000000004,-0.29150390999999976,-0.9564819300000009,0.009643550000000011
334.0,0.03982957309267793,-0.1159774865591398,-0.060353014592933935,-0.2100000000000003,0.04000000000000002,-9.8,-0.002276045666922683,0.02204871111751152,-0.04127514160906298,146.0625,-1.1875,-179.6875,-0.005310060000000004,-0.29150390999999976,-0.9564819300000009,0.009643550000000011
335.0,0.03826936910847541,-0.11552745460955405,-0.057758061368386585,-0.2100000000000003,0.04000000000000002,-9.8,-0.027374296217252986,-0.015187129353327793,-0.04467748230968749,146.0625,-1.1875,-179.6875,-0.005310060000000004,-0.29150390999999976,-0.9564819300000008,0.009643550000000011
336.0,0.03833550050323263,-0.11634853479697266,-0.057554765286046514,-0.2100000000000003,0.04000000000000002,-9.8,0.02705558845877188,0.008343455292614137,-0.0924743266065062,146.05885796045789,-1.1875,-179.6875,-0.005308027450572323,-0.2915491301456814,-0.956472784443289,0.009645582549427687
337.0,0.04543171269745164,-0.12169188094366365,-0.05798553542748802,-0.20630235917188255,0.04747231584015409,-9.799999999999999,-0.05394432100091416,0.08261670036336694,0.15382226736598137,146.1593790283753,-1.1875,-179.642723880597,-0.005688478602512927,-0.29070088317346665,-0.9567392484878937,0.00949270100750152
338.0,0.05050009749097859,-0.12545023383513165,-0.05707839535784765,-0.20298988926336053,0.054058738565238365,-9.8,-0.01624727328800335,0.04993602940233392,0.11110218256585688,146.20771370773605,-1.1875,-179.60059581126626,-0.006034804785127428,-0.29018883787705607,-0.9568941092439469,0.009347614536008825
339.0,0.05149102494215943,-0.12714970718811733,-0.0594725516071236,-0.20133365430909952,0.05735194992778049,-9.8,-0.0006027843417123939,0.012024242751375078,0.08310976632845395,146.2318810474164,-1.1875,-179.57953177660085,-0.006207967876434678,-0.28993281522885084,-0.9569715396219733,0.009275071300262479
340.0,0.054609646222045824,-0.13063912565198485,-0.05909831461086766,-0.20074375023147273,0.05899855560905157,-9.8,0.0010211681350462561,-0.04131707969822533,-0.002383000739283582,146.2290763797876,-1.1875,-179.56899975926817,-0.0062945494220883035,-0.29002337764172065,-0.9569448262452303,0.009246553369734218
341.0,0.052574053244977284,-0.1314262555898132,-0.05918115439840906,-0.2053718751157365,0.0598218584496871,-9.8,0.026892143455065864,-0.04778827615223606,-0.026630031661450917,146.24318822994798,-1.1875,-179.56373375060184,-0.006337903712084731,-0.2899401750231049,-0.956966679548503,0.009255976554794274
342.0,0.05297375427455091,-0.13904053836112312,-0.059450799895248124,-0.20714608688802244,0.06827444956477222,-9.8,-0.014657458241668678,-0.059116690826956766,-0.5223751777706419,146.321290716452,-1.1875,-179.53536226318482,-0.006704181454173065,-0.2893412526149907,-0.9571526513019813,0.009193993265666235
343.0,0.05325373033821944,-0.1467872131492428,-0.05839695491735499,-0.21196976949119478,0.0779263437039075,-9.799999999999999,-0.06782567261594472,-0.1747598399240035,0.6308698394673631,146.4108259070946,-1.2149434280211846,-179.4901925663541,-0.007211910905228084,-0.2885990922704225,-0.9573684157063591,0.009323165845640052
344.0,0.0553250561560624,-0.1555709859070476,-0.05853462570169358,-0.2163074653907588,0.08444704281969564,-9.799999999999999,-0.060459452412991166,-0.13810632674980292,0.5701888319245084,146.75423429349763,-1.2334797785267213,-179.46183015414476,-0.007567336420355982,-0.2858161275024569,-0.9581972349772494,0.009442270250363451
345.0,0.055006141453902625,-0.1579665162313213,-0.06002697254599035,-0.2184688691718063,0.08770739237758972,-9.799999999999999,-0.05789500447661256,-0.07727744357498811,0.3325731469087271,146.95419531052053,-1.2427479537794897,-179.44764894804013,-0.007745049177919931,-0.2842714505800126,-0.9586558535829182,0.009486554919226394
346.0,0.054194058950197604,-0.16097122534556338,-0.06010693225353792,-0.2193957249084839,0.08933756715653676,-9.8,-0.05551720269913577,-0.04939941047156983,0.1666465964958382,147.053694557462,-1.2473820414058738,-179.44055834498778,-0.007833905556701905,-0.28350308307802474,-0.9588840715047213,0.009507955201548682
347.0,0.05339314196475968,-0.16214018748864684,-0.06069382218647984,-0.21987963408762662,0.08989407799711113,-9.8,-0.0421991563143164,-0.03906025508020573,0.09854002596464682,147.10112403244324,-1.249699085219066,-179.43786109773714,-0.007867192450649985,-0.28313716605770156,-0.9589924456217929,0.009520889848598207
348.0,0.05327730020875182,-0.16215430402930409,-0.05744093406593406,-0.22000000000000022,0.08999999999999991,-9.8,-0.019218860776320453,-0.009368999615975423,0.02750456029185868,147.12326302729528,-1.25,-179.4375,-0.007873540000000009,-0.28296812775682384,-0.9590427747295298,0.009522419076923083
349.0,0.05324245490172909,-0.1617992363818977,-0.05934246868722674,-0.2200000000000002,0.08999999999999991,-9.8,-0.02169069589684509,-0.02781828806274371,0.032647027871322225,147.125,-1.25,-179.4375,-0.007873540000000009,-0.28295898,-0.9590454100000012,0.009521480000000006
350.0,0.05485087414825317,-0.16179439545669388,-0.06077722512702349,-0.22000000000000022,0.08999999999999991,-9.8,-0.03467887329404466,-0.04283899554186853,0.02849229273750443,147.125,-1.25,-179.4375,-0.007873540000000009,-0.28295898,-0.9590454100000012,0.009521480000000006
351.0,0.05366283626767497,-0.16254286305092758,-0.06062802788609238,-0.22000000000000022,0.08999999999999991,-9.8,-0.022584522332506206,-0.034162063295127804,0.017286090925203827,147.125,-1.25,-179.4375,-0.007873540000000009,-0.28295898,-0.9590454100000012,0.009521480000000006
352.0,0.05424296269715359,-0.1607190986124752,-0.06012494019289364,-0.2200000000000002,0.08999999999999991,-9.8,0.015629544553146482,-0.020302007525202923,0.01024501633678326,147.125,-1.25,-179.4375,-0.007873540000000009,-0.28295898,-0.9590454100000012,0.009521480000000006
353.0,0.05390170366990213,-0.16199375970215457,-0.05832321039672926,-0.22000000000000022,0.08999999999999991,-9.8,0.0020915672817761544,-0.0061646841220154335,-0.0002724177520285675,147.125,-1.25,-179.4375,-0.007873540000000009,-0.28295898,-0.9590454100000012,0.009521480000000008
354.0,0.05488095936183277,-0.16339204114139988,-0.059787949284386126,-0.22000000000000022,0.08999999999999991,-9.8,-0.019720345391369985,-0.0013014280825130926,-0.029706101349132562,147.0962701612903,-1.25,-179.4375,-0.007873540000000009,-0.28311599975806445,-0.958994711532259,0.00953723225806452
355.0,0.05491779822930347,-0.16291699806809848,-0.05944245929359783,-0.22000000000000022,0.08999999999999991,-9.8,-0.012210121479503932,0.016391876684549906,0.029466729339741732,147.0461189516129,-1.25,-179.4375,-0.007873540000000009,-0.2833926520850678,-0.9589184396214885,0.009560860645161293
356.0,0.057410644223059984,-0.16072868511284358,-0.06106745023114582,-0.2200000000000002,0.08999999999999991,-9.8,0.030043760981559507,0.027643010823766224,0.0320899427039798,147.0210433467742,-1.25,-179.4375,-0.007873540000000009,-0.2835223399135019,-0.9588874164236474,0.009572674838709678
357.0,0.05508025600893876,-0.1607834329847666,-0.06053901332287063,-0.22000000000000022,0.08999999999999991,-9.8,0.014699630358574571,0.01544928172071442,0.00692281376341243,147.00850554435485,-1.25,-179.4375,-0.007873540000000009,-0.28358718382771897,-0.9588719048247268,0.009578581935483872
358.0,0.0527286716841681,-0.16230589319324054,-0.05999903773852102,-0.22000000000000022,0.08999999999999991,-9.8,0.010600861955958411,0.012202862950441942,0.03178580028804551,147.02630218333974,-1.25,-179.4375,-0.007873540000000009,-0.28348659826818623,-0.9589026545449789,0.00958153548387097
359.0,0.049808724282944264,-0.16271175036006114,-0.05894709951442179,-0.2200000000000002,0.08999999999999991,-9.8,0.017789930305936195,0.026500036985973658,-0.13804800207371914,147.03568868407578,-1.25,-179.4375,-0.007873540000000009,-0.2834604519010622,-0.9589000116103588,0.00958252
360.0,0.050822676397455475,-0.16123360670968717,-0.05823785776969789,-0.22000000000000022,0.08999999999999991,-9.8,0.03396650521540306,0.011705403508595568,-0.06261791362791057,147.0178443420379,-1.25,-179.4375,-0.007873540000000009,-0.28360814487352815,-0.9588498787240143,0.00958252
361.0,0.050017122683941095,-0.1645287750425953,-0.05931483662597085,-0.22000000000000022,0.08999999999999991,-9.8,0.038688292676041444,-0.008638003204413519,-0.03185430319153329,147.02430678640354,-1.25,-179.4375,-0.007873540000000009,-0.28360326545661513,-0.9588565765084085,0.00958252
362.0,0.05085029521293828,-0.16717114155355572,-0.06118967637750154,-0.22000000000000022,0.08999999999999991,-9.8,0.011263879200923949,-0.02503157720704547,-0.03530089151512148,147.01920984481467,-1.25,-179.4375,-0.007873540000000009,-0.2836685028089527,-0.9588456584154941,0.00958252
363.0,0.05254752343852238,-0.16467108024938412,-0.05978582641199705,-0.22000000000000022,0.08999999999999991,-9.8,0.028577408110446612,-0.02392451876225289,-0.05590889429826735,147.04111093879237,-1.25,-179.4375,-0.007873540000000009,-0.2835590896635649,-0.9588842804263844,0.00958252
364.0,0.0517958874429998,-0.16895444004197907,-0.05913112660550224,-0.22000000000000022,0.08999999999999991,-9.8,0.04716970074670387,0.009731805962132446,-0.07323980695062252,147.0426450062035,-1.25,-179.4375,-0.00787160133995038,-0.28351268267959057,-0.9589042039981377,0.009582035315136479
365.0,0.04602305378313441,-0.14772547904604355,-0.058095900291464796,-0.21277419354838706,0.0711811414392059,-9.8,0.06250664657922722,-0.008501082530820435,-0.013042450101421875,147.05308428970224,-1.2271712158808932,-179.53526674937964,-0.0068572336972704765,-0.2833301429973636,-0.9589516064382742,0.00952072649131514
366.0,0.038373280949249355,-0.12378874529937131,-0.060055841778161305,-0.20606451612903215,0.04962282878411909,-9.8,0.03847223473248063,-0.011219788306048056,0.006170472463831633,147.05831944013647,-1.1740694789081885,-179.64767369727048,-0.005695776526054595,-0.2832602452803197,-0.9589699470280695,0.009457114858560794
367.0,0.03366984481905757,-0.11293731294625169,-0.05864809193486629,-0.2027096774193547,0.03884367245657569,-9.8,0.02833308666904989,-0.015890221448809666,0.020348849167659833,147.06119727047147,-1.147518610421836,-179.70387717121588,-0.005115047940446656,-0.2832231815136479,-0.9589795631662519,0.009425309042183623
368.0,0.030558680730061308,-0.10965862063083194,-0.05749480889626059,-0.2010322580645159,0.033454094292803986,-9.8,0.02856746499351112,-0.02573824948528553,-0.056701855498095324,147.06184863523572,-1.1342431761786598,-179.73197890818858,-0.004824683647642686,-0.28320921801488863,-0.9589829560992542,0.009409406133995036
369.0,0.028712992734166908,-0.10594703846540218,-0.05869029310069636,-0.20019354838709658,0.030759305210918138,-9.8,-0.0046764963425055366,-0.022783605423252477,-0.03753723874987479,147.06246898263026,-1.1276054590570719,-179.7460297766749,-0.004679562084367251,-0.28320194853101766,-0.9589846525657555,0.009401469826302728
370.0,0.027831499417972284,-0.10549074658493637,-0.059561515585860515,-0.1999999999999998,0.030000000000000027,-9.8,0.008055113094662702,-0.008857785301220673,-0.029560630114066063,147.0625,-1.125,-179.75,-0.004638670000000006,-0.2832031300000003,-0.9589843799999986,0.009399409999999999
371.0,0.029055887202375893,-0.10602009566158505,-0.060152254355595514,-0.1999999999999998,0.030000000000000027,-9.8,0.015372413765734312,0.026044401902536148,0.00851258552466977,147.0625,-1.125,-179.75,-0.004638670000000006,-0.2832031300000003,-0.9589843799999986,0.009399409999999999
372.0,0.030742823934174428,-0.10536176479229097,-0.06044033113201211,-0.1999999999999998,0.030000000000000027,-9.8,-0.010735359194135964,0.009835416351892423,0.04204245301207474,147.0625,-1.125,-179.75,-0.004638670000000006,-0.2832031300000003,-0.9589843799999986,0.009399409999999999
373.0,0.02966180655234068,-0.10476181557586897,-0.05724689527670754,-0.1999999999999998,0.030000000000000027,-9.8,-0.03195388111396506,0.004972711696171506,0.06257413589223809,147.0625,-1.125,-179.75,-0.004638670000000006,-0.2831891259447005,-0.9589978797235019,0.009399409999999999
374.0,0.03019188637908894,-0.10690599739366925,-0.05548084651188166,-0.1999999999999998,0.030000000000000027,-9.8,-0.04061851761791443,-0.008818367654218395,0.029102928161172808,147.0625,-1.125,-179.75,-0.004638670000000006,-0.28313311894009213,-0.9590226292165903,0.009399409999999999
375.0,0.029043429688591,-0.10844354402318111,-0.05382506662244564,-0.19999999999999976,0.030000000000000027,-9.799999999999999,-0.03729061387201508,-0.008874113397802913,0.03783710339279896,147.0625,-1.125,-179.75,-0.004638670000000006,-0.28310511543778794,-0.9590350039631346,0.009399409999999999
376.0,0.028287795873481375,-0.11181941826095051,-0.05370484801936414,-0.1999999999999998,0.030000000000000027,-9.799999999999999,-0.01235115411022669,-0.006918215493064283,0.01408199215658893,147.0625,-1.125,-179.75,-0.004638670000000006,-0.28309111368663586,-0.9590411913364065,0.009399409999999999
377.0,0.02902284889927972,-0.11199435403161992,-0.052929752313532225,-0.1999999999999998,0.030000000000000027,-9.8,-0.0415086448230634,-0.002308267963753786,0.05631218169223827,147.0625,-1.125,-179.75,-0.004638670000000006,-0.28308411281105983,-0.9590442850230427,0.009399409999999999
378.0,0.03082478850493941,-0.10939579452733068,-0.053333795767621206,-0.1999999999999998,0.030000000000000027,-9.8,-0.020442302442253663,-0.021299423280392,0.04204497973500802,147.0625,-1.125,-179.75,-0.004638670000000006,-0.28308104999999983,-0.9590454100000012,0.009399409999999999
379.0,0.031208765220211647,-0.10810263516689116,-0.054265184174133174,-0.1999999999999998,0.030000000000000027,-9.8,-0.03463521372112683,-0.023392277164389547,0.053863341682020144,147.0625,-1.125,-179.75,-0.004638670000000006,-0.28308104999999983,-0.9590454100000012,0.009399409999999999
380.0,0.03055795054754474,-0.1099408581504055,-0.056932201080223954,-0.1999999999999998,0.030000000000000027,-9.8,-0.029399107349321968,-0.01659899781973143,0.05343154865137176,147.0625,-1.125,-179.75,-0.004638670000000006,-0.28308104999999983,-0.9590454100000012,0.009399409999999999
381.0,0.03105470492046977,-0.10817063388831077,-0.05881172265992764,-0.1999999999999998,0.030000000000000027,-9.8,0.004037645506086585,-0.00620336475727995,0.00892263556480518,147.0625,-1.125,-179.75,-0.004638670000000006,-0.28308104999999983,-0.9590454100000012,0.009399409999999999
382.0,0.029481566820276514,-0.10857022849462365,-0.056866839477726555,-0.1999999999999998,0.030000000000000027,-9.8,0.00465279777905786,-0.00515032962109575,0.041694668458781364,147.0625,-1.125,-179.75,-0.004638670000000006,-0.28308104999999983,-0.9590454100000012,0.009399409999999999
383.0,0.0301166939200238,-0.10983751734304545,-0.057452020155096366,-0.1999999999999998,0.030000000000000027,-9.8,-0.01014484281832747,-0.014432117203888145,0.020374803987455198,147.0625,-1.125,-179.75,-0.004638670000000006,-0.28308104999999983,-0.9590454100000012,0.009399409999999999
384.0,0.029610088763290597,-0.10895382609616577,-0.05702729742551221,-0.1999999999999998,0.030000000000000027,-9.8,0.00682036431928682,-0.01685412625794619,-0.0061722146938715545,147.0625,-1.125,-179.75,-0.004638670000000006,-0.28308104999999983,-0.9590454100000012,0.009399409999999999
385.0,0.028457688612414538,-0.10714646174535335,-0.05741206682690002,-0.1999999999999998,0.030000000000000027,-9.8,0.025143907733464747,0.0036411169268581716,0.018395844421054297,147.08781017369728,-1.125,-179.75,-0.0046619348734491355,-0.28295746750868456,-0.9590701289280402,0.009399409999999999
386.0,0.027754189928327094,-0.10685280076514977,-0.05756932066383403,-0.1999999999999998,0.030000000000000027,-9.8,0.021052496621468676,-0.016388606923155653,-0.06030252581814668,147.10741315136477,-1.125,-179.75,-0.0046818069528536,-0.28286175165756783,-0.9590892739801491,0.009399409999999999
387.0,0.026709962825083703,-0.10683390633180812,-0.05607565220129828,-0.1999999999999998,0.030000000000000027,-9.8,-0.0112026546341361,-0.008660120159092368,0.018345058068583976,147.1172146401985,-1.125,-179.75,-0.004691742992555833,-0.2828138937320095,-0.9590988465062036,0.009399409999999999
388.0,0.02784249441982594,-0.1068196586809925,-0.05582398635038899,-0.1999999999999998,0.030000000000000027,-9.8,0.006235301194898651,-0.02735295289952537,-0.0220449527555103,147.12211538461537,-1.125,-179.75,-0.004696711012406949,-0.28278996476923024,-0.9591036327692308,0.009399409999999999
389.0,0.02724091934106052,-0.10610284890686325,-0.05562880967440126,-0.1999999999999998,0.030000000000000027,-9.8,0.025452063606439278,-0.021931037528556976,0.06758176740860128,147.12809398263028,-1.125,-179.75,-0.004700179377171217,-0.28274206827171167,-0.9591183311426799,0.009399409999999999
390.0,0.03025073262338386,-0.10772636241869218,-0.058166762157299864,-0.1999999999999998,0.030000000000000027,-9.8,-0.0023329011992617513,0.009009667339939874,-0.1326638309358979,147.1004613833747,-1.125,-179.75,-0.004709894286600498,-0.2829183317388335,-0.9590709199609182,0.009399409999999999
391.0,0.03228601213400817,-0.10815712290686064,-0.05971094255405976,-0.1999999999999998,0.030000000000000027,-9.8,-0.009382279691381272,0.012475360177109016,-0.10327525935015412,147.0482145626551,-1.125,-179.75,-0.004704802143300249,-0.2832566336113521,-0.9589626720772333,0.009399409999999999
392.0,0.03201820437477776,-0.1108223478098555,-0.05970079121357137,-0.1999999999999998,0.030000000000000027,-9.8,0.03630899235949181,0.0007098508976502247,-0.10309023411717119,147.02209115229527,-1.125,-179.75,-0.004702256071650125,-0.2834257845476114,-0.9589085481353907,0.009399409999999999
393.0,0.030863420605703143,-0.11336382739087988,-0.05733998977952241,-0.1999999999999998,0.030000000000000027,-9.8,0.023845182964345277,0.023264004533112316,-0.05409779655910588,147.00902944711538,-1.125,-179.75,-0.004700983035825064,-0.28351036001574104,-0.9588814861644694,0.009399409999999999
394.0,0.03040002237318474,-0.1131933907578408,-0.05510479294634503,-0.1999999999999998,0.030000000000000027,-9.8,0.024963135093357198,0.01930325962046943,-0.02949030452955294,147.00238833746897,-1.125,-179.75,-0.004700315756823822,-0.28355377062530995,-0.9588675706401983,0.009399409999999999
395.0,0.029473492860920165,-0.11211677022739291,-0.056442523796932834,-0.1999999999999998,0.030000000000000027,-9.8,0.07744744843997885,-0.0005029994050766793,-0.08677307806716023,147.0,-1.125,-179.75,-0.004699710000000001,-0.2835693399999998,-0.9588622999999998,0.009399409999999999
396.0,0.02901524189351399,-0.11353993934300322,-0.054352266741792776,-0.1999999999999998,0.030000000000000027,-9.8,0.005689478880746723,-0.01174757971395415,-0.025778592452867802,147.0,-1.125,-179.75,-0.004699710000000001,-0.2835693399999998,-0.9588622999999998,0.009399409999999999
397.0,0.029401774172563455,-0.11308801402634033,-0.05387724224186412,-0.1999999999999998,0.030000000000000027,-9.8,0.0025927233113411047,0.009924471231732603,0.016391827765501583,147.0,-1.125,-179.75,-0.004699710000000001,-0.2835693399999998,-0.9588622999999998,0.009399409999999999
398.0,0.028540474755376424,-0.11353444665937207,-0.05493810082956889,-0.1999999999999998,0.030000000000000027,-9.8,0.016716090453797502,0.011032978982151422,-1.8490871411537893e-05,147.0,-1.125,-179.75,-0.004699710000000001,-0.2835693399999998,-0.9588622999999998,0.009399409999999999
399.0,0.02749868793294999,-0.11301259614830053,-0.05524403719426619,-0.1999999999999998,0.030000000000000027,-9.8,0.0170009590291198,0.015365775583090517,0.008559302951391005,147.0,-1.125,-179.75,-0.004699710000000001,-0.2835693399999998,-0.9588622999999998,0.009399409999999999
400.0,0.02949630324727881,-0.11245817538774097,-0.055075746783277986,-0.1999999999999998,0.030000000000000027,-9.8,0.008500479514559898,0.025621478484300412,-0.03967857168665246,147.0,-1.125,-179.75,-0.004699710000000001,-0.2835693399999998,-0.9588622999999998,0.009399409999999999
401.0,0.029430187667388835,-0.11174456199570121,-0.05571214080704866,-0.1999999999999998,0.030000000000000027,-9.8,0.01639554164676481,0.01845096906931816,-0.008717262558426161,147.0,-1.125,-179.75,-0.004699710000000001,-0.2835693399999998,-0.9588622999999998,0.009399409999999999
402.0,0.030147721521866472,-0.11246384685806567,-0.056238966908900664,-0.1999999999999998,0.030000000000000027,-9.8,-0.0128014731282305,0.029704945220142952,0.009291192309496599,147.0,-1.125,-179.75,-0.00469971,-0.2835693399999998,-0.9588622999999998,0.009399409999999999
403.0,0.02883980969233483,-0.11418425673568458,-0.05707285734382837,-0.1999999999999998,0.030000000000000027,-9.8,-0.03170240549871863,0.0022341563529674983,0.042622863424419316,147.0,-1.125,-179.75,-0.004699710000000001,-0.2835693399999998,-0.9588622999999998,0.009399409999999999
