time,linaccel_x,linaccel_y,linaccel_z,gravity_x,gravity_y,gravity_z,gyro_x,gyro_y,gyro_z,euler_x,euler_y,euler_z,quaternion_w,quaternion_y,quaternion_x,quaternion_z
0.0,-0.011428571428571427,0.018285714285714294,-0.008285714285714287,-3.335428571428572,1.5917142857142867,9.078571428571427,0.22857142857142856,-0.05178571428571429,0.07142857142857142,239.0625,-19.880357142857143,-9.948214285714286,-0.48393903171428576,-0.1578613254285715,0.11002546114285715,-0.8536743180000003
1.0,-0.016190476190476193,0.020190476190476196,-0.007142857142857144,-3.3295238095238093,1.597428571428572,9.078190476190477,0.06071428571428571,0.01845238095238095,0.041666666666666664,239.0625,-19.85892857142857,-9.974404761904761,-0.48399251057142856,-0.1578857397142857,0.10973016685714285,-0.8536894324761907
2.0,-0.014612244897959184,0.015836734693877554,-0.009755102040816328,-3.3279999999999985,1.6059183673469382,9.076938775510202,0.1301020408163265,-0.04107142857142857,-0.0005102040816326522,239.1114795918367,-19.84770408163265,-10.0125,-0.48430574387755093,-0.1582016304897959,0.1094036491428571,-0.8534914597959185
3.0,-0.020533333333333337,0.011200000000000003,-0.009123809523809525,-3.334857142857143,1.6123619047619044,9.073238095238093,0.01976190476190476,-0.014404761904761903,0.06833333333333333,239.1320238095238,-19.890833333333333,-10.065833333333334,-0.4844142960190475,-0.15872047076190476,0.10953066963809518,-0.8533146143428572
4.0,-0.02084792626728111,-0.001953917050691243,-0.007658986175115208,-3.3332350230414747,1.6111428571428568,9.071566820276495,-0.10380184331797235,0.004089861751152075,0.09850230414746541,239.12839861751152,-19.879896313364057,-10.064112903225807,-0.4844669194930874,-0.15873877215668203,0.10936841891244237,-0.8533076536497696
5.0,-0.017760368663594473,-0.017493087557603693,-0.003990783410138249,-3.3310875576036856,1.6108663594470043,9.071235023041469,-0.013191244239631333,-0.08375576036866358,0.09233870967741935,239.1277073732719,-19.872753456221197,-10.065149769585254,-0.48449819595391685,-0.15875187861751147,0.1092505105345622,-0.8532956712442394
6.0,-0.0013548387096774233,-0.028700460829493093,-0.003216589861751152,-3.3204239631336403,1.614718894009216,9.076092165898613,0.05737327188940093,-0.14228110599078342,0.17661290322580642,239.1070852534562,-19.80794930875576,-10.083467741935483,-0.48439733252534556,-0.1585256270599078,0.10875767213824883,-0.8534594262211981
7.0,0.0002560163850486401,-0.030610343061955966,0.003885304659498206,-3.395943676395289,1.6395627240143367,9.040691244239632,0.3913402457757297,-0.4756720430107527,0.38183563748079874,238.71781874039937,-20.27484639016897,-10.276734511008705,-0.4810101532524321,-0.1612876408110599,0.11215002078648231,-0.8543058627475677
8.0,-0.007199180747567846,-0.033198156682027656,-0.0012165898617511528,-3.30516231438812,1.705512544802867,9.063230926779315,0.2847222222222222,0.1034178187403994,0.07594086021505377,238.77046850998465,-19.700403225806454,-10.657162058371735,-0.4816403430199693,-0.16195935943061956,0.10621141614029697,-0.8546200265867895
9.0,-0.014613415258576552,-0.04261751152073734,-0.003161290322580646,-3.279802355350742,1.7415166410650285,9.066615463389656,0.1744751664106503,0.06057987711213518,0.018413978494623666,238.78644393241166,-19.5352534562212,-10.863978494623655,-0.48178131373579114,-0.16290300685816692,0.10410013125448027,-0.8546581233210442
10.0,-0.022113159242191507,-0.05722580645161292,-0.0009815668202764983,-3.2776338965693803,1.7567168458781364,9.065339989759345,-0.0486495135688684,0.1435963901689708,0.040082565284178195,238.79443164362516,-19.52462557603687,-10.951718509984637,-0.48176997897849455,-0.16352094865488992,0.1036691284659498,-0.8546151523333329
11.0,-0.026028929851510507,-0.07533640552995392,-0.0004493087557603688,-3.2749367639528923,1.7578469022017407,9.066610087045568,-0.009722222222222219,0.11177515360983103,0.011343125960061443,238.79905913978493,-19.5101814516129,-10.971049347158218,-0.48180841455376333,-0.16353205771915003,0.10349711081362006,-0.8546261522818737
12.0,-0.043119815668202784,-0.07978392217101896,-0.0031922683051715307,-3.310434715821812,1.7560675883256525,9.0547140296979,0.13855286738351252,0.12387192780337941,-0.015466589861751152,238.8445084485407,-19.724227150537633,-10.967561123911931,-0.48201264713031233,-0.16442585435151053,0.1051049201356887,-0.8541498094073219
13.0,-0.0501351766513057,-0.07489196108550947,-0.004647209421402969,-3.3010865335381467,1.7645212493599591,9.056662570404505,0.15882616487455198,-0.10285458269329235,0.10959421402969789,238.7977022529442,-19.673297491039428,-11.023067076292882,-0.48167253911623154,-0.16454640028059397,0.10453023968253972,-0.8543908934357395
14.0,-0.030906298003072208,-0.05963031233998977,-0.0007660010240655415,-3.3612575524833597,1.7598504864311315,9.034575524833588,-0.19152585765488994,2.5740911418330774,0.3705517153097798,238.5553315412186,-20.050243215565793,-11.022881464413722,-0.47958149942447525,-0.16575688989144904,0.10783315710394267,-0.8548970821556576
15.0,-0.06487557603686636,-0.0008632872503840372,-0.0074265232974910535,-4.351212493599591,1.5903522785458266,8.560193548387096,-5.355894777265745,5.794342037890425,5.790002560163851,232.13463261648744,-26.559664618535585,-10.488895289298515,-0.4252200516763953,-0.17362586842089095,0.17075204665232974,-0.8671722859580131
16.0,-0.07126011264720943,-0.028916538658474156,0.0015913978494623586,-4.721805427547363,1.5323246287762413,8.404371735791088,-2.5440572196620588,2.857488479262673,2.9605574756784434,227.38844086021504,-28.913287250384023,-10.309568612391192,-0.3872162444582693,-0.1729338459011777,0.19714223923707117,-0.8806486768868408
17.0,-0.04845340501792115,-0.04853865847414236,0.0061879160266257015,-4.9804234511008705,1.4795622119815666,8.284882232462877,-1.4399497567844344,2.1098118279569897,1.2808323732718894,225.0098854326677,-30.59792946748592,-10.114400921658987,-0.3677462798609831,-0.17304466682872502,0.2147672683722478,-0.886364247514593
18.0,-0.021704045058883778,-0.03790476190476191,-0.0016738351254480285,-5.00158013312852,1.4358330773169483,8.287712749615975,-0.8518913210445469,-1.2739183307731694,0.7345558115719406,223.89924155145928,-30.700684843830004,-9.831544418842807,-0.3592367258213006,-0.1699508047875064,0.21803312911827955,-0.8905763273374296
19.0,-0.06427854582693292,-0.07056323604710701,-0.007191244239631337,-4.668627752176139,1.3747598566308246,8.488357142857144,-0.3744959677419355,-1.7889080901177674,0.2705101126472094,223.5509520609319,-28.469425243215568,-9.212888824884793,-0.3585456987764978,-0.15922770753917054,0.20216686947772658,-0.8968920005176653
20.0,-0.06398515104966718,-0.07041602662570405,6.47721454173078e-05,-4.682324628776241,1.3460089605734769,8.49391423451101,-0.19119623655913978,0.4547283026113671,0.2342693932411674,223.41237679211469,-28.545980542754737,-9.006282002048131,-0.35754486397158225,-0.1578042912247824,0.2035524926420891,-0.8974769416029185
21.0,-0.057718381976446506,-0.06681643625192013,0.008755504352278547,-4.71958525345622,1.322489247311828,8.480814644137224,-0.2288306451612903,0.11028865847414239,0.22530561955965178,223.12047491039425,-28.78088677675371,-8.866212237583206,-0.3551547357537123,-0.15693031515540196,0.20624130626728115,-0.8980589461733228
22.0,-0.0629810547875064,-0.07717613927291347,0.006505888376856119,-4.797964669738863,1.3159175627240143,8.439591909882235,-0.02150537634408603,0.6637352790578598,-0.02447196620583718,222.98272849462364,-29.302489759344596,-8.858621351766512,-0.35368545184639033,-0.15801994485816695,0.2106385928648234,-0.8974731693635432
23.0,-0.07445366103430619,-0.09401664106502816,0.006206861239119305,-4.883710445468508,1.3157191500256018,8.389763696876603,-0.07584485407066052,0.549494367639529,-0.004229070660522274,222.92221102150538,-29.883560547875064,-8.912317588325653,-0.35277141712596005,-0.15982811292217103,0.21522361410983104,-0.8964413255527394
24.0,-0.07344982078853046,-0.10568637992831541,0.007871991807475678,-4.950526625704043,1.2982731694828473,8.354664874551974,-0.2623079877112135,0.3220062083973374,0.05866615463389657,222.8534386200717,-30.325216013824885,-8.833368535586278,-0.3518709928197644,-0.16026176247439838,0.21911791105299538,-0.8958051802063492
25.0,-0.0728136200716846,-0.09965770609318997,0.010280081925243217,-5.003959549411162,1.252492319508449,8.33047311827957,-0.07033410138248847,0.17984831029185866,0.025244815668202768,222.7461357526882,-30.689069700460827,-8.546556579621097,-0.35077600662493597,-0.15891168031874037,0.22295691618509983,-0.8955288207393753
26.0,-0.0596505376344086,-0.08752150537634407,0.014898105478750638,-4.953001280081924,1.2559549411162316,8.359940860215051,0.4007648489503329,-1.4682075652841782,0.31921402969790064,222.82907706093192,-30.340642601126472,-8.545791730670764,-0.3517017252793139,-0.1581342307642089,0.2200455623981055,-0.8960070899306196
27.0,-0.05082437275985663,-0.07246594982078852,0.013685611879160266,-4.861496159754224,1.2964004096262163,8.406767025089602,0.178821044546851,0.1575012800819252,0.2384600614439324,222.6274641577061,-29.72587685611879,-8.762199180747569,-0.3505547548305171,-0.15778832936507936,0.21481311651715312,-0.8977692322099335
28.0,-0.044142857142857136,-0.05699539170506913,0.015644137224782383,-4.881061955965183,1.2881561699948798,8.397913466461851,0.025262416794674877,-0.17218701996927802,0.26046146953405014,222.48868727598568,-29.85276177675371,-8.717351510496671,-0.3493775259016898,-0.15751860646902202,0.2161574183830005,-0.89796851368766
29.0,-0.045976702508960576,-0.05141577060931901,0.014274193548387097,-4.88483870967742,1.2847580645161292,8.396621863799282,-0.06014784946236559,0.24232750896057348,-0.052587365591397844,222.43643593189964,-29.876064068100355,-8.689740143369175,-0.34893848066308253,-0.15727961324372758,0.21652084944444444,-0.8981071658422938
30.0,-0.04262058371735791,-0.06225755248335896,0.01829032258064516,-4.9183671274961585,1.2801118791602666,8.377463901689707,-0.06498975934459805,0.2730366743471582,-0.031041986687147964,222.42045250896055,-30.09732622887865,-8.674030337941629,-0.34860929112211986,-0.15768622017537115,0.21839383702150533,-0.8977159554820788
31.0,-0.043414746543778804,-0.0703246287762417,0.01856426011264721,-4.948592677931385,1.2735816692268305,8.361142857142855,-0.03401017665130568,0.24062499999999998,0.04944476446492577,222.39739663338452,-30.301785714285714,-8.651612903225807,-0.34827482597644654,-0.15795872751996926,0.2201257415555556,-0.8973772715821813
32.0,-0.04682386072708654,-0.08435970302099335,0.021324628776241687,-4.987385560675883,1.265563236047107,8.338890168970812,-0.058813364055299536,0.19045218894009214,0.014103302611367134,222.35290418586789,-30.573132680491554,-8.607765296979007,-0.34775855596620603,-0.15831265308371734,0.22240178280005118,-0.896959612014337
33.0,-0.05050819252432157,-0.09943036354326679,0.018790066564260115,-4.999684843830004,1.2655378904249877,8.331453149001533,0.08049955197132616,-0.0187323988735279,0.025668842805939583,222.32630408346137,-30.66084389400922,-8.611771953405018,-0.3475104259848951,-0.15853290538479262,0.22307545556246802,-0.8968447725814132
34.0,-0.05844854070660524,-0.12205837173579112,0.01678750640040963,-5.005456221198155,1.2839293394777267,8.326264208909366,0.18073476702508962,0.07892345110087044,-0.004806707629288271,222.29742063492063,-30.70264976958525,-8.751254480286738,-0.3472366787137737,-0.15954980561802354,0.22310086057245268,-0.896757495013825
35.0,-0.06293394777265747,-0.1399139784946237,0.019098822324628784,-5.0090599078341,1.301536098310292,8.321062980030717,0.19923835125448028,0.07889144905273937,-0.013319252432155655,222.30795570916538,-30.718202764976958,-8.878565028161802,-0.34726816810343064,-0.16058412719610854,0.22292853685304664,-0.8966110903133637
36.0,-0.06201536098310294,-0.12694316436251923,0.016766001024065544,-5.019069124423963,1.2908325652841781,8.315241167434714,0.21721710189452126,0.06813236047107014,-0.011757552483358934,222.3753200204813,-30.79176267281106,-8.815348182283666,-0.3477198796047108,-0.16043679271786992,0.22356832764772155,-0.8963059261105988
37.0,-0.05807219662058374,-0.11867895545314902,0.017585765488991302,-5.022953917050691,1.2779231950844858,8.316574500768045,0.2232974910394265,0.006099590373783919,0.010970302099334356,222.44068420378903,-30.819066820276497,-8.725560035842292,-0.34813553362263194,-0.1599998108381976,0.223909851280082,-0.8961425428018432
38.0,-0.06300844854070664,-0.11760010240655402,0.01512519201228879,-5.01951075268817,1.279187403993856,8.318190476190471,0.23103878648233486,0.022980670762928826,0.018205965181771634,222.4735391065028,-30.78583269329237,-8.730054723502302,-0.3484626241769072,-0.15996046348771115,0.2236684375606759,-0.8960699267434713
39.0,-0.07232258064516131,-0.1231694828469022,0.011749103942652332,-5.030427035330263,1.278211981566821,8.312405529953917,0.26420250896057346,0.16877880184331798,-0.07956989247311827,222.50518433179724,-30.86427291346646,-8.733262928827443,-0.3486692396436252,-0.16023167432462873,0.22421720060317457,-0.8958125747864822
40.0,-0.07342857142857143,-0.11364464925755248,0.010542754736303126,-5.042466973886329,1.2644884792626732,8.306221198156685,0.21168074756784436,0.026785714285714288,-0.0025729646697388586,222.58842165898614,-30.94676779313876,-8.650128008192524,-0.34924804602457754,-0.1599597504157706,0.2250005752094214,-0.8954427459139785
41.0,-0.0717188940092166,-0.11561034306195597,0.010197644649257554,-5.044533026113671,1.2600092165898618,8.306774193548389,0.2284210189452125,-0.021658986175115205,0.01907642089093702,222.64193548387095,-30.95362583205325,-8.621751792114695,-0.34963285580952375,-0.15986428936917568,0.2251304302268305,-0.8952778008878646
42.0,-0.07455837173579109,-0.1146689708141321,0.012541218637992832,-5.040189196108551,1.2627936507936508,8.308688172043011,0.25134888632872504,0.15392665130568356,-0.0913386456733231,222.7,-30.922867063492063,-8.636672747055812,-0.35014021448847926,-0.16006143843471582,0.22473918852406555,-0.8951416094449562
43.0,-0.06155453149001537,-0.10677521761392729,0.015059907834101386,-5.077350742447516,1.2408714797747054,8.288980030721966,0.2222990271377368,0.1087173579109063,-0.027656169994879676,222.84331797235023,-31.18479262672811,-8.51207757296467,-0.35102374144393234,-0.1601240475064004,0.22694073102099338,-0.894223756300051
44.0,-0.050261136712749635,-0.0986410650281618,0.018746543778801847,-5.092145417306707,1.232891961085509,8.281692780337941,0.2529121863799283,-0.12300307219662057,0.023988735279057857,222.92926267281103,-31.2860599078341,-8.46804915514593,-0.351660513109063,-0.1602074854951357,0.22771217336303123,-0.893760963315924
45.0,-0.04357398873527907,-0.09564413722478238,0.0318689196108551,-5.295968253968255,1.234088069636457,8.147611367127496,0.20450908858166922,1.6024417562724014,-0.12894265232974908,222.9441180235535,-32.70543714797747,-8.613552867383511,-0.35049618450486436,-0.1649094326943164,0.23872669705734764,-0.8903826653548385
46.0,-0.028920634920634927,-0.0897252944188428,0.0277178699436764,-5.450873527905786,1.2199703020993344,8.047317204301075,0.5969262032770097,1.6953741039426524,-0.08169482846902201,223.01949564772144,-33.79350198412698,-8.623395097286227,-0.3501092307869944,-0.16790860401536095,0.24726420621991804,-0.8876408056129033
47.0,-0.030571428571428576,-0.08116641065028161,0.0323983614951357,-5.590454685099847,1.2397521761392731,7.9492544802867355,0.38725678443420375,0.4608422939068101,-0.0063492063492063475,223.15356502816178,-34.76769073220686,-8.86929723502304,-0.3501752802232463,-0.1723818008428059,0.2542227268868408,-0.8848089782007166
48.0,-0.03248387096774195,-0.08159703020993343,0.03508858166922684,-5.651623655913978,1.245346134152586,7.906258576548897,0.28449820788530467,0.317892345110087,-0.016653865847414233,223.23853366615464,-35.19311955965181,-8.946198156682026,-0.35036809192268303,-0.17423329678545826,0.2572929667752176,-0.883527613736303
49.0,-0.017804147465437792,-0.10390911418330774,0.035770097286226335,-5.696618279569892,1.2464288274449564,7.874806707629288,0.15886776753712237,0.1680187532002048,0.02652329749103943,223.29530369943677,-35.516346646185355,-8.979464285714286,-0.3505501722240143,-0.17542442282590887,0.2596720873415258,-0.8825497488451097
50.0,-0.02495186891961086,-0.11150435227854583,0.03796979006656428,-5.702205837173578,1.2484429083461341,7.86994367639529,0.16447132616487453,0.006259600614439326,0.0065700204813108065,223.34201228878646,-35.55496031746031,-9.025966461853558,-0.3509489931157195,-0.17588643538812088,0.259859363453661,-0.8822503023963134
51.0,-0.03772939068100359,-0.12251254480286741,0.03498028673835127,-5.709098310291859,1.254626984126984,7.864418842805941,0.3459165386584741,0.33558947772657444,0.03698316692268305,223.37152457757296,-35.5956541218638,-9.082510880696365,-0.35115389811085507,-0.17645628903046595,0.2600277479802867,-0.8820056550460829
52.0,-0.0429820788530466,-0.15024372759856633,0.039125448028673855,-5.747855606758831,1.2619057859703022,7.834592933947774,-0.57547363031234,0.7334869431643626,-0.15094726062468,223.36060547875064,-35.88687275985663,-9.157910906298003,-0.3507002931100871,-0.17764817593548388,0.26213168896774186,-0.8813133988223245
53.0,-0.0424342037890425,-0.14547465437788018,0.03831848438300053,-5.847608806963645,1.1607557603686636,7.7749237071172566,0.2666730670762929,-0.04462365591397843,-0.055357142857142855,223.61074628776242,-36.61568100358423,-8.48839605734767,-0.35199485188325663,-0.17545162947772658,0.269229374203789,-0.8790623980512033
54.0,-0.041645673323092686,-0.14489400921658985,0.039076292882744515,-5.869011776753712,1.1538156682027645,7.761475678443421,0.19903353814644137,0.2678955453149001,-0.08963133640552995,223.75609318996413,-36.772587045570916,-8.443823604710701,-0.35301901227342536,-0.17581552193241168,0.2703450896548899,-0.8782621399518691
55.0,-0.048173067076292896,-0.14987557603686635,0.036289298515104984,-5.887717869943678,1.1502949308755754,7.748641065028165,0.17419994879672296,0.17162058371735792,-0.026036866359447002,223.82361111111112,-36.90976702508961,-8.430581157194059,-0.35343650215975403,-0.1762428172565284,0.2714090048689196,-0.8776926602201742
56.0,-0.04178392217101895,-0.14391986687147973,0.026808755760368674,-5.285708397337432,1.2286738351254478,8.080130568356378,1.3919930875576036,-10.070612519201228,0.6902457757296466,224.07933307731693,-32.837535202252944,-8.612944828469022,-0.35873925666513046,-0.1670337651920123,0.23766440587224785,-0.8851129815120327
57.0,-0.05180593958013313,-0.11501996927803378,0.013570148489503333,-4.448199180747569,1.3515770609318998,8.533936251920125,-0.09880632360471064,-0.42089093701996916,0.27422235023041475,224.1308403737839,-27.227123335893495,-8.956001984126985,-0.3635630107160778,-0.15467036596518177,0.19168151729544294,-0.8960607179244751
58.0,-0.04229185867895545,-0.1047322068612391,0.020087045570916548,-4.624072708653355,1.2816845878136198,8.495709165386582,-0.03456221198156681,1.764688940092166,-0.08303891449052742,224.0553955453149,-28.27560803891449,-8.553801843317972,-0.36260895749513566,-0.154709576047107,0.20155846192729138,-0.8954204880706604
59.0,-0.04201075268817205,-0.10725243215565795,0.02474347158218127,-4.818261648745521,1.245232974910394,8.415591397849461,0.24767025089605738,1.0023041474654377,-0.11757552483358935,224.05376344086022,-29.506944444444443,-8.407258064516128,-0.3617901662078854,-0.15708700728520225,0.21191174678392216,-0.8935171891111112
60.0,-0.038715053763440865,-0.1198658474142345,0.028491551459293406,-4.9270570916538645,1.2440681003584229,8.365353302611366,0.20160010240655404,0.571889400921659,-0.05291218637992831,224.0934139784946,-30.200937660010243,-8.454637096774192,-0.3615675836891963,-0.15940951631080386,0.2174320024288274,-0.8921882413666152
61.0,-0.049009984639016915,-0.13999641577060934,0.03976548899129545,-4.890102662570403,1.2499720942140293,8.387927547363029,0.5887816820276497,-5.00623559907834,-0.7304931515616999,224.22058051715308,-29.934445404505887,-8.47423355094726,-0.362860492577317,-0.1590161616223758,0.2149753039736303,-0.8923622796536097
62.0,-0.03068330773169483,-0.13766845878136202,-0.011972094214029675,-3.8744644137224773,1.3386554019457244,8.8242191500256,1.3880568356374807,-3.82438236047107,-0.3485295058883768,226.82640809011775,-23.45890616999488,-8.614944956477213,-0.3877162497429596,-0.14411871575294416,0.15937259387301586,-0.8939422105033283
63.0,0.02146390168970814,-0.09696594982078852,0.007199436763952906,-3.1912823860727078,1.4517201740911418,9.087683051715308,1.40269777265745,-4.274590373783922,-1.7964365719406041,228.8141337045571,-19.124334357398872,-9.052488159242191,-0.405977688984383,-0.13646607731643623,0.1207542061390169,-0.8933718747677932
64.0,-0.008380952380952385,-0.13214336917562725,-0.034299027137736804,-2.968118791602662,1.4768591909882232,9.190194572452635,-0.38764080901177667,0.6346582181259603,2.1185547875064,228.97351510496674,-17.68873527905786,-9.116045826932922,-0.40821715116333845,-0.13314917789656938,0.10884125940911418,-0.8953628911428572
65.0,0.024408602150537632,-0.1751131592421915,0.041168458781361994,-3.0814418842805935,1.4531024065540197,9.174267793138759,-0.293100358422939,1.2072484639016898,1.095942140296979,226.51331285202252,-18.350358422939067,-8.98958973374296,-0.38867523156784434,-0.1321630523860727,0.11739692889349719,-0.9034484805576037
66.0,0.01630312339989759,-0.1655586277521761,0.039562724014336914,-3.4516175115207375,1.4566643625192013,9.039875832053248,0.1326164874551971,2.803105798771121,0.9895353302611367,225.1327892985151,-20.648623911930365,-9.149755184331797,-0.376458837139273,-0.13881476543113158,0.1371768122168459,-0.904911337689452
67.0,-0.0048143881208397386,-0.1480033282130056,0.03970071684587814,-4.005306963645673,1.362494367639529,8.813311571940606,-0.6991487455197132,3.4499679979518687,0.024785586277521754,224.2036594342038,-24.171478174603173,-8.770302099334359,-0.36690119704633894,-0.14492471600409623,0.16786266172222222,-0.9025666205965182
68.0,-0.009418842805939583,-0.1441853558627752,0.03806272401433693,-4.338661546338965,1.2748269329237067,8.67679467485919,-0.08142921146953408,1.5504768305171528,0.029249871991807494,223.87817940348182,-26.296732590885817,-8.3474606374808,-0.3630056372373272,-0.14751541950742447,0.18661866054301074,-0.9004251091065028
69.0,-0.00689298515104967,-0.14462980030721964,0.043942652329749116,-4.404306195596519,1.2627741935483872,8.656177163338452,0.3119495647721454,-0.1935387864823349,0.06697068612391191,223.79066180235534,-26.704627496159752,-8.291570660522273,-0.36211058471274965,-0.1482586452211982,0.1901555294321557,-0.9002520470087043
70.0,-0.002888376856118793,-0.12776497695852534,0.03991756272401435,-4.375202764976958,1.2611884280593957,8.675287762416792,0.26921402969790065,-0.1434667818740399,-0.029494687660010246,223.8621799795187,-26.504637096774193,-8.266455453149,-0.36283571429032274,-0.1476535217749616,0.1885439715404506,-0.9005057611157192
71.0,-0.004197132616487455,-0.1263968253968254,0.041165386584741434,-4.360870455709166,1.2571720430107534,8.685021761392726,0.16038946492575526,-0.11932123655913976,-0.007603686635944705,223.92556963645671,-26.407862903225805,-8.227713773681515,-0.3634246561234,-0.14718674464055298,0.18780087892703534,-0.9005332763241167
72.0,-0.000506656426011265,-0.1410189452124936,0.0427009728622632,-4.343028161802355,1.2654493087557608,8.69341295442908,0.25606758832565285,-0.24510528673835122,-0.026916922683051715,223.97607366871478,-26.286991167434714,-8.257590885816692,-0.36388691982334875,-0.14723826853661034,0.18665433487762417,-0.9005865813830006
73.0,0.0028796722990271383,-0.1588310291858679,0.04318279569892475,-4.315240655401947,1.2853922171018946,8.704049667178698,0.20467549923195083,-0.10840053763440859,-0.0778321812596006,224.02396313364056,-26.104617895545317,-8.39191628264209,-0.3644016738310293,-0.14774658028725038,0.18473737951203273,-0.90069544015361
74.0,-0.0017168458781361997,-0.17336021505376342,0.04119969278033796,-4.303647977470559,1.2880601638504867,8.709679211469536,0.2066580261136713,-0.14092261904761905,0.032080453149001535,224.0694124423963,-26.03223406298003,-8.409206989247311,-0.3647994046943164,-0.1477131998348694,0.18405305783435738,-0.900679138933948
75.0,-0.008645161290322582,-0.15681003584229392,0.036899129544290844,-4.288584741423451,1.2630578597030206,8.719763440860218,0.26565540194572457,-0.10750768049155146,0.07263184843830005,224.17460317460316,-25.933147721454173,-8.238037634408602,-0.3657657459313876,-0.1463315272606247,0.1836141012872504,-0.9006034644669741
76.0,-0.009687660010240656,-0.13472401433691758,0.03196108550947262,-4.263825908858168,1.244047107014849,8.734957501280084,0.16309523809523807,-0.057827700972862266,-0.056611623143881205,224.30443548387095,-25.774078341013826,-8.10287378392217,-0.36690047457552466,-0.1450823666062468,0.18255779020993346,-0.9005572173425498
77.0,-0.00989452124935996,-0.1334357398873528,0.030017409114183317,-4.257673323092678,1.225406041986687,8.740206861239121,0.22515360983102917,-0.11356246799795187,0.024487967229902714,224.42304147465438,-25.730760368663596,-7.981304403481823,-0.3678926003338453,-0.1442477318791603,0.1824421568561188,-0.9003063689615973
78.0,-0.009315924219150028,-0.1444045058883769,0.03111930363543268,-4.2580855094726076,1.223592421915003,8.740439836149514,0.16888440860215054,-0.05698284690220174,-0.010595878136200717,224.5238767281106,-25.733784562211984,-7.966775473630312,-0.3686784824157706,-0.14432162144649258,0.18240889549257552,-0.8999849575729647
79.0,-0.01014797747055812,-0.12783102918586792,0.03155453149001537,-4.245988991295443,1.2149370199692782,8.747960317460317,0.3263904889912954,-0.1745615719406042,0.019222030209933436,224.65089125704046,-25.656549219150023,-7.899529569892473,-0.3697777150337942,-0.1438073618328213,0.18179013238069636,-0.8997427124726065
80.0,-0.0058643113159242205,-0.11829313876088068,0.030879928315412197,-4.225033538146442,1.2204080901177672,8.756984383000514,0.31561859959037375,-0.06306323604710702,0.03370935739887353,224.75520673323092,-25.522067012288787,-7.925547235023041,-0.37066690798822316,-0.14374950515207374,0.18051057155709163,-0.899641153198669
81.0,-0.004384024577572964,-0.1135074244751664,0.03121761392729136,-4.2168540706605215,1.228216077828981,8.76088786482335,0.304294674859191,-0.07473758320532514,0.016052227342549925,224.80953661034306,-25.46002944188428,-7.963165642601126,-0.37113239715002566,-0.14399988352278548,0.17985231034408602,-0.8995413076784436
82.0,-0.011768049155145927,-0.11507168458781362,0.029599590373783933,-4.215814132104454,1.2335780849974394,8.760554531490016,0.15857014848950332,0.1414330517153098,-0.0673195084485407,224.84791346646185,-25.459219790066562,-7.994687660010241,-0.371369787298515,-0.1442878990563236,0.17966707280798766,-0.8994373514705585
83.0,-0.011943932411674347,-0.12963722478238607,0.028873527905785984,-4.212842549923195,1.258572452636968,8.758687403993854,0.42675051203277015,-0.11177195340501792,0.031634024577572965,224.91278161802356,-25.445249295954937,-8.166497055811572,-0.37186614020225295,-0.14564107827470557,0.17895116432565283,-0.8991556339610856
84.0,-0.012433179723502304,-0.14497695852534564,0.030580645161290335,-4.210562211981566,1.2807557603686628,8.75589861751152,0.2462557603686636,-0.07517281105990783,0.015898617511520736,224.96031105990784,-25.43243087557604,-8.314228110599078,-0.37220368899539175,-0.14684642225806455,0.17833111278341013,-0.8989390585714289
85.0,-0.013639528929851506,-0.1561669226830517,0.03444342037890427,-4.199731694828468,1.2934306195596519,8.758157706093186,0.2750128008192524,-0.15031362007168458,0.050153609831029185,224.98271889400922,-25.35489631336406,-8.399769585253456,-0.3724724188632874,-0.14731094629390684,0.17747192702918585,-0.8989193885509474
86.0,-0.011193036354326676,-0.14430926779313877,0.012290834613415267,-3.9900133128520228,1.3178074756784435,8.841000512032767,0.4591653865847414,-3.818503584229391,0.20491551459293394,225.09976958525345,-24.031739631336407,-8.479147465437787,-0.37419796679569894,-0.14405007511008705,0.16632135077726573,-0.9005635310681004
87.0,-0.006295954941116231,-0.1376487455197133,0.019887352790578607,-3.6570424987199184,1.3751367127496161,8.974268305171531,0.6521761392729134,-0.6100934459805429,0.029493087557603687,225.2866679467486,-21.92860343061956,-8.70607398873528,-0.3770449308131081,-0.13987580818842804,0.14844605695340501,-0.9031233005898618
88.0,-0.007230926779313876,-0.12193958013312853,0.015681003584229393,-3.584447516641064,1.3912457757296468,9.008023553507424,0.35664682539682535,0.08959613415258566,0.16480414746543778,225.32452636968765,-21.45350102406554,-8.772651049667179,-0.37771814564157713,-0.13908955537532,0.14440923881310802,-0.9037854393594469
89.0,-0.015795186891961088,-0.10308960573476704,0.012333589349718385,-3.5890348182283667,1.3872081413210449,9.009615463389657,0.2627704173067076,0.25015520993343565,0.0934331797235023,225.32355350742446,-21.476116871479775,-8.738629672299027,-0.3777452469912953,-0.13891446763696877,0.1447073519365079,-0.9038489376889401
90.0,-0.025507936507936514,-0.09414644137224784,0.008797235023041475,-3.6034434203789045,1.386015873015873,9.005425499231952,0.29422683051715315,0.2115271377368151,0.02601766513056836,225.3230670762929,-21.565319380440346,-8.732261264720943,-0.37769321418381974,-0.13915690946338966,0.14545236123707117,-0.9037581929856631
91.0,-0.02840319568687691,-0.0970171079184362,0.008331932773109244,-3.623644724556491,1.3903508478660278,8.998860215053767,0.27164242040902387,0.2114002590283425,-0.0011464263124604662,225.3195116487455,-21.693021576910333,-8.776758512544802,-0.377617194519397,-0.13983375420607813,0.14635813779012685,-0.9035613554209967
92.0,-0.03280822866781122,-0.10059636757928977,0.006876539863257131,-3.648511430378604,1.3947497966928704,8.98783512544803,0.21131404174573057,0.1294456492274329,-0.008973750790638835,225.31370967741935,-21.84289855727237,-8.806586021505375,-0.3774817473717057,-0.14054847219264482,0.14748628031083405,-0.903325409094907
93.0,-0.05298936779012681,-0.10121062618595825,-0.0007368452757447056,-3.650246498599441,1.3973195988072642,8.987783922171023,0.12279411764705883,0.008328815397126592,-0.036888949128038306,225.3125,-21.849963103520977,-8.820430107526882,-0.3775087465061292,-0.14071074771844222,0.1474751843673986,-0.9032948745566705
94.0,-0.06149929218999428,-0.09330116562754134,-0.009815427246167284,-3.624178548838891,1.3979409053944152,8.997527905785972,0.09650650582813772,-0.24554757386825696,-0.014181801752959244,225.35581797235022,-21.690534547152193,-8.817415514592934,-0.37783782721159,-0.1402580380343363,0.1461554387228698,-0.9034410550479205
95.0,-0.09817360922863771,-0.08401924640824071,-0.01916577813921268,-3.6137252191199067,1.385689346706424,9.003141833077315,0.049462930333423694,-0.18066549200325288,0.0036521866811240616,225.34521889400924,-21.621361743622177,-8.74090821812596,-0.37780899610349084,-0.13943286306785938,0.14587173429691877,-0.9036267926069095
96.0,-0.11196262160778292,-0.06246134152585766,-0.02590220174091143,-3.6222805939580143,1.3697327188940092,9.002592421915004,0.07249263952892984,-0.13209165386584742,-0.004179467485919099,225.36559779825907,-21.675985663082436,-8.639607334869432,-0.3779447480596517,-0.13882650393958013,0.14660476956886842,-0.9035399697775219
97.0,-0.11423758320532515,-0.035435739887352796,-0.02602662570404507,-3.6256026625704054,1.3618617511520736,9.001757296466973,0.08508704557091654,-0.23303891449052738,-0.02110855094726062,225.42107654889912,-21.705472350230416,-8.581854838709678,-0.37831179834408596,-0.13857864916026624,0.14691096491961086,-0.90337505296467
98.0,-0.12749206349206355,-0.026690220174091145,-0.03323911930363545,-3.6081884280593957,1.360285714285714,9.008721966205837,0.05394905273937532,-0.3114503328213005,0.006899641577060932,225.46356246799797,-21.58168202764977,-8.567799539170506,-0.37871900073425485,-0.1380661864096262,0.14597739808192522,-0.9034335815791091
99.0,-0.1509718381976447,-0.01993036354326677,-0.043757808499744005,-3.5890757808499734,1.3558433179723504,9.017665130568354,-0.028584229390681004,-0.21355926779313875,0.012522401433691755,225.48345174091142,-21.462874423963132,-8.538104838709677,-0.37899764421044524,-0.13749158807578082,0.14508409969073222,-0.9035498695314901
100.0,-0.14974859190988227,-0.009785458269329238,-0.04576830517153099,-3.5888650793650774,1.3473778801843324,9.01857910906298,0.1265200972862263,-0.3124247951868919,-0.027235343061955963,225.5202108934972,-21.470348502304148,-8.496097350230414,-0.37930237961213514,-0.13728838825908857,0.14518856761955967,-0.9034399007242706
101.0,-0.14323502304147467,0.0006635944700460836,-0.042728110599078356,-3.589944700460829,1.3434470046082958,9.01811059907834,-0.02131336405529955,-0.2590437788018433,0.00132488479262673,225.54423963133644,-21.482315668202766,-8.497292626728111,-0.37955266141013827,-0.13729051312442397,0.1452672717050691,-0.903323124506913
102.0,-0.15516129032258066,0.00022119815668202806,-0.049124423963133663,-3.580921658986174,1.341474654377881,9.02084792626728,-0.026094470046082955,-0.23773041474654377,-0.0014976958525345615,225.55483870967743,-21.4301267281106,-8.489804147465438,-0.37973059143778803,-0.13709784392626728,0.14484469620276497,-0.9033442194193553
103.0,-0.17252534562211985,0.0005898617511520737,-0.055631336405529974,-3.565511520737326,1.3404147465437801,9.026700460829492,-0.03369815668202765,-0.2592741935483871,-0.009562211981566818,225.58087557603687,-21.33375576036866,-8.461635944700461,-0.37992050290322565,-0.13675998407373274,0.14405123927188937,-0.9034484008202768
104.0,-0.15885714285714286,0.0037880184331797236,-0.04996313364055302,-3.5746728110599078,1.3430967741935493,9.024285714285714,0.06319124423963132,-0.3561635944700461,-0.033640552995391704,225.6160138248848,-21.386117511520737,-8.467626728110599,-0.38014152284792607,-0.1370056438341014,0.1444476018986175,-0.9032537082857146
105.0,-0.1382601126472094,0.005223758320532515,-0.04099539170506914,-3.6176190476190486,1.3191827956989255,9.01126062467998,-0.2156426011264721,0.008506144393241155,-0.009511008704557091,225.57332949308756,-21.649468766001025,-8.32584485407066,-0.37965001714695323,-0.13664723904454684,0.14709075804608296,-0.9030783538218128
106.0,-0.12783512544802866,-0.00034203789042498624,-0.03741013824884794,-3.6676251920122884,1.298623655913979,8.99326164874552,-0.11168074756784434,-0.11415130568356374,-0.028257808499743985,225.56791474654378,-21.964567332309265,-8.208314132104455,-0.3793572555504351,-0.136628231296467,0.15002352639631333,-0.9027186181228879
107.0,-0.12790373783922168,-0.0019313876088069633,-0.03905990783410139,-3.678918586789555,1.2883440860215059,8.990953405017924,-0.051721710189452125,-0.19546850998463902,-0.03616231438812084,225.5652073732719,-22.03913850486431,-8.128609831029186,-0.3793232408120838,-0.13635380172657452,0.15085275461751152,-0.9026380958678958
108.0,-0.12004864311315924,-0.005689196108550944,-0.04744239631336407,-3.6822703533026124,1.2852688172043012,8.989799283154124,0.048505504352278545,-0.25905337941628265,-0.05100166410650281,225.59544930875575,-22.05940220174091,-8.112548003072197,-0.3796385782078851,-0.13631722403840246,0.15101121780184332,-0.9024885603348696
109.0,-0.1194615975422427,0.007233230926779322,-0.045367895545314924,-3.6745207373271893,1.2867311827956986,8.9941146953405,0.10424187147977469,-0.35446268561187916,-0.01923163082437276,225.6358646953405,-22.002064132104454,-8.113128840245775,-0.37996003557040436,-0.13623912901152077,0.15048355761981563,-0.9024533179242195
110.0,-0.12506195596518177,0.015605734767025098,-0.04413210445468512,-3.6677296466973885,1.291797235023041,8.99530568356375,0.041276241679467474,-0.3247951868919611,-0.007046850998463901,225.6918522785458,-21.962103174603172,-8.152995391705069,-0.3804063389820788,-0.13644494562519205,0.14999988715207374,-0.9023118855258575
111.0,-0.12698719918074758,0.01703328213005633,-0.04275268817204303,-3.663883256528418,1.3010875576036862,8.994491551459294,0.17291346646185357,-0.39177547363031234,-0.0037250384024577576,225.73501024065538,-21.942831541218638,-8.22229262672811,-0.38079107141730667,-0.1369324767987711,0.14958254142857147,-0.9021480307537121
112.0,-0.1298346134152586,0.02405581157194061,-0.043274961597542266,-3.6612181259600627,1.3240184331797236,8.99298771121352,0.06975166410650283,-0.1462909626216078,-0.014074500768049156,225.80451548899129,-21.92294226830517,-8.37188940092166,-0.3813146853814644,-0.138088366265745,0.14888570088940095,-0.9018676127639527
113.0,-0.12013031233998978,0.02507859703020994,-0.038655401945724546,-3.670872759856631,1.3432350230414742,8.985615719406045,0.09977598566308245,-0.2444844470046083,-0.0006240399385560678,225.8608150921659,-21.990176971326164,-8.505901177675373,-0.38167385793394754,-0.13936278305145927,0.14891813506989246,-0.9015092334234511
114.0,-0.12980235535074247,0.01900460829493088,-0.04133845366103432,-3.662567332309269,1.355253456221198,8.986480286738352,-0.04393241167434715,-0.27259344598054275,0.017031490015360983,225.90338581669226,-21.930798771121353,-8.571671786994369,-0.38196085707322047,-0.13975212517357913,0.1482085844577573,-0.9014452298986171
115.0,-0.1335832053251408,0.018857142857142857,-0.049328213005632365,-3.6030209933435744,1.3586451612903225,9.01010650281618,0.04220430107526883,-0.8572068612391193,-0.1786674347158218,226.0489567332309,-21.55652841781874,-8.572126216077828,-0.3833632977624167,-0.13880733981259602,0.14501229265745008,-0.901508083364055
116.0,-0.1293773681515617,0.007709165386584742,-0.0429252432155658,-3.5800133128520226,1.347091653865847,9.021221198156681,-0.06429531490015361,-0.3863703277009728,-0.052566564260112636,226.20558435739886,-21.408362135176652,-8.49382040450589,-0.3847324539692779,-0.13797002101792116,0.14390943846287763,-0.9012340944326676
117.0,-0.08448591909882233,0.0489621095750128,-0.03638479262672811,-3.3831699948796716,1.4009585253456216,9.086161034306194,0.2398761520737327,-1.944596454173067,0.7375608038914491,226.3433323732719,-20.186832757296468,-8.763820084485406,-0.3864837627880184,-0.13646605407270865,0.1329931130097286,-0.9023029055527394
118.0,-0.10136303123399898,0.010511008704557094,-0.04461853558627753,-3.299760368663594,1.3552626728110597,9.124826420890937,-0.16511136712749622,-0.045122887864823324,-0.1724014336917563,226.18236687147976,-19.664842549923193,-8.444668458781361,-0.3856167111633384,-0.13220841750332818,0.13002415282130053,-0.9037568409871993
119.0,-0.11066410650281618,0.0133589349718382,-0.0439651817716334,-3.3682831541218627,1.3466569380440352,9.102754736303122,-0.14690860215053766,0.15888696876600103,-0.1378232206861239,226.15670762928823,-20.086258320532515,-8.40317140296979,-0.3852555200430108,-0.133192290859191,0.13360857003993853,-0.9032735515857659
120.0,-0.13098182283666157,0.004015873015873016,-0.04569226830517155,-3.413178443420378,1.338434459805427,9.08771838197644,-0.1593125960061444,0.009022977470558136,-0.05937820020481312,226.13996095750127,-20.363780081925242,-8.368578789042498,-0.384994568625192,-0.1337964137890425,0.13596321992780333,-0.9029594105486433
121.0,-0.14885279057859704,0.001610343061955966,-0.05145289298515107,-3.427008704557091,1.3341410650281609,9.084647721454171,-0.012620007680491568,-0.2721566180235535,-0.04281874039938557,226.14277713773683,-20.447860663082437,-8.338943292370711,-0.38495737100281613,-0.13391868688095235,0.1366976621034306,-0.9028587870576039
122.0,-0.1380358422939068,-0.0009144905273937527,-0.04603072196620586,-3.440749103942653,1.3301126472094205,9.08111008704557,-0.047974270353302616,-0.19844150025601637,-0.03881528417818741,226.1773041474654,-20.539596134152582,-8.314352918586788,-0.38513012385663087,-0.13408126219201225,0.13740908409421398,-0.9026710779677418
123.0,-0.14350179211469538,-0.0004756784434203787,-0.04738863287250386,-3.425757040450588,1.333899641577061,9.085642601126473,0.08347254224270352,-0.4257184459805427,-0.007109254992319508,226.21739631336402,-20.43514944956477,-8.338311251920123,-0.38548956773476695,-0.13396269904531485,0.13649046761853556,-0.9026792127995389
124.0,-0.15622119815668206,9.216589861751163e-05,-0.04968663594470048,-3.400820276497695,1.3369677419354846,9.093327188940094,0.043836405529953916,-0.39994239631336403,0.011866359447004607,226.23571428571427,-20.282430875576036,-8.356739631336406,-0.3857749267188939,-0.13361647687557598,0.1351813385069124,-0.9028037929677417
125.0,-0.1635627240143369,0.014743471582181259,-0.05002355350742449,-3.3640163850486426,1.3500962621607788,9.105009728622635,0.22525601638504866,-0.4381016385048643,-0.04346518177163338,226.3255184331797,-20.054422683051715,-8.433621351766512,-0.38655542060931897,-0.1335415463584229,0.13302243158832563,-0.9027952048284691
126.0,-0.14326062467997952,0.011662058371735791,-0.04680901177675373,-3.381141833077316,1.3685089605734766,9.095011776753715,0.11706349206349206,-0.1920058883768561,0.07541602662570404,226.32252304147465,-20.163876088069635,-8.55186251920123,-0.38638835908346136,-0.13479915164464926,0.13355839113056833,-0.9025996857828982
127.0,-0.1302293906810036,0.018669738863287252,-0.045759344598054294,-3.3902621607782892,1.403374295954941,9.086183307731698,0.11855478750640042,-0.26746031746031745,0.07805939580133128,226.35034562211982,-20.21817076292883,-8.770430107526881,-0.38659211729749104,-0.1367011981495136,0.13324791469431643,-0.9022746324167945
128.0,-0.1507644649257553,0.016427035330261137,-0.051584741423451125,-3.3918038914490527,1.41789452124936,9.082893497183822,-0.03412698412698412,-0.06359767025089606,0.009680619559651812,226.36561059907834,-20.225041602662568,-8.876257680491552,-0.3867231648607271,-0.13752055983512546,0.1330013494485407,-0.9021341294664618
129.0,-0.14508730158730163,0.008195084485407067,-0.048995135688684105,-3.4285517153097795,1.4246615463389656,9.068290066564261,-0.021671786994367635,0.14622535842293904,0.020076484895033282,226.37692972350231,-20.461368727598565,-8.933462941628264,-0.3866494033612391,-0.13865352165488992,0.1346944102910906,-0.9017399702032771
130.0,-0.13961802355350744,-8.704557091653671e-05,-0.04590885816692271,-3.474450588837685,1.430287762416794,9.049920122887865,0.02142217101894521,-0.24551971326164873,0.08326292882744496,226.34320276497695,-20.75098566308244,-8.985464669738864,-0.3861845286922682,-0.13991607928622632,0.13687264758730155,-0.9014126407916024
131.0,-0.15200716845878137,0.008670762928827446,-0.049968253968253995,-3.4646584741423445,1.4344065540194566,9.054411674347158,-0.11207117255504352,-0.316884280593958,-0.05908858166922682,226.32966589861752,-20.697209421402967,-9.00652841781874,-0.3860903780051202,-0.13987355699334358,0.1363556267844342,-0.9015404486031744
132.0,-0.14209114183307733,0.006883768561187917,-0.047269841269841295,-3.440426011264721,1.4250465949820783,9.064445468509987,0.03520865335381464,-0.6700204813108039,0.17471838197644649,226.2546658986175,-20.54313236047107,-8.93465821812596,-0.38560927933435735,-0.1387953759160266,0.13544283079774705,-0.9020462811172554
133.0,-0.1258059395801331,0.00602252944188428,-0.04173630312339992,-3.4076323604710703,1.43800256016385,9.073697388632876,-0.04316756272401435,-0.3673259088581669,0.005331541218637992,226.24844470046082,-20.342447516641066,-9.003878648233488,-0.3856565225750128,-0.1387242311653866,0.13358726509011778,-0.9023154839871992
134.0,-0.1299490527393753,-0.0005279057859703027,-0.040467229902713786,-3.397203277009728,1.4340243215565796,9.078429339477728,-0.07213101638504865,-0.20471710189452125,-0.019022017409114186,226.24706221198156,-20.27269265232975,-8.981201996927805,-0.3856438886746032,-0.13831881919559652,0.1331056287247824,-0.9024565263069637
135.0,-0.15363133640552992,-0.00471889400921659,-0.0509493087557604,-3.379944700460828,1.4319539170506912,9.085410138248847,-0.0031682027649769587,-0.22949308755760367,0.002995391705069123,226.24752304147466,-20.16163594470046,-8.958006912442396,-0.3857313301843317,-0.13783774705069124,0.1322765155852535,-0.9026130937788017
136.0,-0.15337327188940092,-0.0051428571428571435,-0.05129953917050693,-3.4062211981566812,1.4304239631336406,9.07610138248848,-0.12033410138248847,0.13646313364055299,-0.07747695852534563,226.27626728110596,-20.325000000000003,-8.955702764976959,-0.3858603756405528,-0.13833345356682025,0.13359639385253458,-0.9022846278064516
137.0,-0.13707117255504353,-0.0043840245775729645,-0.04170506912442398,-3.466656426011264,1.416239631336405,9.055916026625704,0.05789170506912443,-0.2265424987199181,-0.012903225806451611,226.33495903737838,-20.69480926779314,-8.88234126984127,-0.38609125854992316,-0.13894121145519714,0.13678795461751153,-0.9016102033650795
138.0,-0.14047107014848953,0.009075268817204303,-0.04724423963133643,-3.473392729134664,1.408783410138248,9.053607782898107,0.05213133640552996,-0.2312147977470558,-0.0775921658986175,226.3893113159242,-20.74599334357399,-8.843273169482845,-0.386545020500768,-0.13886018089810553,0.13720315640552994,-0.9013766392309267
139.0,-0.15831848438300056,0.014970814132104458,-0.05528110599078343,-3.461940604198669,1.4039078341013818,9.058656426011265,0.011981566820276502,-0.2423067076292883,-0.05748847926267281,226.43025473630314,-20.663492063492065,-8.825524833589348,-0.3869360777112135,-0.1384903004905274,0.1366219123410138,-0.9013562753712234
140.0,-0.16037583205325145,0.01677112135176651,-0.054529953917050705,-3.4477168458781366,1.4163640552995393,9.062226830517151,0.18833525345622118,-0.5380600358422939,-0.07067972350230414,226.4977310547875,-20.578376216077828,-8.89349398361495,-0.3875034973164362,-0.13883901001945725,0.13561847338709676,-0.901206724925243
141.0,-0.1359621095750128,0.012150537634408601,-0.04545391705069127,-3.438512800819254,1.4326336405529958,9.063809267793138,0.05099366359447004,-0.42507840501792116,-0.01710829493087557,226.59324916794674,-20.520870135688682,-8.977881784434203,-0.3882182515890936,-0.13941040282078854,0.13476705314516127,-0.9009382690432668
142.0,-0.11577675371223761,0.014444444444444447,-0.03309882232462879,-3.424431131592423,1.4460972862263186,9.066864311315925,0.0772721454173067,-0.29422043010752685,-0.08124679979518688,226.6998783922171,-20.436258320532513,-9.05382104454685,-0.3890777020266256,-0.1398714575125448,0.13366557311827953,-0.9006592253773684
143.0,-0.11545519713261651,0.010554019457245264,-0.03074756784434205,-3.4569851510496674,1.453232974910395,9.053528929851511,0.03889528929851511,-0.1719662058371736,-0.15905657962109576,226.7456477214542,-20.63785842293907,-9.10366743471582,-0.38928763465847405,-0.14096211450281618,0.13508609511213515,-0.9001853499559653
144.0,-0.1210005120327701,0.007535074244751664,-0.03486635944700463,-3.455666154633897,1.4571541218637996,9.053397849462367,0.05577956989247311,-0.30691884280593956,-0.05921018945212493,226.87339989759346,-20.628737839221706,-9.14087941628264,-0.39030349310701484,-0.14133543875576035,0.13476432445161296,-0.8997348399313878
145.0,-0.11685970302099334,0.0036292882744495647,-0.03337327188940094,-3.460358422939068,1.4618812083973376,9.051431643625195,3.8402457757297226e-05,-0.2896057347670251,-0.03844726062467997,226.9623047875064,-20.655008320532513,-9.167847542242704,-0.3909863084244751,-0.14174771466359443,0.13479138617050693,-0.8993689017813624
146.0,-0.12311648745519713,0.004943676395289299,-0.04042396313364058,-3.4499073220686123,1.466290834613415,9.055333333333337,0.01992127496159754,-0.2664330517153098,0.01715309779825909,227.0186235919099,-20.596513376856116,-9.179747503840247,-0.3914536672767537,-0.1417796358479263,0.13416975766589861,-0.8992508759229391
147.0,-0.13904505888376856,0.0023594470046082953,-0.047152585765489016,-3.437854070660524,1.4683425499231946,9.057818228366616,-0.01573860727086534,-0.2833557347670251,-0.014068100358422937,227.04951036866362,-20.527259344598054,-9.184715821812595,-0.3917669131300562,-0.14162868638504864,0.13353018648694315,-0.8992364764751665
148.0,-0.13331464413722477,0.0016379928315412191,-0.04590194572452639,-3.4035824372759866,1.4693556067588318,9.070692012288784,0.011815156169994881,-0.6022545442908346,-0.04089541730670763,227.15284978238606,-20.311053507424475,-9.186827956989248,-0.39270476493881207,-0.141057337953405,0.13168232608218122,-0.8991867203466464
149.0,-0.12667485919098823,-0.001326164874551971,-0.041333333333333354,-3.3792401433691754,1.4674930875576035,9.081080389144905,-0.028392217101894518,-0.4277393753200205,-0.02567204301075269,227.2379672299027,-20.156618023553506,-9.166301843317973,-0.3935314412329749,-0.1405428816108551,0.1303887511705069,-0.8990953184301076
150.0,-0.1430424987199181,-0.0011100870455709165,-0.04580030721966208,-3.348329749103942,1.4685253456221194,9.091936507936508,0.017831541218637996,-0.34745263696876594,-0.018049155145929342,227.31103430619558,-19.97064772145417,-9.163997695852535,-0.3941045609298516,-0.13995856984229393,0.12881874429493084,-0.8991666541136714
151.0,-0.16632770097286229,0.0040624679979518715,-0.05635176651305686,-3.3055519713261656,1.4692626728110594,9.107092677931387,0.041519457245263694,-0.3366007424475166,-0.02031490015360983,227.34805747567842,-19.701107270865336,-9.143490783410138,-0.3945955738243728,-0.13905580845110088,0.1266578899677419,-0.8993949057066053
152.0,-0.1675509472606247,0.006892985151049668,-0.05489938556067591,-3.2992782898105473,1.4706635944700452,9.109343573988738,0.05929659498207885,-0.33126120071684584,-0.013988095238095237,227.38301491295442,-19.664407322068612,-9.153513824884794,-0.3949056029167947,-0.13906759183384537,0.12629036526497694,-0.8993070809132104
153.0,-0.13613824884792625,0.005640552995391705,-0.04649769585253458,-3.3182211981566807,1.4754930875576027,9.101861751152072,0.01889400921658986,-0.1908410138248848,-0.0048963133640553,227.41342165898618,-19.775,-9.197235023041475,-0.395124613373272,-0.13974519319815665,0.12704982482949306,-0.8990011064976962
154.0,-0.11888888888888889,0.0073292370711725546,-0.041722478238607294,-3.326669738863285,1.4779815668202754,9.098793650793652,0.09650537634408601,-0.189810547875064,-0.013056835637480798,227.4409178187404,-19.82891065028162,-9.22528801843318,-0.3952698473691757,-0.14012654949923192,0.12735273134767022,-0.8988368771152075
155.0,-0.10555965181771633,0.014148489503328216,-0.04070455709165388,-3.320353302611365,1.4791612903225795,9.100705581157197,0.018701996927803378,-0.1366679467485919,0.006547619047619048,227.45960061443932,-19.793055555555554,-9.223387096774193,-0.3954091940163851,-0.1400516690998464,0.12703364196415767,-0.8988304766359447
156.0,-0.10283973374295954,0.015037378392217105,-0.03874859190988225,-3.314522273425498,1.4797419354838697,9.10297491039427,0.014765745007680492,0.006925243215565799,-0.032354070660522274,227.4495583717358,-19.76043906810036,-9.20921658986175,-0.3954660407455197,-0.13992726172043013,0.12675841105581154,-0.8988617028479264
157.0,-0.10754429083461342,0.02196569380440349,-0.03989503328213008,-3.3115837173579106,1.4799999999999986,9.104128008192529,0.02740015360983103,-0.04106502816180235,-0.01511136712749616,227.45784370199692,-19.737419994879673,-9.20794930875576,-0.3954941548658473,-0.13984804124731182,0.1266069582836661,-0.8988889888617511
158.0,-0.10825601638504864,0.025512800819252442,-0.039680235535074264,-3.3103356374807986,1.4799999999999986,9.104962621607786,0.04443164362519201,-0.06076868919610855,0.008083717357910906,227.45135848694318,-19.728502624167945,-9.20241935483871,-0.3955018554375319,-0.13979869880798773,0.1265256903492063,-0.8989072728963132
159.0,-0.10733640552995394,0.035917050691244255,-0.04047926267281108,-3.30694930875576,1.4738064516129026,9.106976958525347,-0.11503456221198156,-0.0033410138248847893,-0.03525345622119816,227.46520737327188,-19.71123271889401,-9.16630184331797,-0.3954889116036867,-0.13943450504147467,0.12648605109677416,-0.8989753423225808
160.0,-0.10951152073732719,0.04122580645161292,-0.04274654377880187,-3.3147465437788006,1.446820276497696,9.106838709677422,-0.06307603686635944,0.03663594470046083,-0.01434331797235023,227.43968894009217,-19.762730414746542,-9.017857142857142,-0.39527767940092173,-0.13839786431336404,0.1274349927281106,-0.8990897057419358
161.0,-0.1083963133640553,0.046903225806451634,-0.042737327188940105,-3.3215576036866343,1.4356866359447005,9.107308755760371,0.0733294930875576,-0.04470046082949308,-0.023559907834101383,227.42661290322582,-19.794642857142854,-8.956048387096773,-0.39519566194470057,-0.13800887003686635,0.12795224477419356,-0.8991105189493089
162.0,-0.09651715309779826,0.046651305683563765,-0.038621607782898124,-3.326702508960573,1.4410691244239635,9.104283666154636,0.05571556579621095,-0.039612135176651304,-0.00822452636968766,227.43162442396311,-19.82758576548899,-8.995321300563237,-0.3951845733353817,-0.13837636878545823,0.12810666118586791,-0.899040026436252
163.0,-0.07466871479774706,0.05221505376344089,-0.03725550435227855,-3.5122683051715304,1.4696774193548388,9.018293906810037,0.5946492575524833,5.681029185867895,-0.07280465949820789,227.36993087557602,-21.035279057859704,-9.271883000512032,-0.39379997938658484,-0.14405345786277524,0.13705998372657452,-0.8971360980890939
164.0,-0.07877419354838708,0.04874859190988225,-0.025706093189964162,-4.6548059395801324,1.513311827956989,8.385030209933436,0.1357590885816692,6.411450332821301,-0.07548643113159242,226.92993471582182,-28.646134152585766,-10.310304659498208,-0.3837372598965695,-0.17245588810445472,0.195612287750128,-0.883207525182796
165.0,-0.06148387096774194,0.04295494111623145,-0.007853046594982082,-5.2686932923707115,1.53431490015361,8.04180081925243,0.2146249359959037,2.87093253968254,-0.04246671786994368,226.72692012288786,-32.72793458781362,-10.84694380440348,-0.3785659190911418,-0.1876032594623656,0.22701326583358936,-0.8755957603932414
166.0,-0.052813108038914494,0.043443676395289316,-0.009118023553507423,-5.092931899641577,1.5348338453661037,8.158302867383512,-0.08862327188940092,-5.956001984126985,-0.03323092677931387,226.97416154633896,-31.485994303635433,-10.70728526625704,-0.38176731243189965,-0.18363764483307732,0.2170478316034306,-0.8776660758320534
167.0,-0.05333998975934461,0.04015309779825911,-0.010782386072708653,-4.409641577060931,1.5169365079365082,8.548760368663594,-0.04953597030209934,-2.968196364567332,-0.08124359959037378,227.43993215565797,-26.91398489503328,-10.110141449052739,-0.38945643799334356,-0.1671654766451613,0.1815254078090118,-0.8855554695873016
168.0,-0.051743727598566325,0.038477470558115734,-0.012183819764464927,-4.071714797747056,1.5062931387608811,8.74176267281106,-0.09873111879160265,-1.8161258320532514,-0.008075716845878135,227.66653865847414,-24.64696940604199,-9.808152521761393,-0.3932720950197132,-0.158965628281106,0.16396112502432153,-0.8894802618535582
169.0,-0.05878853046594983,0.032271889400921676,-0.01602918586789555,-3.8660455709165378,1.4971116231438817,8.859649257552483,-0.04418522785458269,-0.992796338965694,-0.018010752688172045,227.79261072708653,-23.26406490015361,-9.61551779313876,-0.3954915405878136,-0.15383399753661034,0.1533088110112647,-0.8919158986328721
170.0,-0.05946366073311046,0.03754364326375713,-0.019837038041022863,-3.7673266618475347,1.4925696364567336,8.917619966266075,0.016971156742266805,-0.41386564034215834,-0.058197230505105266,227.85514752944187,-22.596230064606488,-9.496382168458782,-0.3965227052158369,-0.15128403482631542,0.1482300330673022,-0.8931319926059453
171.0,-0.06224975151350865,0.036123972169512984,-0.019627300382518604,-3.7488111803861317,1.4865939580133123,8.930803710731604,-0.03567324779374115,0.14686982319809644,-0.0322908195536279,227.84953277009728,-22.475058356676,-9.449551971326166,-0.3966894079036174,-0.1505962246757025,0.14738378468329266,-0.8934383110520765
172.0,-0.06061796331435802,0.04032005060088553,-0.023463419776512763,-3.7604562814373046,1.483015873015872,8.925157615734463,0.1048880304810096,-0.004272461672841163,-0.027032506551007498,227.82974910394265,-22.553082173729706,-9.442546722990272,-0.3965547150255415,-0.15072946655444108,0.14809208903289056,-0.8933577781389415
173.0,-0.0645946959428933,0.04801716815758564,-0.022708668413602008,-3.7621497997048268,1.4812544802867373,8.92602581247553,0.007196319387970239,0.002673676997680799,-0.014466714104996836,227.8201164874552,-22.555314128339507,-9.438900089605735,-0.39653462164180303,-0.15066988263205922,0.14814249895884163,-0.8933703620879039
174.0,-0.06912517695250145,0.05587340742748715,-0.022833468871419543,-3.7591369838257878,1.4813507424475159,8.92784265534171,0.1234138278967501,-0.09166911388211199,-0.030720460227101593,227.82267345110085,-22.538026527815425,-9.4375,-0.39655279010418365,-0.15059877337312128,0.14799512605481766,-0.8934006382435165
175.0,-0.0636825396825397,0.06558986175115208,-0.023291090629800316,-3.7589347158218134,1.481988735279057,8.927627752176141,0.007808499743983614,-0.0757376472094214,0.011987967229902714,227.82303027393752,-22.54127624167947,-9.4375,-0.39655457221351775,-0.1505654248975934,0.14797461038658472,-0.8934038583264208
176.0,-0.05616589861751155,0.06629493087557606,-0.022396313364055308,-3.7369585253456226,1.476976958525345,8.93746543778802,-0.029550691244239632,-0.36336405529953913,-0.08421658986175115,227.84061059907833,-22.405817972350228,-9.39049539170507,-0.3967668257603686,-0.14985312211981566,0.14697704323502303,-0.893593671686636
177.0,-0.05205529953917053,0.05764976958525348,-0.019023041474654383,-3.7068755760368672,1.478488479262672,8.949373271889403,-0.0840437788018433,-0.05115207373271888,-0.04907834101382488,227.89107142857142,-22.215956221198155,-9.38081797235023,-0.39722034113364046,-0.14927117986175112,0.14542686300460828,-0.8937458935299539
178.0,-0.05442396313364058,0.052562211981566846,-0.02051612903225807,-3.7037511520737336,1.4792442396313352,8.951087557603685,0.020276497695852533,-0.02741935483870967,-0.04758064516129032,227.91630184331797,-22.197695852534565,-9.376900921658986,-0.39734038652534553,-0.1492899678064516,0.14523053832258065,-0.8937196228571427
179.0,-0.059502304147465455,0.05550230414746546,-0.022718894009216596,-3.6995115207373286,1.4795944700460817,8.953078341013823,0.004550691244239633,-0.09562211981566819,-0.011059907834101379,227.9286866359447,-22.16520737327189,-9.374942396313365,-0.3974490116866358,-0.14922617612903225,0.1449804346359447,-0.8937254725990782
180.0,-0.06420276497695854,0.05073732718894011,-0.02410138248847927,-3.6901198156682047,1.4797511520737316,8.9570599078341,-0.07811059907834102,-0.01837557603686636,-0.009101382488479262,227.93490783410135,-22.096947004608296,-9.373963133640554,-0.3975576369585252,-0.14900515664516129,0.14449609036866357,-0.893792696451613
181.0,-0.06861751152073733,0.04288479262672813,-0.025861751152073738,-3.682552995391708,1.4799999999999986,8.958746543778801,-0.0775921658986175,0.005472350230414748,-0.004493087557603687,227.9375,-22.05408986175115,-9.374942396313365,-0.39762711050691235,-0.14879735691244236,0.14415609445161293,-0.893852043953917
182.0,-0.07157603686635944,0.03363133640552997,-0.02815668202764978,-3.68024884792627,1.4799999999999986,8.960110599078345,-0.05057603686635945,-0.02891705069124424,-0.0020161290322580645,227.93934331797234,-22.0346198156682,-9.375,-0.39775272466359446,-0.14871488824884788,0.14401247906912445,-0.8938313424423965
183.0,-0.07423963133640553,0.028433179723502316,-0.025373271889400924,-3.6802027649769604,1.4799999999999986,8.9606267281106,-0.015207373271889396,0.016013824884792624,0.005241935483870968,227.93934331797234,-22.039112903225806,-9.374078341013824,-0.3977873201013824,-0.14868839300460826,0.14404167529032258,-0.8938151416313365
184.0,-0.08016589861751153,0.023594470046082956,-0.02600000000000001,-3.6798248847926294,1.4799999999999986,8.960405529953919,-0.04809907834101382,0.022638248847926267,0.033582949308755765,227.93842165898616,-22.04302995391705,-9.374539170506914,-0.3977220651520736,-0.14870988174193545,0.14402429208294926,-0.8938451235760367
185.0,-0.08395391705069126,0.02372350230414747,-0.027483870967741943,-3.6816313364055313,1.4799999999999986,8.960202764976959,-0.032546082949308754,0.08784562211981566,-0.031048387096774197,227.93796082949308,-22.056739631336406,-9.374769585253457,-0.39767245023963127,-0.1487931365069124,0.14412757421198152,-0.893844617935484
186.0,-0.0846082949308756,0.016884792626728113,-0.025096774193548395,-3.683382488479265,1.4799999999999986,8.95995391705069,-0.030702764976958525,-0.07511520737327189,0.04170506912442396,227.9377304147465,-22.061232718894008,-9.374884792626727,-0.3976172661198156,-0.14882047520737324,0.14418680917050686,-0.8938514814101385
187.0,-0.07635944700460831,0.018801843317972355,-0.024304147465437798,-3.6727281105990794,1.4799999999999986,8.963788018433183,-0.009389400921658986,-0.1288594470046083,0.033755760368663595,227.93755760368663,-22.00178571428571,-9.374942396313365,-0.39766659999999987,-0.14854297560368662,0.14369999121658988,-0.8939536367926266
188.0,-0.08015668202764978,0.023760368663594482,-0.025207373271889412,-3.6621935483870973,1.4799999999999986,8.967041474654382,0.07695852534562211,-0.03588709677419355,-0.012788018433179723,227.9375,-21.93283410138249,-9.375,-0.3977471563133639,-0.14833596184331793,0.14316665057142852,-0.8940382987465441
189.0,-0.08308755760368663,0.02704147465437789,-0.02854377880184333,-3.660774193548386,1.4792626728110587,8.968682027649773,-0.05702764976958525,-0.05610599078341014,0.0423963133640553,227.9375,-21.913076036866357,-9.369470046082949,-0.3977710633364053,-0.1483151477695852,0.14303434314285712,-0.894049718857143
190.0,-0.0829032258064516,0.02418433179723503,-0.02766820276497697,-3.6548479262672817,1.4744700460829483,8.972009216589864,-0.0853110599078341,-0.06733870967741935,0.03191244239631336,227.9375,-21.87523041474654,-9.339976958525346,-0.39778709533640527,-0.14802544262672812,0.14281382813824883,-0.8941278544608295
191.0,-0.07842396313364056,0.017520737327188948,-0.02541013824884794,-3.6503870967741943,1.4735483870967734,8.972645161290325,0.031566820276497695,-0.08433179723502304,0.025230414746543778,227.9375,-21.859158986175114,-9.33168202764977,-0.39779693875576017,-0.1479054537235023,0.14265305489400923,-0.8941648694470046
192.0,-0.07600921658986176,0.022138248847926277,-0.02441474654377881,-3.6514654377880182,1.4819354838709675,8.972691244239636,0.04141705069124424,-0.0586405529953917,0.02235023041474654,227.9375,-21.86319124423963,-9.37085253456221,-0.3977984578156679,-0.1481965662857143,0.14257621284792626,-0.8941317361566822
193.0,-0.07116129032258064,0.020488479262672818,-0.021520737327188948,-3.6471520737327188,1.4861290322580647,8.973557603686638,-0.03807603686635945,-0.11411290322580646,0.07200460829493087,227.9375,-21.837845622119815,-9.372926267281105,-0.3978254033548385,-0.1482047227004608,0.1423316211059908,-0.8941564305806453
194.0,-0.06874551971326165,0.024240655401945733,-0.020714797747055813,-3.618450588837686,1.4862416794674853,8.984968766001025,-0.0034690220174091145,-0.37576804915514594,-0.01573220686123912,227.9823028673835,-21.655331541218636,-9.362487199180748,-0.3982617686011264,-0.1476091461515617,0.14084772606246798,-0.8942902647096775
195.0,-0.06127164844432398,0.01405174542935454,-0.016907141351164126,-3.5660659016294685,1.4832821300563226,9.006400349387064,-0.09387669046113067,-0.3224055751332791,0.00797491039426523,228.0566756272401,-21.324478931357486,-9.337493599590374,-0.399180861744586,-0.14650158658431972,0.13816417428902744,-0.8944801170859311
196.0,-0.06054877865124546,0.005703804102286078,-0.01696918767507003,-3.550157886810638,1.4834767025089601,9.011810005722715,-0.0008553959218095819,-0.020614589921990306,-0.050121607782898106,228.10282258064518,-21.221110433420677,-9.337339989759345,-0.39961927560603594,-0.14623519769205742,0.13729320905081172,-0.8944647899290383
197.0,-0.04840802987861813,6.388361796331576e-05,-0.013268003975783864,-3.5408992199030154,1.4918996415770607,9.015195325442004,-0.05561202975813981,-0.11200660371675553,-0.014317716333845366,228.14919354838707,-21.170261437908493,-9.387880824372761,-0.3999153651025572,-0.14653189399810246,0.13667295836872384,-0.8943736145912471
198.0,-0.05055424535405561,-0.00956713653203217,-0.014145522725219122,-3.5362791030390657,1.496111111111111,9.015533146591968,-0.027892420409023823,-0.06536390093671879,-0.022855862775217613,228.17237903225805,-21.12913993554411,-9.413698476702509,-0.400093139947592,-0.14662699975481158,0.1362903485898919,-0.8943429055444712
199.0,-0.05501765007078101,-0.017623174000783115,-0.012939248817806694,-3.543790217162134,1.498279569892473,9.012114755579649,-0.03092809704526972,0.05289072618294629,-0.052256144393241166,228.1825716845878,-21.17562347519653,-9.426971326164875,-0.40016973042131265,-0.14691732350170175,0.1365923941677058,-0.8942130769796088
200.0,-0.07086610343061957,-0.028643113159242194,-0.01259242191500256,-3.5559651817716325,1.4945960061443935,9.008289554531487,-0.07520161290322581,0.03252848182283666,-0.0754800307219662,228.20816372247822,-21.257992511520737,-9.407523681515617,-0.4002635253612391,-0.1469728548115719,0.13727947013440864,-0.8940596454544291
201.0,-0.06843932411674349,-0.02862263184843831,-0.011179723502304147,-3.544720942140297,1.4924055299539174,9.01363850486431,0.004793906810035838,-0.08574628776241679,-0.04143625192012289,228.22992191500254,-21.19751664106503,-9.391877880184332,-0.4004062141187915,-0.1466624934183308,0.13681354311827965,-0.8941280095954938
202.0,-0.05971735791090631,-0.016007168458781366,-0.004248847926267282,-3.523263696876599,1.4873548387096767,9.02320634920635,-0.014336917562724014,-0.17884664618535587,0.001056067588325653,228.2640104966718,-21.056822836661546,-9.357546082949309,-0.40078955217921153,-0.1459613101515617,0.13575926308448544,-0.8942248297101891
203.0,-0.0633609831029186,-0.019952892985151058,-0.009548387096774195,-3.4992677931387597,1.4833548387096764,9.033193036354328,0.012243983614951354,-0.08444060419866872,-0.03129800307219662,228.29119303635434,-20.904966717869947,-9.308122119815668,-0.4011854760296978,-0.14516969078545827,0.13465046157910907,-0.8943411360809009
204.0,-0.06360215053763443,-0.016077828981054792,-0.011658986175115207,-3.491855094726062,1.4813548387096764,9.037108038914491,-0.036677547363031235,0.03099398361495135,0.027150537634408604,228.32966909882234,-20.858445340501795,-9.308294930875576,-0.40145811493650774,-0.1449405891899641,0.1342736812457757,-0.8943109439436763
205.0,-0.06227112135176653,-0.016269329237071174,-0.012414746543778804,-3.4998676395289303,1.4906820276497692,9.030858166922682,0.06564740143369176,0.07903385816692268,0.005885176651305684,228.3740223374296,-20.919286034306197,-9.366359447004609,-0.40180622947747047,-0.14568469305120324,0.13445206416666666,-0.894006872690732
206.0,-0.05956682027649772,-0.01741935483870968,-0.012682027649769587,-3.511188940092166,1.4937327188940093,9.025447004608294,-0.04688940092165898,0.0951036866359447,0.026152073732718894,228.4088133640553,-20.976785714285715,-9.39003456221198,-0.4020097151336406,-0.14614623492165896,0.13479830876497698,-0.8937919076682024
207.0,-0.058460829493087584,-0.029004608294930883,-0.010801843317972352,-3.5117419354838715,1.491981566820277,9.026359447004607,-0.019182027649769583,-0.09556451612903226,0.011463133640552996,228.4254608294931,-20.97119815668203,-9.383294930875575,-0.4021250351336406,-0.14618122321658983,0.13477766291244242,-0.8937383540368661
208.0,-0.06133640552995393,-0.03299539170506914,-0.012682027649769589,-3.499898617511521,1.4948387096774196,9.03034101382488,-0.013882488479262671,0.023041474654377878,-0.0024769585253456225,228.4472926267281,-20.904608294930874,-9.395679723502305,-0.40235539469124426,-0.14604424531797233,0.13417715599078342,-0.8937436421843314
209.0,-0.071963133640553,-0.039889400921659,-0.014082949308755763,-3.500165898617511,1.497741935483871,9.030599078341012,0.02021889400921659,-0.08945852534562211,0.04631336405529953,228.451900921659,-20.90535714285714,-9.413076036866359,-0.4024628400460828,-0.14610173654377884,0.1341238269953917,-0.8936933508479259
210.0,-0.07214746543778802,-0.028958525345622134,-0.017299539170506917,-3.4729400921658997,1.4988755760368664,9.041013824884793,0.1448732718894009,-0.28726958525345625,-0.0014400921658986182,228.47736175115207,-20.733467741935485,-9.40524193548387,-0.40275828364976957,-0.1455700289861751,0.13274865130875574,-0.8938510302027647
211.0,-0.06892165898617511,-0.019926267281105997,-0.016700460829493093,-3.4396497695852526,1.4994930875576036,9.05115207373272,0.03433179723502304,-0.17845622119815668,0.015149769585253454,228.48968894009215,-20.534331797235023,-9.389516129032259,-0.40306610229493084,-0.1448759711705069,0.13114384927188943,-0.8940685066635944
212.0,-0.06665745007680493,-0.013198156682027652,-0.01738760880696365,-3.422892985151048,1.4999078341013825,9.05710496671787,0.04124423963133641,-0.06580261136712749,-0.031822836661546346,228.49585253456223,-20.43799283154122,-9.38225806451613,-0.4032181801464413,-0.14453600586482332,0.13031571018945215,-0.894167949959037
213.0,-0.07048540706605225,-0.013529953917050693,-0.017896569380440354,-3.4132759856630823,1.5,9.061027137736815,0.08617511520737325,-0.08673195084485408,-0.052489759344598055,228.49850230414745,-20.379710701484896,-9.378168202764979,-0.4033005224833588,-0.14429345325960063,0.12985244844956478,-0.8942466553159238
214.0,-0.07403072196620586,-0.026672811059907833,-0.015187916026625708,-3.394555043522785,1.5209400921658984,9.065697900665638,0.4017281105990783,0.08874807987711213,-0.011181515616999493,228.5405529953917,-20.26560419866871,-9.51676267281106,-0.40359567873015867,-0.14498172234408602,0.1284599409943676,-0.8941995460174088
215.0,-0.05922324628776243,-0.03469482846902203,-0.013288274449564774,-3.3606656426011265,1.5511868919610852,9.074040450588836,0.21180555555555555,-0.30205133128520223,-0.06843317972350231,228.58927291346646,-20.049155145929337,-9.695506912442397,-0.40395805873937524,-0.14569353327700973,0.1261345732145417,-0.8942488427885302
216.0,-0.05510010240655404,-0.05285432667690733,-0.008303123399897593,-3.358641577060933,1.5695381464413716,9.071591653865845,0.22514240911418332,-0.10574916794674859,-0.09925115207373272,228.6450972862263,-20.028955453149,-9.810829493087557,-0.40442918389042487,-0.14660460289196112,0.1255200336487455,-0.8939686216661543
217.0,-0.039934459805427557,-0.07187301587301588,-0.005044546850998464,-3.380200716845878,1.5903635432667689,9.05942345110087,0.3155017921146953,0.22395673323092677,-0.041020225294418844,228.70065924219148,-20.16533538146441,-9.950518433179724,-0.4047187838689196,-0.14817169542140296,0.1260589371551459,-0.8935038277767535
218.0,-0.036121351766513064,-0.07297747055811574,0.0022171018945212487,-3.4160921658986174,1.6074039938556068,9.042729646697383,0.20498911930363542,0.0024801587301587213,-0.04086341525857655,228.74728302611368,-20.390844214029695,-10.077633768561189,-0.40490363941116225,-0.1498620322529442,0.12739743746697388,-0.89294919562468
219.0,-0.032880952380952386,-0.07728136200716847,0.007652329749103942,-3.4130921658986177,1.6260430107526878,9.040747311827957,0.3170682923707117,-0.1511792754736303,-0.04583493343573988,228.7947244623656,-20.365871415770606,-10.186426331285203,-0.4052537269221709,-0.15071077617255502,0.12678198427726572,-0.8927331153100361
220.0,-0.024742447516641067,-0.0890035842293907,0.010896057347670251,-3.4227199180747565,1.6400286738351255,9.034258064516127,0.22526241679467485,-0.023310291858678965,-0.2789938556067588,228.90058243727597,-20.42719534050179,-10.288133640552996,-0.4059674006564259,-0.1517418432923707,0.12683564220583718,-0.8922246274265235
221.0,-0.01714541730670763,-0.0885110087045571,0.010374295954941118,-3.414982078853047,1.6401618023553508,9.037695852534561,0.37622567844342036,-0.23976574500768047,-0.14761904761904762,229.10729006656425,-20.38286610343062,-10.282862903225809,-0.407584851360471,-0.1517964897613927,0.1262076395683564,-0.8915695269575014
222.0,-0.020982846902201743,-0.0940020481310804,0.009500512032770098,-3.405689196108551,1.6435509472606247,9.040640552995391,0.1098582309267793,0.02812980030721965,-0.09062980030721966,229.22360471070147,-20.325707245263693,-10.295175691244241,-0.40850619562493606,-0.15182777944290837,0.1255765089408602,-0.8912305292713775
223.0,-0.01797798259088582,-0.10848847926267283,0.012783410138248854,-3.3954342037890424,1.6438095238095238,9.044540706605225,0.2066148233486943,-0.09447004608294932,-0.0984062980030722,229.28194124423962,-20.254307475678445,-10.29703341013825,-0.40904893492268296,-0.15165775292933947,0.12494495887455195,-0.8910968971177675
224.0,-0.01689221710189452,-0.1131152073732719,0.013124423963133644,-3.391523553507424,1.6485176651305675,9.04551920122888,0.25385464669738866,-0.040754608294930876,-0.09543010752688172,229.31507776497693,-20.226808115719408,-10.31550979262673,-0.40933938148438287,-0.15176614526190474,0.1246200781331285,-0.8909961273561191
225.0,-0.021140809011776757,-0.12309165386584744,0.012688172043010754,-3.3814295954941116,1.6543932411674334,9.04809114183308,0.211463133640553,-0.029960317460317458,-0.11891321044546851,229.3511712749616,-20.163908090117765,-10.345282898105479,-0.40956836142345104,-0.15191354656733225,0.12395114583922172,-0.8909581800215056
226.0,-0.027058883768561193,-0.1318038914490528,0.012090629800307222,-3.37189452124936,1.6663901689708134,9.049174603174606,0.2715725806451613,-0.09360919098822325,-0.13195084485407066,229.36438172043012,-20.106147593445982,-10.418119559651817,-0.40974037497900667,-0.15228914113159236,0.12320730743113165,-0.8909250239784947
227.0,-0.026105478750640045,-0.13744572452636972,0.013727342549923197,-3.3591638504864316,1.6765499231950836,9.051753200204814,0.28273329493087557,-0.12727694572452636,-0.1235215053763441,229.37055491551462,-20.033056515616998,-10.47979710701485,-0.40990921469226826,-0.1524622278929851,0.12240344548515106,-0.890931623482335
228.0,-0.025041474654377886,-0.13902304147465439,0.012506912442396316,-3.352654377880185,1.6840276497695843,9.052829493087561,0.3015552995391705,-0.02235023041474654,-0.17805299539170508,229.39112903225805,-19.985714285714288,-10.525460829493086,-0.41003423400921657,-0.15263469517050687,0.12188973897695853,-0.8909152153732722
229.0,-0.020958525345622123,-0.13974193548387098,0.014737327188940094,-3.354396313364056,1.6876129032258054,9.051474654377884,0.24078341013824883,-0.015841013824884793,-0.11059907834101383,229.4114055299539,-19.990495391705068,-10.552304147465437,-0.4100778867465438,-0.15295967101382485,0.12182167141013826,-0.8908414110230415
230.0,-0.03530670762928828,-0.14802867383512547,0.02064720942140297,-3.3528284690220165,1.6871397849462357,9.051597542242705,0.31302483358934974,-0.1546146953405018,-0.17020609318996416,229.46219918074755,-19.98984895033282,-10.555049923195085,-0.41049286445161287,-0.1529876600911418,0.12170153260419868,-0.890657122295955
231.0,-0.028045058883768563,-0.13135074244751666,0.019282130056323607,-3.3377736815156167,1.675062980030721,9.060236559139785,0.22295826932923707,-0.06172555043522785,-0.09296594982078854,229.5798899129544,-19.902758576548898,-10.468798003072198,-0.4115088934654378,-0.15219297715617003,0.12110216892882746,-0.8904044855903737
232.0,-0.02231746031746032,-0.13358320532514079,0.016180235535074246,-3.3414121863799284,1.6691858678955451,9.059920122887867,0.16133512544802867,0.13463261648745517,-0.15711085509472605,229.66085509472606,-19.92606246799795,-10.434082181259601,-0.41212671480184326,-0.15203817387301588,0.12131490131694828,-0.8901226551131589
233.0,-0.019476702508960574,-0.14681925243215566,0.018375832053251415,-3.331590885816693,1.678265745007681,9.061388632872504,0.30316180235535073,-0.19192908346134152,-0.15228814644137223,229.791113031234,-19.8680427547363,-10.476171274961597,-0.41312371948847926,-0.15234976613927292,0.12048357601792115,-0.889717713676395
234.0,-0.021116231438812083,-0.14223451100870454,0.015109575012800823,-3.3105972862263195,1.6735153609831028,9.070293394777266,0.25552675371223754,-0.09213389656938044,-0.15837333589349717,229.8964781746032,-19.733992575524834,-10.440850614439324,-0.4140953140714285,-0.15175356394982076,0.1194203221840758,-0.8895110241746031
235.0,-0.015815668202764976,-0.11933640552995389,0.011705069124423966,-3.3096221198156694,1.6512995391705072,9.075603686635946,0.27004608294930876,-0.03963133640552995,-0.15938940092165899,229.98381336405532,-19.73807603686636,-10.309216589861752,-0.41472533744700446,-0.15083221568663596,0.11975052664516134,-0.8893168805714283
236.0,-0.015382488479262674,-0.10809216589861752,0.008663594470046084,-3.3125345622119826,1.6401105990783416,9.076221198156684,0.31157834101382487,-0.08289170506912442,-0.14850230414746543,230.01077188940093,-19.753917050691243,-10.245161290322581,-0.41502038603686614,-0.15043433407373275,0.12000850543778804,-0.889225749032258
237.0,-0.013465437788018434,-0.0943225806451613,0.00854377880184332,-3.305834101382488,1.6386359447004613,9.078442396313365,0.2960253456221198,-0.08709677419354839,-0.15,230.04199308755761,-19.71647465437788,-10.234965437788018,-0.41522919964976934,-0.15017922311520737,0.11974389009216593,-0.8892129219447007
238.0,-0.011474654377880186,-0.08809216589861751,0.008958525345622121,-3.296801843317972,1.6385529953917055,9.081714285714284,0.28006912442396314,-0.1967741935483871,-0.11036866359447003,230.0547811059908,-19.64556451612903,-10.205875576036867,-0.4153777649953915,-0.1498945239354839,0.1192629771797235,-0.8892507812165897
239.0,-0.010092165898617512,-0.08517972350230416,0.008119815668202766,-3.2823133640552986,1.6454377880184334,9.086635944700463,0.36526497695852533,-0.2173963133640553,-0.18623271889400922,230.1142857142857,-19.551612903225806,-10.244700460829492,-0.4159566139815668,-0.14995274692165897,0.1183198291705069,-0.8890997963225804
240.0,-0.0068643113159242205,-0.08329851510496672,0.008504864311315925,-3.2603143881208383,1.6470240655401946,9.093640552995392,0.25774449564772145,-0.1141321044546851,-0.12992191500256017,230.2345942140297,-19.415143369175627,-10.25729006656426,-0.41698171769687664,-0.14968171730261134,0.11705517366001021,-0.8888279961536095
241.0,-0.007611879160266257,-0.07841884280593958,0.008727086533538146,-3.247018945212493,1.646770097286226,9.09719815668203,0.3048515104966718,-0.025614439324116736,-0.15312339989759344,230.31041346646185,-19.32969150025602,-10.259261392729133,-0.4175806831571941,-0.1494633417019969,0.11630467627240143,-0.8886690405745006
242.0,-0.004501792114695341,-0.08226932923707117,0.00953405017921147,-3.2636200716845862,1.6485785970302094,9.091695852534563,0.23462621607782896,0.22532642089093702,-0.1229326676907322,230.3339221710189,-19.434863031234,-10.287205581157194,-0.41772692907629283,-0.15004151521044545,0.11703300999795187,-0.8884185807987712
243.0,-0.003273937532002048,-0.08843881208397336,0.012131080389144908,-3.2945243215565787,1.6522524321556573,9.080617511520735,0.27609767025089604,0.06701228878648233,-0.1312532002048131,230.33277329749103,-19.633848566308245,-10.318458781362008,-0.41762698769943685,-0.1509795711305683,0.118463856750128,-0.8881239162703535
244.0,-0.0010471070148489502,-0.10435765488991294,0.014646185355862781,-3.313990271377368,1.6665640040962617,9.07083870967742,0.17514560931899642,0.12662250384024576,-0.10845494111623144,230.35722766257038,-19.759234190988224,-10.412656810035841,-0.4176282911953406,-0.15215770495698921,0.1190767587667691,-0.8878369916006146
245.0,-0.0019354838709677417,-0.12208294930875575,0.018092165898617514,-3.327714285714287,1.6737972350230412,9.064774193548388,0.13669354838709677,0.14366359447004606,-0.12672811059907835,230.36658986175115,-19.846774193548388,-10.460080645161291,-0.417589598589862,-0.15285037025806447,0.1195835660276498,-0.8876691554654381
246.0,0.011999999999999995,-0.12826728110599078,0.009493087557603688,-3.2734470046082955,1.6284884792626728,9.091677419354838,0.19078341013824884,-0.5438364055299538,-1.5951036866359447,231.31826036866357,-19.504896313364057,-10.148444700460828,-0.42530174294009226,-0.15022906464516128,0.11671198858986176,-0.8847579752903225
247.0,0.01104557091653866,-0.12525550435227856,0.01260931899641577,-3.2259569892473126,1.5606779313876087,9.120437275985662,0.14375960061443932,-0.36086149513568866,-0.8399321556579621,232.30763568868406,-19.203341013824883,-9.704486687147977,-0.4333043054603176,-0.1468473729912954,0.11466619523809526,-0.881696198281618
248.0,-0.046913466461853556,0.4801116231438812,0.4335965181771634,-4.402515104966717,-0.3817019969278035,7.507405017921146,16.50316180235535,47.88925371223758,-38.522587045570916,254.69430363543268,-27.51757552483359,8.532347670250894,-0.5135519355483872,-0.18595775125755246,0.22338173412493603,-0.7236703029267793
249.0,-0.09974295954941113,0.40814234511008707,0.07172350230414742,-3.7205714285714278,-4.1497040450588845,5.765390681003584,-5.842991551459296,-8.415693804403485,-20.313588069636456,285.5919994879672,-23.34150665642601,36.20165770609319,-0.6448378508622632,-0.09003746846492573,0.34673982908141326,-0.5183195480092166
250.0,-0.06855350742447515,0.3230896057347671,0.10335483870967743,-4.394903225806451,-6.073487967229902,4.230538658474142,1.7506240399385549,27.18227406554019,-8.247577444956477,316.08488223246286,-27.47305747567844,54.40474590373784,-0.7215695237030211,-0.17142265534306195,0.436628944328725,-0.30793693361290325
251.0,-0.01345903737839221,0.24282283666154636,0.12133640552995392,-5.427814644137225,-6.815285714285714,2.815373271889401,1.2252512160778284,14.423967933947772,-2.5059411802355345,175.71018945212495,-34.30105446748592,67.21608262928828,-0.748162679247312,-0.30584245964848944,0.46400011446390166,-0.13447917587250385
252.0,-0.03943113159242188,0.5890279057859703,0.25955709165386587,-6.072052483358934,-4.525850742447517,4.134702764976958,-8.671228558627751,-28.772923067076288,39.02438716077829,218.34551811315924,-38.80053283410138,45.22836501536098,-0.7116415217741936,-0.30067052597567845,0.40316030072657444,-0.3105117201226319
253.0,-0.04617613927291345,0.2527980030721966,0.09591653865847413,-5.977571940604198,-1.5451520737327191,5.960644393241167,-5.525774449564771,-17.34468285970302,21.496876600102407,234.48265488991296,-37.81248079877112,17.189479326676903,-0.6312294609587814,-0.2721620638794162,0.30749870642063487,-0.5422488850747568
254.0,-0.06443215565796209,0.12077624167946749,0.0480389144905274,-5.301348694316436,0.08333794162826402,7.321921658986174,-1.9407546082949305,-11.328731438812081,10.69086661546339,240.40407386072707,-32.95160330261137,2.7274961597542227,-0.5841930443369175,-0.23819462601228875,0.22745447291909882,-0.6785797228868408
255.0,-0.17378750640040963,0.05334664618535585,0.0600931899641577,-4.749619047619047,0.9452818740399385,8.109758064516127,-0.35329781105990765,-11.040777009728622,4.48584229390681,243.05220974142344,-29.140605798771123,-4.844719662058372,-0.5626931308827444,-0.21357396888172037,0.17667048676830518,-0.7512259188766003
256.0,-0.02433102918586791,0.058895545314900155,-0.0646039426523297,-3.1876500256016382,1.479957245263697,8.913422939068099,3.439530529953917,-10.862122375832053,-4.3966397849462355,257.7476270481311,-19.29972158218126,-8.993988415258578,-0.6155224131833078,-0.16506363620609316,0.08402775248361495,-0.7518327329777266
257.0,-0.0399656938044035,-0.017075524833589362,-0.05917025089605733,-2.5191072708653346,1.8474293394777257,9.200860215053767,1.937255184331797,-3.596775793650793,-3.5850806451612898,264.44457405273937,-15.033653353814643,-11.310642281105991,-0.6604790267708655,-0.154788528250896,0.03454226529646698,-0.7261050284646697
258.0,-0.04741807475678445,-0.0524447004608295,-0.04723015873015873,-2.236190220174091,1.9799229390681,9.299485663082436,1.19990719406042,-1.6441292242703534,-1.9970734126984124,268.65222414234506,-13.229627496159754,-11.98810803891449,-0.6889560013389657,-0.15204361720481308,0.012064521726574504,-0.704323937800051
259.0,-0.04328264208909372,-0.08888172043010753,-0.03306144393241168,-2.1060424987199173,2.056086021505376,9.33599743983615,0.6119879672299028,-0.8899417562724015,-1.052851382488479,270.86749871991805,-12.42797619047619,-12.422369431643626,-0.7037140372058373,-0.15154215519098818,0.0008594837040450604,-0.692460098018945
260.0,-0.03598028673835127,-0.11917357910906298,-0.025752944188428065,-2.044686379928315,2.092715821812596,9.352747823860728,0.34128584229390685,-0.26998047875063996,-0.6170170890937019,271.9791730670763,-12.039922555043523,-12.63310291858679,-0.7110950614718383,-0.1512859796062468,-0.004546513612903225,-0.6864400359946236
261.0,-0.03633461341525858,-0.14236687147977473,-0.01706502816180236,-2.056962365591398,2.1239452124935996,9.342887608806961,0.26927323348694315,0.038517665130568354,-0.24449084741423452,272.3154393881208,-12.109847030209934,-12.825684843830004,-0.7129329900663084,-0.15294462396159755,-0.005604375016897079,-0.6843223710885817
262.0,-0.03511008704557092,-0.15822119815668206,-0.014080901177675374,-2.0565130568356373,2.1350138248847923,9.341027137736813,0.17377112135176653,-0.019508448540706602,-0.13298771121351766,272.40293138760876,-12.10487071172555,-12.89314516129032,-0.7134227468981056,-0.15330971085407064,-0.006164143199180747,-0.6837241518453661
263.0,-0.03657808499743985,-0.14702304147465434,-0.017086533538146445,-2.0600675883256527,2.1123963133640546,9.344988223246286,0.15589477726574502,-0.0712173579109063,-0.0470526113671275,272.45279057859705,-12.125419226830516,-12.736866359447003,-0.7138103529421405,-0.15253339544086025,-0.005222267627240143,-0.6834997236738349
264.0,-0.055680747567844364,-0.14041935483870965,-0.020483358934971843,-2.058605222734255,2.1170967741935485,9.343567844342035,0.19793586789554532,-0.10548195084485407,-0.04293874807987712,272.5227374551971,-12.115877816180236,-12.753571428571428,-0.7141916200931899,-0.15258902317204304,-0.005520486113159242,-0.6830804785097286
265.0,-0.06051510496671789,-0.14242293906810038,-0.030205837173579116,-2.0294459805427554,2.121433691756273,9.349095750128008,0.14729902713773682,-1.1112647209421405,-0.05101126472094213,272.6046146953405,-11.942767537122375,-12.769706861239118,-0.7147747333261649,-0.1515907012903226,-0.00682643638095238,-0.6826830089278033
266.0,-0.03791807475678447,-0.08830005120327702,-0.011584229390680989,-2.9880921658986175,1.8169974398361495,9.05857245263697,-6.436559139784946,9.717434715821813,8.440399385560676,267.93890809011776,-17.952342549923195,-11.2300051203277,-0.6802290908499744,-0.1731327361024066,0.048654482674859216,-0.7039926048028674
267.0,-0.1446318484383001,-0.10731592421915001,-0.07240040962621606,-3.033188940092166,1.797199180747568,9.088244751664108,-2.420353302611367,-1.0154185867895542,4.6593701996927805,257.81585381464413,-18.125883256528418,-11.12508320532514,-0.6140030592636969,-0.1698547451295443,0.06486580759549412,-0.76017715084383
268.0,-0.12488376856118791,-0.09708346134152585,-0.05450640040962621,-2.9231607782898097,1.7764357398873525,9.155341525857658,-1.0557283666154633,-0.5094790066564262,2.2969950076804917,251.60248655913978,-17.402844982078854,-10.944758064516128,-0.5734184708207886,-0.16289446199027136,0.0691890746328725,-0.7948929102939069
269.0,-0.12046441372247824,-0.07922119815668202,-0.0478026113671275,-2.9192967229902704,1.7401661546338962,9.178529953917053,-0.549558371735791,-0.634098182283666,0.6330309139784946,248.80526593701995,-17.342167498719917,-10.715341781874038,-0.5552174420135688,-0.15998135095622118,0.07386691296466973,-0.8105430964869431
270.0,-0.09709139784946236,-0.06662647209421403,-0.04170276497695853,-2.8863819764464917,1.7017214541730672,9.203437532002049,-0.09201548899129539,-0.848062275985663,0.4742335509472606,247.60280017921144,-17.128096198156683,-10.465751408090117,-0.5476998159915515,-0.1568793946612903,0.07513834774884792,-0.8177376704454686
271.0,-0.42219713261648745,0.09346543778801844,0.268221198156682,-3.0435673323092676,1.5341044546850995,9.125961597542243,-6.134885432667691,14.205645161290322,-12.619598054275473,248.0719534050179,-18.216685867895546,-9.322257424475165,-0.5498204763963133,-0.15619047438709677,0.0876828931172555,-0.8136358065668203
272.0,0.14022964669738858,0.9938822324628775,0.5083845366103431,-4.426771889400922,-1.5293271889400928,7.202615719406042,6.564396121351765,-7.245852534562212,4.239215309779827,275.8877784178187,-27.370084485407062,16.057909306195597,-0.6348600216953404,-0.18607554816385047,0.2454938239344598,-0.6089176593878649
273.0,0.017583461341525837,0.5131328725038402,0.2418714797747056,-3.6915445468509986,0.18161776753712178,8.174502304147467,4.975326420890936,-6.173889528929851,3.093733998975935,261.15961501536094,-22.454139464925753,2.1784002176139268,-0.5868198300232974,-0.17630916940450592,0.1599208772987711,-0.7156431885066565
274.0,-0.0750926779313876,0.21974295954941114,0.09305939580133127,-3.356457757296467,1.0953742959549404,8.638837173579113,2.5097286226318483,-2.3832597286226314,1.562996031746032,254.01251920122888,-20.198255888376856,-5.128513824884793,-0.5640887729641577,-0.17508130804454686,0.1166855276861239,-0.7674897820983104
275.0,-0.09151408090117767,0.07524935995903735,0.033833845366103434,-3.21184178187404,1.540645673323092,8.86595775729647,1.3256016385048641,-1.495662122375832,0.6945740527393756,250.5625960061444,-19.20863255248336,-8.719844470046084,-0.5534818456756273,-0.1747139888010753,0.09623611714260114,-0.7927518233072197
276.0,-0.08482514080901177,-0.001443420378904263,-0.0076036866359447015,-3.1368886328725036,1.7588084997439828,8.98308192524322,0.9194652457757295,-1.1666538658474142,0.747068612391193,248.8832805299539,-18.694902073732717,-10.49421883000512,-0.5485651744820788,-0.17422465176164875,0.08589977744674858,-0.8052755268776242
277.0,-0.10266922683051716,-0.05989631336405532,-0.03076907322068613,-3.0699344598054266,1.9637944188428054,9.096066052227346,0.3634872631848438,-0.4803459421402969,-0.09664298515104966,247.27518401177673,-18.235848694316434,-12.173787122375831,-0.5441071537086534,-0.17355554031694825,0.07623830420327699,-0.8173116370524834
278.0,-0.093942140296979,-0.0623809523809524,-0.03390604198668716,-3.0384797747055803,1.9765253456221197,9.1034093701997,0.2209741423451101,-0.26797875064004095,-0.0545378904249872,247.49273873527903,-18.04343958013313,-12.24000736047107,-0.5457871744349718,-0.17333346997926266,0.07417277157296467,-0.8164306581454174
279.0,-0.08278033794162827,-0.0597956989247312,-0.02771121351766513,-3.027662570404506,1.9810368663594469,9.10750025601639,0.19276433691756273,-0.37311827956989246,-0.08072516641065028,247.619982078853,-17.978824244751664,-12.27153097798259,-0.5467425888525347,-0.17330540065540195,0.07332126111315923,-0.8158785667578083
280.0,-0.09585099846390169,-0.06314669738863288,-0.028924731182795704,-2.9964994879672293,1.9965046082949311,9.114261648745524,0.25159530209933434,-0.22259024577572964,-0.031347606246799796,247.6915290578597,-17.791226638504863,-12.357568484383,-0.5473363408364056,-0.1731160874014337,0.07144788497593446,-0.8156850097014847
281.0,-0.11903993855606758,-0.07088120839733744,-0.033443932411674364,-2.9825709165386587,2.009251408090118,9.1157107014849,0.15617959549411162,-0.028936251920122877,0.060627880184331795,247.71299283154121,-17.706803635432667,-12.434552611367128,-0.5475174449851512,-0.17324458171684587,0.07045184032923707,-0.8156245493998974
282.0,-0.1163274449564772,-0.06347491039426525,-0.03273015873015875,-3.020690476190476,2.005497695852535,9.103428827444958,0.1496239759344598,0.09238351254480287,0.0382760496671787,247.72326868919612,-17.94192908346134,-12.425894457245263,-0.5474214342078854,-0.17426828731771632,0.07223006905965182,-0.8153101080998464
283.0,-0.12343369175627239,-0.06259088581669228,-0.03302713773681516,-3.046831541218638,2.007396825396825,9.094443420378905,0.3364439324116743,0.3334229390681004,-0.08300051203277009,247.73607910906298,-18.10072964669739,-12.452566564260112,-0.5473824645304659,-0.17518381812596004,0.07327448889912955,-0.8150485632852023
284.0,-0.11485099846390169,-0.06405632360471072,-0.03464413722478239,-3.1288069636456726,1.993601638504864,9.06893701996928,-0.05121607782898108,0.0453725038402458,0.08293010752688171,247.7247119815668,-18.607302867383513,-12.401465693804404,-0.5469296222621607,-0.17704111825294416,0.07728677134459805,-0.8145701886666668
285.0,-0.09739016897081412,-0.04944905273937533,-0.029167946748591918,-3.172011776753712,1.9745468509984638,9.058478238607272,0.25530913978494624,-0.3602822580645161,0.11384408602150536,247.74284754224269,-18.876065668202763,-12.293138760880696,-0.5469140498842806,-0.17751127620839732,0.07970369183666154,-0.814251208480799
286.0,-0.08943394777265745,-0.049555043522785475,-0.02859933435739888,-3.304813364055299,1.9982770097286229,9.004133128520227,0.15442428315412188,0.7598902329749103,0.07334869431643624,247.64745103686636,-19.700990463389658,-12.5094726062468,-0.5454436383476702,-0.1825603164662058,0.08507371495980544,-0.8135299927370714
287.0,-0.08492114695340501,-0.05012135176651307,-0.027941116231438818,-3.3773604710701486,1.9994244751664108,8.977592421915002,0.17339349718381974,0.39077380952380947,0.03287570404505888,247.64384600614437,-20.151702508960575,-12.544902073732718,-0.5450514949022017,-0.18481809368663593,0.08824197884075782,-0.8129668041228884
288.0,-0.10054352278545825,-0.047659754224270365,-0.04100742447516642,-3.4292332309267795,1.9848274449564767,8.962187916026625,0.057232462877624166,0.12199980798771118,-0.18408058115719406,247.7421418970814,-20.463581669226834,-12.474035138248848,-0.5454886357552484,-0.1858189099032258,0.09075423938812084,-0.8121820882688173
289.0,-0.10592140296979005,-0.050733998975934474,-0.03469278033794164,-3.4650780849974394,1.951732718894009,8.955699692780335,0.13037474398361495,-0.08015713005632359,-0.10752528161802355,247.95633640552992,-20.69292434715822,-12.286048707117256,-0.5469201458794162,-0.1856870757939068,0.09292640525857654,-0.8110125994928314
290.0,-0.10470353302611365,-0.04529083461341528,-0.029720942140296983,-3.5137800819252423,1.9549075780849972,8.93646543778802,0.1942476318484383,0.06781233998975936,-0.0022673451100870476,248.07880664362517,-20.999911994367636,-12.32719214029698,-0.54749966625064,-0.1874408922921147,0.09482270770993344,-0.8100023872150537
291.0,-0.09849155145929339,-0.039673323092677945,-0.026495647721454182,-3.5156518177163334,1.9580768049155144,8.935631336405532,0.22067972350230414,-0.2573028673835125,0.0784626216077829,248.173732718894,-21.00444828469022,-12.352003328213005,-0.5481215721402969,-0.18767657340706603,0.09463546895750129,-0.8095571871510495
292.0,-0.1091305683563748,-0.03936661546338967,-0.03153353814644139,-3.5024895033282117,1.9779969278033793,8.936239631336406,0.17453917050691245,-0.08300051203277006,0.023678315412186377,248.2216589861751,-20.91953405017921,-12.46165834613415,-0.5485632794987199,-0.18814651894777262,0.09340844676907323,-0.8092872078520223
293.0,-0.1273804403481823,-0.046902969790066584,-0.03483333333333335,-3.47853046594982,1.9914664618535585,8.942241167434716,0.1533442140296979,-0.23392857142857143,0.03164522529441884,248.28907770097285,-20.77559523809524,-12.541495455709164,-0.5491154509654377,-0.18809607690860217,0.0918648699825909,-0.8091017993945213
294.0,-0.11999948796722992,-0.04042114695340503,-0.03007962109575014,-3.4837959549411153,1.988903993855606,8.941218381976446,0.1686347926267281,-0.22210541474654377,0.062269585253456224,248.36137352790578,-20.810719086021507,-12.53447740655402,-0.5495735393059396,-0.18822167436123913,0.09206553134434206,-0.8087399547124935
295.0,-0.11253558627752178,-0.026738351254480295,-0.030985151049667186,-3.4616784434203787,1.9815084485407062,8.951375320020482,0.08358934971838197,-0.6077764976958525,0.10024321556579621,248.41511776753714,-20.668548387096774,-12.47823220686124,-0.5501078009298515,-0.18724244586789557,0.09118907349923197,-0.8086972872800818
296.0,-0.1072816180235535,-0.02578853046594982,-0.03325294418842807,-3.4197009728622634,1.977929339477726,8.968323604710701,0.2434363799283154,-0.3574596774193548,0.018122759856630824,248.45796210957502,-20.407690092165897,-12.431944444444444,-0.5506543524603174,-0.18580425078648236,0.08935272157450078,-0.8088629677368151
297.0,-0.10649539170506911,-0.032903481822836665,-0.03467921146953406,-3.377467997951869,2.0234055299539158,8.973844854070663,0.3167482718894009,-0.4176251280081925,0.08033954173067076,248.57889144905275,-20.14483966973886,-12.709443804403481,-0.5515869031513055,-0.18662545504403483,0.08598483881336405,-0.8083995092048131
298.0,-0.09795494111623144,-0.0351909882232463,-0.02998873527905787,-3.359681003584229,2.0467368151561685,8.975368663594473,0.3120903737839221,-0.2976670506912442,0.06371287762416794,248.6618375576037,-20.03178443420379,-12.845270097286225,-0.5521849641100869,-0.18717802279313878,0.08439068195596516,-0.8080364917091652
299.0,-0.09017255504352278,-0.04327444956477215,-0.027057347670250906,-3.358761136712749,2.063478494623655,8.972012032770099,0.2991359447004608,-0.0889544930875576,0.2544306835637481,248.704888312852,-20.02732974910394,-12.949286354326677,-0.5524245072168458,-0.18794289975294418,0.08378672692780335,-0.8077603824531487
300.0,-0.11106298003072194,-0.038760880696364575,-0.04771326164874552,-3.3812667690732194,2.08205734767025,8.958689708141321,0.21486815156169992,-0.16076868919610854,0.21908922171018946,248.52423515104965,-20.16073028673835,-13.079873911930363,-0.5509396409605734,-0.1892819486891961,0.08451116109831028,-0.808385849891449
301.0,-0.1029969278033794,-0.0338689196108551,-0.042165386584741435,-3.3657071172555035,2.1082498719918075,8.957782642089091,0.35538914490527396,-0.9687772017409115,0.00355382744495647,248.50578116999486,-20.07019809267793,-13.235098246287762,-0.5508063855678442,-0.1899311414598054,0.08314781358141321,-0.8084619823466461
302.0,-0.0870319812900458,-0.025635418828967218,-0.03221777999197355,-3.2805954941116235,2.113311219053155,8.988033406678564,0.142763471997343,-0.7088774546435836,-0.2157796044892819,248.71959796778344,-19.54306593459819,-13.223461739389158,-0.5527633161569725,-0.1876533165491897,0.07893041615680657,-0.8080653438651277
303.0,-0.07932193022515605,-0.03213312160086354,-0.02902747678554131,-3.294152841781875,2.032333028881416,9.001142151367954,-0.8725538758804887,0.322362987987988,0.07505310610149321,248.75748843601664,-19.630906367196687,-12.70541046518869,-0.5532405956422344,-0.18448473280045252,0.08185774978091223,-0.8081555853677918
304.0,-0.0735856962953737,-0.03517498373949987,-0.023012842335422987,-3.3521346646185357,1.9683260126485926,8.99363559181301,-0.14603836267142717,0.3198116463237431,-0.15674988064100964,248.7252663954277,-19.989400316214834,-12.32792364657284,-0.5529348454689667,-0.18348270542800404,0.08629571609565326,-0.8081374456140035
305.0,-0.0709546505030376,-0.03783800390252004,-0.018827721730947544,-3.4202263184843824,1.9464748342812859,8.973654585461034,0.13230995972931456,-0.05533275210694563,-0.06564692572757089,248.8150973554199,-20.403652731072086,-12.226864249041668,-0.5532649738494346,-0.18471502334661855,0.0896814033985691,-0.8072771648542365
306.0,-0.08068111429401753,-0.04268295484424518,-0.021010379042637112,-3.4365642601126467,1.9453434079240537,8.968584589197496,0.0967361370587177,-0.09572193160902838,-0.029482449038900647,248.88355674222606,-20.505820221142802,-12.220546179820373,-0.5536347338596892,-0.1851692235647583,0.09035772431782013,-0.8068554090082753
307.0,-0.09668817204301075,-0.043169226830517174,-0.025917818740399393,-3.4330102406554017,1.9449820788530474,8.969123655913982,0.17737775217613927,-0.1862359190988223,0.020559715821812596,248.9107190860215,-20.483998975934462,-12.219879672299026,-0.5539151387083974,-0.18512933684664615,0.09011923346953404,-0.8067096810586275
308.0,-0.11029441884280594,-0.03585586277521763,-0.029353302611367135,-3.4203341013824895,1.951834357398874,8.974028673835127,0.19729742703533026,-0.2450508832565284,-0.007442076292882745,248.9430235535074,-20.405870775729646,-12.246615783410139,-0.5541770704490526,-0.18497917908243733,0.08936642208090118,-0.8066558323189965
309.0,-0.12246902201740915,-0.036770609318996436,-0.03784587813620074,-3.4033922171018944,1.9567281105990788,8.979579109062984,0.15303059395801333,-0.20956541218637992,-0.00892857142857143,248.9764400921659,-20.308995775729645,-12.252592165898617,-0.5544115059452126,-0.18463700725140814,0.08850262310496675,-0.8066723884372762
310.0,-0.13766769073220692,-0.029680235535074255,-0.04358192524321559,-3.390285970302098,1.9582580645161296,8.985379416282646,0.020265296979006656,-0.14954077060931897,-0.03076036866359447,248.99003456221195,-20.23649673579109,-12.252764976958524,-0.5545376875071686,-0.1843181461694828,0.08792348462621608,-0.8067236195550436
311.0,-0.14656221198156683,-0.022930875576036874,-0.049870967741935515,-3.3742857142857123,1.9541290322580653,8.9906267281106,-0.01964285714285714,-0.16301843317972348,0.0021313364055299527,248.9960253456221,-20.130875576036864,-12.251382488479262,-0.5546918879262673,-0.1838119014654378,0.08723808342857145,-0.8067960002488479
312.0,-0.143594470046083,-0.01814746543778802,-0.04906912442396316,-3.3673179723502296,1.9536866359447014,8.993861751152076,-0.017511520737327188,-0.1617511520737327,0.015841013824884793,249.0091589861751,-20.080817972350232,-12.256221198156682,-0.5548522120184333,-0.18360291895852535,0.0868692290046083,-0.8067747924700461
313.0,-0.127926267281106,-0.009788018433179724,-0.0458341013824885,-3.397004608294931,1.951115207373272,8.9825069124424,0.033928571428571426,-0.03254608294930876,-0.08294930875576037,249.08709677419353,-20.262154377880183,-12.250921658986176,-0.5552791759539171,-0.18447473765898617,0.08809116973271888,-0.8061503760921659
314.0,-0.11815668202764978,-0.0056129032258064515,-0.04209216589861753,-3.4082949308755763,1.942728110599079,8.979548387096777,-0.13986175115207372,-0.05057603686635945,-0.025460829493087558,249.12373271889402,-20.332200460829494,-12.203456221198156,-0.5555025589493089,-0.18447288108755758,0.08877566242396315,-0.805917879059908
315.0,-0.09794470046082948,-0.0001392729134664628,-0.04062570404505889,-3.44274039938556,1.9400563236047113,8.966853046594984,-0.09346518177163338,-0.005753968253968254,-0.12124295954941115,249.13982334869434,-20.549334357398877,-12.204326676907321,-0.5554425361321045,-0.18543018620890936,0.09034656904147467,-0.8055623065427547
316.0,-0.0869032258064516,0.005663082437275985,-0.0365294418842806,-3.4594531490015363,1.9295442908346143,8.962864311315926,-0.11404249871991806,-0.0203020993343574,-0.027988991295442904,249.19894393241168,-20.655542754736302,-12.130389144905273,-0.5558225843379417,-0.18548473286943162,0.09132160147465437,-0.8051772201146952
317.0,-0.07804403481822836,0.022846902201740918,-0.03355248335893499,-3.4522703533026116,1.9278218125960067,8.966581669226834,0.005817972350230412,-0.19208909370199692,0.022254224270353302,249.22818740399387,-20.61292242703533,-12.12192140296979,-0.5561033830977983,-0.18528540151766512,0.09097377808090118,-0.8050688755739885
318.0,-0.08041372247823861,0.04051100870455711,-0.036739375320020494,-3.432646697388633,1.9277219662058376,8.97505120327701,-0.07684331797235022,-0.28175883256528417,-0.027496159754224272,249.24793586789554,-20.48002112135177,-12.115050563236046,-0.5563445234705582,-0.1846033304500768,0.09006401422939068,-0.8051584151556578
319.0,-0.09109165386584742,0.04713568868407579,-0.04473374295954943,-3.399950076804915,1.9227319508448546,8.989226062467996,-0.07782258064516129,-0.22820660522273425,-0.029905913978494625,249.28275249615976,-20.281542818740398,-12.053118599590373,-0.5567896215279059,-0.1833248563678955,0.08878996729441883,-0.8052834595133129
320.0,-0.09704813108038915,0.0621321044546851,-0.051666154633896594,-3.3742995391705053,1.9107521761392727,9.00049564772145,-0.07315028161802355,-0.1607462877624168,0.0013664874551971313,249.30023041474655,-20.128702636968768,-11.95871095750128,-0.5570445174951355,-0.1820329259124423,0.08799584709421401,-0.8054803499672303
321.0,-0.10610010240655401,0.07056374807987713,-0.05582386072708656,-3.3592880184331784,1.9050535074244748,9.006054275473627,-0.09158666154633896,-0.1350390424987199,0.019001216077828977,249.30737327188942,-20.045975742447517,-11.913831285202253,-0.5571887557291346,-0.18133035173502293,0.08750417754249873,-0.8055915285227858
322.0,-0.10144700460829492,0.08450691244239633,-0.05911520737327191,-3.3497603686635933,1.902092165898617,9.00865437788018,0.0047811059907834075,-0.09585253456221199,0.004665898617511519,249.31094470046085,-19.987327188940093,-11.893260368663594,-0.5572741538801844,-0.18094381173271878,0.08720348741013825,-0.8056634437972354
323.0,-0.09140092165898617,0.10416589861751155,-0.06150230414746546,-3.348857142857141,1.9005898617511514,9.009760368663592,0.026036866359447002,0.00023041474654377642,-0.012960829493087557,249.3125,-19.988018433179725,-11.896889400921658,-0.5572890611705068,-0.18090820241474648,0.08719178559447006,-0.8056703054009222
324.0,-0.07841474654377881,0.11878341013824889,-0.05777880184331799,-3.3528110599078333,1.8999999999999992,9.009999999999996,0.010714285714285713,0.03882488479262673,-0.03179723502304147,249.3125,-20.003571428571426,-11.908870967741935,-0.5572539579907836,-0.18100743338248848,0.08734468259907835,-0.8056486489769589
325.0,-0.07412903225806453,0.12159447004608295,-0.055087557603686665,-3.366995391705069,1.901327188940091,9.00542857142857,0.06543778801843318,0.12684331797235024,-0.08819124423963134,249.32632488479265,-20.081048387096775,-11.92327188940092,-0.5572697658433181,-0.18148693913364056,0.08786497333640553,-0.8054736446635946
326.0,-0.07665949820788531,0.12005939580133132,-0.05497695852534565,-3.3722887864823345,1.9138535586277516,9.001262672811063,0.16712109575012798,-0.12123015873015872,0.07178699436763952,249.35167050691246,-20.10524193548387,-12.001286482334868,-0.557431151220686,-0.182173589703021,0.08766362265130567,-0.8052308853927291
327.0,-0.0611131592421915,0.0919467485919099,-0.03991705069124426,-3.3717204301075268,1.9417286226318478,8.994276497695857,-0.035131848438300056,0.11280081925243216,0.16504096262160778,249.34959677419357,-20.11059907834101,-12.182296466973886,-0.5573353262416796,-0.18345602208192524,0.08685158361597542,-0.8050920641802355
328.0,-0.08257654889912953,0.06852636968766003,-0.051628264208909376,-3.373189964157705,1.959143881208396,8.988804915514597,-0.01554019457245264,-0.30961981566820274,0.20221454173067077,249.26205197132617,-20.120711725550436,-12.292466717869944,-0.5566547575862772,-0.18419638234613414,0.08654413826113674,-0.8054218167854583
329.0,-0.07457398873527907,0.04852124935995906,-0.044998463901689725,-3.359267793138761,1.976023553507424,8.989374807987716,0.0430363543266769,-0.2517857142857143,0.20421786994367638,249.2227598566308,-20.0342037890425,-12.373278289810546,-0.5564592690051202,-0.184416199421915,0.085549575734255,-0.8056183469042499
330.0,-0.08525012800819254,0.03805785970302101,-0.0450983102918587,-3.3430855094726053,1.9860440348182284,8.994668970814134,0.0546979006656426,-0.17713133640552997,0.15873335893497184,249.20636840757808,-19.927067332309264,-12.42730734767025,-0.5564189589403482,-0.18431707051740917,0.08456420855376347,-0.8057729217608807
331.0,-0.09692473118279571,0.03188479262672812,-0.049680491551459316,-3.330186379928315,1.9881766513056838,8.999881720430107,-0.03393817204301075,-0.11960765488991296,0.13010432667690733,249.19114503328214,-19.85276177675371,-12.435519073220686,-0.5563489759907835,-0.18402859333077318,0.08395372670814133,-0.8059576608300052
332.0,-0.1047711213517665,0.021974654377880192,-0.05022734254992321,-3.3307706093189955,1.990337173579109,8.99880721966206,0.10189612135176651,-0.11403769841269841,0.19097382232462876,249.13330293138762,-19.85823572708653,-12.457304467485919,-0.5559216608709678,-0.18413226686815154,0.0839984151374808,-0.8062197685302097
333.0,-0.09846082949308756,0.018536610343061963,-0.04875166410650284,-3.332401433691755,1.9957286226318482,8.997365079365078,0.08401817716333845,-0.17017409114183307,0.15269457245263696,249.1202188940092,-19.861661546338965,-12.512730414746542,-0.5557241977204304,-0.1844287594869432,0.08390993202662568,-0.8062958193323093
334.0,-0.1131889400921659,0.013475678443420382,-0.04793343573988737,-3.3310947260624673,1.9995002560163846,8.99662263184844,0.07544802867383513,0.08841525857654889,0.09527009728622632,249.12160138248845,-19.863434459805426,-12.53963133640553,-0.5556641748878649,-0.18454884204301078,0.08380325601331284,-0.8063178264679979
335.0,-0.10313364055299538,0.0035903737839221715,-0.04151971326164876,-3.331012800819252,2.0122478238607266,8.993592421915004,0.02833461341525858,-0.3312532002048131,0.1749679979518689,249.11756912442394,-19.857955709165388,-12.607027649769584,-0.5555864325038404,-0.1850524428417819,0.08344252063799282,-0.8062948254091141
336.0,-0.09140655401945724,-0.008844854070660525,-0.03594162826420892,-3.317921658986174,2.016635432667691,8.996717869943677,0.05000320020481311,-0.3858006912442396,0.2649961597542243,249.12036290322578,-19.774670378904247,-12.642421915002561,-0.555627798029698,-0.18485587072299026,0.08270927650128009,-0.8063844500384023
337.0,-0.0880120327700973,-0.01039477726574501,-0.0360399385560676,-3.3004723502304145,2.0189214029697906,9.00385663082437,0.09697740655401946,-0.3019729262672811,0.2408794162826421,249.12334389400917,-19.672819060419865,-12.653641833077316,-0.555713491217614,-0.18448697994674856,0.08186516190962623,-0.8065014558348693
338.0,-0.09501177675371225,-0.007374295954941117,-0.04113876088069639,-3.2760727086533534,2.0249400921658993,9.012322580645161,0.05021761392729134,-0.21714029697900666,0.18766001024065537,249.1179723502304,-19.517716333845364,-12.640328981054786,-0.5558149542693291,-0.18381505737736822,0.08069851915617002,-0.8067070980880697
339.0,-0.10540194572452638,-0.009426011264720941,-0.043039426523297515,-3.2511321044546846,2.0279078341013834,9.020137224782381,0.06254480286738351,-0.24830709165386586,0.18901689708141323,249.1214861751152,-19.366724270353302,-12.633672555043521,-0.5559842672524321,-0.1831218481059909,0.07955330707270866,-0.8068592434710702
340.0,-0.11387147977470562,-0.00846415770609319,-0.04586994367639531,-3.2302388632872496,2.0297880184331802,9.025994879672295,0.04904313876088069,-0.16859479006656428,0.17987711213517665,249.12338709677417,-19.234139784946237,-12.653529825908858,-0.5561151354050178,-0.18263471624654393,0.07854556559626216,-0.806979280435996
341.0,-0.1209636456733231,-0.009812596006144394,-0.04868202764976961,-3.212094214029698,2.030055299539171,9.033495135688682,0.07322708653353814,-0.18613671274961596,0.2207437275985663,249.12419354838707,-19.10771249359959,-12.670794930875577,-0.5562519108612392,-0.1821497645202253,0.07764327472503837,-0.8070738419109064
342.0,-0.1264956477214542,-0.004874039938556067,-0.051179723502304174,-3.1965724526369703,2.0301843317972357,9.037222222222221,0.10614119303635433,-0.1366167434715822,0.1898073476702509,249.12459677419352,-19.026062467997953,-12.679608294930876,-0.5563519579283154,-0.18175346379006657,0.07698441769892472,-0.8071592034761903
343.0,-0.12899897593445983,0.00012980030721966183,-0.050502304147465454,-3.2196779313876105,2.032599078341014,9.028168714797747,0.011509536610343062,0.19010176651305685,0.15725966461853558,249.10748847926266,-19.166372247823862,-12.702073732718894,-0.5561004350194573,-0.18256126802867384,0.0779483436420891,-0.8070506184754225
344.0,-0.11079877112135178,-0.015100870455709174,-0.04287660010240657,-3.305278033794164,2.0196866359446997,8.99974295954941,0.04756144393241167,-0.0055875576036866215,0.05592037890424986,249.14581413210442,-19.697657450076804,-12.655472350230415,-0.5559419991674348,-0.18467815068100357,0.08200392932104456,-0.806260701356887
345.0,-0.09886021505376345,-0.03058269329237073,-0.03496364567332311,-3.2969615975422437,2.0199539170506915,9.003654889912951,-0.05142089093701997,-0.13375576036866357,0.10535074244751663,249.1759600614439,-19.63621351766513,-12.650518433179723,-0.5562746314408601,-0.1844473986584742,0.08150042222734255,-0.8061484677429598
346.0,-0.0975678443420379,-0.04449769585253458,-0.03257552483358936,-3.2852247823860736,2.027700972862263,9.006348182283663,0.005888376856118781,-0.13426779313876086,0.17386072708653352,249.18094598054276,-19.5689452124936,-12.687826420890937,-0.5563342855965181,-0.1843923392288787,0.0808168097562724,-0.8061938761577061
347.0,-0.11923092677931389,-0.05630875576036868,-0.03710803891449054,-3.2683773681515627,2.0340117767537125,9.011376856118789,0.03848566308243727,-0.07027329749103942,0.16360087045570915,249.16218958013312,-19.469380440348182,-12.715312980030722,-0.556296417047107,-0.1841312328678955,0.07995474282744494,-0.8063664247240143
348.0,-0.14392421915002562,-0.06893317972350232,-0.040166922683051734,-3.254875320020481,2.0390058883768556,9.015407322068612,0.04634536610343061,-0.15466429851510496,0.18393177163338453,249.16534018177163,-19.39007616487455,-12.7349606374808,-0.5563417524129544,-0.18392560871966201,0.07923380575473632,-0.80644828238044
349.0,-0.1465488991295443,-0.07630977982590886,-0.039565284178187415,-3.2540809011776766,2.0388474142345108,9.015658986175112,0.04763504864311316,-0.13580709165386584,0.18290450588837687,249.16452252944188,-19.381246799795186,-12.730923579109064,-0.5563320222252943,-0.18386412131694824,0.07922214200256017,-0.8064743498888884
350.0,-0.1312836661546339,-0.06427009728622632,-0.03644162826420892,-3.2728376856118793,2.025875320020481,9.012267281105988,0.05103526625704045,-0.14486207117255503,0.2078405017921147,249.20432347670248,-19.494022017409115,-12.657339669738864,-0.556526657610343,-0.18390529153865842,0.08034621469252431,-0.8062210899905274
351.0,-0.12170814132104454,-0.056879672299027156,-0.035214541730670776,-3.286454685099846,2.0110783410138247,9.010703533026113,-0.007776497695852536,-0.010183051715309782,0.13136200716845878,249.21478494623653,-19.58236047107015,-12.567889144905273,-0.5566095101761392,-0.18366969920122883,0.08137848236866357,-0.8061148527506401
352.0,-0.13113978494623654,-0.05893292370711728,-0.03890220174091144,-3.2877019969278036,2.0009124423963134,9.011563748079872,-0.0013824884792626724,-0.13213645673323093,0.20421786994367636,249.2018625192012,-19.590488991295445,-12.505171530977982,-0.5565798383830003,-0.18331796861443928,0.08170587803686635,-0.8061810188684075
353.0,-0.1349800307219662,-0.05916231438812086,-0.04337736815156172,-3.2768049155145933,2.0062396313364053,9.014611367127495,0.15334101382488477,-0.12433435739887354,0.20945340501792115,249.1839669738863,-19.52433435739887,-12.53997055811572,-0.5565020837306707,-0.18316868457450075,0.0811348482672811,-0.8063304914572453
354.0,-0.12389349718381976,-0.0544951356886841,-0.040130056323604724,-3.2942503840245774,2.0214362519201226,9.004203277009728,0.19683179723502303,0.18169802867383514,-0.2977374551971326,249.2362871223758,-19.6329845110087,-12.64720942140297,-0.5566896370302099,-0.1844361007905786,0.08137144433486942,-0.805882776044547
355.0,-0.10295698924731184,-0.04949129544290837,-0.03286379928315413,-3.3488763440860216,1.9994667178699437,8.989055555555558,0.0259536610343062,-0.2739999359959038,0.2882760496671786,249.30419066820275,-19.964434523809523,-12.535483870967742,-0.5569360359411163,-0.18520620809370195,0.08425272314132105,-0.8052346841825397
356.0,-0.1055668202764977,-0.046210957501280105,-0.032401433691756285,-3.3642672811059904,2.004934971838197,8.98273015873016,0.01029825908858167,-0.07159498207885306,0.14684459805427544,249.21299923195082,-20.05490271377368,-12.582482078853046,-0.5561342057265746,-0.18583143113978495,0.08493267965591395,-0.8055705929482848
357.0,-0.11672811059907837,-0.05116999487967232,-0.03527444956477216,-3.369345622119816,2.0077532002048124,8.980839733742961,-0.010634280593958016,-0.05855094726062468,0.16763312852022527,249.16799155145927,-20.09671979006656,-12.606534818228365,-0.5557616777296467,-0.1860633811827957,0.08514406268509984,-0.8057589747137737
358.0,-0.12910599078341017,-0.06310573476702509,-0.03751280081925245,-3.368709677419355,2.008835125448028,8.979811571940605,0.01841557859703021,-0.06789874551971326,0.16330965181771634,249.14583333333331,-20.079293074756784,-12.61648745519713,-0.5556160302519203,-0.1860453598356374,0.08508394599692781,-0.8058666378960574
359.0,-0.14677137736815157,-0.06700947260624682,-0.04426190476190479,-3.3576405529953917,2.008987455197132,8.98276958525346,0.01925243215565796,-0.0977310547875064,0.17340629800307217,249.1328405017921,-20.01172875064004,-12.602081733230927,-0.5556225670588839,-0.1857134977913466,0.08461679634254993,-0.8059908350097287
360.0,-0.1447342549923195,-0.06145724526369689,-0.04522683051715312,-3.3598955453148993,2.0009677419354834,8.983902713773682,0.03247567844342038,-0.12699052739375322,0.17418074756784435,249.1572580645161,-20.03549027137737,-12.548604710701484,-0.5558133208233489,-0.18548514470660518,0.08495356943471583,-0.8058800066625704
361.0,-0.1259201228878648,-0.05333230926779316,-0.038171018945212506,-3.4261781874039934,1.9953087557603686,8.960315412186382,-0.03157322068612392,0.36020865335381463,0.07868023553507425,249.18444700460827,-20.456195596518178,-12.541641065028163,-0.5556695560430108,-0.18735876546850996,0.08802028980952381,-0.8052118328151563
362.0,-0.10949308755760367,-0.05371530977982593,-0.03323502304147466,-3.4654449564772145,1.9742672811059914,8.950229390681004,0.023233486943164357,-0.10669482846902201,0.1491615463389657,249.24074500768046,-20.69836149513569,-12.421134152585765,-0.5558885512688173,-0.18770599421915002,0.09024871349513569,-0.8047296776835638
363.0,-0.09432923707117255,-0.0451530977982591,-0.026868407578085004,-3.475296466973886,1.956147977470558,8.950777777777777,-0.012573604710701486,-0.22860343061955962,0.1839957757296467,249.24738863287251,-20.757987711213516,-12.32862263184844,-0.5559697120721967,-0.1872659814045059,0.09112556589452123,-0.804687579269841
364.0,-0.08258397337429596,-0.04341525857654892,-0.021024065540194578,-3.481735791090628,1.943258320532514,8.950987967229901,0.06424891193036354,-0.076600102406554,0.19366839477726575,249.2507104454685,-20.79290514592934,-12.241385048643114,-0.5560589458978495,-0.18686978906630825,0.09177219028827444,-0.804649540045059
365.0,-0.07942601126472096,-0.03894982078853048,-0.020689708141321046,-3.4932196620583715,1.9381280081925245,8.948164362519199,0.016733870967741933,-0.10001600102406553,0.16740271377368152,249.2513632872504,-20.86174795186892,-12.209514208909368,-0.5559931416559141,-0.18697772899897597,0.09243047104659496,-0.8045886430983102
366.0,-0.09048259088581669,-0.04499564772145419,-0.024589093701996932,-3.4920706605222733,1.9330916538658478,8.949423195084481,-0.023315092165898613,-0.08359094982078853,0.1844214029697901,249.25134408602153,-20.843834805427548,-12.192861943164363,-0.5559641168417818,-0.18672993852252945,0.09246815518228366,-0.8046604057334868
367.0,-0.0920378904249872,-0.049151049667178724,-0.02373271889400922,-3.4841267281105983,1.9297089093701998,8.953004608294929,-0.05587237583205325,-0.10807571684587813,0.2481806835637481,249.23118279569894,-20.802321748591908,-12.163999295954941,-0.5558851606520737,-0.1863448108965694,0.0922940720893497,-0.8048254481310804
368.0,-0.08673835125448029,-0.04151459293394778,-0.022143369175627238,-3.5324741423451096,1.915974398361495,8.936130056323602,-0.07605606758832564,0.6215245775729648,0.04224910394265234,249.16685867895546,-21.110944700460827,-12.099193548387095,-0.5551827130691245,-0.18723614566717872,0.09495203295238094,-0.8047852755043521
369.0,-0.10096159754224268,-0.03885202252944189,-0.02457245263696877,-3.622592933947772,1.8988550947260627,8.904031746031745,0.06817716333845367,0.2693164362519201,0.0922427035330261,249.14122503840247,-21.67876984126984,-12.026280081925243,-0.5544707610506912,-0.1892534178013313,0.09949139904147464,-0.8042415841976446
